key_resp.keys,key_resp.rt,key_resp_14.keys,key_resp_14.rt,key_resp_15.keys,key_resp_15.rt,key_resp_17.keys,key_resp_17.rt,key_resp_9.keys,key_resp_9.rt,key_resp_10.keys,key_resp_10.rt,practice_comparison,Ecc,mouse_5.x,mouse_5.y,mouse_5.leftButton,mouse_5.midButton,mouse_5.rightButton,mouse_5.clicked_name,pracsimilarity,response_time,mouse_10.x,mouse_10.y,mouse_10.leftButton,mouse_10.midButton,mouse_10.rightButton,mouse_10.clicked_name,mouse_7.x,mouse_7.y,mouse_7.leftButton,mouse_7.midButton,mouse_7.rightButton,mouse_6.x,mouse_6.y,mouse_6.leftButton,mouse_6.midButton,mouse_6.rightButton,duringprac.thisRepN,duringprac.thisTrialN,duringprac.thisN,duringprac.thisIndex,duringprac.ran,participant,session,date,expName,psychopyVersion,OS,frameRate,study_id,mouse_7.clicked_name,catchpracsimilarity,catch_response_time,catchnumberprac,catchtrialorderprac,mouse_6.clicked_name,key_resp_22.keys,key_resp_22.rt,realcomparison,mouse.x,mouse.y,mouse.leftButton,mouse.midButton,mouse.rightButton,mouse.clicked_name,Colour2,similarity,mouse_2.x,mouse_2.y,mouse_2.leftButton,mouse_2.midButton,mouse_2.rightButton,mouse_2.clicked_name,mouse_3.x,mouse_3.y,mouse_3.leftButton,mouse_3.midButton,mouse_3.rightButton,mouse_11.x,mouse_11.y,mouse_11.leftButton,mouse_11.midButton,mouse_11.rightButton,trials_2.thisRepN,trials_2.thisTrialN,trials_2.thisN,trials_2.thisIndex,trials_2.ran,Colour1,mouse_3.clicked_name,catchornah,catchsimilarity,catchnumber,catchtrialorder,catchRT,mouse_11.clicked_name
space,5.9189,space,14.3175,space,16.4338,space,6.0423,space,0.7875,space,2.7521,153,PF,-97.1171875,-54.421875,1,0,0,response5disk_5,2,6.0851,22.98046875,-2.65234375,1,0,0,rectangle_8,22.98046875,-2.65234375,1,0,0,22.98046875,-2.65234375,1,0,0,0,0,0,1,1,610311f4fce391260a339321,61036bd0b6a3c9acf7e18597,2021-07-29_22h04.06.006,Simcolourproject_2stim_asymm_v5,2020.2.10,MacIntel,60,61025ae37ef11b136ea224fe,,,,,,,,,,,,,,,,,,,,,,,,,,,,,,,,,,,,,,,,,,,,,,
,,,,,,,,,,,,63,PF,-80.17578125,-36.17578125,1,0,0,response5disk_5,2,2.2167,7.28125,1.03125,1,0,0,rectangle_8,-80.421875,-43.10546875,1,0,0,-8.8984375,-13.25,1,0,0,0,1,1,6,1,610311f4fce391260a339321,61036bd0b6a3c9acf7e18597,2021-07-29_22h04.06.006,Simcolourproject_2stim_asymm_v5,2020.2.10,MacIntel,60,61025ae37ef11b136ea224fe,response5disk_7,2,2.2882,2,"[2,5]",rectangle_4,,,,,,,,,,,,,,,,,,,,,,,,,,,,,,,,,,,,,,,,
,,,,,,,,,,,,103,FF,48.25390625,-66.74609375,1,0,0,response3disk_5,4,5.7184,16.63671875,-0.90625,1,0,0,rectangle_8,16.63671875,-0.90625,1,0,0,16.63671875,-0.90625,1,0,0,0,2,2,5,1,610311f4fce391260a339321,61036bd0b6a3c9acf7e18597,2021-07-29_22h04.06.006,Simcolourproject_2stim_asymm_v5,2020.2.10,MacIntel,60,61025ae37ef11b136ea224fe,,,,,,,,,,,,,,,,,,,,,,,,,,,,,,,,,,,,,,,,,,,,,,
,,,,,,,,,,,,55,FF,-75.9296875,-51.484375,1,0,0,response5disk_5,2,1.3482,-7.69140625,-7.62109375,1,0,0,rectangle_8,-7.69140625,-7.62109375,1,0,0,-7.69140625,-7.62109375,1,0,0,0,3,3,3,1,610311f4fce391260a339321,61036bd0b6a3c9acf7e18597,2021-07-29_22h04.06.006,Simcolourproject_2stim_asymm_v5,2020.2.10,MacIntel,60,61025ae37ef11b136ea224fe,,,,,,,,,,,,,,,,,,,,,,,,,,,,,,,,,,,,,,,,,,,,,,
,,,,,,,,,,,,20,FF,105.0039063,64.6015625,1,0,0,response1disk_5,6,3.2407,-15.203125,-6.2265625,1,0,0,rectangle_8,-78.86328125,-36.7109375,1,0,0,-10.14453125,-8.35546875,1,0,0,0,4,4,0,1,610311f4fce391260a339321,61036bd0b6a3c9acf7e18597,2021-07-29_22h04.06.006,Simcolourproject_2stim_asymm_v5,2020.2.10,MacIntel,60,61025ae37ef11b136ea224fe,response5disk_7,2,1.9249,2,"[2,5]",rectangle_4,,,,,,,,,,,,,,,,,,,,,,,,,,,,,,,,,,,,,,,,
,,,,,,,,,,,,6,PF,-44.87109375,-109.25,1,0,0,response5disk_5,3,1.8056,0.30859375,6.01953125,1,0,0,rectangle_8,0.30859375,6.01953125,1,0,0,0.30859375,6.01953125,1,0,0,0,5,5,4,1,610311f4fce391260a339321,61036bd0b6a3c9acf7e18597,2021-07-29_22h04.06.006,Simcolourproject_2stim_asymm_v5,2020.2.10,MacIntel,60,61025ae37ef11b136ea224fe,,,,,,,,,,,,,,,,,,,,,,,,,,,,,,,,,,,,,,,,,,,,,,
,,,,,,,,,,,,112,PF,-92.27734375,-42.296875,1,0,0,response5disk_5,2,1.8988,-1.76171875,-1.78515625,1,0,0,rectangle_8,-1.76171875,-1.78515625,1,0,0,-1.76171875,-1.78515625,1,0,0,0,6,6,2,1,610311f4fce391260a339321,61036bd0b6a3c9acf7e18597,2021-07-29_22h04.06.006,Simcolourproject_2stim_asymm_v5,2020.2.10,MacIntel,60,61025ae37ef11b136ea224fe,,,,,,,,,,,,,,,,,,,,,,,,,,,,,,,,,,,,,,,,,,,,,,
,,,,,,,,,,,,,FF,,,,,,,,3.8764,,,,,,,,,,,,,,,,,,,,,,610311f4fce391260a339321,61036bd0b6a3c9acf7e18597,2021-07-29_22h04.06.006,Simcolourproject_2stim_asymm_v5,2020.2.10,MacIntel,60,61025ae37ef11b136ea224fe,,,,,,,space,2.9387,4115,116.4648438,-50.6875,1,0,0,response3disk,,5,17.03515625,4.06640625,1,0,0,rectangle,17.03515625,4.06640625,1,0,0,17.03515625,4.06640625,1,0,0,0,0,0,108,1,,,,,,,,
,,,,,,,,,,,,,FF,,,,,,,,1.7787,,,,,,,,,,,,,,,,,,,,,,610311f4fce391260a339321,61036bd0b6a3c9acf7e18597,2021-07-29_22h04.06.006,Simcolourproject_2stim_asymm_v5,2020.2.10,MacIntel,60,61025ae37ef11b136ea224fe,,,,,,,,,1839,-39.7421875,-95.890625,1,0,0,response5disk,,3,-2.35546875,7.765625,1,0,0,rectangle,-2.35546875,7.765625,1,0,0,-2.35546875,7.765625,1,0,0,0,1,1,151,1,,,,,,,,
,,,,,,,,,,,,,FF,,,,,,,,1.1891,,,,,,,,,,,,,,,,,,,,,,610311f4fce391260a339321,61036bd0b6a3c9acf7e18597,2021-07-29_22h04.06.006,Simcolourproject_2stim_asymm_v5,2020.2.10,MacIntel,60,61025ae37ef11b136ea224fe,,,,,,,,,700,-83.046875,-40.8203125,1,0,0,response5disk,,2,-17.07421875,1.3515625,1,0,0,rectangle,-17.07421875,1.3515625,1,0,0,-17.07421875,1.3515625,1,0,0,0,2,2,122,1,,,,,,,,
,,,,,,,,,,,,,FF,,,,,,,,1.0853,,,,,,,,,,,,,,,,,,,,,,610311f4fce391260a339321,61036bd0b6a3c9acf7e18597,2021-07-29_22h04.06.006,Simcolourproject_2stim_asymm_v5,2020.2.10,MacIntel,60,61025ae37ef11b136ea224fe,,,,,,,,,3000,-75.28125,47.3828125,1,0,0,response7disk,,1,-5.09765625,3.72265625,1,0,0,rectangle,-5.09765625,3.72265625,1,0,0,-5.09765625,3.72265625,1,0,0,0,3,3,113,1,,,,,,,,
,,,,,,,,,,,,,FF,,,,,,,,1.4749,,,,,,,,,,,,,,,,,,,,,,610311f4fce391260a339321,61036bd0b6a3c9acf7e18597,2021-07-29_22h04.06.006,Simcolourproject_2stim_asymm_v5,2020.2.10,MacIntel,60,61025ae37ef11b136ea224fe,,,,,,,,,3200,-34.2890625,-82.40234375,1,0,0,response5disk,,3,-5.18359375,2.4765625,1,0,0,rectangle,-5.18359375,2.4765625,1,0,0,-5.18359375,2.4765625,1,0,0,0,4,4,63,1,,,,,,,,
,,,,,,,,,,,,,FF,,,,,,,,1.4413,,,,,,,,,,,,,,,,,,,,,,610311f4fce391260a339321,61036bd0b6a3c9acf7e18597,2021-07-29_22h04.06.006,Simcolourproject_2stim_asymm_v5,2020.2.10,MacIntel,60,61025ae37ef11b136ea224fe,,,,,,,,,3905,114.046875,77.6015625,1,0,0,response1disk,,6,-11.421875,-10.54296875,1,0,0,rectangle,-11.421875,-10.54296875,1,0,0,-11.421875,-10.54296875,1,0,0,0,5,5,82,1,,,,,,,,
,,,,,,,,,,,,,FF,,,,,,,,1.8477,,,,,,,,,,,,,,,,,,,,,,610311f4fce391260a339321,61036bd0b6a3c9acf7e18597,2021-07-29_22h04.06.006,Simcolourproject_2stim_asymm_v5,2020.2.10,MacIntel,60,61025ae37ef11b136ea224fe,,,,,,,,,1425,-42.95703125,-81.3828125,1,0,0,response5disk,,3,-20.15234375,-10.03125,1,0,0,rectangle,-20.15234375,-10.03125,1,0,0,-20.15234375,-10.03125,1,0,0,0,6,6,139,1,,,,,,,,
,,,,,,,,,,,,,FF,,,,,,,,1.2987,,,,,,,,,,,,,,,,,,,,,,610311f4fce391260a339321,61036bd0b6a3c9acf7e18597,2021-07-29_22h04.06.006,Simcolourproject_2stim_asymm_v5,2020.2.10,MacIntel,60,61025ae37ef11b136ea224fe,,,,,,,,,819,-51.19921875,-84.125,1,0,0,response5disk,,3,-6.828125,-3.1875,1,0,0,rectangle,-6.828125,-3.1875,1,0,0,-6.828125,-3.1875,1,0,0,0,7,7,94,1,,,,,,,,
,,,,,,,,,,,,,FF,,,,,,,,1.4014,,,,,,,,,,,,,,,,,,,,,,610311f4fce391260a339321,61036bd0b6a3c9acf7e18597,2021-07-29_22h04.06.006,Simcolourproject_2stim_asymm_v5,2020.2.10,MacIntel,60,61025ae37ef11b136ea224fe,,,,,,,,,1323,88.375,-68.2890625,1,0,0,response3disk,,5,18.5546875,-4.77734375,1,0,0,rectangle,18.5546875,-4.77734375,1,0,0,18.5546875,-4.77734375,1,0,0,0,8,8,79,1,,,,,,,,
,,,,,,,,,,,,,FF,,,,,,,,1.0086,,,,,,,,,,,,,,,,,,,,,,610311f4fce391260a339321,61036bd0b6a3c9acf7e18597,2021-07-29_22h04.06.006,Simcolourproject_2stim_asymm_v5,2020.2.10,MacIntel,60,61025ae37ef11b136ea224fe,,,,,,,,,1611,-53.078125,31.796875,1,0,0,response7disk,,1,26.12890625,-3.875,1,0,0,rectangle,26.12890625,-3.875,1,0,0,26.12890625,-3.875,1,0,0,0,9,9,9,1,,,,,,,,
,,,,,,,,,,,,,FF,,,,,,,,1.234,,,,,,,,,,,,,,,,,,,,,,610311f4fce391260a339321,61036bd0b6a3c9acf7e18597,2021-07-29_22h04.06.006,Simcolourproject_2stim_asymm_v5,2020.2.10,MacIntel,60,61025ae37ef11b136ea224fe,,,,,,,,,1416,121.2109375,43.734375,1,0,0,response1disk,,6,-6.1640625,11.24609375,1,0,0,rectangle,-6.1640625,11.24609375,1,0,0,-6.1640625,11.24609375,1,0,0,0,10,10,107,1,,,,,,,,
,,,,,,,,,,,,,FF,,,,,,,,1.0302,,,,,,,,,,,,,,,,,,,,,,610311f4fce391260a339321,61036bd0b6a3c9acf7e18597,2021-07-29_22h04.06.006,Simcolourproject_2stim_asymm_v5,2020.2.10,MacIntel,60,61025ae37ef11b136ea224fe,,,,,,,,,101,-41.65625,-78.328125,1,0,0,response5disk,,3,-17.26953125,0.25390625,1,0,0,rectangle,-17.26953125,0.25390625,1,0,0,-17.26953125,0.25390625,1,0,0,0,11,11,131,1,,,,,,,,
,,,,,,,,,,,,,FF,,,,,,,,0.86,,,,,,,,,,,,,,,,,,,,,,610311f4fce391260a339321,61036bd0b6a3c9acf7e18597,2021-07-29_22h04.06.006,Simcolourproject_2stim_asymm_v5,2020.2.10,MacIntel,60,61025ae37ef11b136ea224fe,,,,,,,,,0,-42.9921875,90.73046875,1,0,0,response7disk,,0,-18.90234375,-6.1875,1,0,0,rectangle,-18.90234375,-6.1875,1,0,0,-18.90234375,-6.1875,1,0,0,0,12,12,123,1,,,,,,,,
,,,,,,,,,,,,,FF,,,,,,,,2.1835,,,,,,,,,,,,,,,,,,,,,,610311f4fce391260a339321,61036bd0b6a3c9acf7e18597,2021-07-29_22h04.06.006,Simcolourproject_2stim_asymm_v5,2020.2.10,MacIntel,60,61025ae37ef11b136ea224fe,,,,,,,,,4087,38.5625,-84.71484375,1,0,0,response3disk,,4,15.3046875,0.43359375,1,0,0,rectangle,15.3046875,0.43359375,1,0,0,15.3046875,0.43359375,1,0,0,0,13,13,117,1,,,,,,,,
,,,,,,,,,,,,,FF,,,,,,,,1.351,,,,,,,,,,,,,,,,,,,,,,610311f4fce391260a339321,61036bd0b6a3c9acf7e18597,2021-07-29_22h04.06.006,Simcolourproject_2stim_asymm_v5,2020.2.10,MacIntel,60,61025ae37ef11b136ea224fe,,,,,,,,,4006,-60.75,-75.8671875,1,0,0,response5disk,,3,-35.98828125,-11.50390625,1,0,0,rectangle,-35.98828125,-11.50390625,1,0,0,-35.98828125,-11.50390625,1,0,0,0,14,14,2,1,,,,,,,,
,,,,,,,,,,,,,FF,,,,,,,,2.0047,,,,,,,,,,,,,,,,,,,,,,610311f4fce391260a339321,61036bd0b6a3c9acf7e18597,2021-07-29_22h04.06.006,Simcolourproject_2stim_asymm_v5,2020.2.10,MacIntel,60,61025ae37ef11b136ea224fe,,,,,,,,,3043,67.63671875,90.64453125,1,0,0,response1disk,,7,-1.58203125,5.98828125,1,0,0,rectangle,-1.58203125,5.98828125,1,0,0,-1.58203125,5.98828125,1,0,0,0,15,15,126,1,,,,,,,,
,,,,,,,,,,,,,FF,,,,,,,,1.3854,,,,,,,,,,,,,,,,,,,,,,610311f4fce391260a339321,61036bd0b6a3c9acf7e18597,2021-07-29_22h04.06.006,Simcolourproject_2stim_asymm_v5,2020.2.10,MacIntel,60,61025ae37ef11b136ea224fe,,,,,,,,,2163,-76.8203125,-44.64453125,1,0,0,response5disk,,2,-14.125,0.296875,1,0,0,rectangle,-14.125,0.296875,1,0,0,-14.125,0.296875,1,0,0,0,16,16,48,1,,,,,,,,
,,,,,,,,,,,,,FF,,,,,,,,1.3396,,,,,,,,,,,,,,,,,,,,,,610311f4fce391260a339321,61036bd0b6a3c9acf7e18597,2021-07-29_22h04.06.006,Simcolourproject_2stim_asymm_v5,2020.2.10,MacIntel,60,61025ae37ef11b136ea224fe,,,,,,,,,1075,64.26953125,-87.41015625,1,0,0,response3disk,,4,32.63671875,7.15234375,1,0,0,rectangle,32.63671875,7.15234375,1,0,0,32.63671875,7.15234375,1,0,0,0,17,17,49,1,,,,,,,,
,,,,,,,,,,,,,FF,,,,,,,,1.2714,,,,,,,,,,,,,,,,,,,,,,610311f4fce391260a339321,61036bd0b6a3c9acf7e18597,2021-07-29_22h04.06.006,Simcolourproject_2stim_asymm_v5,2020.2.10,MacIntel,60,61025ae37ef11b136ea224fe,,,,,,,,,1205,-63.7109375,-79.26171875,1,0,0,response5disk,,3,-8.58984375,3.80859375,1,0,0,rectangle,-8.58984375,3.80859375,1,0,0,-8.58984375,3.80859375,1,0,0,0,18,18,109,1,,,,,,,,
,,,,,,,,,,,,,FF,,,,,,,,1.5172,,,,,,,,,,,,,,,,,,,,,,610311f4fce391260a339321,61036bd0b6a3c9acf7e18597,2021-07-29_22h04.06.006,Simcolourproject_2stim_asymm_v5,2020.2.10,MacIntel,60,61025ae37ef11b136ea224fe,,,,,,,,,3563,-23.578125,-68.8984375,1,0,0,response5disk,,3,-6.78515625,-10.72265625,1,0,0,rectangle,-6.78515625,-10.72265625,1,0,0,-6.78515625,-10.72265625,1,0,0,0,19,19,72,1,,,,,,,,
,,,,,,,,,,,,,FF,,,,,,,,1.2733,,,,,,,,,,,,,,,,,,,,,,610311f4fce391260a339321,61036bd0b6a3c9acf7e18597,2021-07-29_22h04.06.006,Simcolourproject_2stim_asymm_v5,2020.2.10,MacIntel,60,61025ae37ef11b136ea224fe,,,,,,,,,414,104.8242188,47.19140625,1,0,0,response1disk,,6,15,-2.609375,1,0,0,rectangle,15,-2.609375,1,0,0,15,-2.609375,1,0,0,0,20,20,144,1,,,,,,,,
,,,,,,,,,,,,,FF,,,,,,,,2.0138,,,,,,,,,,,,,,,,,,,,,,610311f4fce391260a339321,61036bd0b6a3c9acf7e18597,2021-07-29_22h04.06.006,Simcolourproject_2stim_asymm_v5,2020.2.10,MacIntel,60,61025ae37ef11b136ea224fe,,,,,,,,,4329,-33.51171875,-72.1875,1,0,0,response5disk,,3,-11.66796875,-5.703125,1,0,0,rectangle,-11.66796875,-5.703125,1,0,0,-11.66796875,-5.703125,1,0,0,0,21,21,150,1,,,,,,,,
,,,,,,,,,,,,,FF,,,,,,,,0.7262,,,,,,,,,,,,,,,,,,,,,,610311f4fce391260a339321,61036bd0b6a3c9acf7e18597,2021-07-29_22h04.06.006,Simcolourproject_2stim_asymm_v5,2020.2.10,MacIntel,60,61025ae37ef11b136ea224fe,,,,,,,,,3843,-38.83984375,76.69140625,1,0,0,response7disk,,0,-27.609375,-17.54296875,1,0,0,rectangle,-27.609375,-17.54296875,1,0,0,-27.609375,-17.54296875,1,0,0,0,22,22,99,1,,,,,,,,
,,,,,,,,,,,,,FF,,,,,,,,1.4707,,,,,,,,,,,,,,,,,,,,,,610311f4fce391260a339321,61036bd0b6a3c9acf7e18597,2021-07-29_22h04.06.006,Simcolourproject_2stim_asymm_v5,2020.2.10,MacIntel,60,61025ae37ef11b136ea224fe,,,,,,,,,866,94.09765625,-34.6953125,1,0,0,response3disk,,5,39.125,7.359375,1,0,0,rectangle,39.125,7.359375,1,0,0,39.125,7.359375,1,0,0,0,23,23,102,1,,,,,,,,
,,,,,,,,,,,,,FF,,,,,,,,3.4891,,,,,,,,,,,,,,,,,,,,,,610311f4fce391260a339321,61036bd0b6a3c9acf7e18597,2021-07-29_22h04.06.006,Simcolourproject_2stim_asymm_v5,2020.2.10,MacIntel,60,61025ae37ef11b136ea224fe,,,,,,,,,1698,-76.23046875,42.75390625,1,0,0,response7disk,,1,-3.26953125,6.73828125,1,0,0,rectangle,-3.26953125,6.73828125,1,0,0,-3.26953125,6.73828125,1,0,0,0,24,24,32,1,,,,,,,,
,,,,,,,,,,,,,FF,,,,,,,,0.7448,,,,,,,,,,,,,,,,,,,,,,610311f4fce391260a339321,61036bd0b6a3c9acf7e18597,2021-07-29_22h04.06.006,Simcolourproject_2stim_asymm_v5,2020.2.10,MacIntel,60,61025ae37ef11b136ea224fe,,,,,,,,,622,-66.4609375,38.1640625,1,0,0,response7disk,,1,-16.59765625,7.6015625,1,0,0,rectangle,-16.59765625,7.6015625,1,0,0,-16.59765625,7.6015625,1,0,0,0,25,25,66,1,,,,,,,,
,,,,,,,,,,,,,FF,,,,,,,,1.1383,,,,,,,,,,,,,,,,,,,,,,610311f4fce391260a339321,61036bd0b6a3c9acf7e18597,2021-07-29_22h04.06.006,Simcolourproject_2stim_asymm_v5,2020.2.10,MacIntel,60,61025ae37ef11b136ea224fe,,,,,,,,,1348,117.8125,-35.87109375,1,0,0,response3disk,,5,2.71484375,4.20703125,1,0,0,rectangle,2.71484375,4.20703125,1,0,0,2.71484375,4.20703125,1,0,0,0,26,26,1,1,,,,,,,,
,,,,,,,,,,,,,FF,,,,,,,,1.5665,,,,,,,,,,,,,,,,,,,,,,610311f4fce391260a339321,61036bd0b6a3c9acf7e18597,2021-07-29_22h04.06.006,Simcolourproject_2stim_asymm_v5,2020.2.10,MacIntel,60,61025ae37ef11b136ea224fe,,,,,,,,,950,45.02734375,-113.8046875,1,0,0,response3disk,,4,-3.6484375,3.953125,1,0,0,rectangle,-3.6484375,3.953125,1,0,0,-3.6484375,3.953125,1,0,0,0,27,27,27,1,,,,,,,,
,,,,,,,,,,,,,FF,,,,,,,,1.0695,,,,,,,,,,,,,,,,,,,,,,610311f4fce391260a339321,61036bd0b6a3c9acf7e18597,2021-07-29_22h04.06.006,Simcolourproject_2stim_asymm_v5,2020.2.10,MacIntel,60,61025ae37ef11b136ea224fe,,,,,,,,,1135,-70.09375,44.8203125,1,0,0,response7disk,,1,4.55859375,4.4140625,1,0,0,rectangle,4.55859375,4.4140625,1,0,0,4.55859375,4.4140625,1,0,0,0,28,28,62,1,,,,,,,,
,,,,,,,,,,,,,FF,,,,,,,,1.6744,,,,,,,,,,,,,,,,,,,,,,610311f4fce391260a339321,61036bd0b6a3c9acf7e18597,2021-07-29_22h04.06.006,Simcolourproject_2stim_asymm_v5,2020.2.10,MacIntel,60,61025ae37ef11b136ea224fe,,,,,,,,,285,-61.421875,-55.9765625,1,0,0,response5disk,,2,2.7734375,-11.1328125,1,0,0,rectangle,91.27734375,-46.3828125,1,0,0,-8.734375,15.2421875,1,0,0,0,29,29,73,1,,response3disk_3,TRUE,5,5,"[107,97,229,108,117,203,189,243,30,63,118,43,227,295,81,316,52,96,52,279]",2.294,rectangle
,,,,,,,,,,,,,FF,,,,,,,,1.465,,,,,,,,,,,,,,,,,,,,,,610311f4fce391260a339321,61036bd0b6a3c9acf7e18597,2021-07-29_22h04.06.006,Simcolourproject_2stim_asymm_v5,2020.2.10,MacIntel,60,61025ae37ef11b136ea224fe,,,,,,,,,2689,56.00390625,-61.9609375,1,0,0,response3disk,,4,21.76953125,-0.94921875,1,0,0,rectangle,21.76953125,-0.94921875,1,0,0,21.76953125,-0.94921875,1,0,0,0,30,30,57,1,,,,,,,,
,,,,,,,,,,,,,FF,,,,,,,,1.4458,,,,,,,,,,,,,,,,,,,,,,610311f4fce391260a339321,61036bd0b6a3c9acf7e18597,2021-07-29_22h04.06.006,Simcolourproject_2stim_asymm_v5,2020.2.10,MacIntel,60,61025ae37ef11b136ea224fe,,,,,,,,,2738,64.8515625,-62.94921875,1,0,0,response3disk,,5,21.828125,-15.328125,1,0,0,rectangle,21.828125,-15.328125,1,0,0,21.828125,-15.328125,1,0,0,0,31,31,134,1,,,,,,,,
,,,,,,,,,,,,,FF,,,,,,,,0.7667,,,,,,,,,,,,,,,,,,,,,,610311f4fce391260a339321,61036bd0b6a3c9acf7e18597,2021-07-29_22h04.06.006,Simcolourproject_2stim_asymm_v5,2020.2.10,MacIntel,60,61025ae37ef11b136ea224fe,,,,,,,,,744,49.9453125,-108.6171875,1,0,0,response3disk,,4,22.69921875,3.8046875,1,0,0,rectangle,22.69921875,3.8046875,1,0,0,22.69921875,3.8046875,1,0,0,0,32,32,18,1,,,,,,,,
,,,,,,,,,,,,,FF,,,,,,,,1.3337,,,,,,,,,,,,,,,,,,,,,,610311f4fce391260a339321,61036bd0b6a3c9acf7e18597,2021-07-29_22h04.06.006,Simcolourproject_2stim_asymm_v5,2020.2.10,MacIntel,60,61025ae37ef11b136ea224fe,,,,,,,,,3467,65.16796875,38.73828125,1,0,0,response1disk,,6,-18.26953125,3.03125,1,0,0,rectangle,-18.26953125,3.03125,1,0,0,-18.26953125,3.03125,1,0,0,0,33,33,105,1,,,,,,,,
,,,,,,,,,,,,,FF,,,,,,,,1.1359,,,,,,,,,,,,,,,,,,,,,,610311f4fce391260a339321,61036bd0b6a3c9acf7e18597,2021-07-29_22h04.06.006,Simcolourproject_2stim_asymm_v5,2020.2.10,MacIntel,60,61025ae37ef11b136ea224fe,,,,,,,,,3007,-47.7890625,-78.03125,1,0,0,response5disk,,3,-19.9453125,-10.05078125,1,0,0,rectangle,-19.9453125,-10.05078125,1,0,0,-19.9453125,-10.05078125,1,0,0,0,34,34,50,1,,,,,,,,
,,,,,,,,,,,,,FF,,,,,,,,1.5898,,,,,,,,,,,,,,,,,,,,,,610311f4fce391260a339321,61036bd0b6a3c9acf7e18597,2021-07-29_22h04.06.006,Simcolourproject_2stim_asymm_v5,2020.2.10,MacIntel,60,61025ae37ef11b136ea224fe,,,,,,,,,3891,106.3789063,50.40625,1,0,0,response1disk,,6,1.671875,-10.73046875,1,0,0,rectangle,1.671875,-10.73046875,1,0,0,1.671875,-10.73046875,1,0,0,0,35,35,132,1,,,,,,,,
,,,,,,,,,,,,,FF,,,,,,,,1.0714,,,,,,,,,,,,,,,,,,,,,,610311f4fce391260a339321,61036bd0b6a3c9acf7e18597,2021-07-29_22h04.06.006,Simcolourproject_2stim_asymm_v5,2020.2.10,MacIntel,60,61025ae37ef11b136ea224fe,,,,,,,,,781,-25.30859375,-62.74609375,1,0,0,response5disk,,3,-18.86328125,-13.86328125,1,0,0,rectangle,-18.86328125,-13.86328125,1,0,0,-18.86328125,-13.86328125,1,0,0,0,36,36,141,1,,,,,,,,
,,,,,,,,,,,,,FF,,,,,,,,1.5362,,,,,,,,,,,,,,,,,,,,,,610311f4fce391260a339321,61036bd0b6a3c9acf7e18597,2021-07-29_22h04.06.006,Simcolourproject_2stim_asymm_v5,2020.2.10,MacIntel,60,61025ae37ef11b136ea224fe,,,,,,,,,302,111.5351563,-44.0703125,1,0,0,response3disk,,5,22.71484375,-4.640625,1,0,0,rectangle,22.71484375,-4.640625,1,0,0,22.71484375,-4.640625,1,0,0,0,37,37,114,1,,,,,,,,
,,,,,,,,,,,,,FF,,,,,,,,1.5251,,,,,,,,,,,,,,,,,,,,,,610311f4fce391260a339321,61036bd0b6a3c9acf7e18597,2021-07-29_22h04.06.006,Simcolourproject_2stim_asymm_v5,2020.2.10,MacIntel,60,61025ae37ef11b136ea224fe,,,,,,,,,573,68.3828125,-30.1171875,1,0,0,response3disk,,5,9.16796875,7.58203125,1,0,0,rectangle,9.16796875,7.58203125,1,0,0,9.16796875,7.58203125,1,0,0,0,38,38,35,1,,,,,,,,
,,,,,,,,,,,,,FF,,,,,,,,1.8667,,,,,,,,,,,,,,,,,,,,,,610311f4fce391260a339321,61036bd0b6a3c9acf7e18597,2021-07-29_22h04.06.006,Simcolourproject_2stim_asymm_v5,2020.2.10,MacIntel,60,61025ae37ef11b136ea224fe,,,,,,,,,2175,40.09375,-45.71875,1,0,0,response3disk,,4,-6.5625,10.44140625,1,0,0,rectangle,-6.5625,10.44140625,1,0,0,-6.5625,10.44140625,1,0,0,0,39,39,6,1,,,,,,,,
,,,,,,,,,,,,,FF,,,,,,,,1.02,,,,,,,,,,,,,,,,,,,,,,610311f4fce391260a339321,61036bd0b6a3c9acf7e18597,2021-07-29_22h04.06.006,Simcolourproject_2stim_asymm_v5,2020.2.10,MacIntel,60,61025ae37ef11b136ea224fe,,,,,,,,,454,35.359375,75.59765625,1,0,0,response1disk,,7,-9.91015625,3.7109375,1,0,0,rectangle,-9.91015625,3.7109375,1,0,0,-9.91015625,3.7109375,1,0,0,0,40,40,65,1,,,,,,,,
,,,,,,,,,,,,,FF,,,,,,,,1.2149,,,,,,,,,,,,,,,,,,,,,,610311f4fce391260a339321,61036bd0b6a3c9acf7e18597,2021-07-29_22h04.06.006,Simcolourproject_2stim_asymm_v5,2020.2.10,MacIntel,60,61025ae37ef11b136ea224fe,,,,,,,,,995,57.91015625,-89.20703125,1,0,0,response3disk,,4,27.99609375,7.484375,1,0,0,rectangle,27.99609375,7.484375,1,0,0,27.99609375,7.484375,1,0,0,0,41,41,133,1,,,,,,,,
,,,,,,,,,,,,,FF,,,,,,,,1.0663,,,,,,,,,,,,,,,,,,,,,,610311f4fce391260a339321,61036bd0b6a3c9acf7e18597,2021-07-29_22h04.06.006,Simcolourproject_2stim_asymm_v5,2020.2.10,MacIntel,60,61025ae37ef11b136ea224fe,,,,,,,,,1675,-80.828125,-59.5625,1,0,0,response5disk,,2,-37.76953125,-1.05078125,1,0,0,rectangle,114.4257813,38.90625,1,0,0,20.5546875,-2.66015625,1,0,0,0,42,42,91,1,,response1disk_3,TRUE,6,6,"[107,97,229,108,117,203,189,243,30,63,118,43,227,295,81,316,52,96,52,279]",1.8607,rectangle
,,,,,,,,,,,,,FF,,,,,,,,1.3804,,,,,,,,,,,,,,,,,,,,,,610311f4fce391260a339321,61036bd0b6a3c9acf7e18597,2021-07-29_22h04.06.006,Simcolourproject_2stim_asymm_v5,2020.2.10,MacIntel,60,61025ae37ef11b136ea224fe,,,,,,,,,3514,-60.0234375,33.19140625,1,0,0,response7disk,,1,-19.01171875,5.54296875,1,0,0,rectangle,-19.01171875,5.54296875,1,0,0,-19.01171875,5.54296875,1,0,0,0,43,43,13,1,,,,,,,,
,,,,,,,,,,,,,FF,,,,,,,,1.5524,,,,,,,,,,,,,,,,,,,,,,610311f4fce391260a339321,61036bd0b6a3c9acf7e18597,2021-07-29_22h04.06.006,Simcolourproject_2stim_asymm_v5,2020.2.10,MacIntel,60,61025ae37ef11b136ea224fe,,,,,,,,,945,-48.9453125,-89.03515625,1,0,0,response5disk,,3,-13.71875,-3.78515625,1,0,0,rectangle,-13.71875,-3.78515625,1,0,0,-13.71875,-3.78515625,1,0,0,0,44,44,11,1,,,,,,,,
,,,,,,,,,,,,,FF,,,,,,,,1.3783,,,,,,,,,,,,,,,,,,,,,,610311f4fce391260a339321,61036bd0b6a3c9acf7e18597,2021-07-29_22h04.06.006,Simcolourproject_2stim_asymm_v5,2020.2.10,MacIntel,60,61025ae37ef11b136ea224fe,,,,,,,,,1081,85.4296875,110.6054688,1,0,0,response1disk,,7,19.63671875,9.6640625,1,0,0,rectangle,19.63671875,9.6640625,1,0,0,19.63671875,9.6640625,1,0,0,0,45,45,124,1,,,,,,,,
,,,,,,,,,,,,,FF,,,,,,,,0.958,,,,,,,,,,,,,,,,,,,,,,610311f4fce391260a339321,61036bd0b6a3c9acf7e18597,2021-07-29_22h04.06.006,Simcolourproject_2stim_asymm_v5,2020.2.10,MacIntel,60,61025ae37ef11b136ea224fe,,,,,,,,,1932,98.59375,-44.4453125,1,0,0,response3disk,,5,25.91015625,0.05078125,1,0,0,rectangle,25.91015625,0.05078125,1,0,0,25.91015625,0.05078125,1,0,0,0,46,46,20,1,,,,,,,,
,,,,,,,,,,,,,FF,,,,,,,,1.0485,,,,,,,,,,,,,,,,,,,,,,610311f4fce391260a339321,61036bd0b6a3c9acf7e18597,2021-07-29_22h04.06.006,Simcolourproject_2stim_asymm_v5,2020.2.10,MacIntel,60,61025ae37ef11b136ea224fe,,,,,,,,,2231,-95.67578125,-44.83203125,1,0,0,response5disk,,2,-13.92578125,5.44921875,1,0,0,rectangle,-13.92578125,5.44921875,1,0,0,-13.92578125,5.44921875,1,0,0,0,47,47,70,1,,,,,,,,
,,,,,,,,,,,,,FF,,,,,,,,1.0396,,,,,,,,,,,,,,,,,,,,,,610311f4fce391260a339321,61036bd0b6a3c9acf7e18597,2021-07-29_22h04.06.006,Simcolourproject_2stim_asymm_v5,2020.2.10,MacIntel,60,61025ae37ef11b136ea224fe,,,,,,,,,2702,72.24609375,-100.6289063,1,0,0,response3disk,,4,19.8515625,2.10546875,1,0,0,rectangle,19.8515625,2.10546875,1,0,0,19.8515625,2.10546875,1,0,0,0,48,48,60,1,,,,,,,,
,,,,,,,,,,,,,FF,,,,,,,,1.0838,,,,,,,,,,,,,,,,,,,,,,610311f4fce391260a339321,61036bd0b6a3c9acf7e18597,2021-07-29_22h04.06.006,Simcolourproject_2stim_asymm_v5,2020.2.10,MacIntel,60,61025ae37ef11b136ea224fe,,,,,,,,,1486,97.38671875,66.83984375,1,0,0,response1disk,,6,19.72265625,-2.66015625,1,0,0,rectangle,19.72265625,-2.66015625,1,0,0,19.72265625,-2.66015625,1,0,0,0,49,49,92,1,,,,,,,,
,,,,,,,,,,,,,FF,,,,,,,,1.0861,,,,,,,,,,,,,,,,,,,,,,610311f4fce391260a339321,61036bd0b6a3c9acf7e18597,2021-07-29_22h04.06.006,Simcolourproject_2stim_asymm_v5,2020.2.10,MacIntel,60,61025ae37ef11b136ea224fe,,,,,,,,,84,87.6171875,40.5234375,1,0,0,response1disk,,6,-4.390625,-3.75390625,1,0,0,rectangle,-4.390625,-3.75390625,1,0,0,-4.390625,-3.75390625,1,0,0,0,50,50,75,1,,,,,,,,
,,,,,,,,,,,,,FF,,,,,,,,1.9887,,,,,,,,,,,,,,,,,,,,,,610311f4fce391260a339321,61036bd0b6a3c9acf7e18597,2021-07-29_22h04.06.006,Simcolourproject_2stim_asymm_v5,2020.2.10,MacIntel,60,61025ae37ef11b136ea224fe,,,,,,,,,3095,-70.1875,-43.11328125,1,0,0,response5disk,,2,-24.328125,-12.26953125,1,0,0,rectangle,-55.0078125,-94.13671875,1,0,0,-12.03515625,-4.359375,1,0,0,0,51,51,33,1,,response5disk_3,TRUE,3,3,"[107,97,229,108,117,203,189,243,30,63,118,43,227,295,81,316,52,96,52,279]",1.2336,rectangle
,,,,,,,,,,,,,FF,,,,,,,,2.7214,,,,,,,,,,,,,,,,,,,,,,610311f4fce391260a339321,61036bd0b6a3c9acf7e18597,2021-07-29_22h04.06.006,Simcolourproject_2stim_asymm_v5,2020.2.10,MacIntel,60,61025ae37ef11b136ea224fe,,,,,,,,,522,-72.81640625,-42.84765625,1,0,0,response5disk,,2,-16.28125,-8.0703125,1,0,0,rectangle,-16.28125,-8.0703125,1,0,0,-16.28125,-8.0703125,1,0,0,0,52,52,68,1,,,,,,,,
,,,,,,,,,,,,,FF,,,,,,,,1.4783,,,,,,,,,,,,,,,,,,,,,,610311f4fce391260a339321,61036bd0b6a3c9acf7e18597,2021-07-29_22h04.06.006,Simcolourproject_2stim_asymm_v5,2020.2.10,MacIntel,60,61025ae37ef11b136ea224fe,,,,,,,,,4021,-63.2109375,27.84375,1,0,0,response7disk,,1,-14.55078125,5.6015625,1,0,0,rectangle,-14.55078125,5.6015625,1,0,0,-14.55078125,5.6015625,1,0,0,0,53,53,58,1,,,,,,,,
,,,,,,,,,,,,,FF,,,,,,,,1.4162,,,,,,,,,,,,,,,,,,,,,,610311f4fce391260a339321,61036bd0b6a3c9acf7e18597,2021-07-29_22h04.06.006,Simcolourproject_2stim_asymm_v5,2020.2.10,MacIntel,60,61025ae37ef11b136ea224fe,,,,,,,,,343,-64.08984375,-53.01953125,1,0,0,response5disk,,2,-27.8984375,-19.42578125,1,0,0,rectangle,-27.8984375,-19.42578125,1,0,0,-27.8984375,-19.42578125,1,0,0,0,54,54,44,1,,,,,,,,
,,,,,,,,,,,,,FF,,,,,,,,0.8683,,,,,,,,,,,,,,,,,,,,,,610311f4fce391260a339321,61036bd0b6a3c9acf7e18597,2021-07-29_22h04.06.006,Simcolourproject_2stim_asymm_v5,2020.2.10,MacIntel,60,61025ae37ef11b136ea224fe,,,,,,,,,984,-76.3515625,40.4453125,1,0,0,response7disk,,1,-22.13671875,8.14453125,1,0,0,rectangle,-22.13671875,8.14453125,1,0,0,-22.13671875,8.14453125,1,0,0,0,55,55,136,1,,,,,,,,
,,,,,,,,,,,,,FF,,,,,,,,1.2559,,,,,,,,,,,,,,,,,,,,,,610311f4fce391260a339321,61036bd0b6a3c9acf7e18597,2021-07-29_22h04.06.006,Simcolourproject_2stim_asymm_v5,2020.2.10,MacIntel,60,61025ae37ef11b136ea224fe,,,,,,,,,1337,30.51171875,-81.03515625,1,0,0,response3disk,,4,18.984375,1.01171875,1,0,0,rectangle,18.984375,1.01171875,1,0,0,18.984375,1.01171875,1,0,0,0,56,56,103,1,,,,,,,,
,,,,,,,,,,,,,FF,,,,,,,,1.1732,,,,,,,,,,,,,,,,,,,,,,610311f4fce391260a339321,61036bd0b6a3c9acf7e18597,2021-07-29_22h04.06.006,Simcolourproject_2stim_asymm_v5,2020.2.10,MacIntel,60,61025ae37ef11b136ea224fe,,,,,,,,,1199,58.72265625,-82.52734375,1,0,0,response3disk,,4,28.04296875,-9.9375,1,0,0,rectangle,28.04296875,-9.9375,1,0,0,28.04296875,-9.9375,1,0,0,0,57,57,110,1,,,,,,,,
,,,,,,,,,,,,,FF,,,,,,,,1.1289,,,,,,,,,,,,,,,,,,,,,,610311f4fce391260a339321,61036bd0b6a3c9acf7e18597,2021-07-29_22h04.06.006,Simcolourproject_2stim_asymm_v5,2020.2.10,MacIntel,60,61025ae37ef11b136ea224fe,,,,,,,,,1112,33.65234375,-77.06640625,1,0,0,response3disk,,4,17.6875,-4.5,1,0,0,rectangle,17.6875,-4.5,1,0,0,17.6875,-4.5,1,0,0,0,58,58,140,1,,,,,,,,
,,,,,,,,,,,,,FF,,,,,,,,0.9498,,,,,,,,,,,,,,,,,,,,,,610311f4fce391260a339321,61036bd0b6a3c9acf7e18597,2021-07-29_22h04.06.006,Simcolourproject_2stim_asymm_v5,2020.2.10,MacIntel,60,61025ae37ef11b136ea224fe,,,,,,,,,170,-78.9921875,34.23828125,1,0,0,response7disk,,1,-1.5078125,-15.14453125,1,0,0,rectangle,-1.5078125,-15.14453125,1,0,0,-1.5078125,-15.14453125,1,0,0,0,59,59,29,1,,,,,,,,
,,,,,,,,,,,,,FF,,,,,,,,0.9793,,,,,,,,,,,,,,,,,,,,,,610311f4fce391260a339321,61036bd0b6a3c9acf7e18597,2021-07-29_22h04.06.006,Simcolourproject_2stim_asymm_v5,2020.2.10,MacIntel,60,61025ae37ef11b136ea224fe,,,,,,,,,944,-86.46875,-53.16796875,1,0,0,response5disk,,2,0.8671875,-2.171875,1,0,0,rectangle,0.8671875,-2.171875,1,0,0,0.8671875,-2.171875,1,0,0,0,60,60,87,1,,,,,,,,
,,,,,,,,,,,,,FF,,,,,,,,1.4451,,,,,,,,,,,,,,,,,,,,,,610311f4fce391260a339321,61036bd0b6a3c9acf7e18597,2021-07-29_22h04.06.006,Simcolourproject_2stim_asymm_v5,2020.2.10,MacIntel,60,61025ae37ef11b136ea224fe,,,,,,,,,4167,-70.99609375,-35.328125,1,0,0,response5disk,,2,-1.69140625,-15.75,1,0,0,rectangle,-1.69140625,-15.75,1,0,0,-1.69140625,-15.75,1,0,0,0,61,61,152,1,,,,,,,,
,,,,,,,,,,,,,FF,,,,,,,,2.2672,,,,,,,,,,,,,,,,,,,,,,610311f4fce391260a339321,61036bd0b6a3c9acf7e18597,2021-07-29_22h04.06.006,Simcolourproject_2stim_asymm_v5,2020.2.10,MacIntel,60,61025ae37ef11b136ea224fe,,,,,,,,,2996,-25.1875,-108.8164063,1,0,0,response5disk,,3,-6.1796875,-3.171875,1,0,0,rectangle,-73.3359375,-45.10546875,1,0,0,10.140625,5.41015625,1,0,0,0,62,62,14,1,,response5disk_3,TRUE,2,2,"[107,97,229,108,117,203,189,243,30,63,118,43,227,295,81,316,52,96,52,279]",1.6386,rectangle
,,,,,,,,,,,,,FF,,,,,,,,1.0012,,,,,,,,,,,,,,,,,,,,,,610311f4fce391260a339321,61036bd0b6a3c9acf7e18597,2021-07-29_22h04.06.006,Simcolourproject_2stim_asymm_v5,2020.2.10,MacIntel,60,61025ae37ef11b136ea224fe,,,,,,,,,1151,-76.30859375,29.8671875,1,0,0,response7disk,,1,7.859375,-1.54296875,1,0,0,rectangle,7.859375,-1.54296875,1,0,0,7.859375,-1.54296875,1,0,0,0,63,63,51,1,,,,,,,,
,,,,,,,,,,,,,FF,,,,,,,,1.5359,,,,,,,,,,,,,,,,,,,,,,610311f4fce391260a339321,61036bd0b6a3c9acf7e18597,2021-07-29_22h04.06.006,Simcolourproject_2stim_asymm_v5,2020.2.10,MacIntel,60,61025ae37ef11b136ea224fe,,,,,,,,,1545,63.12109375,-73.62109375,1,0,0,response3disk,,4,30.58984375,0.5703125,1,0,0,rectangle,30.58984375,0.5703125,1,0,0,30.58984375,0.5703125,1,0,0,0,64,64,155,1,,,,,,,,
,,,,,,,,,,,,,FF,,,,,,,,1.5717,,,,,,,,,,,,,,,,,,,,,,610311f4fce391260a339321,61036bd0b6a3c9acf7e18597,2021-07-29_22h04.06.006,Simcolourproject_2stim_asymm_v5,2020.2.10,MacIntel,60,61025ae37ef11b136ea224fe,,,,,,,,,1835,-30.48046875,-83.19921875,1,0,0,response5disk,,3,-16.00390625,-10.609375,1,0,0,rectangle,-16.00390625,-10.609375,1,0,0,-16.00390625,-10.609375,1,0,0,0,65,65,147,1,,,,,,,,
,,,,,,,,,,,,,FF,,,,,,,,0.7851,,,,,,,,,,,,,,,,,,,,,,610311f4fce391260a339321,61036bd0b6a3c9acf7e18597,2021-07-29_22h04.06.006,Simcolourproject_2stim_asymm_v5,2020.2.10,MacIntel,60,61025ae37ef11b136ea224fe,,,,,,,,,2418,-38.53125,91.7578125,1,0,0,response7disk,,0,1.58203125,-8.78515625,1,0,0,rectangle,1.58203125,-8.78515625,1,0,0,1.58203125,-8.78515625,1,0,0,0,66,66,78,1,,,,,,,,
,,,,,,,,,,,,,FF,,,,,,,,0.7382,,,,,,,,,,,,,,,,,,,,,,610311f4fce391260a339321,61036bd0b6a3c9acf7e18597,2021-07-29_22h04.06.006,Simcolourproject_2stim_asymm_v5,2020.2.10,MacIntel,60,61025ae37ef11b136ea224fe,,,,,,,,,3046,-48.62890625,33.69921875,1,0,0,response7disk,,1,2.4296875,-11.07421875,1,0,0,rectangle,2.4296875,-11.07421875,1,0,0,2.4296875,-11.07421875,1,0,0,0,67,67,97,1,,,,,,,,
,,,,,,,,,,,,,FF,,,,,,,,1.0685,,,,,,,,,,,,,,,,,,,,,,610311f4fce391260a339321,61036bd0b6a3c9acf7e18597,2021-07-29_22h04.06.006,Simcolourproject_2stim_asymm_v5,2020.2.10,MacIntel,60,61025ae37ef11b136ea224fe,,,,,,,,,645,-33.26171875,-67.9296875,1,0,0,response5disk,,3,10.92578125,-5.34765625,1,0,0,rectangle,10.92578125,-5.34765625,1,0,0,10.92578125,-5.34765625,1,0,0,0,68,68,146,1,,,,,,,,
,,,,,,,,,,,,,FF,,,,,,,,0.7841,,,,,,,,,,,,,,,,,,,,,,610311f4fce391260a339321,61036bd0b6a3c9acf7e18597,2021-07-29_22h04.06.006,Simcolourproject_2stim_asymm_v5,2020.2.10,MacIntel,60,61025ae37ef11b136ea224fe,,,,,,,,,2591,-85.96875,-36.7890625,1,0,0,response5disk,,2,-8.38671875,-0.22265625,1,0,0,rectangle,-8.38671875,-0.22265625,1,0,0,-8.38671875,-0.22265625,1,0,0,0,69,69,24,1,,,,,,,,
,,,,,,,,,,,,,FF,,,,,,,,1.025,,,,,,,,,,,,,,,,,,,,,,610311f4fce391260a339321,61036bd0b6a3c9acf7e18597,2021-07-29_22h04.06.006,Simcolourproject_2stim_asymm_v5,2020.2.10,MacIntel,60,61025ae37ef11b136ea224fe,,,,,,,,,457,43.234375,-85.140625,1,0,0,response3disk,,4,24.44140625,0.21875,1,0,0,rectangle,24.44140625,0.21875,1,0,0,24.44140625,0.21875,1,0,0,0,70,70,116,1,,,,,,,,
,,,,,,,,,,,,,FF,,,,,,,,1.3678,,,,,,,,,,,,,,,,,,,,,,610311f4fce391260a339321,61036bd0b6a3c9acf7e18597,2021-07-29_22h04.06.006,Simcolourproject_2stim_asymm_v5,2020.2.10,MacIntel,60,61025ae37ef11b136ea224fe,,,,,,,,,152,78.890625,40.71484375,1,0,0,response1disk,,6,-9.73046875,-6.359375,1,0,0,rectangle,-9.73046875,-6.359375,1,0,0,-9.73046875,-6.359375,1,0,0,0,71,71,100,1,,,,,,,,
,,,,,,,,,,,,,FF,,,,,,,,1.4225,,,,,,,,,,,,,,,,,,,,,,610311f4fce391260a339321,61036bd0b6a3c9acf7e18597,2021-07-29_22h04.06.006,Simcolourproject_2stim_asymm_v5,2020.2.10,MacIntel,60,61025ae37ef11b136ea224fe,,,,,,,,,3545,57.94140625,110.9960938,1,0,0,response1disk,,7,23.50390625,16.16796875,1,0,0,rectangle,23.50390625,16.16796875,1,0,0,23.50390625,16.16796875,1,0,0,0,72,72,69,1,,,,,,,,
,,,,,,,,,,,,,FF,,,,,,,,1.5155,,,,,,,,,,,,,,,,,,,,,,610311f4fce391260a339321,61036bd0b6a3c9acf7e18597,2021-07-29_22h04.06.006,Simcolourproject_2stim_asymm_v5,2020.2.10,MacIntel,60,61025ae37ef11b136ea224fe,,,,,,,,,3583,120.1992188,-62.3203125,1,0,0,response3disk,,5,-0.2578125,8.8671875,1,0,0,rectangle,-0.2578125,8.8671875,1,0,0,-0.2578125,8.8671875,1,0,0,0,73,73,106,1,,,,,,,,
,,,,,,,,,,,,,FF,,,,,,,,0.812,,,,,,,,,,,,,,,,,,,,,,610311f4fce391260a339321,61036bd0b6a3c9acf7e18597,2021-07-29_22h04.06.006,Simcolourproject_2stim_asymm_v5,2020.2.10,MacIntel,60,61025ae37ef11b136ea224fe,,,,,,,,,1554,106.6328125,-51.96875,1,0,0,response3disk,,5,8.59765625,1.46875,1,0,0,rectangle,8.59765625,1.46875,1,0,0,8.59765625,1.46875,1,0,0,0,74,74,148,1,,,,,,,,
,,,,,,,,,,,,,FF,,,,,,,,0.7516,,,,,,,,,,,,,,,,,,,,,,610311f4fce391260a339321,61036bd0b6a3c9acf7e18597,2021-07-29_22h04.06.006,Simcolourproject_2stim_asymm_v5,2020.2.10,MacIntel,60,61025ae37ef11b136ea224fe,,,,,,,,,1271,102.9257813,52.07421875,1,0,0,response1disk,,6,-11.33203125,12.421875,1,0,0,rectangle,-11.33203125,12.421875,1,0,0,-11.33203125,12.421875,1,0,0,0,75,75,142,1,,,,,,,,
,,,,,,,,,,,,,FF,,,,,,,,1.3667,,,,,,,,,,,,,,,,,,,,,,610311f4fce391260a339321,61036bd0b6a3c9acf7e18597,2021-07-29_22h04.06.006,Simcolourproject_2stim_asymm_v5,2020.2.10,MacIntel,60,61025ae37ef11b136ea224fe,,,,,,,,,2733,64.87890625,-97.62109375,1,0,0,response3disk,,4,13.91015625,4.09375,1,0,0,rectangle,13.91015625,4.09375,1,0,0,13.91015625,4.09375,1,0,0,0,76,76,43,1,,,,,,,,
,,,,,,,,,,,,,FF,,,,,,,,1.8861,,,,,,,,,,,,,,,,,,,,,,610311f4fce391260a339321,61036bd0b6a3c9acf7e18597,2021-07-29_22h04.06.006,Simcolourproject_2stim_asymm_v5,2020.2.10,MacIntel,60,61025ae37ef11b136ea224fe,,,,,,,,,1260,-53.2109375,-88.984375,1,0,0,response5disk,,3,-19.5703125,17.23828125,1,0,0,rectangle,-19.5703125,17.23828125,1,0,0,-19.5703125,17.23828125,1,0,0,0,77,77,125,1,,,,,,,,
,,,,,,,,,,,,,FF,,,,,,,,1.7967,,,,,,,,,,,,,,,,,,,,,,610311f4fce391260a339321,61036bd0b6a3c9acf7e18597,2021-07-29_22h04.06.006,Simcolourproject_2stim_asymm_v5,2020.2.10,MacIntel,60,61025ae37ef11b136ea224fe,,,,,,,,,2463,63.29296875,-119.6054688,1,0,0,response3disk,,4,21.703125,-0.13671875,1,0,0,rectangle,21.703125,-0.13671875,1,0,0,21.703125,-0.13671875,1,0,0,0,78,78,61,1,,,,,,,,
,,,,,,,,,,,,,FF,,,,,,,,0.9181,,,,,,,,,,,,,,,,,,,,,,610311f4fce391260a339321,61036bd0b6a3c9acf7e18597,2021-07-29_22h04.06.006,Simcolourproject_2stim_asymm_v5,2020.2.10,MacIntel,60,61025ae37ef11b136ea224fe,,,,,,,,,3156,-64.70703125,-22.12109375,1,0,0,response5disk,,2,-13.41015625,10.2421875,1,0,0,rectangle,-13.41015625,10.2421875,1,0,0,-13.41015625,10.2421875,1,0,0,0,79,79,30,1,,,,,,,,
,,,,,,,,,,,,,FF,,,,,,,,0.7977,,,,,,,,,,,,,,,,,,,,,,610311f4fce391260a339321,61036bd0b6a3c9acf7e18597,2021-07-29_22h04.06.006,Simcolourproject_2stim_asymm_v5,2020.2.10,MacIntel,60,61025ae37ef11b136ea224fe,,,,,,,,,1601,-57.78125,32.89453125,1,0,0,response7disk,,1,13.23828125,4.84375,1,0,0,rectangle,29.49609375,-99.8984375,1,0,0,0.99609375,5.09765625,1,0,0,0,80,80,81,1,,response3disk_3,TRUE,4,4,"[107,97,229,108,117,203,189,243,30,63,118,43,227,295,81,316,52,96,52,279]",1.4267,rectangle
,,,,,,,,,,,,,FF,,,,,,,,1.0596,,,,,,,,,,,,,,,,,,,,,,610311f4fce391260a339321,61036bd0b6a3c9acf7e18597,2021-07-29_22h04.06.006,Simcolourproject_2stim_asymm_v5,2020.2.10,MacIntel,60,61025ae37ef11b136ea224fe,,,,,,,,,1083,48.5234375,-77.9765625,1,0,0,response3disk,,4,34.23046875,-4.0390625,1,0,0,rectangle,34.23046875,-4.0390625,1,0,0,34.23046875,-4.0390625,1,0,0,0,81,81,138,1,,,,,,,,
,,,,,,,,,,,,,FF,,,,,,,,1.509,,,,,,,,,,,,,,,,,,,,,,610311f4fce391260a339321,61036bd0b6a3c9acf7e18597,2021-07-29_22h04.06.006,Simcolourproject_2stim_asymm_v5,2020.2.10,MacIntel,60,61025ae37ef11b136ea224fe,,,,,,,,,2692,74.03125,-54.69921875,1,0,0,response3disk,,5,-1.6796875,13.83984375,1,0,0,rectangle,-1.6796875,13.83984375,1,0,0,-1.6796875,13.83984375,1,0,0,0,82,82,128,1,,,,,,,,
,,,,,,,,,,,,,FF,,,,,,,,1.6871,,,,,,,,,,,,,,,,,,,,,,610311f4fce391260a339321,61036bd0b6a3c9acf7e18597,2021-07-29_22h04.06.006,Simcolourproject_2stim_asymm_v5,2020.2.10,MacIntel,60,61025ae37ef11b136ea224fe,,,,,,,,,2474,56.15625,-88.8984375,1,0,0,response3disk,,4,20.77734375,0.22265625,1,0,0,rectangle,20.77734375,0.22265625,1,0,0,20.77734375,0.22265625,1,0,0,0,83,83,31,1,,,,,,,,
,,,,,,,,,,,,,FF,,,,,,,,0.8021,,,,,,,,,,,,,,,,,,,,,,610311f4fce391260a339321,61036bd0b6a3c9acf7e18597,2021-07-29_22h04.06.006,Simcolourproject_2stim_asymm_v5,2020.2.10,MacIntel,60,61025ae37ef11b136ea224fe,,,,,,,,,4200,-50.734375,84.8515625,1,0,0,response7disk,,0,-21.65234375,5.53125,1,0,0,rectangle,-21.65234375,5.53125,1,0,0,-21.65234375,5.53125,1,0,0,0,84,84,156,1,,,,,,,,
,,,,,,,,,,,,,FF,,,,,,,,1.5563,,,,,,,,,,,,,,,,,,,,,,610311f4fce391260a339321,61036bd0b6a3c9acf7e18597,2021-07-29_22h04.06.006,Simcolourproject_2stim_asymm_v5,2020.2.10,MacIntel,60,61025ae37ef11b136ea224fe,,,,,,,,,3902,-31.94921875,-70.6953125,1,0,0,response5disk,,3,-19.41015625,5.84375,1,0,0,rectangle,-19.41015625,5.84375,1,0,0,-19.41015625,5.84375,1,0,0,0,85,85,121,1,,,,,,,,
,,,,,,,,,,,,,FF,,,,,,,,1.3739,,,,,,,,,,,,,,,,,,,,,,610311f4fce391260a339321,61036bd0b6a3c9acf7e18597,2021-07-29_22h04.06.006,Simcolourproject_2stim_asymm_v5,2020.2.10,MacIntel,60,61025ae37ef11b136ea224fe,,,,,,,,,2061,57.38671875,-91.2734375,1,0,0,response3disk,,4,17.14453125,-15.15234375,1,0,0,rectangle,17.14453125,-15.15234375,1,0,0,17.14453125,-15.15234375,1,0,0,0,86,86,0,1,,,,,,,,
,,,,,,,,,,,,,FF,,,,,,,,1.4876,,,,,,,,,,,,,,,,,,,,,,610311f4fce391260a339321,61036bd0b6a3c9acf7e18597,2021-07-29_22h04.06.006,Simcolourproject_2stim_asymm_v5,2020.2.10,MacIntel,60,61025ae37ef11b136ea224fe,,,,,,,,,2404,47.87109375,-67.30859375,1,0,0,response3disk,,4,16.6640625,-5.69921875,1,0,0,rectangle,16.6640625,-5.69921875,1,0,0,16.6640625,-5.69921875,1,0,0,0,87,87,127,1,,,,,,,,
,,,,,,,,,,,,,FF,,,,,,,,1.0183,,,,,,,,,,,,,,,,,,,,,,610311f4fce391260a339321,61036bd0b6a3c9acf7e18597,2021-07-29_22h04.06.006,Simcolourproject_2stim_asymm_v5,2020.2.10,MacIntel,60,61025ae37ef11b136ea224fe,,,,,,,,,2284,52.84765625,-106.0625,1,0,0,response3disk,,4,5.140625,-17.953125,1,0,0,rectangle,5.140625,-17.953125,1,0,0,5.140625,-17.953125,1,0,0,0,88,88,7,1,,,,,,,,
,,,,,,,,,,,,,FF,,,,,,,,1.6362,,,,,,,,,,,,,,,,,,,,,,610311f4fce391260a339321,61036bd0b6a3c9acf7e18597,2021-07-29_22h04.06.006,Simcolourproject_2stim_asymm_v5,2020.2.10,MacIntel,60,61025ae37ef11b136ea224fe,,,,,,,,,3393,-58.43359375,-69.3828125,1,0,0,response5disk,,3,-24.3828125,-11.85546875,1,0,0,rectangle,-24.3828125,-11.85546875,1,0,0,-24.3828125,-11.85546875,1,0,0,0,89,89,17,1,,,,,,,,
,,,,,,,,,,,,,FF,,,,,,,,3.8206,,,,,,,,,,,,,,,,,,,,,,610311f4fce391260a339321,61036bd0b6a3c9acf7e18597,2021-07-29_22h04.06.006,Simcolourproject_2stim_asymm_v5,2020.2.10,MacIntel,60,61025ae37ef11b136ea224fe,,,,,,,,,3832,78.5625,-87.61328125,1,0,0,response3disk,,4,24,-10.08203125,1,0,0,rectangle,24,-10.08203125,1,0,0,24,-10.08203125,1,0,0,0,90,90,130,1,,,,,,,,
,,,,,,,,,,,,,FF,,,,,,,,1.1043,,,,,,,,,,,,,,,,,,,,,,610311f4fce391260a339321,61036bd0b6a3c9acf7e18597,2021-07-29_22h04.06.006,Simcolourproject_2stim_asymm_v5,2020.2.10,MacIntel,60,61025ae37ef11b136ea224fe,,,,,,,,,2727,-78.1796875,-50.76171875,1,0,0,response5disk,,2,-9.73046875,11.33203125,1,0,0,rectangle,-9.73046875,11.33203125,1,0,0,-9.73046875,11.33203125,1,0,0,0,91,91,90,1,,,,,,,,
,,,,,,,,,,,,,FF,,,,,,,,1.2821,,,,,,,,,,,,,,,,,,,,,,610311f4fce391260a339321,61036bd0b6a3c9acf7e18597,2021-07-29_22h04.06.006,Simcolourproject_2stim_asymm_v5,2020.2.10,MacIntel,60,61025ae37ef11b136ea224fe,,,,,,,,,933,104.1132813,-57.9296875,1,0,0,response3disk,,5,26.90625,-8.2890625,1,0,0,rectangle,26.90625,-8.2890625,1,0,0,26.90625,-8.2890625,1,0,0,0,92,92,76,1,,,,,,,,
,,,,,,,,,,,,,FF,,,,,,,,1.1786,,,,,,,,,,,,,,,,,,,,,,610311f4fce391260a339321,61036bd0b6a3c9acf7e18597,2021-07-29_22h04.06.006,Simcolourproject_2stim_asymm_v5,2020.2.10,MacIntel,60,61025ae37ef11b136ea224fe,,,,,,,,,1908,37.34375,-72.4609375,1,0,0,response3disk,,4,27.07421875,-3.98828125,1,0,0,rectangle,27.07421875,-3.98828125,1,0,0,27.07421875,-3.98828125,1,0,0,0,93,93,25,1,,,,,,,,
,,,,,,,,,,,,,FF,,,,,,,,1.605,,,,,,,,,,,,,,,,,,,,,,610311f4fce391260a339321,61036bd0b6a3c9acf7e18597,2021-07-29_22h04.06.006,Simcolourproject_2stim_asymm_v5,2020.2.10,MacIntel,60,61025ae37ef11b136ea224fe,,,,,,,,,393,104.9609375,-32.26953125,1,0,0,response3disk,,5,22.796875,-6.7109375,1,0,0,rectangle,22.796875,-6.7109375,1,0,0,22.796875,-6.7109375,1,0,0,0,94,94,96,1,,,,,,,,
,,,,,,,,,,,,,FF,,,,,,,,1.1125,,,,,,,,,,,,,,,,,,,,,,610311f4fce391260a339321,61036bd0b6a3c9acf7e18597,2021-07-29_22h04.06.006,Simcolourproject_2stim_asymm_v5,2020.2.10,MacIntel,60,61025ae37ef11b136ea224fe,,,,,,,,,4342,39.5,93.85546875,1,0,0,response1disk,,7,23.015625,2.80859375,1,0,0,rectangle,61.71484375,116.1367188,1,0,0,21.34375,-2.71875,1,0,0,0,95,95,42,1,,response1disk_3,TRUE,7,7,"[107,97,229,108,117,203,189,243,30,63,118,43,227,295,81,316,52,96,52,279]",1.5265,rectangle
,,,,,,,,,,,,,FF,,,,,,,,0.9638,,,,,,,,,,,,,,,,,,,,,,610311f4fce391260a339321,61036bd0b6a3c9acf7e18597,2021-07-29_22h04.06.006,Simcolourproject_2stim_asymm_v5,2020.2.10,MacIntel,60,61025ae37ef11b136ea224fe,,,,,,,,,2994,-47.1328125,-88.7578125,1,0,0,response5disk,,3,-5.57421875,-2.234375,1,0,0,rectangle,68.78515625,-110.1367188,1,0,0,14.84765625,-5.046875,1,0,0,0,96,96,85,1,,response3disk_3,TRUE,4,4,"[107,97,229,108,117,203,189,243,30,63,118,43,227,295,81,316,52,96,52,279]",1.5658,rectangle
,,,,,,,,,,,,,FF,,,,,,,,1.4999,,,,,,,,,,,,,,,,,,,,,,610311f4fce391260a339321,61036bd0b6a3c9acf7e18597,2021-07-29_22h04.06.006,Simcolourproject_2stim_asymm_v5,2020.2.10,MacIntel,60,61025ae37ef11b136ea224fe,,,,,,,,,275,41.1875,-88.72265625,1,0,0,response3disk,,4,15.58203125,-3.58984375,1,0,0,rectangle,15.58203125,-3.58984375,1,0,0,15.58203125,-3.58984375,1,0,0,0,97,97,45,1,,,,,,,,
,,,,,,,,,,,,,FF,,,,,,,,1.0602,,,,,,,,,,,,,,,,,,,,,,610311f4fce391260a339321,61036bd0b6a3c9acf7e18597,2021-07-29_22h04.06.006,Simcolourproject_2stim_asymm_v5,2020.2.10,MacIntel,60,61025ae37ef11b136ea224fe,,,,,,,,,4226,-49.8828125,-88.95703125,1,0,0,response5disk,,3,19.0546875,5.80078125,1,0,0,rectangle,19.0546875,5.80078125,1,0,0,19.0546875,5.80078125,1,0,0,0,98,98,23,1,,,,,,,,
,,,,,,,,,,,,,FF,,,,,,,,0.7705,,,,,,,,,,,,,,,,,,,,,,610311f4fce391260a339321,61036bd0b6a3c9acf7e18597,2021-07-29_22h04.06.006,Simcolourproject_2stim_asymm_v5,2020.2.10,MacIntel,60,61025ae37ef11b136ea224fe,,,,,,,,,1956,-48.5625,94.22265625,1,0,0,response7disk,,0,-26.296875,1.68359375,1,0,0,rectangle,-26.296875,1.68359375,1,0,0,-26.296875,1.68359375,1,0,0,0,99,99,54,1,,,,,,,,
,,,,,,,,,,,,,FF,,,,,,,,1.1024,,,,,,,,,,,,,,,,,,,,,,610311f4fce391260a339321,61036bd0b6a3c9acf7e18597,2021-07-29_22h04.06.006,Simcolourproject_2stim_asymm_v5,2020.2.10,MacIntel,60,61025ae37ef11b136ea224fe,,,,,,,,,139,81.90625,-105.8476563,1,0,0,response3disk,,4,17.14453125,-11.17578125,1,0,0,rectangle,17.14453125,-11.17578125,1,0,0,17.14453125,-11.17578125,1,0,0,0,100,100,67,1,,,,,,,,
,,,,,,,,,,,,,FF,,,,,,,,1.3896,,,,,,,,,,,,,,,,,,,,,,610311f4fce391260a339321,61036bd0b6a3c9acf7e18597,2021-07-29_22h04.06.006,Simcolourproject_2stim_asymm_v5,2020.2.10,MacIntel,60,61025ae37ef11b136ea224fe,,,,,,,,,639,-92.87890625,-42.44921875,1,0,0,response5disk,,2,-25.70703125,-12.91796875,1,0,0,rectangle,-25.70703125,-12.91796875,1,0,0,-25.70703125,-12.91796875,1,0,0,0,101,101,37,1,,,,,,,,
,,,,,,,,,,,,,FF,,,,,,,,2.6364,,,,,,,,,,,,,,,,,,,,,,610311f4fce391260a339321,61036bd0b6a3c9acf7e18597,2021-07-29_22h04.06.006,Simcolourproject_2stim_asymm_v5,2020.2.10,MacIntel,60,61025ae37ef11b136ea224fe,,,,,,,,,3546,-39.21875,-77.5546875,1,0,0,response5disk,,3,-16.3671875,-11.0390625,1,0,0,rectangle,-16.3671875,-11.0390625,1,0,0,-16.3671875,-11.0390625,1,0,0,0,102,102,153,1,,,,,,,,
,,,,,,,,,,,,,FF,,,,,,,,1.0182,,,,,,,,,,,,,,,,,,,,,,610311f4fce391260a339321,61036bd0b6a3c9acf7e18597,2021-07-29_22h04.06.006,Simcolourproject_2stim_asymm_v5,2020.2.10,MacIntel,60,61025ae37ef11b136ea224fe,,,,,,,,,556,-78.47265625,-30.921875,1,0,0,response5disk,,2,-2.5390625,2.3515625,1,0,0,rectangle,-2.5390625,2.3515625,1,0,0,-2.5390625,2.3515625,1,0,0,0,103,103,46,1,,,,,,,,
,,,,,,,,,,,,,FF,,,,,,,,0.9676,,,,,,,,,,,,,,,,,,,,,,610311f4fce391260a339321,61036bd0b6a3c9acf7e18597,2021-07-29_22h04.06.006,Simcolourproject_2stim_asymm_v5,2020.2.10,MacIntel,60,61025ae37ef11b136ea224fe,,,,,,,,,434,-95.05078125,-60.32421875,1,0,0,response5disk,,2,-17.97265625,-14.6796875,1,0,0,rectangle,-17.97265625,-14.6796875,1,0,0,-17.97265625,-14.6796875,1,0,0,0,104,104,83,1,,,,,,,,
,,,,,,,,,,,,,FF,,,,,,,,1.0035,,,,,,,,,,,,,,,,,,,,,,610311f4fce391260a339321,61036bd0b6a3c9acf7e18597,2021-07-29_22h04.06.006,Simcolourproject_2stim_asymm_v5,2020.2.10,MacIntel,60,61025ae37ef11b136ea224fe,,,,,,,,,3204,-86.82421875,-24.390625,1,0,0,response5disk,,2,3.3359375,-16.33203125,1,0,0,rectangle,3.3359375,-16.33203125,1,0,0,3.3359375,-16.33203125,1,0,0,0,105,105,74,1,,,,,,,,
,,,,,,,,,,,,,FF,,,,,,,,0.6949,,,,,,,,,,,,,,,,,,,,,,610311f4fce391260a339321,61036bd0b6a3c9acf7e18597,2021-07-29_22h04.06.006,Simcolourproject_2stim_asymm_v5,2020.2.10,MacIntel,60,61025ae37ef11b136ea224fe,,,,,,,,,3391,-56.5625,-45.4609375,1,0,0,response5disk,,2,-17.23046875,-5.67578125,1,0,0,rectangle,94.20703125,46.20703125,1,0,0,16.7890625,-14.453125,1,0,0,0,106,106,143,1,,response1disk_3,TRUE,6,6,"[107,97,229,108,117,203,189,243,30,63,118,43,227,295,81,316,52,96,52,279]",1.6637,rectangle
,,,,,,,,,,,,,FF,,,,,,,,1.7008,,,,,,,,,,,,,,,,,,,,,,610311f4fce391260a339321,61036bd0b6a3c9acf7e18597,2021-07-29_22h04.06.006,Simcolourproject_2stim_asymm_v5,2020.2.10,MacIntel,60,61025ae37ef11b136ea224fe,,,,,,,,,720,-70.1953125,-31.703125,1,0,0,response5disk,,2,-2.70703125,-9.6015625,1,0,0,rectangle,56.1328125,92.59375,1,0,0,20.80859375,0.859375,1,0,0,0,107,107,112,1,,response1disk_3,TRUE,7,7,"[107,97,229,108,117,203,189,243,30,63,118,43,227,295,81,316,52,96,52,279]",1.4763,rectangle
,,,,,,,,,,,,,FF,,,,,,,,1.554,,,,,,,,,,,,,,,,,,,,,,610311f4fce391260a339321,61036bd0b6a3c9acf7e18597,2021-07-29_22h04.06.006,Simcolourproject_2stim_asymm_v5,2020.2.10,MacIntel,60,61025ae37ef11b136ea224fe,,,,,,,,,29,87.4296875,55.8203125,1,0,0,response1disk,,6,29.16796875,12.87890625,1,0,0,rectangle,29.16796875,12.87890625,1,0,0,29.16796875,12.87890625,1,0,0,0,108,108,15,1,,,,,,,,
,,,,,,,,,,,,,FF,,,,,,,,1.0001,,,,,,,,,,,,,,,,,,,,,,610311f4fce391260a339321,61036bd0b6a3c9acf7e18597,2021-07-29_22h04.06.006,Simcolourproject_2stim_asymm_v5,2020.2.10,MacIntel,60,61025ae37ef11b136ea224fe,,,,,,,,,2838,74.1015625,40.95703125,1,0,0,response1disk,,6,2.44921875,-6.96875,1,0,0,rectangle,2.44921875,-6.96875,1,0,0,2.44921875,-6.96875,1,0,0,0,109,109,84,1,,,,,,,,
,,,,,,,,,,,,,FF,,,,,,,,1.3617,,,,,,,,,,,,,,,,,,,,,,610311f4fce391260a339321,61036bd0b6a3c9acf7e18597,2021-07-29_22h04.06.006,Simcolourproject_2stim_asymm_v5,2020.2.10,MacIntel,60,61025ae37ef11b136ea224fe,,,,,,,,,4305,-79.1171875,37.12890625,1,0,0,response7disk,,1,-11.92578125,9.203125,1,0,0,rectangle,-11.92578125,9.203125,1,0,0,-11.92578125,9.203125,1,0,0,0,110,110,149,1,,,,,,,,
,,,,,,,,,,,,,FF,,,,,,,,0.711,,,,,,,,,,,,,,,,,,,,,,610311f4fce391260a339321,61036bd0b6a3c9acf7e18597,2021-07-29_22h04.06.006,Simcolourproject_2stim_asymm_v5,2020.2.10,MacIntel,60,61025ae37ef11b136ea224fe,,,,,,,,,2166,-84.8671875,39.69140625,1,0,0,response7disk,,1,-26.98828125,-0.6640625,1,0,0,rectangle,-26.98828125,-0.6640625,1,0,0,-26.98828125,-0.6640625,1,0,0,0,111,111,101,1,,,,,,,,
,,,,,,,,,,,,,FF,,,,,,,,1.2152,,,,,,,,,,,,,,,,,,,,,,610311f4fce391260a339321,61036bd0b6a3c9acf7e18597,2021-07-29_22h04.06.006,Simcolourproject_2stim_asymm_v5,2020.2.10,MacIntel,60,61025ae37ef11b136ea224fe,,,,,,,,,2367,-48.2734375,-80.38671875,1,0,0,response5disk,,3,-18.37109375,-0.51171875,1,0,0,rectangle,-18.37109375,-0.51171875,1,0,0,-18.37109375,-0.51171875,1,0,0,0,112,112,71,1,,,,,,,,
,,,,,,,,,,,,,FF,,,,,,,,1.3274,,,,,,,,,,,,,,,,,,,,,,610311f4fce391260a339321,61036bd0b6a3c9acf7e18597,2021-07-29_22h04.06.006,Simcolourproject_2stim_asymm_v5,2020.2.10,MacIntel,60,61025ae37ef11b136ea224fe,,,,,,,,,4153,77.28515625,46.31640625,1,0,0,response1disk,,6,12.9453125,-8.98046875,1,0,0,rectangle,12.9453125,-8.98046875,1,0,0,12.9453125,-8.98046875,1,0,0,0,113,113,145,1,,,,,,,,
,,,,,,,,,,,,,FF,,,,,,,,1.487,,,,,,,,,,,,,,,,,,,,,,610311f4fce391260a339321,61036bd0b6a3c9acf7e18597,2021-07-29_22h04.06.006,Simcolourproject_2stim_asymm_v5,2020.2.10,MacIntel,60,61025ae37ef11b136ea224fe,,,,,,,,,3798,42.3984375,-89.3984375,1,0,0,response3disk,,4,21.8828125,-2.7265625,1,0,0,rectangle,21.8828125,-2.7265625,1,0,0,21.8828125,-2.7265625,1,0,0,0,114,114,137,1,,,,,,,,
,,,,,,,,,,,,,FF,,,,,,,,1.8927,,,,,,,,,,,,,,,,,,,,,,610311f4fce391260a339321,61036bd0b6a3c9acf7e18597,2021-07-29_22h04.06.006,Simcolourproject_2stim_asymm_v5,2020.2.10,MacIntel,60,61025ae37ef11b136ea224fe,,,,,,,,,3003,36.8359375,-77.91015625,1,0,0,response3disk,,4,17.265625,-2.97265625,1,0,0,rectangle,17.265625,-2.97265625,1,0,0,17.265625,-2.97265625,1,0,0,0,115,115,3,1,,,,,,,,
,,,,,,,,,,,,,FF,,,,,,,,2.6143,,,,,,,,,,,,,,,,,,,,,,610311f4fce391260a339321,61036bd0b6a3c9acf7e18597,2021-07-29_22h04.06.006,Simcolourproject_2stim_asymm_v5,2020.2.10,MacIntel,60,61025ae37ef11b136ea224fe,,,,,,,,,1388,49.07421875,-84.84765625,1,0,0,response3disk,,4,5.1328125,-8.6953125,1,0,0,rectangle,82.55859375,-38.37109375,1,0,0,-8.51171875,-1.71875,1,0,0,0,116,116,88,1,,response3disk_3,TRUE,5,5,"[107,97,229,108,117,203,189,243,30,63,118,43,227,295,81,316,52,96,52,279]",1.2691,rectangle
,,,,,,,,,,,,,FF,,,,,,,,2.9703,,,,,,,,,,,,,,,,,,,,,,610311f4fce391260a339321,61036bd0b6a3c9acf7e18597,2021-07-29_22h04.06.006,Simcolourproject_2stim_asymm_v5,2020.2.10,MacIntel,60,61025ae37ef11b136ea224fe,,,,,,,,,2084,-42.671875,-75.8203125,1,0,0,response5disk,,3,-11.82421875,-8.375,1,0,0,rectangle,-101.1953125,52.48828125,1,0,0,-16.265625,-17.54296875,1,0,0,0,117,117,95,1,,response7disk_3,TRUE,1,1,"[107,97,229,108,117,203,189,243,30,63,118,43,227,295,81,316,52,96,52,279]",1.0997,rectangle
,,,,,,,,,,,,,FF,,,,,,,,0.9028,,,,,,,,,,,,,,,,,,,,,,610311f4fce391260a339321,61036bd0b6a3c9acf7e18597,2021-07-29_22h04.06.006,Simcolourproject_2stim_asymm_v5,2020.2.10,MacIntel,60,61025ae37ef11b136ea224fe,,,,,,,,,1784,-47.87890625,-105.1210938,1,0,0,response5disk,,3,-3.69921875,-8.515625,1,0,0,rectangle,-3.69921875,-8.515625,1,0,0,-3.69921875,-8.515625,1,0,0,0,118,118,158,1,,,,,,,,
,,,,,,,,,,,,,FF,,,,,,,,0.9391,,,,,,,,,,,,,,,,,,,,,,610311f4fce391260a339321,61036bd0b6a3c9acf7e18597,2021-07-29_22h04.06.006,Simcolourproject_2stim_asymm_v5,2020.2.10,MacIntel,60,61025ae37ef11b136ea224fe,,,,,,,,,3021,-48.68359375,-68.8359375,1,0,0,response5disk,,3,-9.84765625,-12.609375,1,0,0,rectangle,-9.84765625,-12.609375,1,0,0,-9.84765625,-12.609375,1,0,0,0,119,119,77,1,,,,,,,,
,,,,,,,,,,,,,FF,,,,,,,,2.2207,,,,,,,,,,,,,,,,,,,,,,610311f4fce391260a339321,61036bd0b6a3c9acf7e18597,2021-07-29_22h04.06.006,Simcolourproject_2stim_asymm_v5,2020.2.10,MacIntel,60,61025ae37ef11b136ea224fe,,,,,,,,,4011,61.7109375,-54.71875,1,0,0,response3disk,,5,5.49609375,9.171875,1,0,0,rectangle,5.49609375,9.171875,1,0,0,5.49609375,9.171875,1,0,0,0,120,120,64,1,,,,,,,,
,,,,,,,,,,,,,FF,,,,,,,,1.1224,,,,,,,,,,,,,,,,,,,,,,610311f4fce391260a339321,61036bd0b6a3c9acf7e18597,2021-07-29_22h04.06.006,Simcolourproject_2stim_asymm_v5,2020.2.10,MacIntel,60,61025ae37ef11b136ea224fe,,,,,,,,,2425,-63.43359375,-41.2109375,1,0,0,response5disk,,2,-7.2734375,0.70703125,1,0,0,rectangle,-7.2734375,0.70703125,1,0,0,-7.2734375,0.70703125,1,0,0,0,121,121,39,1,,,,,,,,
,,,,,,,,,,,,,FF,,,,,,,,1.6171,,,,,,,,,,,,,,,,,,,,,,610311f4fce391260a339321,61036bd0b6a3c9acf7e18597,2021-07-29_22h04.06.006,Simcolourproject_2stim_asymm_v5,2020.2.10,MacIntel,60,61025ae37ef11b136ea224fe,,,,,,,,,3758,31.68359375,-66.015625,1,0,0,response3disk,,4,25.984375,-11.37890625,1,0,0,rectangle,25.984375,-11.37890625,1,0,0,25.984375,-11.37890625,1,0,0,0,122,122,80,1,,,,,,,,
,,,,,,,,,,,,,FF,,,,,,,,0.8877,,,,,,,,,,,,,,,,,,,,,,610311f4fce391260a339321,61036bd0b6a3c9acf7e18597,2021-07-29_22h04.06.006,Simcolourproject_2stim_asymm_v5,2020.2.10,MacIntel,60,61025ae37ef11b136ea224fe,,,,,,,,,376,41.9453125,-77.8984375,1,0,0,response3disk,,4,28.203125,-17.3046875,1,0,0,rectangle,28.203125,-17.3046875,1,0,0,28.203125,-17.3046875,1,0,0,0,123,123,56,1,,,,,,,,
,,,,,,,,,,,,,FF,,,,,,,,1.0733,,,,,,,,,,,,,,,,,,,,,,610311f4fce391260a339321,61036bd0b6a3c9acf7e18597,2021-07-29_22h04.06.006,Simcolourproject_2stim_asymm_v5,2020.2.10,MacIntel,60,61025ae37ef11b136ea224fe,,,,,,,,,3991,63.73046875,-38.76171875,1,0,0,response3disk,,5,6.33984375,-11.41015625,1,0,0,rectangle,6.33984375,-11.41015625,1,0,0,6.33984375,-11.41015625,1,0,0,0,124,124,5,1,,,,,,,,
,,,,,,,,,,,,,FF,,,,,,,,1.2292,,,,,,,,,,,,,,,,,,,,,,610311f4fce391260a339321,61036bd0b6a3c9acf7e18597,2021-07-29_22h04.06.006,Simcolourproject_2stim_asymm_v5,2020.2.10,MacIntel,60,61025ae37ef11b136ea224fe,,,,,,,,,3803,102.71875,48.0703125,1,0,0,response1disk,,6,3.1640625,0.42578125,1,0,0,rectangle,3.1640625,0.42578125,1,0,0,3.1640625,0.42578125,1,0,0,0,125,125,12,1,,,,,,,,
,,,,,,,,,,,,,FF,,,,,,,,1.596,,,,,,,,,,,,,,,,,,,,,,610311f4fce391260a339321,61036bd0b6a3c9acf7e18597,2021-07-29_22h04.06.006,Simcolourproject_2stim_asymm_v5,2020.2.10,MacIntel,60,61025ae37ef11b136ea224fe,,,,,,,,,4047,-75.7265625,-53.4453125,1,0,0,response5disk,,2,-23.71875,-11.53515625,1,0,0,rectangle,-23.71875,-11.53515625,1,0,0,-23.71875,-11.53515625,1,0,0,0,126,126,118,1,,,,,,,,
,,,,,,,,,,,,,FF,,,,,,,,1.2839,,,,,,,,,,,,,,,,,,,,,,610311f4fce391260a339321,61036bd0b6a3c9acf7e18597,2021-07-29_22h04.06.006,Simcolourproject_2stim_asymm_v5,2020.2.10,MacIntel,60,61025ae37ef11b136ea224fe,,,,,,,,,2763,88.25,-49.640625,1,0,0,response3disk,,5,15.96484375,-8.75390625,1,0,0,rectangle,15.96484375,-8.75390625,1,0,0,15.96484375,-8.75390625,1,0,0,0,127,127,52,1,,,,,,,,
,,,,,,,,,,,,,FF,,,,,,,,0.9694,,,,,,,,,,,,,,,,,,,,,,610311f4fce391260a339321,61036bd0b6a3c9acf7e18597,2021-07-29_22h04.06.006,Simcolourproject_2stim_asymm_v5,2020.2.10,MacIntel,60,61025ae37ef11b136ea224fe,,,,,,,,,2403,94.484375,-55.69140625,1,0,0,response3disk,,5,4.83984375,-10.11328125,1,0,0,rectangle,4.83984375,-10.11328125,1,0,0,4.83984375,-10.11328125,1,0,0,0,128,128,157,1,,,,,,,,
,,,,,,,,,,,,,FF,,,,,,,,1.0258,,,,,,,,,,,,,,,,,,,,,,610311f4fce391260a339321,61036bd0b6a3c9acf7e18597,2021-07-29_22h04.06.006,Simcolourproject_2stim_asymm_v5,2020.2.10,MacIntel,60,61025ae37ef11b136ea224fe,,,,,,,,,2928,90.25390625,-39.5,1,0,0,response3disk,,5,-14.5859375,-9.19140625,1,0,0,rectangle,-14.5859375,-9.19140625,1,0,0,-14.5859375,-9.19140625,1,0,0,0,129,129,98,1,,,,,,,,
,,,,,,,,,,,,,FF,,,,,,,,1.4367,,,,,,,,,,,,,,,,,,,,,,610311f4fce391260a339321,61036bd0b6a3c9acf7e18597,2021-07-29_22h04.06.006,Simcolourproject_2stim_asymm_v5,2020.2.10,MacIntel,60,61025ae37ef11b136ea224fe,,,,,,,,,857,52.53125,-81.2734375,1,0,0,response3disk,,4,5.08984375,-3.30859375,1,0,0,rectangle,5.08984375,-3.30859375,1,0,0,5.08984375,-3.30859375,1,0,0,0,130,130,8,1,,,,,,,,
,,,,,,,,,,,,,FF,,,,,,,,1.448,,,,,,,,,,,,,,,,,,,,,,610311f4fce391260a339321,61036bd0b6a3c9acf7e18597,2021-07-29_22h04.06.006,Simcolourproject_2stim_asymm_v5,2020.2.10,MacIntel,60,61025ae37ef11b136ea224fe,,,,,,,,,3184,97.68359375,53.63671875,1,0,0,response1disk,,6,7.4453125,-6.78125,1,0,0,rectangle,7.4453125,-6.78125,1,0,0,7.4453125,-6.78125,1,0,0,0,131,131,38,1,,,,,,,,
,,,,,,,,,,,,,FF,,,,,,,,0.8179,,,,,,,,,,,,,,,,,,,,,,610311f4fce391260a339321,61036bd0b6a3c9acf7e18597,2021-07-29_22h04.06.006,Simcolourproject_2stim_asymm_v5,2020.2.10,MacIntel,60,61025ae37ef11b136ea224fe,,,,,,,,,3551,-49.140625,101.0195313,1,0,0,response7disk,,0,-18.88671875,19.15234375,1,0,0,rectangle,-18.88671875,19.15234375,1,0,0,-18.88671875,19.15234375,1,0,0,0,132,132,10,1,,,,,,,,
,,,,,,,,,,,,,FF,,,,,,,,0.9281,,,,,,,,,,,,,,,,,,,,,,610311f4fce391260a339321,61036bd0b6a3c9acf7e18597,2021-07-29_22h04.06.006,Simcolourproject_2stim_asymm_v5,2020.2.10,MacIntel,60,61025ae37ef11b136ea224fe,,,,,,,,,4002,-93.109375,-50.6484375,1,0,0,response5disk,,2,-10.92578125,-2.12890625,1,0,0,rectangle,-10.92578125,-2.12890625,1,0,0,-10.92578125,-2.12890625,1,0,0,0,133,133,115,1,,,,,,,,
,,,,,,,,,,,,,FF,,,,,,,,0.9535,,,,,,,,,,,,,,,,,,,,,,610311f4fce391260a339321,61036bd0b6a3c9acf7e18597,2021-07-29_22h04.06.006,Simcolourproject_2stim_asymm_v5,2020.2.10,MacIntel,60,61025ae37ef11b136ea224fe,,,,,,,,,3666,107.8515625,51.890625,1,0,0,response1disk,,6,-3.0390625,-8.56640625,1,0,0,rectangle,-3.0390625,-8.56640625,1,0,0,-3.0390625,-8.56640625,1,0,0,0,134,134,34,1,,,,,,,,
,,,,,,,,,,,,,FF,,,,,,,,1.0404,,,,,,,,,,,,,,,,,,,,,,610311f4fce391260a339321,61036bd0b6a3c9acf7e18597,2021-07-29_22h04.06.006,Simcolourproject_2stim_asymm_v5,2020.2.10,MacIntel,60,61025ae37ef11b136ea224fe,,,,,,,,,1015,94.046875,50.43359375,1,0,0,response1disk,,6,15.74609375,-12.35546875,1,0,0,rectangle,15.74609375,-12.35546875,1,0,0,15.74609375,-12.35546875,1,0,0,0,135,135,41,1,,,,,,,,
,,,,,,,,,,,,,FF,,,,,,,,1.0433,,,,,,,,,,,,,,,,,,,,,,610311f4fce391260a339321,61036bd0b6a3c9acf7e18597,2021-07-29_22h04.06.006,Simcolourproject_2stim_asymm_v5,2020.2.10,MacIntel,60,61025ae37ef11b136ea224fe,,,,,,,,,3676,-89.50390625,-51.1953125,1,0,0,response5disk,,2,-10.41015625,10.41796875,1,0,0,rectangle,-10.41015625,10.41796875,1,0,0,-10.41015625,10.41796875,1,0,0,0,136,136,53,1,,,,,,,,
,,,,,,,,,,,,,FF,,,,,,,,1.0902,,,,,,,,,,,,,,,,,,,,,,610311f4fce391260a339321,61036bd0b6a3c9acf7e18597,2021-07-29_22h04.06.006,Simcolourproject_2stim_asymm_v5,2020.2.10,MacIntel,60,61025ae37ef11b136ea224fe,,,,,,,,,493,118.2890625,-58.7109375,1,0,0,response3disk,,5,30.1484375,2.140625,1,0,0,rectangle,30.1484375,2.140625,1,0,0,30.1484375,2.140625,1,0,0,0,137,137,4,1,,,,,,,,
,,,,,,,,,,,,,FF,,,,,,,,0.8459,,,,,,,,,,,,,,,,,,,,,,610311f4fce391260a339321,61036bd0b6a3c9acf7e18597,2021-07-29_22h04.06.006,Simcolourproject_2stim_asymm_v5,2020.2.10,MacIntel,60,61025ae37ef11b136ea224fe,,,,,,,,,2998,-89.4296875,-44.65625,1,0,0,response5disk,,2,-19.328125,-11.2578125,1,0,0,rectangle,-19.328125,-11.2578125,1,0,0,-19.328125,-11.2578125,1,0,0,0,138,138,129,1,,,,,,,,
,,,,,,,,,,,,,FF,,,,,,,,0.7835,,,,,,,,,,,,,,,,,,,,,,610311f4fce391260a339321,61036bd0b6a3c9acf7e18597,2021-07-29_22h04.06.006,Simcolourproject_2stim_asymm_v5,2020.2.10,MacIntel,60,61025ae37ef11b136ea224fe,,,,,,,,,2955,-85.53125,-52.75,1,0,0,response5disk,,2,3.65625,18.8125,1,0,0,rectangle,3.65625,18.8125,1,0,0,3.65625,18.8125,1,0,0,0,139,139,16,1,,,,,,,,
,,,,,,,,,,,,,FF,,,,,,,,0.9142,,,,,,,,,,,,,,,,,,,,,,610311f4fce391260a339321,61036bd0b6a3c9acf7e18597,2021-07-29_22h04.06.006,Simcolourproject_2stim_asymm_v5,2020.2.10,MacIntel,60,61025ae37ef11b136ea224fe,,,,,,,,,3439,-71.94140625,-46.9921875,1,0,0,response5disk,,2,0.34375,12.25,1,0,0,rectangle,0.34375,12.25,1,0,0,0.34375,12.25,1,0,0,0,140,140,159,1,,,,,,,,
,,,,,,,,,,,,,FF,,,,,,,,0.6758,,,,,,,,,,,,,,,,,,,,,,610311f4fce391260a339321,61036bd0b6a3c9acf7e18597,2021-07-29_22h04.06.006,Simcolourproject_2stim_asymm_v5,2020.2.10,MacIntel,60,61025ae37ef11b136ea224fe,,,,,,,,,1145,-80.7109375,38.51953125,1,0,0,response7disk,,1,-14.3203125,1.3515625,1,0,0,rectangle,-14.3203125,1.3515625,1,0,0,-14.3203125,1.3515625,1,0,0,0,141,141,36,1,,,,,,,,
,,,,,,,,,,,,,FF,,,,,,,,0.5736,,,,,,,,,,,,,,,,,,,,,,610311f4fce391260a339321,61036bd0b6a3c9acf7e18597,2021-07-29_22h04.06.006,Simcolourproject_2stim_asymm_v5,2020.2.10,MacIntel,60,61025ae37ef11b136ea224fe,,,,,,,,,1462,-84.296875,33.94140625,1,0,0,response7disk,,1,14.4296875,16.10546875,1,0,0,rectangle,14.4296875,16.10546875,1,0,0,14.4296875,16.10546875,1,0,0,0,142,142,89,1,,,,,,,,
,,,,,,,,,,,,,FF,,,,,,,,0.8228,,,,,,,,,,,,,,,,,,,,,,610311f4fce391260a339321,61036bd0b6a3c9acf7e18597,2021-07-29_22h04.06.006,Simcolourproject_2stim_asymm_v5,2020.2.10,MacIntel,60,61025ae37ef11b136ea224fe,,,,,,,,,1034,58.3359375,-93.6484375,1,0,0,response3disk,,4,15.9296875,1.41015625,1,0,0,rectangle,15.9296875,1.41015625,1,0,0,15.9296875,1.41015625,1,0,0,0,143,143,28,1,,,,,,,,
,,,,,,,,,,,,,FF,,,,,,,,1.4603,,,,,,,,,,,,,,,,,,,,,,610311f4fce391260a339321,61036bd0b6a3c9acf7e18597,2021-07-29_22h04.06.006,Simcolourproject_2stim_asymm_v5,2020.2.10,MacIntel,60,61025ae37ef11b136ea224fe,,,,,,,,,600,-40.13671875,-73.12109375,1,0,0,response5disk,,3,-11.97265625,0.73046875,1,0,0,rectangle,-11.97265625,0.73046875,1,0,0,-11.97265625,0.73046875,1,0,0,0,144,144,59,1,,,,,,,,
,,,,,,,,,,,,,FF,,,,,,,,1.3508,,,,,,,,,,,,,,,,,,,,,,610311f4fce391260a339321,61036bd0b6a3c9acf7e18597,2021-07-29_22h04.06.006,Simcolourproject_2stim_asymm_v5,2020.2.10,MacIntel,60,61025ae37ef11b136ea224fe,,,,,,,,,292,-96.79296875,-66.24609375,1,0,0,response5disk,,2,-0.359375,-8.87109375,1,0,0,rectangle,-0.359375,-8.87109375,1,0,0,-0.359375,-8.87109375,1,0,0,0,145,145,154,1,,,,,,,,
,,,,,,,,,,,,,FF,,,,,,,,1.7651,,,,,,,,,,,,,,,,,,,,,,610311f4fce391260a339321,61036bd0b6a3c9acf7e18597,2021-07-29_22h04.06.006,Simcolourproject_2stim_asymm_v5,2020.2.10,MacIntel,60,61025ae37ef11b136ea224fe,,,,,,,,,2570,-27.74609375,-92.828125,1,0,0,response5disk,,3,-20.625,-1.94921875,1,0,0,rectangle,-20.625,-1.94921875,1,0,0,-20.625,-1.94921875,1,0,0,0,146,146,55,1,,,,,,,,
,,,,,,,,,,,,,FF,,,,,,,,0.9723,,,,,,,,,,,,,,,,,,,,,,610311f4fce391260a339321,61036bd0b6a3c9acf7e18597,2021-07-29_22h04.06.006,Simcolourproject_2stim_asymm_v5,2020.2.10,MacIntel,60,61025ae37ef11b136ea224fe,,,,,,,,,1892,-101.7773438,-43.8828125,1,0,0,response5disk,,2,-36,-8.19140625,1,0,0,rectangle,-36,-8.19140625,1,0,0,-36,-8.19140625,1,0,0,0,147,147,21,1,,,,,,,,
,,,,,,,,,,,,,FF,,,,,,,,0.9076,,,,,,,,,,,,,,,,,,,,,,610311f4fce391260a339321,61036bd0b6a3c9acf7e18597,2021-07-29_22h04.06.006,Simcolourproject_2stim_asymm_v5,2020.2.10,MacIntel,60,61025ae37ef11b136ea224fe,,,,,,,,,737,-52.6484375,-115.8515625,1,0,0,response5disk,,3,-18.62890625,-16.43359375,1,0,0,rectangle,-18.62890625,-16.43359375,1,0,0,-18.62890625,-16.43359375,1,0,0,0,148,148,135,1,,,,,,,,
,,,,,,,,,,,,,FF,,,,,,,,0.9472,,,,,,,,,,,,,,,,,,,,,,610311f4fce391260a339321,61036bd0b6a3c9acf7e18597,2021-07-29_22h04.06.006,Simcolourproject_2stim_asymm_v5,2020.2.10,MacIntel,60,61025ae37ef11b136ea224fe,,,,,,,,,1412,96.26953125,-45.25,1,0,0,response3disk,,5,-4.359375,-13.09375,1,0,0,rectangle,-4.359375,-13.09375,1,0,0,-4.359375,-13.09375,1,0,0,0,149,149,40,1,,,,,,,,
,,,,,,,,,,,,,FF,,,,,,,,2.3363,,,,,,,,,,,,,,,,,,,,,,610311f4fce391260a339321,61036bd0b6a3c9acf7e18597,2021-07-29_22h04.06.006,Simcolourproject_2stim_asymm_v5,2020.2.10,MacIntel,60,61025ae37ef11b136ea224fe,,,,,,,,,1657,47.02734375,-60.828125,1,0,0,response3disk,,4,8.203125,-12.3203125,1,0,0,rectangle,8.203125,-12.3203125,1,0,0,8.203125,-12.3203125,1,0,0,0,150,150,119,1,,,,,,,,
,,,,,,,,,,,,,FF,,,,,,,,0.8684,,,,,,,,,,,,,,,,,,,,,,610311f4fce391260a339321,61036bd0b6a3c9acf7e18597,2021-07-29_22h04.06.006,Simcolourproject_2stim_asymm_v5,2020.2.10,MacIntel,60,61025ae37ef11b136ea224fe,,,,,,,,,2,-94.953125,-52.03125,1,0,0,response5disk,,2,2.83203125,13.8984375,1,0,0,rectangle,2.83203125,13.8984375,1,0,0,2.83203125,13.8984375,1,0,0,0,151,151,22,1,,,,,,,,
,,,,,,,,,,,,,FF,,,,,,,,0.7794,,,,,,,,,,,,,,,,,,,,,,610311f4fce391260a339321,61036bd0b6a3c9acf7e18597,2021-07-29_22h04.06.006,Simcolourproject_2stim_asymm_v5,2020.2.10,MacIntel,60,61025ae37ef11b136ea224fe,,,,,,,,,2235,-62.875,42.98828125,1,0,0,response7disk,,1,-14.35546875,20.4140625,1,0,0,rectangle,-14.35546875,20.4140625,1,0,0,-14.35546875,20.4140625,1,0,0,0,152,152,26,1,,,,,,,,
,,,,,,,,,,,,,FF,,,,,,,,0.8706,,,,,,,,,,,,,,,,,,,,,,610311f4fce391260a339321,61036bd0b6a3c9acf7e18597,2021-07-29_22h04.06.006,Simcolourproject_2stim_asymm_v5,2020.2.10,MacIntel,60,61025ae37ef11b136ea224fe,,,,,,,,,725,-83.1171875,-36.453125,1,0,0,response5disk,,2,-0.765625,-7.0390625,1,0,0,rectangle,-0.765625,-7.0390625,1,0,0,-0.765625,-7.0390625,1,0,0,0,153,153,93,1,,,,,,,,
,,,,,,,,,,,,,FF,,,,,,,,0.8838,,,,,,,,,,,,,,,,,,,,,,610311f4fce391260a339321,61036bd0b6a3c9acf7e18597,2021-07-29_22h04.06.006,Simcolourproject_2stim_asymm_v5,2020.2.10,MacIntel,60,61025ae37ef11b136ea224fe,,,,,,,,,3061,52.31640625,-79.78125,1,0,0,response3disk,,4,15.46484375,-9.90625,1,0,0,rectangle,15.46484375,-9.90625,1,0,0,15.46484375,-9.90625,1,0,0,0,154,154,120,1,,,,,,,,
,,,,,,,,,,,,,FF,,,,,,,,1.7988,,,,,,,,,,,,,,,,,,,,,,610311f4fce391260a339321,61036bd0b6a3c9acf7e18597,2021-07-29_22h04.06.006,Simcolourproject_2stim_asymm_v5,2020.2.10,MacIntel,60,61025ae37ef11b136ea224fe,,,,,,,,,1660,-77.33203125,-59.8828125,1,0,0,response5disk,,2,-16.44921875,-11.18359375,1,0,0,rectangle,-16.44921875,-11.18359375,1,0,0,-16.44921875,-11.18359375,1,0,0,0,155,155,111,1,,,,,,,,
,,,,,,,,,,,,,FF,,,,,,,,1.2863,,,,,,,,,,,,,,,,,,,,,,610311f4fce391260a339321,61036bd0b6a3c9acf7e18597,2021-07-29_22h04.06.006,Simcolourproject_2stim_asymm_v5,2020.2.10,MacIntel,60,61025ae37ef11b136ea224fe,,,,,,,,,1805,-27.16015625,-82.9296875,1,0,0,response5disk,,3,-4.8828125,-4.87109375,1,0,0,rectangle,-4.8828125,-4.87109375,1,0,0,-4.8828125,-4.87109375,1,0,0,0,156,156,86,1,,,,,,,,
,,,,,,,,,,,,,FF,,,,,,,,1.1583,,,,,,,,,,,,,,,,,,,,,,610311f4fce391260a339321,61036bd0b6a3c9acf7e18597,2021-07-29_22h04.06.006,Simcolourproject_2stim_asymm_v5,2020.2.10,MacIntel,60,61025ae37ef11b136ea224fe,,,,,,,,,1185,78.47265625,-27.3984375,1,0,0,response3disk,,5,-0.3125,-3.3046875,1,0,0,rectangle,-0.3125,-3.3046875,1,0,0,-0.3125,-3.3046875,1,0,0,0,157,157,104,1,,,,,,,,
,,,,,,,,,,,,,FF,,,,,,,,1.2509,,,,,,,,,,,,,,,,,,,,,,610311f4fce391260a339321,61036bd0b6a3c9acf7e18597,2021-07-29_22h04.06.006,Simcolourproject_2stim_asymm_v5,2020.2.10,MacIntel,60,61025ae37ef11b136ea224fe,,,,,,,,,1450,-80.09375,-43.39453125,1,0,0,response5disk,,2,-8.953125,-11.48828125,1,0,0,rectangle,-8.953125,-11.48828125,1,0,0,-8.953125,-11.48828125,1,0,0,0,158,158,19,1,,,,,,,,
,,,,,,,,,,,,,FF,,,,,,,,0.7797,,,,,,,,,,,,,,,,,,,,,,610311f4fce391260a339321,61036bd0b6a3c9acf7e18597,2021-07-29_22h04.06.006,Simcolourproject_2stim_asymm_v5,2020.2.10,MacIntel,60,61025ae37ef11b136ea224fe,,,,,,,,,4251,-43.37890625,76.26953125,1,0,0,response7disk,,0,-33.109375,-9.45703125,1,0,0,rectangle,-33.109375,-9.45703125,1,0,0,-33.109375,-9.45703125,1,0,0,0,159,159,47,1,,,,,,,,
,,,,,,,,,,,,,FF,,,,,,,,4.2097,,,,,,,,,,,,,,,,,,,,,,610311f4fce391260a339321,61036bd0b6a3c9acf7e18597,2021-07-29_22h04.06.006,Simcolourproject_2stim_asymm_v5,2020.2.10,MacIntel,60,61025ae37ef11b136ea224fe,,,,,,,,,4115,46.57421875,-77.08203125,1,0,0,response3disk,,4,7.21875,-15.25390625,1,0,0,rectangle,7.21875,-15.25390625,1,0,0,7.21875,-15.25390625,1,0,0,1,0,160,139,1,,,,,,,,
,,,,,,,,,,,,,FF,,,,,,,,1.0346,,,,,,,,,,,,,,,,,,,,,,610311f4fce391260a339321,61036bd0b6a3c9acf7e18597,2021-07-29_22h04.06.006,Simcolourproject_2stim_asymm_v5,2020.2.10,MacIntel,60,61025ae37ef11b136ea224fe,,,,,,,,,1839,-38.72265625,-71.1328125,1,0,0,response5disk,,3,-11.1875,-19.09765625,1,0,0,rectangle,-11.1875,-19.09765625,1,0,0,-11.1875,-19.09765625,1,0,0,1,1,161,49,1,,,,,,,,
,,,,,,,,,,,,,FF,,,,,,,,0.8999,,,,,,,,,,,,,,,,,,,,,,610311f4fce391260a339321,61036bd0b6a3c9acf7e18597,2021-07-29_22h04.06.006,Simcolourproject_2stim_asymm_v5,2020.2.10,MacIntel,60,61025ae37ef11b136ea224fe,,,,,,,,,700,-89.48046875,-50.54296875,1,0,0,response5disk,,2,15.5625,2.79296875,1,0,0,rectangle,15.5625,2.79296875,1,0,0,15.5625,2.79296875,1,0,0,1,2,162,85,1,,,,,,,,
,,,,,,,,,,,,,FF,,,,,,,,0.8433,,,,,,,,,,,,,,,,,,,,,,610311f4fce391260a339321,61036bd0b6a3c9acf7e18597,2021-07-29_22h04.06.006,Simcolourproject_2stim_asymm_v5,2020.2.10,MacIntel,60,61025ae37ef11b136ea224fe,,,,,,,,,3000,-35.32421875,86.57421875,1,0,0,response7disk,,0,-18.12890625,-2.7265625,1,0,0,rectangle,-18.12890625,-2.7265625,1,0,0,-18.12890625,-2.7265625,1,0,0,1,3,163,23,1,,,,,,,,
,,,,,,,,,,,,,FF,,,,,,,,1.7725,,,,,,,,,,,,,,,,,,,,,,610311f4fce391260a339321,61036bd0b6a3c9acf7e18597,2021-07-29_22h04.06.006,Simcolourproject_2stim_asymm_v5,2020.2.10,MacIntel,60,61025ae37ef11b136ea224fe,,,,,,,,,3200,-57.3671875,-88.77734375,1,0,0,response5disk,,3,-14.046875,6.203125,1,0,0,rectangle,-14.046875,6.203125,1,0,0,-14.046875,6.203125,1,0,0,1,4,164,2,1,,,,,,,,
,,,,,,,,,,,,,FF,,,,,,,,1.02,,,,,,,,,,,,,,,,,,,,,,610311f4fce391260a339321,61036bd0b6a3c9acf7e18597,2021-07-29_22h04.06.006,Simcolourproject_2stim_asymm_v5,2020.2.10,MacIntel,60,61025ae37ef11b136ea224fe,,,,,,,,,3905,76.05859375,107,1,0,0,response1disk,,7,32.4609375,1.93359375,1,0,0,rectangle,32.4609375,1.93359375,1,0,0,32.4609375,1.93359375,1,0,0,1,5,165,78,1,,,,,,,,
,,,,,,,,,,,,,FF,,,,,,,,1.2675,,,,,,,,,,,,,,,,,,,,,,610311f4fce391260a339321,61036bd0b6a3c9acf7e18597,2021-07-29_22h04.06.006,Simcolourproject_2stim_asymm_v5,2020.2.10,MacIntel,60,61025ae37ef11b136ea224fe,,,,,,,,,1425,40.359375,-102.1757813,1,0,0,response3disk,,4,-8.7109375,6.56640625,1,0,0,rectangle,-8.7109375,6.56640625,1,0,0,-8.7109375,6.56640625,1,0,0,1,6,166,94,1,,,,,,,,
,,,,,,,,,,,,,FF,,,,,,,,2.0694,,,,,,,,,,,,,,,,,,,,,,610311f4fce391260a339321,61036bd0b6a3c9acf7e18597,2021-07-29_22h04.06.006,Simcolourproject_2stim_asymm_v5,2020.2.10,MacIntel,60,61025ae37ef11b136ea224fe,,,,,,,,,819,38.8828125,-70.7578125,1,0,0,response3disk,,4,11.38671875,-6.21484375,1,0,0,rectangle,11.38671875,-6.21484375,1,0,0,11.38671875,-6.21484375,1,0,0,1,7,167,104,1,,,,,,,,
,,,,,,,,,,,,,FF,,,,,,,,1.098,,,,,,,,,,,,,,,,,,,,,,610311f4fce391260a339321,61036bd0b6a3c9acf7e18597,2021-07-29_22h04.06.006,Simcolourproject_2stim_asymm_v5,2020.2.10,MacIntel,60,61025ae37ef11b136ea224fe,,,,,,,,,1323,117.2578125,54.8046875,1,0,0,response1disk,,6,11.28125,-0.3515625,1,0,0,rectangle,11.28125,-0.3515625,1,0,0,11.28125,-0.3515625,1,0,0,1,8,168,35,1,,,,,,,,
,,,,,,,,,,,,,FF,,,,,,,,0.9295,,,,,,,,,,,,,,,,,,,,,,610311f4fce391260a339321,61036bd0b6a3c9acf7e18597,2021-07-29_22h04.06.006,Simcolourproject_2stim_asymm_v5,2020.2.10,MacIntel,60,61025ae37ef11b136ea224fe,,,,,,,,,1611,-64.4296875,27.7421875,1,0,0,response7disk,,1,-9.15234375,14.25390625,1,0,0,rectangle,-9.15234375,14.25390625,1,0,0,-9.15234375,14.25390625,1,0,0,1,9,169,16,1,,,,,,,,
,,,,,,,,,,,,,FF,,,,,,,,1.4216,,,,,,,,,,,,,,,,,,,,,,610311f4fce391260a339321,61036bd0b6a3c9acf7e18597,2021-07-29_22h04.06.006,Simcolourproject_2stim_asymm_v5,2020.2.10,MacIntel,60,61025ae37ef11b136ea224fe,,,,,,,,,1416,46.14453125,-72.28125,1,0,0,response3disk,,4,23.28125,-18.01171875,1,0,0,rectangle,23.28125,-18.01171875,1,0,0,23.28125,-18.01171875,1,0,0,1,10,170,128,1,,,,,,,,
,,,,,,,,,,,,,FF,,,,,,,,0.9904,,,,,,,,,,,,,,,,,,,,,,610311f4fce391260a339321,61036bd0b6a3c9acf7e18597,2021-07-29_22h04.06.006,Simcolourproject_2stim_asymm_v5,2020.2.10,MacIntel,60,61025ae37ef11b136ea224fe,,,,,,,,,101,29.28515625,-40.40234375,1,0,0,response3disk,,4,13.85546875,-8.54296875,1,0,0,rectangle,13.85546875,-8.54296875,1,0,0,13.85546875,-8.54296875,1,0,0,1,11,171,82,1,,,,,,,,
,,,,,,,,,,,,,FF,,,,,,,,0.7604,,,,,,,,,,,,,,,,,,,,,,610311f4fce391260a339321,61036bd0b6a3c9acf7e18597,2021-07-29_22h04.06.006,Simcolourproject_2stim_asymm_v5,2020.2.10,MacIntel,60,61025ae37ef11b136ea224fe,,,,,,,,,0,-43.99609375,101.65625,1,0,0,response7disk,,0,-17.38671875,9.19140625,1,0,0,rectangle,-17.38671875,9.19140625,1,0,0,-17.38671875,9.19140625,1,0,0,1,12,172,71,1,,,,,,,,
,,,,,,,,,,,,,FF,,,,,,,,1.7418,,,,,,,,,,,,,,,,,,,,,,610311f4fce391260a339321,61036bd0b6a3c9acf7e18597,2021-07-29_22h04.06.006,Simcolourproject_2stim_asymm_v5,2020.2.10,MacIntel,60,61025ae37ef11b136ea224fe,,,,,,,,,4087,-39.328125,-58.54296875,1,0,0,response5disk,,3,-12.4453125,7.12890625,1,0,0,rectangle,-12.4453125,7.12890625,1,0,0,-12.4453125,7.12890625,1,0,0,1,13,173,53,1,,,,,,,,
,,,,,,,,,,,,,FF,,,,,,,,1.3504,,,,,,,,,,,,,,,,,,,,,,610311f4fce391260a339321,61036bd0b6a3c9acf7e18597,2021-07-29_22h04.06.006,Simcolourproject_2stim_asymm_v5,2020.2.10,MacIntel,60,61025ae37ef11b136ea224fe,,,,,,,,,4006,-35.4609375,-97.32421875,1,0,0,response5disk,,3,-11.4765625,-1.7890625,1,0,0,rectangle,-11.4765625,-1.7890625,1,0,0,-11.4765625,-1.7890625,1,0,0,1,14,174,37,1,,,,,,,,
,,,,,,,,,,,,,FF,,,,,,,,0.992,,,,,,,,,,,,,,,,,,,,,,610311f4fce391260a339321,61036bd0b6a3c9acf7e18597,2021-07-29_22h04.06.006,Simcolourproject_2stim_asymm_v5,2020.2.10,MacIntel,60,61025ae37ef11b136ea224fe,,,,,,,,,3043,98.73046875,31.01953125,1,0,0,response1disk,,6,-9.6953125,-16.91015625,1,0,0,rectangle,-9.6953125,-16.91015625,1,0,0,-9.6953125,-16.91015625,1,0,0,1,15,175,134,1,,,,,,,,
,,,,,,,,,,,,,FF,,,,,,,,1.2554,,,,,,,,,,,,,,,,,,,,,,610311f4fce391260a339321,61036bd0b6a3c9acf7e18597,2021-07-29_22h04.06.006,Simcolourproject_2stim_asymm_v5,2020.2.10,MacIntel,60,61025ae37ef11b136ea224fe,,,,,,,,,2163,-44.3359375,-76.16015625,1,0,0,response5disk,,3,-1.29296875,0.2421875,1,0,0,rectangle,-1.29296875,0.2421875,1,0,0,-1.29296875,0.2421875,1,0,0,1,16,176,126,1,,,,,,,,
,,,,,,,,,,,,,FF,,,,,,,,1.0945,,,,,,,,,,,,,,,,,,,,,,610311f4fce391260a339321,61036bd0b6a3c9acf7e18597,2021-07-29_22h04.06.006,Simcolourproject_2stim_asymm_v5,2020.2.10,MacIntel,60,61025ae37ef11b136ea224fe,,,,,,,,,1075,110.4492188,43.9921875,1,0,0,response1disk,,6,12.67578125,-0.046875,1,0,0,rectangle,12.67578125,-0.046875,1,0,0,12.67578125,-0.046875,1,0,0,1,17,177,26,1,,,,,,,,
,,,,,,,,,,,,,FF,,,,,,,,1.3408,,,,,,,,,,,,,,,,,,,,,,610311f4fce391260a339321,61036bd0b6a3c9acf7e18597,2021-07-29_22h04.06.006,Simcolourproject_2stim_asymm_v5,2020.2.10,MacIntel,60,61025ae37ef11b136ea224fe,,,,,,,,,1205,103.125,-35.625,1,0,0,response3disk,,5,31.33203125,-7.9375,1,0,0,rectangle,31.33203125,-7.9375,1,0,0,31.33203125,-7.9375,1,0,0,1,18,178,92,1,,,,,,,,
,,,,,,,,,,,,,FF,,,,,,,,1.2624,,,,,,,,,,,,,,,,,,,,,,610311f4fce391260a339321,61036bd0b6a3c9acf7e18597,2021-07-29_22h04.06.006,Simcolourproject_2stim_asymm_v5,2020.2.10,MacIntel,60,61025ae37ef11b136ea224fe,,,,,,,,,3563,120.0390625,51.84375,1,0,0,response1disk,,6,23.7421875,12.65234375,1,0,0,rectangle,23.7421875,12.65234375,1,0,0,23.7421875,12.65234375,1,0,0,1,19,179,107,1,,,,,,,,
,,,,,,,,,,,,,FF,,,,,,,,0.8507,,,,,,,,,,,,,,,,,,,,,,610311f4fce391260a339321,61036bd0b6a3c9acf7e18597,2021-07-29_22h04.06.006,Simcolourproject_2stim_asymm_v5,2020.2.10,MacIntel,60,61025ae37ef11b136ea224fe,,,,,,,,,414,57.55859375,91.23828125,1,0,0,response1disk,,7,15.62109375,7.296875,1,0,0,rectangle,15.62109375,7.296875,1,0,0,15.62109375,7.296875,1,0,0,1,20,180,93,1,,,,,,,,
,,,,,,,,,,,,,FF,,,,,,,,2.2192,,,,,,,,,,,,,,,,,,,,,,610311f4fce391260a339321,61036bd0b6a3c9acf7e18597,2021-07-29_22h04.06.006,Simcolourproject_2stim_asymm_v5,2020.2.10,MacIntel,60,61025ae37ef11b136ea224fe,,,,,,,,,4329,-53.92578125,-94.5390625,1,0,0,response5disk,,3,-10.83203125,-0.7890625,1,0,0,rectangle,-10.83203125,-0.7890625,1,0,0,-10.83203125,-0.7890625,1,0,0,1,21,181,144,1,,,,,,,,
,,,,,,,,,,,,,FF,,,,,,,,0.767,,,,,,,,,,,,,,,,,,,,,,610311f4fce391260a339321,61036bd0b6a3c9acf7e18597,2021-07-29_22h04.06.006,Simcolourproject_2stim_asymm_v5,2020.2.10,MacIntel,60,61025ae37ef11b136ea224fe,,,,,,,,,3843,-46.80859375,72.375,1,0,0,response7disk,,0,-25.80078125,0.8046875,1,0,0,rectangle,-25.80078125,0.8046875,1,0,0,-25.80078125,0.8046875,1,0,0,1,22,182,56,1,,,,,,,,
,,,,,,,,,,,,,FF,,,,,,,,0.9211,,,,,,,,,,,,,,,,,,,,,,610311f4fce391260a339321,61036bd0b6a3c9acf7e18597,2021-07-29_22h04.06.006,Simcolourproject_2stim_asymm_v5,2020.2.10,MacIntel,60,61025ae37ef11b136ea224fe,,,,,,,,,866,-52.98046875,-90.8828125,1,0,0,response5disk,,3,-16.36328125,-0.3671875,1,0,0,rectangle,-16.36328125,-0.3671875,1,0,0,-16.36328125,-0.3671875,1,0,0,1,23,183,152,1,,,,,,,,
,,,,,,,,,,,,,FF,,,,,,,,1.1818,,,,,,,,,,,,,,,,,,,,,,610311f4fce391260a339321,61036bd0b6a3c9acf7e18597,2021-07-29_22h04.06.006,Simcolourproject_2stim_asymm_v5,2020.2.10,MacIntel,60,61025ae37ef11b136ea224fe,,,,,,,,,1698,-57.31640625,39.98828125,1,0,0,response7disk,,1,-17.1640625,5.0078125,1,0,0,rectangle,-17.1640625,5.0078125,1,0,0,-17.1640625,5.0078125,1,0,0,1,24,184,18,1,,,,,,,,
,,,,,,,,,,,,,FF,,,,,,,,0.8401,,,,,,,,,,,,,,,,,,,,,,610311f4fce391260a339321,61036bd0b6a3c9acf7e18597,2021-07-29_22h04.06.006,Simcolourproject_2stim_asymm_v5,2020.2.10,MacIntel,60,61025ae37ef11b136ea224fe,,,,,,,,,622,-97.5703125,-57.53515625,1,0,0,response5disk,,2,-3.39453125,8.5546875,1,0,0,rectangle,-3.39453125,8.5546875,1,0,0,-3.39453125,8.5546875,1,0,0,1,25,185,145,1,,,,,,,,
,,,,,,,,,,,,,FF,,,,,,,,0.9568,,,,,,,,,,,,,,,,,,,,,,610311f4fce391260a339321,61036bd0b6a3c9acf7e18597,2021-07-29_22h04.06.006,Simcolourproject_2stim_asymm_v5,2020.2.10,MacIntel,60,61025ae37ef11b136ea224fe,,,,,,,,,1348,59.28515625,-74.19921875,1,0,0,response3disk,,4,26.3125,-8.49609375,1,0,0,rectangle,26.3125,-8.49609375,1,0,0,26.3125,-8.49609375,1,0,0,1,26,186,20,1,,,,,,,,
,,,,,,,,,,,,,FF,,,,,,,,0.9161,,,,,,,,,,,,,,,,,,,,,,610311f4fce391260a339321,61036bd0b6a3c9acf7e18597,2021-07-29_22h04.06.006,Simcolourproject_2stim_asymm_v5,2020.2.10,MacIntel,60,61025ae37ef11b136ea224fe,,,,,,,,,950,67.1484375,-79.4453125,1,0,0,response3disk,,4,31.41796875,-8.8125,1,0,0,rectangle,31.41796875,-8.8125,1,0,0,31.41796875,-8.8125,1,0,0,1,27,187,125,1,,,,,,,,
,,,,,,,,,,,,,FF,,,,,,,,0.8275,,,,,,,,,,,,,,,,,,,,,,610311f4fce391260a339321,61036bd0b6a3c9acf7e18597,2021-07-29_22h04.06.006,Simcolourproject_2stim_asymm_v5,2020.2.10,MacIntel,60,61025ae37ef11b136ea224fe,,,,,,,,,1135,-55.8203125,-105.734375,1,0,0,response5disk,,3,7.015625,15.828125,1,0,0,rectangle,96.82421875,-46.03515625,1,0,0,25.92578125,-18.3828125,1,0,0,1,28,188,146,1,,response3disk_3,TRUE,5,5,"[107,97,229,108,117,203,189,243,30,63,118,43,227,295,81,316,52,96,52,279]",1.595,rectangle
,,,,,,,,,,,,,FF,,,,,,,,1.471,,,,,,,,,,,,,,,,,,,,,,610311f4fce391260a339321,61036bd0b6a3c9acf7e18597,2021-07-29_22h04.06.006,Simcolourproject_2stim_asymm_v5,2020.2.10,MacIntel,60,61025ae37ef11b136ea224fe,,,,,,,,,285,-59.2734375,-81.6640625,1,0,0,response5disk,,3,-8.70703125,-8.58203125,1,0,0,rectangle,-8.70703125,-8.58203125,1,0,0,-8.70703125,-8.58203125,1,0,0,1,29,189,17,1,,,,,,,,
,,,,,,,,,,,,,FF,,,,,,,,0.7673,,,,,,,,,,,,,,,,,,,,,,610311f4fce391260a339321,61036bd0b6a3c9acf7e18597,2021-07-29_22h04.06.006,Simcolourproject_2stim_asymm_v5,2020.2.10,MacIntel,60,61025ae37ef11b136ea224fe,,,,,,,,,2689,77.44140625,-54.3203125,1,0,0,response3disk,,5,6.1640625,0.63671875,1,0,0,rectangle,6.1640625,0.63671875,1,0,0,6.1640625,0.63671875,1,0,0,1,30,190,7,1,,,,,,,,
,,,,,,,,,,,,,FF,,,,,,,,0.9227,,,,,,,,,,,,,,,,,,,,,,610311f4fce391260a339321,61036bd0b6a3c9acf7e18597,2021-07-29_22h04.06.006,Simcolourproject_2stim_asymm_v5,2020.2.10,MacIntel,60,61025ae37ef11b136ea224fe,,,,,,,,,2738,101.5585938,51.67578125,1,0,0,response1disk,,6,16.33984375,4.1015625,1,0,0,rectangle,16.33984375,4.1015625,1,0,0,16.33984375,4.1015625,1,0,0,1,31,191,3,1,,,,,,,,
,,,,,,,,,,,,,FF,,,,,,,,0.6999,,,,,,,,,,,,,,,,,,,,,,610311f4fce391260a339321,61036bd0b6a3c9acf7e18597,2021-07-29_22h04.06.006,Simcolourproject_2stim_asymm_v5,2020.2.10,MacIntel,60,61025ae37ef11b136ea224fe,,,,,,,,,744,91.37890625,40.46875,1,0,0,response1disk,,6,-0.71875,10.30078125,1,0,0,rectangle,-0.71875,10.30078125,1,0,0,-0.71875,10.30078125,1,0,0,1,32,192,42,1,,,,,,,,
,,,,,,,,,,,,,FF,,,,,,,,1.3335,,,,,,,,,,,,,,,,,,,,,,610311f4fce391260a339321,61036bd0b6a3c9acf7e18597,2021-07-29_22h04.06.006,Simcolourproject_2stim_asymm_v5,2020.2.10,MacIntel,60,61025ae37ef11b136ea224fe,,,,,,,,,3467,103.015625,60.09375,1,0,0,response1disk,,6,18.640625,20.0078125,1,0,0,rectangle,18.640625,20.0078125,1,0,0,18.640625,20.0078125,1,0,0,1,33,193,91,1,,,,,,,,
,,,,,,,,,,,,,FF,,,,,,,,1.2682,,,,,,,,,,,,,,,,,,,,,,610311f4fce391260a339321,61036bd0b6a3c9acf7e18597,2021-07-29_22h04.06.006,Simcolourproject_2stim_asymm_v5,2020.2.10,MacIntel,60,61025ae37ef11b136ea224fe,,,,,,,,,3007,-46.0625,-102.5625,1,0,0,response5disk,,3,-6.046875,14.93359375,1,0,0,rectangle,-6.046875,14.93359375,1,0,0,-6.046875,14.93359375,1,0,0,1,34,194,113,1,,,,,,,,
,,,,,,,,,,,,,FF,,,,,,,,0.9592,,,,,,,,,,,,,,,,,,,,,,610311f4fce391260a339321,61036bd0b6a3c9acf7e18597,2021-07-29_22h04.06.006,Simcolourproject_2stim_asymm_v5,2020.2.10,MacIntel,60,61025ae37ef11b136ea224fe,,,,,,,,,3891,98.609375,45.921875,1,0,0,response1disk,,6,8.6875,-4.90234375,1,0,0,rectangle,8.6875,-4.90234375,1,0,0,8.6875,-4.90234375,1,0,0,1,35,195,10,1,,,,,,,,
,,,,,,,,,,,,,FF,,,,,,,,0.9453,,,,,,,,,,,,,,,,,,,,,,610311f4fce391260a339321,61036bd0b6a3c9acf7e18597,2021-07-29_22h04.06.006,Simcolourproject_2stim_asymm_v5,2020.2.10,MacIntel,60,61025ae37ef11b136ea224fe,,,,,,,,,781,90.7890625,52.45703125,1,0,0,response1disk,,6,3.37890625,-0.1328125,1,0,0,rectangle,3.37890625,-0.1328125,1,0,0,3.37890625,-0.1328125,1,0,0,1,36,196,140,1,,,,,,,,
,,,,,,,,,,,,,FF,,,,,,,,1.1638,,,,,,,,,,,,,,,,,,,,,,610311f4fce391260a339321,61036bd0b6a3c9acf7e18597,2021-07-29_22h04.06.006,Simcolourproject_2stim_asymm_v5,2020.2.10,MacIntel,60,61025ae37ef11b136ea224fe,,,,,,,,,302,86.45703125,-29.16796875,1,0,0,response3disk,,5,27.73828125,-17.203125,1,0,0,rectangle,27.73828125,-17.203125,1,0,0,27.73828125,-17.203125,1,0,0,1,37,197,141,1,,,,,,,,
,,,,,,,,,,,,,FF,,,,,,,,0.8503,,,,,,,,,,,,,,,,,,,,,,610311f4fce391260a339321,61036bd0b6a3c9acf7e18597,2021-07-29_22h04.06.006,Simcolourproject_2stim_asymm_v5,2020.2.10,MacIntel,60,61025ae37ef11b136ea224fe,,,,,,,,,573,49.015625,94.328125,1,0,0,response1disk,,7,19.11328125,7.7109375,1,0,0,rectangle,19.11328125,7.7109375,1,0,0,19.11328125,7.7109375,1,0,0,1,38,198,6,1,,,,,,,,
,,,,,,,,,,,,,FF,,,,,,,,0.9597,,,,,,,,,,,,,,,,,,,,,,610311f4fce391260a339321,61036bd0b6a3c9acf7e18597,2021-07-29_22h04.06.006,Simcolourproject_2stim_asymm_v5,2020.2.10,MacIntel,60,61025ae37ef11b136ea224fe,,,,,,,,,2175,77.62890625,57.39453125,1,0,0,response1disk,,6,14.890625,-10.53515625,1,0,0,rectangle,14.890625,-10.53515625,1,0,0,14.890625,-10.53515625,1,0,0,1,39,199,123,1,,,,,,,,
,,,,,,,,,,,,,FF,,,,,,,,0.9383,,,,,,,,,,,,,,,,,,,,,,610311f4fce391260a339321,61036bd0b6a3c9acf7e18597,2021-07-29_22h04.06.006,Simcolourproject_2stim_asymm_v5,2020.2.10,MacIntel,60,61025ae37ef11b136ea224fe,,,,,,,,,454,89.58203125,40.3359375,1,0,0,response1disk,,6,14.49609375,-2.67578125,1,0,0,rectangle,14.49609375,-2.67578125,1,0,0,14.49609375,-2.67578125,1,0,0,1,40,200,106,1,,,,,,,,
,,,,,,,,,,,,,FF,,,,,,,,1.02,,,,,,,,,,,,,,,,,,,,,,610311f4fce391260a339321,61036bd0b6a3c9acf7e18597,2021-07-29_22h04.06.006,Simcolourproject_2stim_asymm_v5,2020.2.10,MacIntel,60,61025ae37ef11b136ea224fe,,,,,,,,,995,81.87109375,43.25,1,0,0,response1disk,,6,13.02734375,2.33203125,1,0,0,rectangle,13.02734375,2.33203125,1,0,0,13.02734375,2.33203125,1,0,0,1,41,201,22,1,,,,,,,,
,,,,,,,,,,,,,FF,,,,,,,,1.0395,,,,,,,,,,,,,,,,,,,,,,610311f4fce391260a339321,61036bd0b6a3c9acf7e18597,2021-07-29_22h04.06.006,Simcolourproject_2stim_asymm_v5,2020.2.10,MacIntel,60,61025ae37ef11b136ea224fe,,,,,,,,,1675,-78.296875,-58.46875,1,0,0,response5disk,,2,0.59765625,-12.328125,1,0,0,rectangle,42.27734375,-92.0625,1,0,0,2.5078125,-0.90234375,1,0,0,1,42,202,68,1,,response3disk_3,TRUE,4,4,"[107,97,229,108,117,203,189,243,30,63,118,43,227,295,81,316,52,96,52,279]",1.4006,rectangle
,,,,,,,,,,,,,FF,,,,,,,,1.2507,,,,,,,,,,,,,,,,,,,,,,610311f4fce391260a339321,61036bd0b6a3c9acf7e18597,2021-07-29_22h04.06.006,Simcolourproject_2stim_asymm_v5,2020.2.10,MacIntel,60,61025ae37ef11b136ea224fe,,,,,,,,,3514,-72.28515625,-32.765625,1,0,0,response5disk,,2,-19.91796875,-16.328125,1,0,0,rectangle,-19.91796875,-16.328125,1,0,0,-19.91796875,-16.328125,1,0,0,1,43,203,111,1,,,,,,,,
,,,,,,,,,,,,,FF,,,,,,,,3.8952,,,,,,,,,,,,,,,,,,,,,,610311f4fce391260a339321,61036bd0b6a3c9acf7e18597,2021-07-29_22h04.06.006,Simcolourproject_2stim_asymm_v5,2020.2.10,MacIntel,60,61025ae37ef11b136ea224fe,,,,,,,,,945,29.328125,-95.1953125,1,0,0,response3disk,,4,-7.30078125,-13.73046875,1,0,0,rectangle,-7.30078125,-13.73046875,1,0,0,-7.30078125,-13.73046875,1,0,0,1,44,204,76,1,,,,,,,,
,,,,,,,,,,,,,FF,,,,,,,,1.0063,,,,,,,,,,,,,,,,,,,,,,610311f4fce391260a339321,61036bd0b6a3c9acf7e18597,2021-07-29_22h04.06.006,Simcolourproject_2stim_asymm_v5,2020.2.10,MacIntel,60,61025ae37ef11b136ea224fe,,,,,,,,,1081,43.1640625,-66.69140625,1,0,0,response3disk,,4,9.734375,-0.07421875,1,0,0,rectangle,9.734375,-0.07421875,1,0,0,9.734375,-0.07421875,1,0,0,1,45,205,135,1,,,,,,,,
,,,,,,,,,,,,,FF,,,,,,,,1.6012,,,,,,,,,,,,,,,,,,,,,,610311f4fce391260a339321,61036bd0b6a3c9acf7e18597,2021-07-29_22h04.06.006,Simcolourproject_2stim_asymm_v5,2020.2.10,MacIntel,60,61025ae37ef11b136ea224fe,,,,,,,,,1932,106.7382813,-40.6015625,1,0,0,response3disk,,5,4.33984375,-10.328125,1,0,0,rectangle,4.33984375,-10.328125,1,0,0,4.33984375,-10.328125,1,0,0,1,46,206,28,1,,,,,,,,
,,,,,,,,,,,,,FF,,,,,,,,1.3362,,,,,,,,,,,,,,,,,,,,,,610311f4fce391260a339321,61036bd0b6a3c9acf7e18597,2021-07-29_22h04.06.006,Simcolourproject_2stim_asymm_v5,2020.2.10,MacIntel,60,61025ae37ef11b136ea224fe,,,,,,,,,2231,-58.3984375,-91.796875,1,0,0,response5disk,,3,-16.375,-11.33984375,1,0,0,rectangle,-16.375,-11.33984375,1,0,0,-16.375,-11.33984375,1,0,0,1,47,207,109,1,,,,,,,,
,,,,,,,,,,,,,FF,,,,,,,,1.7945,,,,,,,,,,,,,,,,,,,,,,610311f4fce391260a339321,61036bd0b6a3c9acf7e18597,2021-07-29_22h04.06.006,Simcolourproject_2stim_asymm_v5,2020.2.10,MacIntel,60,61025ae37ef11b136ea224fe,,,,,,,,,2702,107.765625,-41.4375,1,0,0,response3disk,,5,25.09765625,-4.52734375,1,0,0,rectangle,25.09765625,-4.52734375,1,0,0,25.09765625,-4.52734375,1,0,0,1,48,208,154,1,,,,,,,,
,,,,,,,,,,,,,FF,,,,,,,,2.3187,,,,,,,,,,,,,,,,,,,,,,610311f4fce391260a339321,61036bd0b6a3c9acf7e18597,2021-07-29_22h04.06.006,Simcolourproject_2stim_asymm_v5,2020.2.10,MacIntel,60,61025ae37ef11b136ea224fe,,,,,,,,,1486,104.203125,-64.75,1,0,0,response3disk,,5,21.515625,-5.14453125,1,0,0,rectangle,21.515625,-5.14453125,1,0,0,21.515625,-5.14453125,1,0,0,1,49,209,67,1,,,,,,,,
,,,,,,,,,,,,,FF,,,,,,,,2.6835,,,,,,,,,,,,,,,,,,,,,,610311f4fce391260a339321,61036bd0b6a3c9acf7e18597,2021-07-29_22h04.06.006,Simcolourproject_2stim_asymm_v5,2020.2.10,MacIntel,60,61025ae37ef11b136ea224fe,,,,,,,,,84,75.76953125,34.20703125,1,0,0,response1disk,,6,-10.7265625,-6.703125,1,0,0,rectangle,-10.7265625,-6.703125,1,0,0,-10.7265625,-6.703125,1,0,0,1,50,210,33,1,,,,,,,,
,,,,,,,,,,,,,FF,,,,,,,,1.8543,,,,,,,,,,,,,,,,,,,,,,610311f4fce391260a339321,61036bd0b6a3c9acf7e18597,2021-07-29_22h04.06.006,Simcolourproject_2stim_asymm_v5,2020.2.10,MacIntel,60,61025ae37ef11b136ea224fe,,,,,,,,,3095,-65.8984375,-84.77734375,1,0,0,response5disk,,3,-32.796875,-13.6328125,1,0,0,rectangle,-32.796875,-13.6328125,1,0,0,-32.796875,-13.6328125,1,0,0,1,51,211,70,1,,,,,,,,
,,,,,,,,,,,,,FF,,,,,,,,1.4077,,,,,,,,,,,,,,,,,,,,,,610311f4fce391260a339321,61036bd0b6a3c9acf7e18597,2021-07-29_22h04.06.006,Simcolourproject_2stim_asymm_v5,2020.2.10,MacIntel,60,61025ae37ef11b136ea224fe,,,,,,,,,522,-57.4609375,-39.59765625,1,0,0,response5disk,,2,-18.4609375,-4.30859375,1,0,0,rectangle,-18.4609375,-4.30859375,1,0,0,-18.4609375,-4.30859375,1,0,0,1,52,212,108,1,,,,,,,,
,,,,,,,,,,,,,FF,,,,,,,,0.9189,,,,,,,,,,,,,,,,,,,,,,610311f4fce391260a339321,61036bd0b6a3c9acf7e18597,2021-07-29_22h04.06.006,Simcolourproject_2stim_asymm_v5,2020.2.10,MacIntel,60,61025ae37ef11b136ea224fe,,,,,,,,,4021,-88.25390625,43.63671875,1,0,0,response7disk,,1,-26.44140625,5.01953125,1,0,0,rectangle,-26.44140625,5.01953125,1,0,0,-26.44140625,5.01953125,1,0,0,1,53,213,114,1,,,,,,,,
,,,,,,,,,,,,,FF,,,,,,,,1.0196,,,,,,,,,,,,,,,,,,,,,,610311f4fce391260a339321,61036bd0b6a3c9acf7e18597,2021-07-29_22h04.06.006,Simcolourproject_2stim_asymm_v5,2020.2.10,MacIntel,60,61025ae37ef11b136ea224fe,,,,,,,,,343,-84.80078125,-55.2109375,1,0,0,response5disk,,2,-24.71875,-8.44921875,1,0,0,rectangle,-24.71875,-8.44921875,1,0,0,-24.71875,-8.44921875,1,0,0,1,54,214,41,1,,,,,,,,
,,,,,,,,,,,,,FF,,,,,,,,1.1853,,,,,,,,,,,,,,,,,,,,,,610311f4fce391260a339321,61036bd0b6a3c9acf7e18597,2021-07-29_22h04.06.006,Simcolourproject_2stim_asymm_v5,2020.2.10,MacIntel,60,61025ae37ef11b136ea224fe,,,,,,,,,984,-71.30078125,-46.0625,1,0,0,response5disk,,2,-21.8359375,-12.74609375,1,0,0,rectangle,-21.8359375,-12.74609375,1,0,0,-21.8359375,-12.74609375,1,0,0,1,55,215,99,1,,,,,,,,
,,,,,,,,,,,,,FF,,,,,,,,1.5843,,,,,,,,,,,,,,,,,,,,,,610311f4fce391260a339321,61036bd0b6a3c9acf7e18597,2021-07-29_22h04.06.006,Simcolourproject_2stim_asymm_v5,2020.2.10,MacIntel,60,61025ae37ef11b136ea224fe,,,,,,,,,1337,53.90625,-49.02734375,1,0,0,response3disk,,5,-10.90234375,-7.27734375,1,0,0,rectangle,-10.90234375,-7.27734375,1,0,0,-10.90234375,-7.27734375,1,0,0,1,56,216,64,1,,,,,,,,
,,,,,,,,,,,,,FF,,,,,,,,1.4906,,,,,,,,,,,,,,,,,,,,,,610311f4fce391260a339321,61036bd0b6a3c9acf7e18597,2021-07-29_22h04.06.006,Simcolourproject_2stim_asymm_v5,2020.2.10,MacIntel,60,61025ae37ef11b136ea224fe,,,,,,,,,1199,52.00390625,-74.38671875,1,0,0,response3disk,,4,-2.0859375,-18.1796875,1,0,0,rectangle,-2.0859375,-18.1796875,1,0,0,-2.0859375,-18.1796875,1,0,0,1,57,217,21,1,,,,,,,,
,,,,,,,,,,,,,FF,,,,,,,,1.18,,,,,,,,,,,,,,,,,,,,,,610311f4fce391260a339321,61036bd0b6a3c9acf7e18597,2021-07-29_22h04.06.006,Simcolourproject_2stim_asymm_v5,2020.2.10,MacIntel,60,61025ae37ef11b136ea224fe,,,,,,,,,1112,119.6289063,-42.3203125,1,0,0,response3disk,,5,32.52734375,-10.04296875,1,0,0,rectangle,32.52734375,-10.04296875,1,0,0,32.52734375,-10.04296875,1,0,0,1,58,218,86,1,,,,,,,,
,,,,,,,,,,,,,FF,,,,,,,,1.2275,,,,,,,,,,,,,,,,,,,,,,610311f4fce391260a339321,61036bd0b6a3c9acf7e18597,2021-07-29_22h04.06.006,Simcolourproject_2stim_asymm_v5,2020.2.10,MacIntel,60,61025ae37ef11b136ea224fe,,,,,,,,,170,-30.48046875,58.37890625,1,0,0,response7disk,,0,6.26953125,9.87109375,1,0,0,rectangle,6.26953125,9.87109375,1,0,0,6.26953125,9.87109375,1,0,0,1,59,219,142,1,,,,,,,,
,,,,,,,,,,,,,FF,,,,,,,,2.1072,,,,,,,,,,,,,,,,,,,,,,610311f4fce391260a339321,61036bd0b6a3c9acf7e18597,2021-07-29_22h04.06.006,Simcolourproject_2stim_asymm_v5,2020.2.10,MacIntel,60,61025ae37ef11b136ea224fe,,,,,,,,,944,-73.86328125,-72.65625,1,0,0,response5disk,,2,0.3515625,20.0625,1,0,0,rectangle,0.3515625,20.0625,1,0,0,0.3515625,20.0625,1,0,0,1,60,220,50,1,,,,,,,,
,,,,,,,,,,,,,FF,,,,,,,,1.2342,,,,,,,,,,,,,,,,,,,,,,610311f4fce391260a339321,61036bd0b6a3c9acf7e18597,2021-07-29_22h04.06.006,Simcolourproject_2stim_asymm_v5,2020.2.10,MacIntel,60,61025ae37ef11b136ea224fe,,,,,,,,,4167,-38.75390625,-118.9453125,1,0,0,response5disk,,3,-12.40625,-3.0625,1,0,0,rectangle,-12.40625,-3.0625,1,0,0,-12.40625,-3.0625,1,0,0,1,61,221,124,1,,,,,,,,
,,,,,,,,,,,,,FF,,,,,,,,0.9682,,,,,,,,,,,,,,,,,,,,,,610311f4fce391260a339321,61036bd0b6a3c9acf7e18597,2021-07-29_22h04.06.006,Simcolourproject_2stim_asymm_v5,2020.2.10,MacIntel,60,61025ae37ef11b136ea224fe,,,,,,,,,2996,-33.97265625,-69.5703125,1,0,0,response5disk,,3,-10.67578125,14.828125,1,0,0,rectangle,-10.67578125,14.828125,1,0,0,-10.67578125,14.828125,1,0,0,1,62,222,29,1,,,,,,,,
,,,,,,,,,,,,,FF,,,,,,,,0.8682,,,,,,,,,,,,,,,,,,,,,,610311f4fce391260a339321,61036bd0b6a3c9acf7e18597,2021-07-29_22h04.06.006,Simcolourproject_2stim_asymm_v5,2020.2.10,MacIntel,60,61025ae37ef11b136ea224fe,,,,,,,,,1151,-95.16796875,-45.92578125,1,0,0,response5disk,,2,4.2578125,0.12890625,1,0,0,rectangle,4.2578125,0.12890625,1,0,0,4.2578125,0.12890625,1,0,0,1,63,223,102,1,,,,,,,,
,,,,,,,,,,,,,FF,,,,,,,,2.0309,,,,,,,,,,,,,,,,,,,,,,610311f4fce391260a339321,61036bd0b6a3c9acf7e18597,2021-07-29_22h04.06.006,Simcolourproject_2stim_asymm_v5,2020.2.10,MacIntel,60,61025ae37ef11b136ea224fe,,,,,,,,,1545,64.9296875,-106.2070313,1,0,0,response3disk,,4,22.00390625,-11.0703125,1,0,0,rectangle,22.00390625,-11.0703125,1,0,0,22.00390625,-11.0703125,1,0,0,1,64,224,77,1,,,,,,,,
,,,,,,,,,,,,,FF,,,,,,,,1.4696,,,,,,,,,,,,,,,,,,,,,,610311f4fce391260a339321,61036bd0b6a3c9acf7e18597,2021-07-29_22h04.06.006,Simcolourproject_2stim_asymm_v5,2020.2.10,MacIntel,60,61025ae37ef11b136ea224fe,,,,,,,,,1835,-81.97265625,-105.7890625,1,0,0,response5disk,,3,-7.0546875,-4.078125,1,0,0,rectangle,-7.0546875,-4.078125,1,0,0,-7.0546875,-4.078125,1,0,0,1,65,225,130,1,,,,,,,,
,,,,,,,,,,,,,FF,,,,,,,,1.1192,,,,,,,,,,,,,,,,,,,,,,610311f4fce391260a339321,61036bd0b6a3c9acf7e18597,2021-07-29_22h04.06.006,Simcolourproject_2stim_asymm_v5,2020.2.10,MacIntel,60,61025ae37ef11b136ea224fe,,,,,,,,,2418,-26.515625,80.0390625,1,0,0,response7disk,,0,-18.1796875,-7.1015625,1,0,0,rectangle,-91.34375,65.65234375,1,0,0,-8.50390625,-11.36328125,1,0,0,1,66,226,84,1,,response7disk_3,TRUE,1,1,"[107,97,229,108,117,203,189,243,30,63,118,43,227,295,81,316,52,96,52,279]",1.153,rectangle
,,,,,,,,,,,,,FF,,,,,,,,3.7271,,,,,,,,,,,,,,,,,,,,,,610311f4fce391260a339321,61036bd0b6a3c9acf7e18597,2021-07-29_22h04.06.006,Simcolourproject_2stim_asymm_v5,2020.2.10,MacIntel,60,61025ae37ef11b136ea224fe,,,,,,,,,3046,-47.6015625,-100.03125,1,0,0,response5disk,,3,0.9921875,0.0234375,1,0,0,rectangle,0.9921875,0.0234375,1,0,0,0.9921875,0.0234375,1,0,0,1,67,227,90,1,,,,,,,,
,,,,,,,,,,,,,FF,,,,,,,,1.3603,,,,,,,,,,,,,,,,,,,,,,610311f4fce391260a339321,61036bd0b6a3c9acf7e18597,2021-07-29_22h04.06.006,Simcolourproject_2stim_asymm_v5,2020.2.10,MacIntel,60,61025ae37ef11b136ea224fe,,,,,,,,,645,64.9453125,-96.8359375,1,0,0,response3disk,,4,30.25390625,-11.73828125,1,0,0,rectangle,-48.57421875,102.8242188,1,0,0,-1.7578125,-6.046875,1,0,0,1,68,228,131,1,,response7disk_3,TRUE,0,0,"[107,97,229,108,117,203,189,243,30,63,118,43,227,295,81,316,52,96,52,279]",1.241,rectangle
,,,,,,,,,,,,,FF,,,,,,,,1.2592,,,,,,,,,,,,,,,,,,,,,,610311f4fce391260a339321,61036bd0b6a3c9acf7e18597,2021-07-29_22h04.06.006,Simcolourproject_2stim_asymm_v5,2020.2.10,MacIntel,60,61025ae37ef11b136ea224fe,,,,,,,,,2591,-59.04296875,-95.734375,1,0,0,response5disk,,3,-1.48828125,8.6953125,1,0,0,rectangle,-1.48828125,8.6953125,1,0,0,-1.48828125,8.6953125,1,0,0,1,69,229,13,1,,,,,,,,
,,,,,,,,,,,,,FF,,,,,,,,1.6823,,,,,,,,,,,,,,,,,,,,,,610311f4fce391260a339321,61036bd0b6a3c9acf7e18597,2021-07-29_22h04.06.006,Simcolourproject_2stim_asymm_v5,2020.2.10,MacIntel,60,61025ae37ef11b136ea224fe,,,,,,,,,457,-56.52734375,-94.75390625,1,0,0,response5disk,,3,-6.81640625,-1.83984375,1,0,0,rectangle,-6.81640625,-1.83984375,1,0,0,-6.81640625,-1.83984375,1,0,0,1,70,230,158,1,,,,,,,,
,,,,,,,,,,,,,FF,,,,,,,,0.8742,,,,,,,,,,,,,,,,,,,,,,610311f4fce391260a339321,61036bd0b6a3c9acf7e18597,2021-07-29_22h04.06.006,Simcolourproject_2stim_asymm_v5,2020.2.10,MacIntel,60,61025ae37ef11b136ea224fe,,,,,,,,,152,106.8320313,-60.65234375,1,0,0,response3disk,,5,19.19921875,17.84375,1,0,0,rectangle,19.19921875,17.84375,1,0,0,19.19921875,17.84375,1,0,0,1,71,231,110,1,,,,,,,,
,,,,,,,,,,,,,FF,,,,,,,,1.0844,,,,,,,,,,,,,,,,,,,,,,610311f4fce391260a339321,61036bd0b6a3c9acf7e18597,2021-07-29_22h04.06.006,Simcolourproject_2stim_asymm_v5,2020.2.10,MacIntel,60,61025ae37ef11b136ea224fe,,,,,,,,,3545,-47.00390625,-78.84375,1,0,0,response5disk,,3,-6.69140625,-1.37109375,1,0,0,rectangle,-6.69140625,-1.37109375,1,0,0,-6.69140625,-1.37109375,1,0,0,1,72,232,9,1,,,,,,,,
,,,,,,,,,,,,,FF,,,,,,,,0.9132,,,,,,,,,,,,,,,,,,,,,,610311f4fce391260a339321,61036bd0b6a3c9acf7e18597,2021-07-29_22h04.06.006,Simcolourproject_2stim_asymm_v5,2020.2.10,MacIntel,60,61025ae37ef11b136ea224fe,,,,,,,,,3583,121.71875,64.7890625,1,0,0,response1disk,,6,36.109375,5.484375,1,0,0,rectangle,36.109375,5.484375,1,0,0,36.109375,5.484375,1,0,0,1,73,233,156,1,,,,,,,,
,,,,,,,,,,,,,FF,,,,,,,,1.0358,,,,,,,,,,,,,,,,,,,,,,610311f4fce391260a339321,61036bd0b6a3c9acf7e18597,2021-07-29_22h04.06.006,Simcolourproject_2stim_asymm_v5,2020.2.10,MacIntel,60,61025ae37ef11b136ea224fe,,,,,,,,,1554,107.2265625,39.83203125,1,0,0,response1disk,,6,15.55859375,-5.52734375,1,0,0,rectangle,15.55859375,-5.52734375,1,0,0,15.55859375,-5.52734375,1,0,0,1,74,234,25,1,,,,,,,,
,,,,,,,,,,,,,FF,,,,,,,,0.7684,,,,,,,,,,,,,,,,,,,,,,610311f4fce391260a339321,61036bd0b6a3c9acf7e18597,2021-07-29_22h04.06.006,Simcolourproject_2stim_asymm_v5,2020.2.10,MacIntel,60,61025ae37ef11b136ea224fe,,,,,,,,,1271,100.9335938,-41.44140625,1,0,0,response3disk,,5,13.11328125,-1.8984375,1,0,0,rectangle,13.11328125,-1.8984375,1,0,0,13.11328125,-1.8984375,1,0,0,1,75,235,69,1,,,,,,,,
,,,,,,,,,,,,,FF,,,,,,,,1.4251,,,,,,,,,,,,,,,,,,,,,,610311f4fce391260a339321,61036bd0b6a3c9acf7e18597,2021-07-29_22h04.06.006,Simcolourproject_2stim_asymm_v5,2020.2.10,MacIntel,60,61025ae37ef11b136ea224fe,,,,,,,,,2733,96.69921875,-34.24609375,1,0,0,response3disk,,5,5.27734375,-16.74609375,1,0,0,rectangle,5.27734375,-16.74609375,1,0,0,5.27734375,-16.74609375,1,0,0,1,76,236,80,1,,,,,,,,
,,,,,,,,,,,,,FF,,,,,,,,1.262,,,,,,,,,,,,,,,,,,,,,,610311f4fce391260a339321,61036bd0b6a3c9acf7e18597,2021-07-29_22h04.06.006,Simcolourproject_2stim_asymm_v5,2020.2.10,MacIntel,60,61025ae37ef11b136ea224fe,,,,,,,,,1260,94.31640625,42.33984375,1,0,0,response1disk,,6,7.36328125,-0.53125,1,0,0,rectangle,7.36328125,-0.53125,1,0,0,7.36328125,-0.53125,1,0,0,1,77,237,100,1,,,,,,,,
,,,,,,,,,,,,,FF,,,,,,,,1.1002,,,,,,,,,,,,,,,,,,,,,,610311f4fce391260a339321,61036bd0b6a3c9acf7e18597,2021-07-29_22h04.06.006,Simcolourproject_2stim_asymm_v5,2020.2.10,MacIntel,60,61025ae37ef11b136ea224fe,,,,,,,,,2463,42.796875,-91.3515625,1,0,0,response3disk,,4,9.08984375,9.37890625,1,0,0,rectangle,9.08984375,9.37890625,1,0,0,9.08984375,9.37890625,1,0,0,1,78,238,98,1,,,,,,,,
,,,,,,,,,,,,,FF,,,,,,,,1.6421,,,,,,,,,,,,,,,,,,,,,,610311f4fce391260a339321,61036bd0b6a3c9acf7e18597,2021-07-29_22h04.06.006,Simcolourproject_2stim_asymm_v5,2020.2.10,MacIntel,60,61025ae37ef11b136ea224fe,,,,,,,,,3156,-54.3828125,-92.6953125,1,0,0,response5disk,,3,-19.87890625,-4.859375,1,0,0,rectangle,-19.87890625,-4.859375,1,0,0,-19.87890625,-4.859375,1,0,0,1,79,239,121,1,,,,,,,,
,,,,,,,,,,,,,FF,,,,,,,,0.7007,,,,,,,,,,,,,,,,,,,,,,610311f4fce391260a339321,61036bd0b6a3c9acf7e18597,2021-07-29_22h04.06.006,Simcolourproject_2stim_asymm_v5,2020.2.10,MacIntel,60,61025ae37ef11b136ea224fe,,,,,,,,,1601,-93.08984375,-47.3828125,1,0,0,response5disk,,2,-6.23828125,-15.78125,1,0,0,rectangle,-6.23828125,-15.78125,1,0,0,-6.23828125,-15.78125,1,0,0,1,80,240,39,1,,,,,,,,
,,,,,,,,,,,,,FF,,,,,,,,1.9695,,,,,,,,,,,,,,,,,,,,,,610311f4fce391260a339321,61036bd0b6a3c9acf7e18597,2021-07-29_22h04.06.006,Simcolourproject_2stim_asymm_v5,2020.2.10,MacIntel,60,61025ae37ef11b136ea224fe,,,,,,,,,1083,-49.25390625,-70.625,1,0,0,response5disk,,3,-21.94140625,-9.21875,1,0,0,rectangle,-21.94140625,-9.21875,1,0,0,-21.94140625,-9.21875,1,0,0,1,81,241,1,1,,,,,,,,
,,,,,,,,,,,,,FF,,,,,,,,1.1373,,,,,,,,,,,,,,,,,,,,,,610311f4fce391260a339321,61036bd0b6a3c9acf7e18597,2021-07-29_22h04.06.006,Simcolourproject_2stim_asymm_v5,2020.2.10,MacIntel,60,61025ae37ef11b136ea224fe,,,,,,,,,2692,77.0859375,-102.7265625,1,0,0,response3disk,,4,8.98046875,-7.7890625,1,0,0,rectangle,29.09765625,-114.5546875,1,0,0,-9.203125,-4.12890625,1,0,0,1,82,242,59,1,,response3disk_3,TRUE,4,4,"[107,97,229,108,117,203,189,243,30,63,118,43,227,295,81,316,52,96,52,279]",1.5914,rectangle
,,,,,,,,,,,,,FF,,,,,,,,1.5229,,,,,,,,,,,,,,,,,,,,,,610311f4fce391260a339321,61036bd0b6a3c9acf7e18597,2021-07-29_22h04.06.006,Simcolourproject_2stim_asymm_v5,2020.2.10,MacIntel,60,61025ae37ef11b136ea224fe,,,,,,,,,2474,43.6796875,-76.9765625,1,0,0,response3disk,,4,27.0859375,-3.41015625,1,0,0,rectangle,27.0859375,-3.41015625,1,0,0,27.0859375,-3.41015625,1,0,0,1,83,243,133,1,,,,,,,,
,,,,,,,,,,,,,FF,,,,,,,,1.1804,,,,,,,,,,,,,,,,,,,,,,610311f4fce391260a339321,61036bd0b6a3c9acf7e18597,2021-07-29_22h04.06.006,Simcolourproject_2stim_asymm_v5,2020.2.10,MacIntel,60,61025ae37ef11b136ea224fe,,,,,,,,,4200,-37.1953125,73.40625,1,0,0,response7disk,,0,-14.87109375,-1.23046875,1,0,0,rectangle,-14.87109375,-1.23046875,1,0,0,-14.87109375,-1.23046875,1,0,0,1,84,244,54,1,,,,,,,,
,,,,,,,,,,,,,FF,,,,,,,,2.2348,,,,,,,,,,,,,,,,,,,,,,610311f4fce391260a339321,61036bd0b6a3c9acf7e18597,2021-07-29_22h04.06.006,Simcolourproject_2stim_asymm_v5,2020.2.10,MacIntel,60,61025ae37ef11b136ea224fe,,,,,,,,,3902,71.16015625,-75.2265625,1,0,0,response3disk,,4,38.40625,-14.05859375,1,0,0,rectangle,38.40625,-14.05859375,1,0,0,38.40625,-14.05859375,1,0,0,1,85,245,30,1,,,,,,,,
,,,,,,,,,,,,,FF,,,,,,,,1.3506,,,,,,,,,,,,,,,,,,,,,,610311f4fce391260a339321,61036bd0b6a3c9acf7e18597,2021-07-29_22h04.06.006,Simcolourproject_2stim_asymm_v5,2020.2.10,MacIntel,60,61025ae37ef11b136ea224fe,,,,,,,,,2061,37.80078125,-70.41796875,1,0,0,response3disk,,4,3.19140625,-9.36328125,1,0,0,rectangle,3.19140625,-9.36328125,1,0,0,3.19140625,-9.36328125,1,0,0,1,86,246,43,1,,,,,,,,
