key_resp.keys,key_resp.rt,key_resp_14.keys,key_resp_14.rt,key_resp_15.keys,key_resp_15.rt,key_resp_17.keys,key_resp_17.rt,key_resp_9.keys,key_resp_9.rt,key_resp_10.keys,key_resp_10.rt,practice_comparison,Ecc,mouse_5.x,mouse_5.y,mouse_5.leftButton,mouse_5.midButton,mouse_5.rightButton,mouse_5.clicked_name,pracsimilarity,response_time,mouse_10.x,mouse_10.y,mouse_10.leftButton,mouse_10.midButton,mouse_10.rightButton,mouse_10.clicked_name,mouse_7.x,mouse_7.y,mouse_7.leftButton,mouse_7.midButton,mouse_7.rightButton,mouse_6.x,mouse_6.y,mouse_6.leftButton,mouse_6.midButton,mouse_6.rightButton,duringprac.thisRepN,duringprac.thisTrialN,duringprac.thisN,duringprac.thisIndex,duringprac.ran,participant,session,date,expName,psychopyVersion,OS,frameRate,study_id,mouse_7.clicked_name,catchpracsimilarity,catch_response_time,catchnumberprac,catchtrialorderprac,mouse_6.clicked_name,key_resp_22.keys,key_resp_22.rt,realcomparison,mouse.x,mouse.y,mouse.leftButton,mouse.midButton,mouse.rightButton,mouse.clicked_name,Colour2,similarity,mouse_2.x,mouse_2.y,mouse_2.leftButton,mouse_2.midButton,mouse_2.rightButton,mouse_2.clicked_name,mouse_3.x,mouse_3.y,mouse_3.leftButton,mouse_3.midButton,mouse_3.rightButton,mouse_11.x,mouse_11.y,mouse_11.leftButton,mouse_11.midButton,mouse_11.rightButton,trials_2.thisRepN,trials_2.thisTrialN,trials_2.thisN,trials_2.thisIndex,trials_2.ran,Colour1,mouse_3.clicked_name,catchornah,catchsimilarity,catchnumber,catchtrialorder,catchRT,mouse_11.clicked_name
space,1.3839,space,5.1681,space,24.2388,space,1.0952,space,0.4613,space,2.426,10,FF,-33.98046875,75.3828125,1,0,0,response7disk_5,0,8.5286,17.72265625,1.75,1,0,0,rectangle_8,17.72265625,1.75,1,0,0,17.72265625,1.75,1,0,0,0,0,0,3,1,610336af8890b00f2a4fff86,61036b52aba3bc0d1b42657b,2021-07-29_23h01.02.617,Simcolourproject_2stim_asymm_v5,2020.2.10,MacIntel,60,61025ae37ef11b136ea224fe,,,,,,,,,,,,,,,,,,,,,,,,,,,,,,,,,,,,,,,,,,,,,,
,,,,,,,,,,,,57,FF,-61.8046875,-37.578125,1,0,0,response5disk_5,2,6.17,-2.13671875,-2.07421875,1,0,0,rectangle_8,50.12890625,63.12890625,1,0,0,1.42578125,1.2734375,1,0,0,0,1,1,0,1,610336af8890b00f2a4fff86,61036b52aba3bc0d1b42657b,2021-07-29_23h01.02.617,Simcolourproject_2stim_asymm_v5,2020.2.10,MacIntel,60,61025ae37ef11b136ea224fe,response1disk_7,7,2.2748,7,"[2,5]",rectangle_4,,,,,,,,,,,,,,,,,,,,,,,,,,,,,,,,,,,,,,,,
,,,,,,,,,,,,2,PF,38.84375,73.64453125,1,0,0,response1disk_5,7,2.6782,20.265625,3.2890625,1,0,0,rectangle_8,20.265625,3.2890625,1,0,0,20.265625,3.2890625,1,0,0,0,2,2,1,1,610336af8890b00f2a4fff86,61036b52aba3bc0d1b42657b,2021-07-29_23h01.02.617,Simcolourproject_2stim_asymm_v5,2020.2.10,MacIntel,60,61025ae37ef11b136ea224fe,,,,,,,,,,,,,,,,,,,,,,,,,,,,,,,,,,,,,,,,,,,,,,
,,,,,,,,,,,,144,PF,-34.62109375,-74.734375,1,0,0,response5disk_5,3,2.4602,8.3984375,4.3125,1,0,0,rectangle_8,8.3984375,4.3125,1,0,0,8.3984375,4.3125,1,0,0,0,3,3,6,1,610336af8890b00f2a4fff86,61036b52aba3bc0d1b42657b,2021-07-29_23h01.02.617,Simcolourproject_2stim_asymm_v5,2020.2.10,MacIntel,60,61025ae37ef11b136ea224fe,,,,,,,,,,,,,,,,,,,,,,,,,,,,,,,,,,,,,,,,,,,,,,
,,,,,,,,,,,,158,FF,59.04296875,-37.640625,1,0,0,response3disk_5,5,2.2452,-6.35546875,1.390625,1,0,0,rectangle_8,50.59765625,73.515625,1,0,0,15.91015625,12.359375,1,0,0,0,4,4,5,1,610336af8890b00f2a4fff86,61036b52aba3bc0d1b42657b,2021-07-29_23h01.02.617,Simcolourproject_2stim_asymm_v5,2020.2.10,MacIntel,60,61025ae37ef11b136ea224fe,response1disk_7,7,1.5963,7,"[2,5]",rectangle_4,,,,,,,,,,,,,,,,,,,,,,,,,,,,,,,,,,,,,,,,
,,,,,,,,,,,,59,PF,-41.578125,29.5625,1,0,0,response7disk_5,1,4.5557,-13.140625,-2.9453125,1,0,0,rectangle_8,-13.140625,-2.9453125,1,0,0,-13.140625,-2.9453125,1,0,0,0,5,5,4,1,610336af8890b00f2a4fff86,61036b52aba3bc0d1b42657b,2021-07-29_23h01.02.617,Simcolourproject_2stim_asymm_v5,2020.2.10,MacIntel,60,61025ae37ef11b136ea224fe,,,,,,,,,,,,,,,,,,,,,,,,,,,,,,,,,,,,,,,,,,,,,,
,,,,,,,,,,,,59,PF,-70.6875,-24.53125,1,0,0,response5disk_5,2,0.9978,7.27734375,-10.78515625,1,0,0,rectangle_8,7.27734375,-10.78515625,1,0,0,7.27734375,-10.78515625,1,0,0,0,6,6,2,1,610336af8890b00f2a4fff86,61036b52aba3bc0d1b42657b,2021-07-29_23h01.02.617,Simcolourproject_2stim_asymm_v5,2020.2.10,MacIntel,60,61025ae37ef11b136ea224fe,,,,,,,,,,,,,,,,,,,,,,,,,,,,,,,,,,,,,,,,,,,,,,
,,,,,,,,,,,,,FF,,,,,,,,2.0622,,,,,,,,,,,,,,,,,,,,,,610336af8890b00f2a4fff86,61036b52aba3bc0d1b42657b,2021-07-29_23h01.02.617,Simcolourproject_2stim_asymm_v5,2020.2.10,MacIntel,60,61025ae37ef11b136ea224fe,,,,,,,space,2.1961,2204,67.44921875,45.890625,1,0,0,response1disk,,6,21.28125,-7.6796875,1,0,0,rectangle,21.28125,-7.6796875,1,0,0,21.28125,-7.6796875,1,0,0,0,0,0,28,1,,,,,,,,
,,,,,,,,,,,,,FF,,,,,,,,1.7619,,,,,,,,,,,,,,,,,,,,,,610336af8890b00f2a4fff86,61036b52aba3bc0d1b42657b,2021-07-29_23h01.02.617,Simcolourproject_2stim_asymm_v5,2020.2.10,MacIntel,60,61025ae37ef11b136ea224fe,,,,,,,,,1714,64.1796875,28.06640625,1,0,0,response1disk,,6,7.85546875,3.734375,1,0,0,rectangle,7.85546875,3.734375,1,0,0,7.85546875,3.734375,1,0,0,0,1,1,50,1,,,,,,,,
,,,,,,,,,,,,,FF,,,,,,,,1.4458,,,,,,,,,,,,,,,,,,,,,,610336af8890b00f2a4fff86,61036b52aba3bc0d1b42657b,2021-07-29_23h01.02.617,Simcolourproject_2stim_asymm_v5,2020.2.10,MacIntel,60,61025ae37ef11b136ea224fe,,,,,,,,,2971,70.234375,21.89453125,1,0,0,response1disk,,6,13.03515625,-11.57421875,1,0,0,rectangle,13.03515625,-11.57421875,1,0,0,13.03515625,-11.57421875,1,0,0,0,2,2,93,1,,,,,,,,
,,,,,,,,,,,,,FF,,,,,,,,1.613,,,,,,,,,,,,,,,,,,,,,,610336af8890b00f2a4fff86,61036b52aba3bc0d1b42657b,2021-07-29_23h01.02.617,Simcolourproject_2stim_asymm_v5,2020.2.10,MacIntel,60,61025ae37ef11b136ea224fe,,,,,,,,,2258,56.796875,-45.61328125,1,0,0,response3disk,,5,4.0234375,1.0078125,1,0,0,rectangle,4.0234375,1.0078125,1,0,0,4.0234375,1.0078125,1,0,0,0,3,3,113,1,,,,,,,,
,,,,,,,,,,,,,FF,,,,,,,,1.0644,,,,,,,,,,,,,,,,,,,,,,610336af8890b00f2a4fff86,61036b52aba3bc0d1b42657b,2021-07-29_23h01.02.617,Simcolourproject_2stim_asymm_v5,2020.2.10,MacIntel,60,61025ae37ef11b136ea224fe,,,,,,,,,4151,-54.546875,-22.625,1,0,0,response5disk,,2,8.15234375,-4.96484375,1,0,0,rectangle,8.15234375,-4.96484375,1,0,0,8.15234375,-4.96484375,1,0,0,0,4,4,39,1,,,,,,,,
,,,,,,,,,,,,,FF,,,,,,,,1.1469,,,,,,,,,,,,,,,,,,,,,,610336af8890b00f2a4fff86,61036b52aba3bc0d1b42657b,2021-07-29_23h01.02.617,Simcolourproject_2stim_asymm_v5,2020.2.10,MacIntel,60,61025ae37ef11b136ea224fe,,,,,,,,,1950,-28.8671875,-48.8515625,1,0,0,response5disk,,3,15.40625,1.67578125,1,0,0,rectangle,15.40625,1.67578125,1,0,0,15.40625,1.67578125,1,0,0,0,5,5,1,1,,,,,,,,
,,,,,,,,,,,,,FF,,,,,,,,1.2468,,,,,,,,,,,,,,,,,,,,,,610336af8890b00f2a4fff86,61036b52aba3bc0d1b42657b,2021-07-29_23h01.02.617,Simcolourproject_2stim_asymm_v5,2020.2.10,MacIntel,60,61025ae37ef11b136ea224fe,,,,,,,,,3497,64.609375,24.140625,1,0,0,response1disk,,6,24.62890625,-8.98828125,1,0,0,rectangle,24.62890625,-8.98828125,1,0,0,24.62890625,-8.98828125,1,0,0,0,6,6,147,1,,,,,,,,
,,,,,,,,,,,,,FF,,,,,,,,0.799,,,,,,,,,,,,,,,,,,,,,,610336af8890b00f2a4fff86,61036b52aba3bc0d1b42657b,2021-07-29_23h01.02.617,Simcolourproject_2stim_asymm_v5,2020.2.10,MacIntel,60,61025ae37ef11b136ea224fe,,,,,,,,,3205,-42.00390625,26.16796875,1,0,0,response7disk,,1,-10.93359375,6.44921875,1,0,0,rectangle,-10.93359375,6.44921875,1,0,0,-10.93359375,6.44921875,1,0,0,0,7,7,81,1,,,,,,,,
,,,,,,,,,,,,,FF,,,,,,,,1.3792,,,,,,,,,,,,,,,,,,,,,,610336af8890b00f2a4fff86,61036b52aba3bc0d1b42657b,2021-07-29_23h01.02.617,Simcolourproject_2stim_asymm_v5,2020.2.10,MacIntel,60,61025ae37ef11b136ea224fe,,,,,,,,,3950,-34.41796875,-40.78125,1,0,0,response5disk,,3,-8.19140625,-5.23046875,1,0,0,rectangle,-8.19140625,-5.23046875,1,0,0,-8.19140625,-5.23046875,1,0,0,0,8,8,9,1,,,,,,,,
,,,,,,,,,,,,,FF,,,,,,,,0.8135,,,,,,,,,,,,,,,,,,,,,,610336af8890b00f2a4fff86,61036b52aba3bc0d1b42657b,2021-07-29_23h01.02.617,Simcolourproject_2stim_asymm_v5,2020.2.10,MacIntel,60,61025ae37ef11b136ea224fe,,,,,,,,,2962,-32.50390625,18.6875,1,0,0,response7disk,,1,9.97265625,-3.80078125,1,0,0,rectangle,9.97265625,-3.80078125,1,0,0,9.97265625,-3.80078125,1,0,0,0,9,9,34,1,,,,,,,,
,,,,,,,,,,,,,FF,,,,,,,,3.0263,,,,,,,,,,,,,,,,,,,,,,610336af8890b00f2a4fff86,61036b52aba3bc0d1b42657b,2021-07-29_23h01.02.617,Simcolourproject_2stim_asymm_v5,2020.2.10,MacIntel,60,61025ae37ef11b136ea224fe,,,,,,,,,1017,95.078125,20.68359375,1,0,0,response1disk,,6,15.2734375,-2.38671875,1,0,0,rectangle,15.2734375,-2.38671875,1,0,0,15.2734375,-2.38671875,1,0,0,0,10,10,14,1,,,,,,,,
,,,,,,,,,,,,,FF,,,,,,,,1.6647,,,,,,,,,,,,,,,,,,,,,,610336af8890b00f2a4fff86,61036b52aba3bc0d1b42657b,2021-07-29_23h01.02.617,Simcolourproject_2stim_asymm_v5,2020.2.10,MacIntel,60,61025ae37ef11b136ea224fe,,,,,,,,,1769,81.859375,30.73828125,1,0,0,response1disk,,6,-10.11328125,-7.80859375,1,0,0,rectangle,-10.11328125,-7.80859375,1,0,0,-10.11328125,-7.80859375,1,0,0,0,11,11,7,1,,,,,,,,
,,,,,,,,,,,,,FF,,,,,,,,0.8654,,,,,,,,,,,,,,,,,,,,,,610336af8890b00f2a4fff86,61036b52aba3bc0d1b42657b,2021-07-29_23h01.02.617,Simcolourproject_2stim_asymm_v5,2020.2.10,MacIntel,60,61025ae37ef11b136ea224fe,,,,,,,,,3148,-52.01171875,42.66796875,1,0,0,response7disk,,1,11.6640625,-3.51171875,1,0,0,rectangle,11.6640625,-3.51171875,1,0,0,11.6640625,-3.51171875,1,0,0,0,12,12,137,1,,,,,,,,
,,,,,,,,,,,,,FF,,,,,,,,1.6458,,,,,,,,,,,,,,,,,,,,,,610336af8890b00f2a4fff86,61036b52aba3bc0d1b42657b,2021-07-29_23h01.02.617,Simcolourproject_2stim_asymm_v5,2020.2.10,MacIntel,60,61025ae37ef11b136ea224fe,,,,,,,,,828,56.55078125,-25.75,1,0,0,response3disk,,5,-3.2890625,-4.76953125,1,0,0,rectangle,-3.2890625,-4.76953125,1,0,0,-3.2890625,-4.76953125,1,0,0,0,13,13,120,1,,,,,,,,
,,,,,,,,,,,,,FF,,,,,,,,0.7984,,,,,,,,,,,,,,,,,,,,,,610336af8890b00f2a4fff86,61036b52aba3bc0d1b42657b,2021-07-29_23h01.02.617,Simcolourproject_2stim_asymm_v5,2020.2.10,MacIntel,60,61025ae37ef11b136ea224fe,,,,,,,,,1290,-55.421875,36.0234375,1,0,0,response7disk,,1,-14.6484375,7.78125,1,0,0,rectangle,-14.6484375,7.78125,1,0,0,-14.6484375,7.78125,1,0,0,0,14,14,136,1,,,,,,,,
,,,,,,,,,,,,,FF,,,,,,,,0.6976,,,,,,,,,,,,,,,,,,,,,,610336af8890b00f2a4fff86,61036b52aba3bc0d1b42657b,2021-07-29_23h01.02.617,Simcolourproject_2stim_asymm_v5,2020.2.10,MacIntel,60,61025ae37ef11b136ea224fe,,,,,,,,,4052,-35.546875,19.1796875,1,0,0,response7disk,,1,-19.7734375,3.65234375,1,0,0,rectangle,-19.7734375,3.65234375,1,0,0,-19.7734375,3.65234375,1,0,0,0,15,15,140,1,,,,,,,,
,,,,,,,,,,,,,FF,,,,,,,,0.6986,,,,,,,,,,,,,,,,,,,,,,610336af8890b00f2a4fff86,61036b52aba3bc0d1b42657b,2021-07-29_23h01.02.617,Simcolourproject_2stim_asymm_v5,2020.2.10,MacIntel,60,61025ae37ef11b136ea224fe,,,,,,,,,1633,67.94921875,36.5625,1,0,0,response1disk,,6,-4.17578125,4.15625,1,0,0,rectangle,-4.17578125,4.15625,1,0,0,-4.17578125,4.15625,1,0,0,0,16,16,141,1,,,,,,,,
,,,,,,,,,,,,,FF,,,,,,,,0.8814,,,,,,,,,,,,,,,,,,,,,,610336af8890b00f2a4fff86,61036b52aba3bc0d1b42657b,2021-07-29_23h01.02.617,Simcolourproject_2stim_asymm_v5,2020.2.10,MacIntel,60,61025ae37ef11b136ea224fe,,,,,,,,,1428,59.9921875,22.75,1,0,0,response1disk,,6,11.078125,6.0546875,1,0,0,rectangle,11.078125,6.0546875,1,0,0,11.078125,6.0546875,1,0,0,0,17,17,30,1,,,,,,,,
,,,,,,,,,,,,,FF,,,,,,,,2.7279,,,,,,,,,,,,,,,,,,,,,,610336af8890b00f2a4fff86,61036b52aba3bc0d1b42657b,2021-07-29_23h01.02.617,Simcolourproject_2stim_asymm_v5,2020.2.10,MacIntel,60,61025ae37ef11b136ea224fe,,,,,,,,,4,-23.66796875,-66.23046875,1,0,0,response5disk,,3,-5.3125,-5.53125,1,0,0,rectangle,-5.3125,-5.53125,1,0,0,-5.3125,-5.53125,1,0,0,0,18,18,85,1,,,,,,,,
,,,,,,,,,,,,,FF,,,,,,,,1.9287,,,,,,,,,,,,,,,,,,,,,,610336af8890b00f2a4fff86,61036b52aba3bc0d1b42657b,2021-07-29_23h01.02.617,Simcolourproject_2stim_asymm_v5,2020.2.10,MacIntel,60,61025ae37ef11b136ea224fe,,,,,,,,,2044,-31.3125,-65.5859375,1,0,0,response5disk,,3,-0.5390625,-13.59765625,1,0,0,rectangle,-0.5390625,-13.59765625,1,0,0,-0.5390625,-13.59765625,1,0,0,0,19,19,20,1,,,,,,,,
,,,,,,,,,,,,,FF,,,,,,,,1.1134,,,,,,,,,,,,,,,,,,,,,,610336af8890b00f2a4fff86,61036b52aba3bc0d1b42657b,2021-07-29_23h01.02.617,Simcolourproject_2stim_asymm_v5,2020.2.10,MacIntel,60,61025ae37ef11b136ea224fe,,,,,,,,,2260,50.359375,-45.7890625,1,0,0,response3disk,,5,19.9609375,2.8203125,1,0,0,rectangle,19.9609375,2.8203125,1,0,0,19.9609375,2.8203125,1,0,0,0,20,20,77,1,,,,,,,,
,,,,,,,,,,,,,FF,,,,,,,,1.3804,,,,,,,,,,,,,,,,,,,,,,610336af8890b00f2a4fff86,61036b52aba3bc0d1b42657b,2021-07-29_23h01.02.617,Simcolourproject_2stim_asymm_v5,2020.2.10,MacIntel,60,61025ae37ef11b136ea224fe,,,,,,,,,1483,39.92578125,-42.72265625,1,0,0,response3disk,,4,9.609375,-11.8984375,1,0,0,rectangle,9.609375,-11.8984375,1,0,0,9.609375,-11.8984375,1,0,0,0,21,21,47,1,,,,,,,,
,,,,,,,,,,,,,FF,,,,,,,,0.7474,,,,,,,,,,,,,,,,,,,,,,610336af8890b00f2a4fff86,61036b52aba3bc0d1b42657b,2021-07-29_23h01.02.617,Simcolourproject_2stim_asymm_v5,2020.2.10,MacIntel,60,61025ae37ef11b136ea224fe,,,,,,,,,2744,30.30859375,-20.140625,1,0,0,response3disk,,5,-14.8125,-6.5703125,1,0,0,rectangle,-14.8125,-6.5703125,1,0,0,-14.8125,-6.5703125,1,0,0,0,22,22,92,1,,,,,,,,
,,,,,,,,,,,,,FF,,,,,,,,1.1473,,,,,,,,,,,,,,,,,,,,,,610336af8890b00f2a4fff86,61036b52aba3bc0d1b42657b,2021-07-29_23h01.02.617,Simcolourproject_2stim_asymm_v5,2020.2.10,MacIntel,60,61025ae37ef11b136ea224fe,,,,,,,,,3744,-46.46484375,20.66015625,1,0,0,response7disk,,1,-17.62109375,5.2265625,1,0,0,rectangle,-17.62109375,5.2265625,1,0,0,-17.62109375,5.2265625,1,0,0,0,23,23,36,1,,,,,,,,
,,,,,,,,,,,,,FF,,,,,,,,1.1477,,,,,,,,,,,,,,,,,,,,,,610336af8890b00f2a4fff86,61036b52aba3bc0d1b42657b,2021-07-29_23h01.02.617,Simcolourproject_2stim_asymm_v5,2020.2.10,MacIntel,60,61025ae37ef11b136ea224fe,,,,,,,,,490,61.79296875,30.01953125,1,0,0,response1disk,,6,-1.234375,0.58203125,1,0,0,rectangle,-1.234375,0.58203125,1,0,0,-1.234375,0.58203125,1,0,0,0,24,24,58,1,,,,,,,,
,,,,,,,,,,,,,FF,,,,,,,,1.1808,,,,,,,,,,,,,,,,,,,,,,610336af8890b00f2a4fff86,61036b52aba3bc0d1b42657b,2021-07-29_23h01.02.617,Simcolourproject_2stim_asymm_v5,2020.2.10,MacIntel,60,61025ae37ef11b136ea224fe,,,,,,,,,1407,70.25390625,33.0625,1,0,0,response1disk,,6,-13.23828125,-11.26953125,1,0,0,rectangle,-13.23828125,-11.26953125,1,0,0,-13.23828125,-11.26953125,1,0,0,0,25,25,105,1,,,,,,,,
,,,,,,,,,,,,,FF,,,,,,,,0.7481,,,,,,,,,,,,,,,,,,,,,,610336af8890b00f2a4fff86,61036b52aba3bc0d1b42657b,2021-07-29_23h01.02.617,Simcolourproject_2stim_asymm_v5,2020.2.10,MacIntel,60,61025ae37ef11b136ea224fe,,,,,,,,,3048,-47.2890625,26.14453125,1,0,0,response7disk,,1,-19.234375,3.6328125,1,0,0,rectangle,-19.234375,3.6328125,1,0,0,-19.234375,3.6328125,1,0,0,0,26,26,45,1,,,,,,,,
,,,,,,,,,,,,,FF,,,,,,,,1.0812,,,,,,,,,,,,,,,,,,,,,,610336af8890b00f2a4fff86,61036b52aba3bc0d1b42657b,2021-07-29_23h01.02.617,Simcolourproject_2stim_asymm_v5,2020.2.10,MacIntel,60,61025ae37ef11b136ea224fe,,,,,,,,,1954,-33.9609375,-61.78515625,1,0,0,response5disk,,3,-7.1484375,-3.671875,1,0,0,rectangle,-7.1484375,-3.671875,1,0,0,-7.1484375,-3.671875,1,0,0,0,27,27,100,1,,,,,,,,
,,,,,,,,,,,,,FF,,,,,,,,0.5487,,,,,,,,,,,,,,,,,,,,,,610336af8890b00f2a4fff86,61036b52aba3bc0d1b42657b,2021-07-29_23h01.02.617,Simcolourproject_2stim_asymm_v5,2020.2.10,MacIntel,60,61025ae37ef11b136ea224fe,,,,,,,,,2713,-29.49609375,-48.14453125,1,0,0,response5disk,,3,-3.82421875,9.4609375,1,0,0,rectangle,-3.82421875,9.4609375,1,0,0,-3.82421875,9.4609375,1,0,0,0,28,28,84,1,,,,,,,,
,,,,,,,,,,,,,FF,,,,,,,,1.014,,,,,,,,,,,,,,,,,,,,,,610336af8890b00f2a4fff86,61036b52aba3bc0d1b42657b,2021-07-29_23h01.02.617,Simcolourproject_2stim_asymm_v5,2020.2.10,MacIntel,60,61025ae37ef11b136ea224fe,,,,,,,,,992,32.18359375,-57.75390625,1,0,0,response3disk,,4,-0.55859375,-9.95703125,1,0,0,rectangle,-0.55859375,-9.95703125,1,0,0,-0.55859375,-9.95703125,1,0,0,0,29,29,35,1,,,,,,,,
,,,,,,,,,,,,,FF,,,,,,,,0.9816,,,,,,,,,,,,,,,,,,,,,,610336af8890b00f2a4fff86,61036b52aba3bc0d1b42657b,2021-07-29_23h01.02.617,Simcolourproject_2stim_asymm_v5,2020.2.10,MacIntel,60,61025ae37ef11b136ea224fe,,,,,,,,,3492,52.8125,29.96875,1,0,0,response1disk,,6,-10.0546875,3.96875,1,0,0,rectangle,-10.0546875,3.96875,1,0,0,-10.0546875,3.96875,1,0,0,0,30,30,57,1,,,,,,,,
,,,,,,,,,,,,,FF,,,,,,,,0.7986,,,,,,,,,,,,,,,,,,,,,,610336af8890b00f2a4fff86,61036b52aba3bc0d1b42657b,2021-07-29_23h01.02.617,Simcolourproject_2stim_asymm_v5,2020.2.10,MacIntel,60,61025ae37ef11b136ea224fe,,,,,,,,,4294,-76,20.1875,1,0,0,response7disk,,1,-19.5703125,1.13671875,1,0,0,rectangle,-19.5703125,1.13671875,1,0,0,-19.5703125,1.13671875,1,0,0,0,31,31,121,1,,,,,,,,
,,,,,,,,,,,,,FF,,,,,,,,0.9979,,,,,,,,,,,,,,,,,,,,,,610336af8890b00f2a4fff86,61036b52aba3bc0d1b42657b,2021-07-29_23h01.02.617,Simcolourproject_2stim_asymm_v5,2020.2.10,MacIntel,60,61025ae37ef11b136ea224fe,,,,,,,,,801,-45.515625,79.3671875,1,0,0,response7disk,,0,2.61328125,3.14453125,1,0,0,rectangle,2.61328125,3.14453125,1,0,0,2.61328125,3.14453125,1,0,0,0,32,32,15,1,,,,,,,,
,,,,,,,,,,,,,FF,,,,,,,,1.7797,,,,,,,,,,,,,,,,,,,,,,610336af8890b00f2a4fff86,61036b52aba3bc0d1b42657b,2021-07-29_23h01.02.617,Simcolourproject_2stim_asymm_v5,2020.2.10,MacIntel,60,61025ae37ef11b136ea224fe,,,,,,,,,1118,24.578125,75,1,0,0,response1disk,,7,2.30859375,-3.5,1,0,0,rectangle,2.30859375,-3.5,1,0,0,2.30859375,-3.5,1,0,0,0,33,33,26,1,,,,,,,,
,,,,,,,,,,,,,FF,,,,,,,,0.8151,,,,,,,,,,,,,,,,,,,,,,610336af8890b00f2a4fff86,61036b52aba3bc0d1b42657b,2021-07-29_23h01.02.617,Simcolourproject_2stim_asymm_v5,2020.2.10,MacIntel,60,61025ae37ef11b136ea224fe,,,,,,,,,4118,-34.5234375,69.71484375,1,0,0,response7disk,,0,5.33984375,-0.33203125,1,0,0,rectangle,5.33984375,-0.33203125,1,0,0,5.33984375,-0.33203125,1,0,0,0,34,34,116,1,,,,,,,,
,,,,,,,,,,,,,FF,,,,,,,,1.7297,,,,,,,,,,,,,,,,,,,,,,610336af8890b00f2a4fff86,61036b52aba3bc0d1b42657b,2021-07-29_23h01.02.617,Simcolourproject_2stim_asymm_v5,2020.2.10,MacIntel,60,61025ae37ef11b136ea224fe,,,,,,,,,2875,45.59375,25.2890625,1,0,0,response1disk,,6,-13.890625,-3.60546875,1,0,0,rectangle,-13.890625,-3.60546875,1,0,0,-13.890625,-3.60546875,1,0,0,0,35,35,40,1,,,,,,,,
,,,,,,,,,,,,,FF,,,,,,,,1.0475,,,,,,,,,,,,,,,,,,,,,,610336af8890b00f2a4fff86,61036b52aba3bc0d1b42657b,2021-07-29_23h01.02.617,Simcolourproject_2stim_asymm_v5,2020.2.10,MacIntel,60,61025ae37ef11b136ea224fe,,,,,,,,,4024,-41.47265625,18.96875,1,0,0,response7disk,,1,4.26171875,5.46875,1,0,0,rectangle,4.26171875,5.46875,1,0,0,4.26171875,5.46875,1,0,0,0,36,36,96,1,,,,,,,,
,,,,,,,,,,,,,FF,,,,,,,,0.9148,,,,,,,,,,,,,,,,,,,,,,610336af8890b00f2a4fff86,61036b52aba3bc0d1b42657b,2021-07-29_23h01.02.617,Simcolourproject_2stim_asymm_v5,2020.2.10,MacIntel,60,61025ae37ef11b136ea224fe,,,,,,,,,2417,-33.25390625,-43.8203125,1,0,0,response5disk,,3,3.546875,-6.8203125,1,0,0,rectangle,3.546875,-6.8203125,1,0,0,3.546875,-6.8203125,1,0,0,0,37,37,123,1,,,,,,,,
,,,,,,,,,,,,,FF,,,,,,,,0.6815,,,,,,,,,,,,,,,,,,,,,,610336af8890b00f2a4fff86,61036b52aba3bc0d1b42657b,2021-07-29_23h01.02.617,Simcolourproject_2stim_asymm_v5,2020.2.10,MacIntel,60,61025ae37ef11b136ea224fe,,,,,,,,,2973,47.8203125,30.23828125,1,0,0,response1disk,,6,4.80078125,-3.3671875,1,0,0,rectangle,4.80078125,-3.3671875,1,0,0,4.80078125,-3.3671875,1,0,0,0,38,38,32,1,,,,,,,,
,,,,,,,,,,,,,FF,,,,,,,,0.9808,,,,,,,,,,,,,,,,,,,,,,610336af8890b00f2a4fff86,61036b52aba3bc0d1b42657b,2021-07-29_23h01.02.617,Simcolourproject_2stim_asymm_v5,2020.2.10,MacIntel,60,61025ae37ef11b136ea224fe,,,,,,,,,4078,29.5625,-71.30859375,1,0,0,response3disk,,4,-1.296875,-9.4140625,1,0,0,rectangle,19.8203125,-63.0859375,1,0,0,17.82421875,-13.01953125,1,0,0,0,39,39,89,1,,response3disk_3,TRUE,4,4,"[290,106,192,315,84,88,95,72,185,211,96,40,98,148,197,185,75,318,232,320]",2.0302,rectangle
,,,,,,,,,,,,,FF,,,,,,,,0.8642,,,,,,,,,,,,,,,,,,,,,,610336af8890b00f2a4fff86,61036b52aba3bc0d1b42657b,2021-07-29_23h01.02.617,Simcolourproject_2stim_asymm_v5,2020.2.10,MacIntel,60,61025ae37ef11b136ea224fe,,,,,,,,,883,33.765625,-21.96875,1,0,0,response3disk,,5,-2.97265625,-13.48828125,1,0,0,rectangle,-2.97265625,-13.48828125,1,0,0,-2.97265625,-13.48828125,1,0,0,0,40,40,94,1,,,,,,,,
,,,,,,,,,,,,,FF,,,,,,,,1.0816,,,,,,,,,,,,,,,,,,,,,,610336af8890b00f2a4fff86,61036b52aba3bc0d1b42657b,2021-07-29_23h01.02.617,Simcolourproject_2stim_asymm_v5,2020.2.10,MacIntel,60,61025ae37ef11b136ea224fe,,,,,,,,,3227,68.2578125,29.3125,1,0,0,response1disk,,6,12.75390625,2.7109375,1,0,0,rectangle,12.75390625,2.7109375,1,0,0,12.75390625,2.7109375,1,0,0,0,41,41,78,1,,,,,,,,
,,,,,,,,,,,,,FF,,,,,,,,1.4967,,,,,,,,,,,,,,,,,,,,,,610336af8890b00f2a4fff86,61036b52aba3bc0d1b42657b,2021-07-29_23h01.02.617,Simcolourproject_2stim_asymm_v5,2020.2.10,MacIntel,60,61025ae37ef11b136ea224fe,,,,,,,,,1974,48.40234375,-66.46484375,1,0,0,response3disk,,4,22.890625,-1.9921875,1,0,0,rectangle,22.890625,-1.9921875,1,0,0,22.890625,-1.9921875,1,0,0,0,42,42,124,1,,,,,,,,
,,,,,,,,,,,,,FF,,,,,,,,0.9644,,,,,,,,,,,,,,,,,,,,,,610336af8890b00f2a4fff86,61036b52aba3bc0d1b42657b,2021-07-29_23h01.02.617,Simcolourproject_2stim_asymm_v5,2020.2.10,MacIntel,60,61025ae37ef11b136ea224fe,,,,,,,,,2698,25.44140625,55.38671875,1,0,0,response1disk,,7,6.0546875,-8.609375,1,0,0,rectangle,6.0546875,-8.609375,1,0,0,6.0546875,-8.609375,1,0,0,0,43,43,51,1,,,,,,,,
,,,,,,,,,,,,,FF,,,,,,,,1.2972,,,,,,,,,,,,,,,,,,,,,,610336af8890b00f2a4fff86,61036b52aba3bc0d1b42657b,2021-07-29_23h01.02.617,Simcolourproject_2stim_asymm_v5,2020.2.10,MacIntel,60,61025ae37ef11b136ea224fe,,,,,,,,,3399,62.140625,-21.5234375,1,0,0,response3disk,,5,-17.69140625,-4.76171875,1,0,0,rectangle,-17.69140625,-4.76171875,1,0,0,-17.69140625,-4.76171875,1,0,0,0,44,44,86,1,,,,,,,,
,,,,,,,,,,,,,FF,,,,,,,,0.9143,,,,,,,,,,,,,,,,,,,,,,610336af8890b00f2a4fff86,61036b52aba3bc0d1b42657b,2021-07-29_23h01.02.617,Simcolourproject_2stim_asymm_v5,2020.2.10,MacIntel,60,61025ae37ef11b136ea224fe,,,,,,,,,451,24.80078125,-44.28515625,1,0,0,response3disk,,4,6.23046875,12.86328125,1,0,0,rectangle,6.23046875,12.86328125,1,0,0,6.23046875,12.86328125,1,0,0,0,45,45,33,1,,,,,,,,
,,,,,,,,,,,,,FF,,,,,,,,0.8485,,,,,,,,,,,,,,,,,,,,,,610336af8890b00f2a4fff86,61036b52aba3bc0d1b42657b,2021-07-29_23h01.02.617,Simcolourproject_2stim_asymm_v5,2020.2.10,MacIntel,60,61025ae37ef11b136ea224fe,,,,,,,,,1470,39.11328125,29.83984375,1,0,0,response1disk,,6,13.45703125,6.95703125,1,0,0,rectangle,13.45703125,6.95703125,1,0,0,13.45703125,6.95703125,1,0,0,0,46,46,5,1,,,,,,,,
,,,,,,,,,,,,,FF,,,,,,,,2.6935,,,,,,,,,,,,,,,,,,,,,,610336af8890b00f2a4fff86,61036b52aba3bc0d1b42657b,2021-07-29_23h01.02.617,Simcolourproject_2stim_asymm_v5,2020.2.10,MacIntel,60,61025ae37ef11b136ea224fe,,,,,,,,,1901,-26.5625,-45.2734375,1,0,0,response5disk,,3,-8.93359375,-0.3671875,1,0,0,rectangle,-8.93359375,-0.3671875,1,0,0,-8.93359375,-0.3671875,1,0,0,0,47,47,146,1,,,,,,,,
,,,,,,,,,,,,,FF,,,,,,,,0.6644,,,,,,,,,,,,,,,,,,,,,,610336af8890b00f2a4fff86,61036b52aba3bc0d1b42657b,2021-07-29_23h01.02.617,Simcolourproject_2stim_asymm_v5,2020.2.10,MacIntel,60,61025ae37ef11b136ea224fe,,,,,,,,,1744,-28.86328125,-31.60546875,1,0,0,response5disk,,3,-9.1015625,4.96484375,1,0,0,rectangle,-9.1015625,4.96484375,1,0,0,-9.1015625,4.96484375,1,0,0,0,48,48,63,1,,,,,,,,
,,,,,,,,,,,,,FF,,,,,,,,0.7489,,,,,,,,,,,,,,,,,,,,,,610336af8890b00f2a4fff86,61036b52aba3bc0d1b42657b,2021-07-29_23h01.02.617,Simcolourproject_2stim_asymm_v5,2020.2.10,MacIntel,60,61025ae37ef11b136ea224fe,,,,,,,,,168,-35.90625,-40.2421875,1,0,0,response5disk,,3,-2.71875,12.8671875,1,0,0,rectangle,-2.71875,12.8671875,1,0,0,-2.71875,12.8671875,1,0,0,0,49,49,79,1,,,,,,,,
,,,,,,,,,,,,,FF,,,,,,,,0.6829,,,,,,,,,,,,,,,,,,,,,,610336af8890b00f2a4fff86,61036b52aba3bc0d1b42657b,2021-07-29_23h01.02.617,Simcolourproject_2stim_asymm_v5,2020.2.10,MacIntel,60,61025ae37ef11b136ea224fe,,,,,,,,,1780,56.28125,-32.71484375,1,0,0,response3disk,,5,22.69921875,-12.9140625,1,0,0,rectangle,22.69921875,-12.9140625,1,0,0,22.69921875,-12.9140625,1,0,0,0,50,50,71,1,,,,,,,,
,,,,,,,,,,,,,FF,,,,,,,,0.7482,,,,,,,,,,,,,,,,,,,,,,610336af8890b00f2a4fff86,61036b52aba3bc0d1b42657b,2021-07-29_23h01.02.617,Simcolourproject_2stim_asymm_v5,2020.2.10,MacIntel,60,61025ae37ef11b136ea224fe,,,,,,,,,2503,36.84375,-25.66796875,1,0,0,response3disk,,5,-4.96484375,-4.23046875,1,0,0,rectangle,-4.96484375,-4.23046875,1,0,0,-4.96484375,-4.23046875,1,0,0,0,51,51,62,1,,,,,,,,
,,,,,,,,,,,,,FF,,,,,,,,1.1139,,,,,,,,,,,,,,,,,,,,,,610336af8890b00f2a4fff86,61036b52aba3bc0d1b42657b,2021-07-29_23h01.02.617,Simcolourproject_2stim_asymm_v5,2020.2.10,MacIntel,60,61025ae37ef11b136ea224fe,,,,,,,,,3721,70.09375,43.2421875,1,0,0,response1disk,,6,4.91015625,1.52734375,1,0,0,rectangle,4.91015625,1.52734375,1,0,0,4.91015625,1.52734375,1,0,0,0,52,52,49,1,,,,,,,,
,,,,,,,,,,,,,FF,,,,,,,,0.8813,,,,,,,,,,,,,,,,,,,,,,610336af8890b00f2a4fff86,61036b52aba3bc0d1b42657b,2021-07-29_23h01.02.617,Simcolourproject_2stim_asymm_v5,2020.2.10,MacIntel,60,61025ae37ef11b136ea224fe,,,,,,,,,1211,-28.73828125,58.2421875,1,0,0,response7disk,,0,-6.3046875,15.5234375,1,0,0,rectangle,-6.3046875,15.5234375,1,0,0,-6.3046875,15.5234375,1,0,0,0,53,53,70,1,,,,,,,,
,,,,,,,,,,,,,FF,,,,,,,,0.7982,,,,,,,,,,,,,,,,,,,,,,610336af8890b00f2a4fff86,61036b52aba3bc0d1b42657b,2021-07-29_23h01.02.617,Simcolourproject_2stim_asymm_v5,2020.2.10,MacIntel,60,61025ae37ef11b136ea224fe,,,,,,,,,1763,-27.84765625,-36.796875,1,0,0,response5disk,,3,-0.58984375,-1.671875,1,0,0,rectangle,-0.58984375,-1.671875,1,0,0,-0.58984375,-1.671875,1,0,0,0,54,54,69,1,,,,,,,,
,,,,,,,,,,,,,FF,,,,,,,,0.6145,,,,,,,,,,,,,,,,,,,,,,610336af8890b00f2a4fff86,61036b52aba3bc0d1b42657b,2021-07-29_23h01.02.617,Simcolourproject_2stim_asymm_v5,2020.2.10,MacIntel,60,61025ae37ef11b136ea224fe,,,,,,,,,743,84.02734375,-25.14453125,1,0,0,response3disk,,5,11.5390625,11.51953125,1,0,0,rectangle,11.5390625,11.51953125,1,0,0,11.5390625,11.51953125,1,0,0,0,55,55,55,1,,,,,,,,
,,,,,,,,,,,,,FF,,,,,,,,0.5819,,,,,,,,,,,,,,,,,,,,,,610336af8890b00f2a4fff86,61036b52aba3bc0d1b42657b,2021-07-29_23h01.02.617,Simcolourproject_2stim_asymm_v5,2020.2.10,MacIntel,60,61025ae37ef11b136ea224fe,,,,,,,,,3750,-31.49609375,-49.84375,1,0,0,response5disk,,3,1.265625,3.5859375,1,0,0,rectangle,1.265625,3.5859375,1,0,0,1.265625,3.5859375,1,0,0,0,56,56,25,1,,,,,,,,
,,,,,,,,,,,,,FF,,,,,,,,2.5939,,,,,,,,,,,,,,,,,,,,,,610336af8890b00f2a4fff86,61036b52aba3bc0d1b42657b,2021-07-29_23h01.02.617,Simcolourproject_2stim_asymm_v5,2020.2.10,MacIntel,60,61025ae37ef11b136ea224fe,,,,,,,,,3299,39.34765625,-52.3046875,1,0,0,response3disk,,4,19.546875,-5.6171875,1,0,0,rectangle,19.546875,-5.6171875,1,0,0,19.546875,-5.6171875,1,0,0,0,57,57,118,1,,,,,,,,
,,,,,,,,,,,,,FF,,,,,,,,0.5823,,,,,,,,,,,,,,,,,,,,,,610336af8890b00f2a4fff86,61036b52aba3bc0d1b42657b,2021-07-29_23h01.02.617,Simcolourproject_2stim_asymm_v5,2020.2.10,MacIntel,60,61025ae37ef11b136ea224fe,,,,,,,,,1196,38,-18.19140625,1,0,0,response3disk,,5,12.46484375,-2.890625,1,0,0,rectangle,12.46484375,-2.890625,1,0,0,12.46484375,-2.890625,1,0,0,0,58,58,65,1,,,,,,,,
,,,,,,,,,,,,,FF,,,,,,,,1.3466,,,,,,,,,,,,,,,,,,,,,,610336af8890b00f2a4fff86,61036b52aba3bc0d1b42657b,2021-07-29_23h01.02.617,Simcolourproject_2stim_asymm_v5,2020.2.10,MacIntel,60,61025ae37ef11b136ea224fe,,,,,,,,,4187,-33.73046875,-46.26171875,1,0,0,response5disk,,3,10.04296875,-3.05859375,1,0,0,rectangle,10.04296875,-3.05859375,1,0,0,10.04296875,-3.05859375,1,0,0,0,59,59,38,1,,,,,,,,
,,,,,,,,,,,,,FF,,,,,,,,0.7144,,,,,,,,,,,,,,,,,,,,,,610336af8890b00f2a4fff86,61036b52aba3bc0d1b42657b,2021-07-29_23h01.02.617,Simcolourproject_2stim_asymm_v5,2020.2.10,MacIntel,60,61025ae37ef11b136ea224fe,,,,,,,,,402,29.52734375,-38.1015625,1,0,0,response3disk,,4,10.86328125,8.75,1,0,0,rectangle,10.86328125,8.75,1,0,0,10.86328125,8.75,1,0,0,0,60,60,41,1,,,,,,,,
,,,,,,,,,,,,,FF,,,,,,,,0.7825,,,,,,,,,,,,,,,,,,,,,,610336af8890b00f2a4fff86,61036b52aba3bc0d1b42657b,2021-07-29_23h01.02.617,Simcolourproject_2stim_asymm_v5,2020.2.10,MacIntel,60,61025ae37ef11b136ea224fe,,,,,,,,,4362,-27.7890625,45.9140625,1,0,0,response7disk,,0,-14.0625,13.3125,1,0,0,rectangle,-14.0625,13.3125,1,0,0,-14.0625,13.3125,1,0,0,0,61,61,112,1,,,,,,,,
,,,,,,,,,,,,,FF,,,,,,,,0.7989,,,,,,,,,,,,,,,,,,,,,,610336af8890b00f2a4fff86,61036b52aba3bc0d1b42657b,2021-07-29_23h01.02.617,Simcolourproject_2stim_asymm_v5,2020.2.10,MacIntel,60,61025ae37ef11b136ea224fe,,,,,,,,,700,64.47265625,19.6015625,1,0,0,response1disk,,6,19.9609375,4.63671875,1,0,0,rectangle,19.9609375,4.63671875,1,0,0,19.9609375,4.63671875,1,0,0,0,62,62,103,1,,,,,,,,
,,,,,,,,,,,,,FF,,,,,,,,0.5475,,,,,,,,,,,,,,,,,,,,,,610336af8890b00f2a4fff86,61036b52aba3bc0d1b42657b,2021-07-29_23h01.02.617,Simcolourproject_2stim_asymm_v5,2020.2.10,MacIntel,60,61025ae37ef11b136ea224fe,,,,,,,,,1555,47.51171875,28.41796875,1,0,0,response1disk,,6,6.6484375,5.453125,1,0,0,rectangle,6.6484375,5.453125,1,0,0,6.6484375,5.453125,1,0,0,0,63,63,128,1,,,,,,,,
,,,,,,,,,,,,,FF,,,,,,,,1.1462,,,,,,,,,,,,,,,,,,,,,,610336af8890b00f2a4fff86,61036b52aba3bc0d1b42657b,2021-07-29_23h01.02.617,Simcolourproject_2stim_asymm_v5,2020.2.10,MacIntel,60,61025ae37ef11b136ea224fe,,,,,,,,,241,64.43359375,58.0703125,1,0,0,response1disk,,6,-15.69140625,-3.96484375,1,0,0,rectangle,-15.69140625,-3.96484375,1,0,0,-15.69140625,-3.96484375,1,0,0,0,64,64,108,1,,,,,,,,
,,,,,,,,,,,,,FF,,,,,,,,0.9314,,,,,,,,,,,,,,,,,,,,,,610336af8890b00f2a4fff86,61036b52aba3bc0d1b42657b,2021-07-29_23h01.02.617,Simcolourproject_2stim_asymm_v5,2020.2.10,MacIntel,60,61025ae37ef11b136ea224fe,,,,,,,,,2181,48.83203125,-31.0546875,1,0,0,response3disk,,5,-7.87890625,-1.61328125,1,0,0,rectangle,-7.87890625,-1.61328125,1,0,0,-7.87890625,-1.61328125,1,0,0,0,65,65,83,1,,,,,,,,
,,,,,,,,,,,,,FF,,,,,,,,1.5467,,,,,,,,,,,,,,,,,,,,,,610336af8890b00f2a4fff86,61036b52aba3bc0d1b42657b,2021-07-29_23h01.02.617,Simcolourproject_2stim_asymm_v5,2020.2.10,MacIntel,60,61025ae37ef11b136ea224fe,,,,,,,,,164,-33.3671875,-35.1796875,1,0,0,response5disk,,3,-16.19140625,-1.01953125,1,0,0,rectangle,-16.19140625,-1.01953125,1,0,0,-16.19140625,-1.01953125,1,0,0,0,66,66,46,1,,,,,,,,
,,,,,,,,,,,,,FF,,,,,,,,0.5655,,,,,,,,,,,,,,,,,,,,,,610336af8890b00f2a4fff86,61036b52aba3bc0d1b42657b,2021-07-29_23h01.02.617,Simcolourproject_2stim_asymm_v5,2020.2.10,MacIntel,60,61025ae37ef11b136ea224fe,,,,,,,,,2009,60.953125,-41.0078125,1,0,0,response3disk,,5,7.32421875,-11.73046875,1,0,0,rectangle,7.32421875,-11.73046875,1,0,0,7.32421875,-11.73046875,1,0,0,0,67,67,91,1,,,,,,,,
,,,,,,,,,,,,,FF,,,,,,,,0.8648,,,,,,,,,,,,,,,,,,,,,,610336af8890b00f2a4fff86,61036b52aba3bc0d1b42657b,2021-07-29_23h01.02.617,Simcolourproject_2stim_asymm_v5,2020.2.10,MacIntel,60,61025ae37ef11b136ea224fe,,,,,,,,,39,39.28125,48.0625,1,0,0,response1disk,,7,3.62109375,-4.1328125,1,0,0,rectangle,3.62109375,-4.1328125,1,0,0,3.62109375,-4.1328125,1,0,0,0,68,68,80,1,,,,,,,,
,,,,,,,,,,,,,FF,,,,,,,,0.7987,,,,,,,,,,,,,,,,,,,,,,610336af8890b00f2a4fff86,61036b52aba3bc0d1b42657b,2021-07-29_23h01.02.617,Simcolourproject_2stim_asymm_v5,2020.2.10,MacIntel,60,61025ae37ef11b136ea224fe,,,,,,,,,2921,23.08203125,49.09375,1,0,0,response1disk,,7,6.52734375,-8.7421875,1,0,0,rectangle,6.52734375,-8.7421875,1,0,0,6.52734375,-8.7421875,1,0,0,0,69,69,101,1,,,,,,,,
,,,,,,,,,,,,,FF,,,,,,,,0.9316,,,,,,,,,,,,,,,,,,,,,,610336af8890b00f2a4fff86,61036b52aba3bc0d1b42657b,2021-07-29_23h01.02.617,Simcolourproject_2stim_asymm_v5,2020.2.10,MacIntel,60,61025ae37ef11b136ea224fe,,,,,,,,,2490,-34.73046875,-67.1328125,1,0,0,response5disk,,3,4.46875,-6.58984375,1,0,0,rectangle,4.46875,-6.58984375,1,0,0,4.46875,-6.58984375,1,0,0,0,70,70,66,1,,,,,,,,
,,,,,,,,,,,,,FF,,,,,,,,0.831,,,,,,,,,,,,,,,,,,,,,,610336af8890b00f2a4fff86,61036b52aba3bc0d1b42657b,2021-07-29_23h01.02.617,Simcolourproject_2stim_asymm_v5,2020.2.10,MacIntel,60,61025ae37ef11b136ea224fe,,,,,,,,,228,57.08203125,69.35546875,1,0,0,response1disk,,7,16.97265625,1.765625,1,0,0,rectangle,-40.734375,-46.59375,1,0,0,-8.13671875,12.390625,1,0,0,0,71,71,19,1,,response5disk_3,TRUE,3,3,"[290,106,192,315,84,88,95,72,185,211,96,40,98,148,197,185,75,318,232,320]",2.245,rectangle
,,,,,,,,,,,,,FF,,,,,,,,1.4967,,,,,,,,,,,,,,,,,,,,,,610336af8890b00f2a4fff86,61036b52aba3bc0d1b42657b,2021-07-29_23h01.02.617,Simcolourproject_2stim_asymm_v5,2020.2.10,MacIntel,60,61025ae37ef11b136ea224fe,,,,,,,,,2413,20.05859375,-42.75,1,0,0,response3disk,,4,-1.3359375,-4.984375,1,0,0,rectangle,-1.3359375,-4.984375,1,0,0,-1.3359375,-4.984375,1,0,0,0,72,72,43,1,,,,,,,,
,,,,,,,,,,,,,FF,,,,,,,,1.6799,,,,,,,,,,,,,,,,,,,,,,610336af8890b00f2a4fff86,61036b52aba3bc0d1b42657b,2021-07-29_23h01.02.617,Simcolourproject_2stim_asymm_v5,2020.2.10,MacIntel,60,61025ae37ef11b136ea224fe,,,,,,,,,1713,15.4765625,-56.75390625,1,0,0,response3disk,,4,3.234375,3.61328125,1,0,0,rectangle,3.234375,3.61328125,1,0,0,3.234375,3.61328125,1,0,0,0,73,73,111,1,,,,,,,,
,,,,,,,,,,,,,FF,,,,,,,,0.966,,,,,,,,,,,,,,,,,,,,,,610336af8890b00f2a4fff86,61036b52aba3bc0d1b42657b,2021-07-29_23h01.02.617,Simcolourproject_2stim_asymm_v5,2020.2.10,MacIntel,60,61025ae37ef11b136ea224fe,,,,,,,,,1771,14.203125,-47.515625,1,0,0,response3disk,,4,-2.37109375,-5.64453125,1,0,0,rectangle,-25.36328125,-61.515625,1,0,0,-2.234375,9.66015625,1,0,0,0,74,74,60,1,,response5disk_3,TRUE,3,3,"[290,106,192,315,84,88,95,72,185,211,96,40,98,148,197,185,75,318,232,320]",1.9464,rectangle
,,,,,,,,,,,,,FF,,,,,,,,0.9633,,,,,,,,,,,,,,,,,,,,,,610336af8890b00f2a4fff86,61036b52aba3bc0d1b42657b,2021-07-29_23h01.02.617,Simcolourproject_2stim_asymm_v5,2020.2.10,MacIntel,60,61025ae37ef11b136ea224fe,,,,,,,,,2685,-21.90625,-58.5546875,1,0,0,response5disk,,3,29.7421875,9.0078125,1,0,0,rectangle,29.7421875,9.0078125,1,0,0,29.7421875,9.0078125,1,0,0,0,75,75,29,1,,,,,,,,
,,,,,,,,,,,,,FF,,,,,,,,1.5963,,,,,,,,,,,,,,,,,,,,,,610336af8890b00f2a4fff86,61036b52aba3bc0d1b42657b,2021-07-29_23h01.02.617,Simcolourproject_2stim_asymm_v5,2020.2.10,MacIntel,60,61025ae37ef11b136ea224fe,,,,,,,,,325,58.50390625,42.81640625,1,0,0,response1disk,,6,10.9921875,8.265625,1,0,0,rectangle,10.9921875,8.265625,1,0,0,10.9921875,8.265625,1,0,0,0,76,76,3,1,,,,,,,,
,,,,,,,,,,,,,FF,,,,,,,,0.7647,,,,,,,,,,,,,,,,,,,,,,610336af8890b00f2a4fff86,61036b52aba3bc0d1b42657b,2021-07-29_23h01.02.617,Simcolourproject_2stim_asymm_v5,2020.2.10,MacIntel,60,61025ae37ef11b136ea224fe,,,,,,,,,2887,-55.3515625,33.6015625,1,0,0,response7disk,,1,-7.546875,14.1875,1,0,0,rectangle,-7.546875,14.1875,1,0,0,-7.546875,14.1875,1,0,0,0,77,77,98,1,,,,,,,,
,,,,,,,,,,,,,FF,,,,,,,,1.3472,,,,,,,,,,,,,,,,,,,,,,610336af8890b00f2a4fff86,61036b52aba3bc0d1b42657b,2021-07-29_23h01.02.617,Simcolourproject_2stim_asymm_v5,2020.2.10,MacIntel,60,61025ae37ef11b136ea224fe,,,,,,,,,538,66.15625,-31.1640625,1,0,0,response3disk,,5,5.13671875,4.73046875,1,0,0,rectangle,5.13671875,4.73046875,1,0,0,5.13671875,4.73046875,1,0,0,0,78,78,64,1,,,,,,,,
,,,,,,,,,,,,,FF,,,,,,,,1.7125,,,,,,,,,,,,,,,,,,,,,,610336af8890b00f2a4fff86,61036b52aba3bc0d1b42657b,2021-07-29_23h01.02.617,Simcolourproject_2stim_asymm_v5,2020.2.10,MacIntel,60,61025ae37ef11b136ea224fe,,,,,,,,,3904,45.34375,-42.75390625,1,0,0,response3disk,,5,21.30859375,0.984375,1,0,0,rectangle,21.30859375,0.984375,1,0,0,21.30859375,0.984375,1,0,0,0,79,79,22,1,,,,,,,,
,,,,,,,,,,,,,FF,,,,,,,,0.9303,,,,,,,,,,,,,,,,,,,,,,610336af8890b00f2a4fff86,61036b52aba3bc0d1b42657b,2021-07-29_23h01.02.617,Simcolourproject_2stim_asymm_v5,2020.2.10,MacIntel,60,61025ae37ef11b136ea224fe,,,,,,,,,4157,35.34375,-24.0390625,1,0,0,response3disk,,5,-2.046875,-7.24609375,1,0,0,rectangle,-2.046875,-7.24609375,1,0,0,-2.046875,-7.24609375,1,0,0,0,80,80,2,1,,,,,,,,
,,,,,,,,,,,,,FF,,,,,,,,0.7656,,,,,,,,,,,,,,,,,,,,,,610336af8890b00f2a4fff86,61036b52aba3bc0d1b42657b,2021-07-29_23h01.02.617,Simcolourproject_2stim_asymm_v5,2020.2.10,MacIntel,60,61025ae37ef11b136ea224fe,,,,,,,,,2621,33.58984375,-50.421875,1,0,0,response3disk,,4,11.25,-12.5390625,1,0,0,rectangle,11.25,-12.5390625,1,0,0,11.25,-12.5390625,1,0,0,0,81,81,12,1,,,,,,,,
,,,,,,,,,,,,,FF,,,,,,,,1.097,,,,,,,,,,,,,,,,,,,,,,610336af8890b00f2a4fff86,61036b52aba3bc0d1b42657b,2021-07-29_23h01.02.617,Simcolourproject_2stim_asymm_v5,2020.2.10,MacIntel,60,61025ae37ef11b136ea224fe,,,,,,,,,3482,21.34765625,-42.6640625,1,0,0,response3disk,,4,13.4296875,-0.29296875,1,0,0,rectangle,13.4296875,-0.29296875,1,0,0,13.4296875,-0.29296875,1,0,0,0,82,82,24,1,,,,,,,,
,,,,,,,,,,,,,FF,,,,,,,,0.7148,,,,,,,,,,,,,,,,,,,,,,610336af8890b00f2a4fff86,61036b52aba3bc0d1b42657b,2021-07-29_23h01.02.617,Simcolourproject_2stim_asymm_v5,2020.2.10,MacIntel,60,61025ae37ef11b136ea224fe,,,,,,,,,119,25.9921875,52.06640625,1,0,0,response1disk,,7,-0.88671875,-11.98046875,1,0,0,rectangle,75.12890625,-31.8828125,1,0,0,16.61328125,-7.8984375,1,0,0,0,83,83,18,1,,response3disk_3,TRUE,5,5,"[290,106,192,315,84,88,95,72,185,211,96,40,98,148,197,185,75,318,232,320]",1.68,rectangle
,,,,,,,,,,,,,FF,,,,,,,,0.7982,,,,,,,,,,,,,,,,,,,,,,610336af8890b00f2a4fff86,61036b52aba3bc0d1b42657b,2021-07-29_23h01.02.617,Simcolourproject_2stim_asymm_v5,2020.2.10,MacIntel,60,61025ae37ef11b136ea224fe,,,,,,,,,859,51.8984375,35.03515625,1,0,0,response1disk,,6,2.53125,-1.44140625,1,0,0,rectangle,2.53125,-1.44140625,1,0,0,2.53125,-1.44140625,1,0,0,0,84,84,6,1,,,,,,,,
,,,,,,,,,,,,,FF,,,,,,,,0.9813,,,,,,,,,,,,,,,,,,,,,,610336af8890b00f2a4fff86,61036b52aba3bc0d1b42657b,2021-07-29_23h01.02.617,Simcolourproject_2stim_asymm_v5,2020.2.10,MacIntel,60,61025ae37ef11b136ea224fe,,,,,,,,,3774,21.18359375,-34.16015625,1,0,0,response3disk,,4,-24.87890625,5.80078125,1,0,0,rectangle,-24.87890625,5.80078125,1,0,0,-24.87890625,5.80078125,1,0,0,0,85,85,138,1,,,,,,,,
,,,,,,,,,,,,,FF,,,,,,,,3.7418,,,,,,,,,,,,,,,,,,,,,,610336af8890b00f2a4fff86,61036b52aba3bc0d1b42657b,2021-07-29_23h01.02.617,Simcolourproject_2stim_asymm_v5,2020.2.10,MacIntel,60,61025ae37ef11b136ea224fe,,,,,,,,,2695,27.04296875,-58.625,1,0,0,response3disk,,4,-8.91796875,-10.37109375,1,0,0,rectangle,-8.91796875,-10.37109375,1,0,0,-8.91796875,-10.37109375,1,0,0,0,86,86,158,1,,,,,,,,
,,,,,,,,,,,,,FF,,,,,,,,0.8811,,,,,,,,,,,,,,,,,,,,,,610336af8890b00f2a4fff86,61036b52aba3bc0d1b42657b,2021-07-29_23h01.02.617,Simcolourproject_2stim_asymm_v5,2020.2.10,MacIntel,60,61025ae37ef11b136ea224fe,,,,,,,,,3959,-18.54296875,-52.26953125,1,0,0,response5disk,,3,12.65625,1.12890625,1,0,0,rectangle,42.13671875,67.9921875,1,0,0,10.62890625,-8.65625,1,0,0,0,87,87,48,1,,response1disk_3,TRUE,7,7,"[290,106,192,315,84,88,95,72,185,211,96,40,98,148,197,185,75,318,232,320]",1.3298,rectangle
,,,,,,,,,,,,,FF,,,,,,,,0.8151,,,,,,,,,,,,,,,,,,,,,,610336af8890b00f2a4fff86,61036b52aba3bc0d1b42657b,2021-07-29_23h01.02.617,Simcolourproject_2stim_asymm_v5,2020.2.10,MacIntel,60,61025ae37ef11b136ea224fe,,,,,,,,,3521,26.9140625,-21.38671875,1,0,0,response3disk,,5,-10.5703125,2.68359375,1,0,0,rectangle,-10.5703125,2.68359375,1,0,0,-10.5703125,2.68359375,1,0,0,0,88,88,155,1,,,,,,,,
,,,,,,,,,,,,,FF,,,,,,,,1.1137,,,,,,,,,,,,,,,,,,,,,,610336af8890b00f2a4fff86,61036b52aba3bc0d1b42657b,2021-07-29_23h01.02.617,Simcolourproject_2stim_asymm_v5,2020.2.10,MacIntel,60,61025ae37ef11b136ea224fe,,,,,,,,,1237,31.6953125,-21.65234375,1,0,0,response3disk,,5,4.99609375,-2.65234375,1,0,0,rectangle,4.99609375,-2.65234375,1,0,0,4.99609375,-2.65234375,1,0,0,0,89,89,133,1,,,,,,,,
,,,,,,,,,,,,,FF,,,,,,,,2.5622,,,,,,,,,,,,,,,,,,,,,,610336af8890b00f2a4fff86,61036b52aba3bc0d1b42657b,2021-07-29_23h01.02.617,Simcolourproject_2stim_asymm_v5,2020.2.10,MacIntel,60,61025ae37ef11b136ea224fe,,,,,,,,,1197,49.29296875,-21.66015625,1,0,0,response3disk,,5,-25.77734375,3.83203125,1,0,0,rectangle,-25.77734375,3.83203125,1,0,0,-25.77734375,3.83203125,1,0,0,0,90,90,115,1,,,,,,,,
,,,,,,,,,,,,,FF,,,,,,,,3.2588,,,,,,,,,,,,,,,,,,,,,,610336af8890b00f2a4fff86,61036b52aba3bc0d1b42657b,2021-07-29_23h01.02.617,Simcolourproject_2stim_asymm_v5,2020.2.10,MacIntel,60,61025ae37ef11b136ea224fe,,,,,,,,,727,17.8125,-44.7421875,1,0,0,response3disk,,4,-6.6328125,-7.5546875,1,0,0,rectangle,-6.6328125,-7.5546875,1,0,0,-6.6328125,-7.5546875,1,0,0,0,91,91,139,1,,,,,,,,
,,,,,,,,,,,,,FF,,,,,,,,0.7486,,,,,,,,,,,,,,,,,,,,,,610336af8890b00f2a4fff86,61036b52aba3bc0d1b42657b,2021-07-29_23h01.02.617,Simcolourproject_2stim_asymm_v5,2020.2.10,MacIntel,60,61025ae37ef11b136ea224fe,,,,,,,,,3740,21.81640625,-53.41796875,1,0,0,response3disk,,4,-1.75,-10.52734375,1,0,0,rectangle,-1.75,-10.52734375,1,0,0,-1.75,-10.52734375,1,0,0,0,92,92,31,1,,,,,,,,
,,,,,,,,,,,,,FF,,,,,,,,0.8138,,,,,,,,,,,,,,,,,,,,,,610336af8890b00f2a4fff86,61036b52aba3bc0d1b42657b,2021-07-29_23h01.02.617,Simcolourproject_2stim_asymm_v5,2020.2.10,MacIntel,60,61025ae37ef11b136ea224fe,,,,,,,,,1449,-28.265625,-50.4296875,1,0,0,response5disk,,3,-1.41015625,0.25,1,0,0,rectangle,-1.41015625,0.25,1,0,0,-1.41015625,0.25,1,0,0,0,93,93,154,1,,,,,,,,
,,,,,,,,,,,,,FF,,,,,,,,0.9139,,,,,,,,,,,,,,,,,,,,,,610336af8890b00f2a4fff86,61036b52aba3bc0d1b42657b,2021-07-29_23h01.02.617,Simcolourproject_2stim_asymm_v5,2020.2.10,MacIntel,60,61025ae37ef11b136ea224fe,,,,,,,,,2920,40.24609375,58.69140625,1,0,0,response1disk,,7,13.33984375,0.0546875,1,0,0,rectangle,-62.03125,48.27734375,1,0,0,6.80859375,7.62109375,1,0,0,0,94,94,56,1,,response7disk_3,TRUE,1,1,"[290,106,192,315,84,88,95,72,185,211,96,40,98,148,197,185,75,318,232,320]",1.4625,rectangle
,,,,,,,,,,,,,FF,,,,,,,,2.2447,,,,,,,,,,,,,,,,,,,,,,610336af8890b00f2a4fff86,61036b52aba3bc0d1b42657b,2021-07-29_23h01.02.617,Simcolourproject_2stim_asymm_v5,2020.2.10,MacIntel,60,61025ae37ef11b136ea224fe,,,,,,,,,2750,47.59765625,27.0859375,1,0,0,response1disk,,6,-2.2890625,-11.8984375,1,0,0,rectangle,17.39453125,-49.3828125,1,0,0,12.59765625,1.1484375,1,0,0,0,95,95,73,1,,response3disk_3,TRUE,4,4,"[290,106,192,315,84,88,95,72,185,211,96,40,98,148,197,185,75,318,232,320]",1.8125,rectangle
,,,,,,,,,,,,,FF,,,,,,,,0.7827,,,,,,,,,,,,,,,,,,,,,,610336af8890b00f2a4fff86,61036b52aba3bc0d1b42657b,2021-07-29_23h01.02.617,Simcolourproject_2stim_asymm_v5,2020.2.10,MacIntel,60,61025ae37ef11b136ea224fe,,,,,,,,,346,-28.53515625,-33.7421875,1,0,0,response5disk,,3,-1.875,-5.30078125,1,0,0,rectangle,-1.875,-5.30078125,1,0,0,-1.875,-5.30078125,1,0,0,0,96,96,148,1,,,,,,,,
,,,,,,,,,,,,,FF,,,,,,,,0.7302,,,,,,,,,,,,,,,,,,,,,,610336af8890b00f2a4fff86,61036b52aba3bc0d1b42657b,2021-07-29_23h01.02.617,Simcolourproject_2stim_asymm_v5,2020.2.10,MacIntel,60,61025ae37ef11b136ea224fe,,,,,,,,,3068,29.83984375,-37.93359375,1,0,0,response3disk,,4,-2.640625,1.55078125,1,0,0,rectangle,-46.13671875,45.39453125,1,0,0,-4.203125,1.8359375,1,0,0,0,97,97,90,1,,response7disk_3,TRUE,1,1,"[290,106,192,315,84,88,95,72,185,211,96,40,98,148,197,185,75,318,232,320]",1.2473,rectangle
,,,,,,,,,,,,,FF,,,,,,,,1.2804,,,,,,,,,,,,,,,,,,,,,,610336af8890b00f2a4fff86,61036b52aba3bc0d1b42657b,2021-07-29_23h01.02.617,Simcolourproject_2stim_asymm_v5,2020.2.10,MacIntel,60,61025ae37ef11b136ea224fe,,,,,,,,,641,-44.8515625,-20.15234375,1,0,0,response5disk,,2,-1.93359375,5.75,1,0,0,rectangle,-1.93359375,5.75,1,0,0,-1.93359375,5.75,1,0,0,0,98,98,104,1,,,,,,,,
,,,,,,,,,,,,,FF,,,,,,,,0.8806,,,,,,,,,,,,,,,,,,,,,,610336af8890b00f2a4fff86,61036b52aba3bc0d1b42657b,2021-07-29_23h01.02.617,Simcolourproject_2stim_asymm_v5,2020.2.10,MacIntel,60,61025ae37ef11b136ea224fe,,,,,,,,,3319,41.56640625,28.19921875,1,0,0,response1disk,,6,1.2734375,-3.0234375,1,0,0,rectangle,1.2734375,-3.0234375,1,0,0,1.2734375,-3.0234375,1,0,0,0,99,99,97,1,,,,,,,,
,,,,,,,,,,,,,FF,,,,,,,,0.7324,,,,,,,,,,,,,,,,,,,,,,610336af8890b00f2a4fff86,61036b52aba3bc0d1b42657b,2021-07-29_23h01.02.617,Simcolourproject_2stim_asymm_v5,2020.2.10,MacIntel,60,61025ae37ef11b136ea224fe,,,,,,,,,3882,-31.72265625,-34.16796875,1,0,0,response5disk,,3,-14.2265625,-4.7109375,1,0,0,rectangle,-14.2265625,-4.7109375,1,0,0,-14.2265625,-4.7109375,1,0,0,0,100,100,4,1,,,,,,,,
,,,,,,,,,,,,,FF,,,,,,,,0.8315,,,,,,,,,,,,,,,,,,,,,,610336af8890b00f2a4fff86,61036b52aba3bc0d1b42657b,2021-07-29_23h01.02.617,Simcolourproject_2stim_asymm_v5,2020.2.10,MacIntel,60,61025ae37ef11b136ea224fe,,,,,,,,,449,21.2734375,-33.921875,1,0,0,response3disk,,4,-9.86328125,7.203125,1,0,0,rectangle,-9.86328125,7.203125,1,0,0,-9.86328125,7.203125,1,0,0,0,101,101,88,1,,,,,,,,
,,,,,,,,,,,,,FF,,,,,,,,1.0314,,,,,,,,,,,,,,,,,,,,,,610336af8890b00f2a4fff86,61036b52aba3bc0d1b42657b,2021-07-29_23h01.02.617,Simcolourproject_2stim_asymm_v5,2020.2.10,MacIntel,60,61025ae37ef11b136ea224fe,,,,,,,,,3586,-35.43359375,-48.5546875,1,0,0,response5disk,,3,-15.421875,-3.0390625,1,0,0,rectangle,-15.421875,-3.0390625,1,0,0,-15.421875,-3.0390625,1,0,0,0,102,102,95,1,,,,,,,,
,,,,,,,,,,,,,FF,,,,,,,,0.7643,,,,,,,,,,,,,,,,,,,,,,610336af8890b00f2a4fff86,61036b52aba3bc0d1b42657b,2021-07-29_23h01.02.617,Simcolourproject_2stim_asymm_v5,2020.2.10,MacIntel,60,61025ae37ef11b136ea224fe,,,,,,,,,3984,36.1953125,68.05859375,1,0,0,response1disk,,7,12.69921875,13.83984375,1,0,0,rectangle,12.69921875,13.83984375,1,0,0,12.69921875,13.83984375,1,0,0,0,103,103,106,1,,,,,,,,
,,,,,,,,,,,,,FF,,,,,,,,0.7148,,,,,,,,,,,,,,,,,,,,,,610336af8890b00f2a4fff86,61036b52aba3bc0d1b42657b,2021-07-29_23h01.02.617,Simcolourproject_2stim_asymm_v5,2020.2.10,MacIntel,60,61025ae37ef11b136ea224fe,,,,,,,,,46,21,66.94921875,1,0,0,response1disk,,7,13.53515625,12.82421875,1,0,0,rectangle,13.53515625,12.82421875,1,0,0,13.53515625,12.82421875,1,0,0,0,104,104,127,1,,,,,,,,
,,,,,,,,,,,,,FF,,,,,,,,0.5651,,,,,,,,,,,,,,,,,,,,,,610336af8890b00f2a4fff86,61036b52aba3bc0d1b42657b,2021-07-29_23h01.02.617,Simcolourproject_2stim_asymm_v5,2020.2.10,MacIntel,60,61025ae37ef11b136ea224fe,,,,,,,,,2134,25.6953125,62.15625,1,0,0,response1disk,,7,7.578125,6.10546875,1,0,0,rectangle,53.00390625,-31.43359375,1,0,0,22.10546875,-7.70703125,1,0,0,0,105,105,107,1,,response3disk_3,TRUE,5,5,"[290,106,192,315,84,88,95,72,185,211,96,40,98,148,197,185,75,318,232,320]",1.2636,rectangle
,,,,,,,,,,,,,FF,,,,,,,,0.8479,,,,,,,,,,,,,,,,,,,,,,610336af8890b00f2a4fff86,61036b52aba3bc0d1b42657b,2021-07-29_23h01.02.617,Simcolourproject_2stim_asymm_v5,2020.2.10,MacIntel,60,61025ae37ef11b136ea224fe,,,,,,,,,1315,-23.06640625,-52.69140625,1,0,0,response5disk,,3,11.08984375,10.16796875,1,0,0,rectangle,11.08984375,10.16796875,1,0,0,11.08984375,10.16796875,1,0,0,0,106,106,132,1,,,,,,,,
,,,,,,,,,,,,,FF,,,,,,,,0.8148,,,,,,,,,,,,,,,,,,,,,,610336af8890b00f2a4fff86,61036b52aba3bc0d1b42657b,2021-07-29_23h01.02.617,Simcolourproject_2stim_asymm_v5,2020.2.10,MacIntel,60,61025ae37ef11b136ea224fe,,,,,,,,,1604,-35.08203125,-33.48828125,1,0,0,response5disk,,2,-2.2265625,-1.06640625,1,0,0,rectangle,-2.2265625,-1.06640625,1,0,0,-2.2265625,-1.06640625,1,0,0,0,107,107,156,1,,,,,,,,
,,,,,,,,,,,,,FF,,,,,,,,1.3972,,,,,,,,,,,,,,,,,,,,,,610336af8890b00f2a4fff86,61036b52aba3bc0d1b42657b,2021-07-29_23h01.02.617,Simcolourproject_2stim_asymm_v5,2020.2.10,MacIntel,60,61025ae37ef11b136ea224fe,,,,,,,,,2103,21.15234375,-46.875,1,0,0,response3disk,,4,-7.546875,8.11328125,1,0,0,rectangle,-7.546875,8.11328125,1,0,0,-7.546875,8.11328125,1,0,0,0,108,108,10,1,,,,,,,,
,,,,,,,,,,,,,FF,,,,,,,,1.6793,,,,,,,,,,,,,,,,,,,,,,610336af8890b00f2a4fff86,61036b52aba3bc0d1b42657b,2021-07-29_23h01.02.617,Simcolourproject_2stim_asymm_v5,2020.2.10,MacIntel,60,61025ae37ef11b136ea224fe,,,,,,,,,896,51.47265625,-17.30078125,1,0,0,response3disk,,5,9.17578125,-0.21484375,1,0,0,rectangle,9.17578125,-0.21484375,1,0,0,9.17578125,-0.21484375,1,0,0,0,109,109,99,1,,,,,,,,
,,,,,,,,,,,,,FF,,,,,,,,1.0991,,,,,,,,,,,,,,,,,,,,,,610336af8890b00f2a4fff86,61036b52aba3bc0d1b42657b,2021-07-29_23h01.02.617,Simcolourproject_2stim_asymm_v5,2020.2.10,MacIntel,60,61025ae37ef11b136ea224fe,,,,,,,,,3124,47.96484375,17.953125,1,0,0,response1disk,,6,14.5078125,-0.625,1,0,0,rectangle,14.5078125,-0.625,1,0,0,14.5078125,-0.625,1,0,0,0,110,110,54,1,,,,,,,,
,,,,,,,,,,,,,FF,,,,,,,,0.5654,,,,,,,,,,,,,,,,,,,,,,610336af8890b00f2a4fff86,61036b52aba3bc0d1b42657b,2021-07-29_23h01.02.617,Simcolourproject_2stim_asymm_v5,2020.2.10,MacIntel,60,61025ae37ef11b136ea224fe,,,,,,,,,582,44.703125,32,1,0,0,response1disk,,6,-9.38671875,-8.54296875,1,0,0,rectangle,-9.38671875,-8.54296875,1,0,0,-9.38671875,-8.54296875,1,0,0,0,111,111,102,1,,,,,,,,
,,,,,,,,,,,,,FF,,,,,,,,0.5652,,,,,,,,,,,,,,,,,,,,,,610336af8890b00f2a4fff86,61036b52aba3bc0d1b42657b,2021-07-29_23h01.02.617,Simcolourproject_2stim_asymm_v5,2020.2.10,MacIntel,60,61025ae37ef11b136ea224fe,,,,,,,,,2948,-14.2578125,-26.78125,1,0,0,response5disk,,3,4.3203125,-4.515625,1,0,0,rectangle,4.3203125,-4.515625,1,0,0,4.3203125,-4.515625,1,0,0,0,112,112,157,1,,,,,,,,
,,,,,,,,,,,,,FF,,,,,,,,1.2299,,,,,,,,,,,,,,,,,,,,,,610336af8890b00f2a4fff86,61036b52aba3bc0d1b42657b,2021-07-29_23h01.02.617,Simcolourproject_2stim_asymm_v5,2020.2.10,MacIntel,60,61025ae37ef11b136ea224fe,,,,,,,,,1537,23.56640625,-36.71484375,1,0,0,response3disk,,4,14.890625,-9.49609375,1,0,0,rectangle,14.890625,-9.49609375,1,0,0,14.890625,-9.49609375,1,0,0,0,113,113,52,1,,,,,,,,
,,,,,,,,,,,,,FF,,,,,,,,1.4126,,,,,,,,,,,,,,,,,,,,,,610336af8890b00f2a4fff86,61036b52aba3bc0d1b42657b,2021-07-29_23h01.02.617,Simcolourproject_2stim_asymm_v5,2020.2.10,MacIntel,60,61025ae37ef11b136ea224fe,,,,,,,,,862,18.37109375,-37.05859375,1,0,0,response3disk,,4,4.91796875,11.18359375,1,0,0,rectangle,4.91796875,11.18359375,1,0,0,4.91796875,11.18359375,1,0,0,0,114,114,117,1,,,,,,,,
,,,,,,,,,,,,,FF,,,,,,,,0.7983,,,,,,,,,,,,,,,,,,,,,,610336af8890b00f2a4fff86,61036b52aba3bc0d1b42657b,2021-07-29_23h01.02.617,Simcolourproject_2stim_asymm_v5,2020.2.10,MacIntel,60,61025ae37ef11b136ea224fe,,,,,,,,,3911,22.26171875,-80.95703125,1,0,0,response3disk,,4,-1.6484375,-7.1171875,1,0,0,rectangle,-1.6484375,-7.1171875,1,0,0,-1.6484375,-7.1171875,1,0,0,0,115,115,37,1,,,,,,,,
,,,,,,,,,,,,,FF,,,,,,,,1.3636,,,,,,,,,,,,,,,,,,,,,,610336af8890b00f2a4fff86,61036b52aba3bc0d1b42657b,2021-07-29_23h01.02.617,Simcolourproject_2stim_asymm_v5,2020.2.10,MacIntel,60,61025ae37ef11b136ea224fe,,,,,,,,,2083,63.109375,58.07421875,1,0,0,response1disk,,6,4.796875,0.08984375,1,0,0,rectangle,4.796875,0.08984375,1,0,0,4.796875,0.08984375,1,0,0,0,116,116,126,1,,,,,,,,
,,,,,,,,,,,,,FF,,,,,,,,0.5157,,,,,,,,,,,,,,,,,,,,,,610336af8890b00f2a4fff86,61036b52aba3bc0d1b42657b,2021-07-29_23h01.02.617,Simcolourproject_2stim_asymm_v5,2020.2.10,MacIntel,60,61025ae37ef11b136ea224fe,,,,,,,,,2048,58.26171875,20.390625,1,0,0,response1disk,,6,22.08984375,-5.80078125,1,0,0,rectangle,22.08984375,-5.80078125,1,0,0,22.08984375,-5.80078125,1,0,0,0,117,117,159,1,,,,,,,,
,,,,,,,,,,,,,FF,,,,,,,,0.9312,,,,,,,,,,,,,,,,,,,,,,610336af8890b00f2a4fff86,61036b52aba3bc0d1b42657b,2021-07-29_23h01.02.617,Simcolourproject_2stim_asymm_v5,2020.2.10,MacIntel,60,61025ae37ef11b136ea224fe,,,,,,,,,954,48.0703125,-43.25390625,1,0,0,response3disk,,5,-1.234375,-8.5078125,1,0,0,rectangle,-1.234375,-8.5078125,1,0,0,-1.234375,-8.5078125,1,0,0,0,118,118,152,1,,,,,,,,
,,,,,,,,,,,,,FF,,,,,,,,0.9651,,,,,,,,,,,,,,,,,,,,,,610336af8890b00f2a4fff86,61036b52aba3bc0d1b42657b,2021-07-29_23h01.02.617,Simcolourproject_2stim_asymm_v5,2020.2.10,MacIntel,60,61025ae37ef11b136ea224fe,,,,,,,,,428,89.3046875,34.80078125,1,0,0,response1disk,,6,24.58984375,-7.875,1,0,0,rectangle,24.58984375,-7.875,1,0,0,24.58984375,-7.875,1,0,0,0,119,119,150,1,,,,,,,,
,,,,,,,,,,,,,FF,,,,,,,,1.5134,,,,,,,,,,,,,,,,,,,,,,610336af8890b00f2a4fff86,61036b52aba3bc0d1b42657b,2021-07-29_23h01.02.617,Simcolourproject_2stim_asymm_v5,2020.2.10,MacIntel,60,61025ae37ef11b136ea224fe,,,,,,,,,1792,35.25,46.5859375,1,0,0,response1disk,,7,19.95703125,13.69140625,1,0,0,rectangle,19.95703125,13.69140625,1,0,0,19.95703125,13.69140625,1,0,0,0,120,120,13,1,,,,,,,,
,,,,,,,,,,,,,FF,,,,,,,,1.5796,,,,,,,,,,,,,,,,,,,,,,610336af8890b00f2a4fff86,61036b52aba3bc0d1b42657b,2021-07-29_23h01.02.617,Simcolourproject_2stim_asymm_v5,2020.2.10,MacIntel,60,61025ae37ef11b136ea224fe,,,,,,,,,1350,24.3359375,51.98828125,1,0,0,response1disk,,7,27.44140625,-13.9609375,1,0,0,rectangle,27.44140625,-13.9609375,1,0,0,27.44140625,-13.9609375,1,0,0,0,121,121,21,1,,,,,,,,
,,,,,,,,,,,,,FF,,,,,,,,0.549,,,,,,,,,,,,,,,,,,,,,,610336af8890b00f2a4fff86,61036b52aba3bc0d1b42657b,2021-07-29_23h01.02.617,Simcolourproject_2stim_asymm_v5,2020.2.10,MacIntel,60,61025ae37ef11b136ea224fe,,,,,,,,,1021,56.33203125,81.0859375,1,0,0,response1disk,,7,6.98046875,11.5859375,1,0,0,rectangle,6.98046875,11.5859375,1,0,0,6.98046875,11.5859375,1,0,0,0,122,122,151,1,,,,,,,,
,,,,,,,,,,,,,FF,,,,,,,,0.9977,,,,,,,,,,,,,,,,,,,,,,610336af8890b00f2a4fff86,61036b52aba3bc0d1b42657b,2021-07-29_23h01.02.617,Simcolourproject_2stim_asymm_v5,2020.2.10,MacIntel,60,61025ae37ef11b136ea224fe,,,,,,,,,1150,-45.0078125,-56.25390625,1,0,0,response5disk,,3,-4.6640625,-0.62890625,1,0,0,rectangle,-4.6640625,-0.62890625,1,0,0,-4.6640625,-0.62890625,1,0,0,0,123,123,109,1,,,,,,,,
,,,,,,,,,,,,,FF,,,,,,,,1.8291,,,,,,,,,,,,,,,,,,,,,,610336af8890b00f2a4fff86,61036b52aba3bc0d1b42657b,2021-07-29_23h01.02.617,Simcolourproject_2stim_asymm_v5,2020.2.10,MacIntel,60,61025ae37ef11b136ea224fe,,,,,,,,,1266,25.953125,-52.046875,1,0,0,response3disk,,4,5.6484375,2.87109375,1,0,0,rectangle,5.6484375,2.87109375,1,0,0,5.6484375,2.87109375,1,0,0,0,124,124,122,1,,,,,,,,
,,,,,,,,,,,,,FF,,,,,,,,0.9808,,,,,,,,,,,,,,,,,,,,,,610336af8890b00f2a4fff86,61036b52aba3bc0d1b42657b,2021-07-29_23h01.02.617,Simcolourproject_2stim_asymm_v5,2020.2.10,MacIntel,60,61025ae37ef11b136ea224fe,,,,,,,,,2795,57.30078125,-41.82421875,1,0,0,response3disk,,5,16.578125,-7.01953125,1,0,0,rectangle,16.578125,-7.01953125,1,0,0,16.578125,-7.01953125,1,0,0,0,125,125,67,1,,,,,,,,
,,,,,,,,,,,,,FF,,,,,,,,0.5823,,,,,,,,,,,,,,,,,,,,,,610336af8890b00f2a4fff86,61036b52aba3bc0d1b42657b,2021-07-29_23h01.02.617,Simcolourproject_2stim_asymm_v5,2020.2.10,MacIntel,60,61025ae37ef11b136ea224fe,,,,,,,,,2259,41.9765625,-21.70703125,1,0,0,response3disk,,5,19.5703125,-3.44921875,1,0,0,rectangle,19.5703125,-3.44921875,1,0,0,19.5703125,-3.44921875,1,0,0,0,126,126,125,1,,,,,,,,
,,,,,,,,,,,,,FF,,,,,,,,1.1642,,,,,,,,,,,,,,,,,,,,,,610336af8890b00f2a4fff86,61036b52aba3bc0d1b42657b,2021-07-29_23h01.02.617,Simcolourproject_2stim_asymm_v5,2020.2.10,MacIntel,60,61025ae37ef11b136ea224fe,,,,,,,,,301,40.1953125,22.92578125,1,0,0,response1disk,,6,8.37890625,-14.703125,1,0,0,rectangle,8.37890625,-14.703125,1,0,0,8.37890625,-14.703125,1,0,0,0,127,127,149,1,,,,,,,,
,,,,,,,,,,,,,FF,,,,,,,,0.5829,,,,,,,,,,,,,,,,,,,,,,610336af8890b00f2a4fff86,61036b52aba3bc0d1b42657b,2021-07-29_23h01.02.617,Simcolourproject_2stim_asymm_v5,2020.2.10,MacIntel,60,61025ae37ef11b136ea224fe,,,,,,,,,1413,46.95703125,19.26953125,1,0,0,response1disk,,6,13.58984375,1.30859375,1,0,0,rectangle,13.58984375,1.30859375,1,0,0,13.58984375,1.30859375,1,0,0,0,128,128,17,1,,,,,,,,
,,,,,,,,,,,,,FF,,,,,,,,0.4495,,,,,,,,,,,,,,,,,,,,,,610336af8890b00f2a4fff86,61036b52aba3bc0d1b42657b,2021-07-29_23h01.02.617,Simcolourproject_2stim_asymm_v5,2020.2.10,MacIntel,60,61025ae37ef11b136ea224fe,,,,,,,,,2458,51.109375,17.72265625,1,0,0,response1disk,,6,17.65625,-9.59765625,1,0,0,rectangle,17.65625,-9.59765625,1,0,0,17.65625,-9.59765625,1,0,0,0,129,129,82,1,,,,,,,,
,,,,,,,,,,,,,FF,,,,,,,,1.4289,,,,,,,,,,,,,,,,,,,,,,610336af8890b00f2a4fff86,61036b52aba3bc0d1b42657b,2021-07-29_23h01.02.617,Simcolourproject_2stim_asymm_v5,2020.2.10,MacIntel,60,61025ae37ef11b136ea224fe,,,,,,,,,4307,32.2109375,44.3203125,1,0,0,response1disk,,7,10.14453125,-10.6875,1,0,0,rectangle,10.14453125,-10.6875,1,0,0,10.14453125,-10.6875,1,0,0,0,130,130,119,1,,,,,,,,
,,,,,,,,,,,,,FF,,,,,,,,2.8106,,,,,,,,,,,,,,,,,,,,,,610336af8890b00f2a4fff86,61036b52aba3bc0d1b42657b,2021-07-29_23h01.02.617,Simcolourproject_2stim_asymm_v5,2020.2.10,MacIntel,60,61025ae37ef11b136ea224fe,,,,,,,,,1902,58.3125,27.375,1,0,0,response1disk,,6,11.59765625,3.77734375,1,0,0,rectangle,11.59765625,3.77734375,1,0,0,11.59765625,3.77734375,1,0,0,0,131,131,143,1,,,,,,,,
,,,,,,,,,,,,,FF,,,,,,,,0.7317,,,,,,,,,,,,,,,,,,,,,,610336af8890b00f2a4fff86,61036b52aba3bc0d1b42657b,2021-07-29_23h01.02.617,Simcolourproject_2stim_asymm_v5,2020.2.10,MacIntel,60,61025ae37ef11b136ea224fe,,,,,,,,,1066,55.609375,-21.8125,1,0,0,response3disk,,5,16.50390625,-3.625,1,0,0,rectangle,16.50390625,-3.625,1,0,0,16.50390625,-3.625,1,0,0,0,132,132,153,1,,,,,,,,
,,,,,,,,,,,,,FF,,,,,,,,0.5657,,,,,,,,,,,,,,,,,,,,,,610336af8890b00f2a4fff86,61036b52aba3bc0d1b42657b,2021-07-29_23h01.02.617,Simcolourproject_2stim_asymm_v5,2020.2.10,MacIntel,60,61025ae37ef11b136ea224fe,,,,,,,,,1694,55.14453125,-27.80078125,1,0,0,response3disk,,5,8.30859375,2.1796875,1,0,0,rectangle,8.30859375,2.1796875,1,0,0,8.30859375,2.1796875,1,0,0,0,133,133,53,1,,,,,,,,
,,,,,,,,,,,,,FF,,,,,,,,1.4298,,,,,,,,,,,,,,,,,,,,,,610336af8890b00f2a4fff86,61036b52aba3bc0d1b42657b,2021-07-29_23h01.02.617,Simcolourproject_2stim_asymm_v5,2020.2.10,MacIntel,60,61025ae37ef11b136ea224fe,,,,,,,,,4159,53.953125,21.83203125,1,0,0,response1disk,,6,17.296875,-4.1796875,1,0,0,rectangle,17.296875,-4.1796875,1,0,0,17.296875,-4.1796875,1,0,0,0,134,134,16,1,,,,,,,,
,,,,,,,,,,,,,FF,,,,,,,,0.8315,,,,,,,,,,,,,,,,,,,,,,610336af8890b00f2a4fff86,61036b52aba3bc0d1b42657b,2021-07-29_23h01.02.617,Simcolourproject_2stim_asymm_v5,2020.2.10,MacIntel,60,61025ae37ef11b136ea224fe,,,,,,,,,2733,-23.80859375,-53.265625,1,0,0,response5disk,,3,9.21875,-0.640625,1,0,0,rectangle,9.21875,-0.640625,1,0,0,9.21875,-0.640625,1,0,0,0,135,135,130,1,,,,,,,,
,,,,,,,,,,,,,FF,,,,,,,,0.5648,,,,,,,,,,,,,,,,,,,,,,610336af8890b00f2a4fff86,61036b52aba3bc0d1b42657b,2021-07-29_23h01.02.617,Simcolourproject_2stim_asymm_v5,2020.2.10,MacIntel,60,61025ae37ef11b136ea224fe,,,,,,,,,2179,-25.7734375,-50.7890625,1,0,0,response5disk,,3,13.18359375,-0.09375,1,0,0,rectangle,13.18359375,-0.09375,1,0,0,13.18359375,-0.09375,1,0,0,0,136,136,11,1,,,,,,,,
,,,,,,,,,,,,,FF,,,,,,,,1.0477,,,,,,,,,,,,,,,,,,,,,,610336af8890b00f2a4fff86,61036b52aba3bc0d1b42657b,2021-07-29_23h01.02.617,Simcolourproject_2stim_asymm_v5,2020.2.10,MacIntel,60,61025ae37ef11b136ea224fe,,,,,,,,,3505,-48.50390625,-26.45703125,1,0,0,response5disk,,2,-4.71484375,-2.20703125,1,0,0,rectangle,-4.71484375,-2.20703125,1,0,0,-4.71484375,-2.20703125,1,0,0,0,137,137,59,1,,,,,,,,
,,,,,,,,,,,,,FF,,,,,,,,0.7311,,,,,,,,,,,,,,,,,,,,,,610336af8890b00f2a4fff86,61036b52aba3bc0d1b42657b,2021-07-29_23h01.02.617,Simcolourproject_2stim_asymm_v5,2020.2.10,MacIntel,60,61025ae37ef11b136ea224fe,,,,,,,,,3627,-19.47265625,-46.5625,1,0,0,response5disk,,3,4.203125,-5.97265625,1,0,0,rectangle,4.203125,-5.97265625,1,0,0,4.203125,-5.97265625,1,0,0,0,138,138,75,1,,,,,,,,
,,,,,,,,,,,,,FF,,,,,,,,0.4996,,,,,,,,,,,,,,,,,,,,,,610336af8890b00f2a4fff86,61036b52aba3bc0d1b42657b,2021-07-29_23h01.02.617,Simcolourproject_2stim_asymm_v5,2020.2.10,MacIntel,60,61025ae37ef11b136ea224fe,,,,,,,,,3875,-17.91015625,-34.6953125,1,0,0,response5disk,,3,-5.2265625,2.02734375,1,0,0,rectangle,-5.2265625,2.02734375,1,0,0,-5.2265625,2.02734375,1,0,0,0,139,139,27,1,,,,,,,,
,,,,,,,,,,,,,FF,,,,,,,,1.6125,,,,,,,,,,,,,,,,,,,,,,610336af8890b00f2a4fff86,61036b52aba3bc0d1b42657b,2021-07-29_23h01.02.617,Simcolourproject_2stim_asymm_v5,2020.2.10,MacIntel,60,61025ae37ef11b136ea224fe,,,,,,,,,3126,63.6171875,36.5234375,1,0,0,response1disk,,6,19.49609375,15.796875,1,0,0,rectangle,19.49609375,15.796875,1,0,0,19.49609375,15.796875,1,0,0,0,140,140,114,1,,,,,,,,
,,,,,,,,,,,,,FF,,,,,,,,0.4491,,,,,,,,,,,,,,,,,,,,,,610336af8890b00f2a4fff86,61036b52aba3bc0d1b42657b,2021-07-29_23h01.02.617,Simcolourproject_2stim_asymm_v5,2020.2.10,MacIntel,60,61025ae37ef11b136ea224fe,,,,,,,,,682,39.6953125,34.87109375,1,0,0,response1disk,,6,9.74609375,11.95703125,1,0,0,rectangle,9.74609375,11.95703125,1,0,0,9.74609375,11.95703125,1,0,0,0,141,141,44,1,,,,,,,,
,,,,,,,,,,,,,FF,,,,,,,,0.6324,,,,,,,,,,,,,,,,,,,,,,610336af8890b00f2a4fff86,61036b52aba3bc0d1b42657b,2021-07-29_23h01.02.617,Simcolourproject_2stim_asymm_v5,2020.2.10,MacIntel,60,61025ae37ef11b136ea224fe,,,,,,,,,1652,47.74609375,38.171875,1,0,0,response1disk,,6,4.1953125,1.7578125,1,0,0,rectangle,4.1953125,1.7578125,1,0,0,4.1953125,1.7578125,1,0,0,0,142,142,144,1,,,,,,,,
,,,,,,,,,,,,,FF,,,,,,,,0.6653,,,,,,,,,,,,,,,,,,,,,,610336af8890b00f2a4fff86,61036b52aba3bc0d1b42657b,2021-07-29_23h01.02.617,Simcolourproject_2stim_asymm_v5,2020.2.10,MacIntel,60,61025ae37ef11b136ea224fe,,,,,,,,,4344,-28.12109375,61.453125,1,0,0,response7disk,,0,-0.19140625,-0.578125,1,0,0,rectangle,-0.19140625,-0.578125,1,0,0,-0.19140625,-0.578125,1,0,0,0,143,143,142,1,,,,,,,,
,,,,,,,,,,,,,FF,,,,,,,,1.0317,,,,,,,,,,,,,,,,,,,,,,610336af8890b00f2a4fff86,61036b52aba3bc0d1b42657b,2021-07-29_23h01.02.617,Simcolourproject_2stim_asymm_v5,2020.2.10,MacIntel,60,61025ae37ef11b136ea224fe,,,,,,,,,3975,27.2265625,-64.20703125,1,0,0,response3disk,,4,-1.58203125,-4.23828125,1,0,0,rectangle,-1.58203125,-4.23828125,1,0,0,-1.58203125,-4.23828125,1,0,0,0,144,144,135,1,,,,,,,,
,,,,,,,,,,,,,FF,,,,,,,,0.5978,,,,,,,,,,,,,,,,,,,,,,610336af8890b00f2a4fff86,61036b52aba3bc0d1b42657b,2021-07-29_23h01.02.617,Simcolourproject_2stim_asymm_v5,2020.2.10,MacIntel,60,61025ae37ef11b136ea224fe,,,,,,,,,1905,18.30859375,-41.453125,1,0,0,response3disk,,4,6.8671875,1.171875,1,0,0,rectangle,6.8671875,1.171875,1,0,0,6.8671875,1.171875,1,0,0,0,145,145,72,1,,,,,,,,
,,,,,,,,,,,,,FF,,,,,,,,0.682,,,,,,,,,,,,,,,,,,,,,,610336af8890b00f2a4fff86,61036b52aba3bc0d1b42657b,2021-07-29_23h01.02.617,Simcolourproject_2stim_asymm_v5,2020.2.10,MacIntel,60,61025ae37ef11b136ea224fe,,,,,,,,,1488,63.46484375,34.37890625,1,0,0,response1disk,,6,0.265625,-4.06640625,1,0,0,rectangle,0.265625,-4.06640625,1,0,0,0.265625,-4.06640625,1,0,0,0,146,146,74,1,,,,,,,,
,,,,,,,,,,,,,FF,,,,,,,,0.4657,,,,,,,,,,,,,,,,,,,,,,610336af8890b00f2a4fff86,61036b52aba3bc0d1b42657b,2021-07-29_23h01.02.617,Simcolourproject_2stim_asymm_v5,2020.2.10,MacIntel,60,61025ae37ef11b136ea224fe,,,,,,,,,2633,56.37890625,21.953125,1,0,0,response1disk,,6,5.00390625,1.375,1,0,0,rectangle,42.63671875,61.33984375,1,0,0,20.7890625,5.0546875,1,0,0,0,147,147,23,1,,response1disk_3,TRUE,7,7,"[290,106,192,315,84,88,95,72,185,211,96,40,98,148,197,185,75,318,232,320]",1.1971,rectangle
,,,,,,,,,,,,,FF,,,,,,,,1.6624,,,,,,,,,,,,,,,,,,,,,,610336af8890b00f2a4fff86,61036b52aba3bc0d1b42657b,2021-07-29_23h01.02.617,Simcolourproject_2stim_asymm_v5,2020.2.10,MacIntel,60,61025ae37ef11b136ea224fe,,,,,,,,,521,27.61328125,-22.89453125,1,0,0,response3disk,,5,19.0859375,-6.25390625,1,0,0,rectangle,19.0859375,-6.25390625,1,0,0,19.0859375,-6.25390625,1,0,0,0,148,148,42,1,,,,,,,,
,,,,,,,,,,,,,FF,,,,,,,,0.6813,,,,,,,,,,,,,,,,,,,,,,610336af8890b00f2a4fff86,61036b52aba3bc0d1b42657b,2021-07-29_23h01.02.617,Simcolourproject_2stim_asymm_v5,2020.2.10,MacIntel,60,61025ae37ef11b136ea224fe,,,,,,,,,3112,62.5859375,16.44140625,1,0,0,response1disk,,6,19.3515625,-8.921875,1,0,0,rectangle,19.3515625,-8.921875,1,0,0,19.3515625,-8.921875,1,0,0,0,149,149,0,1,,,,,,,,
,,,,,,,,,,,,,FF,,,,,,,,0.6484,,,,,,,,,,,,,,,,,,,,,,610336af8890b00f2a4fff86,61036b52aba3bc0d1b42657b,2021-07-29_23h01.02.617,Simcolourproject_2stim_asymm_v5,2020.2.10,MacIntel,60,61025ae37ef11b136ea224fe,,,,,,,,,796,48.546875,17.69140625,1,0,0,response1disk,,6,13.4453125,-1.00390625,1,0,0,rectangle,13.4453125,-1.00390625,1,0,0,13.4453125,-1.00390625,1,0,0,0,150,150,129,1,,,,,,,,
,,,,,,,,,,,,,FF,,,,,,,,0.6811,,,,,,,,,,,,,,,,,,,,,,610336af8890b00f2a4fff86,61036b52aba3bc0d1b42657b,2021-07-29_23h01.02.617,Simcolourproject_2stim_asymm_v5,2020.2.10,MacIntel,60,61025ae37ef11b136ea224fe,,,,,,,,,985,21.55859375,55.26171875,1,0,0,response1disk,,7,8.7734375,-9.87890625,1,0,0,rectangle,8.7734375,-9.87890625,1,0,0,8.7734375,-9.87890625,1,0,0,0,151,151,87,1,,,,,,,,
,,,,,,,,,,,,,FF,,,,,,,,0.8314,,,,,,,,,,,,,,,,,,,,,,610336af8890b00f2a4fff86,61036b52aba3bc0d1b42657b,2021-07-29_23h01.02.617,Simcolourproject_2stim_asymm_v5,2020.2.10,MacIntel,60,61025ae37ef11b136ea224fe,,,,,,,,,2651,43.56640625,26.125,1,0,0,response1disk,,6,0.96875,3.58203125,1,0,0,rectangle,0.96875,3.58203125,1,0,0,0.96875,3.58203125,1,0,0,0,152,152,61,1,,,,,,,,
,,,,,,,,,,,,,FF,,,,,,,,1.2312,,,,,,,,,,,,,,,,,,,,,,610336af8890b00f2a4fff86,61036b52aba3bc0d1b42657b,2021-07-29_23h01.02.617,Simcolourproject_2stim_asymm_v5,2020.2.10,MacIntel,60,61025ae37ef11b136ea224fe,,,,,,,,,2578,51.98828125,61.9765625,1,0,0,response1disk,,7,6.0078125,-14.96484375,1,0,0,rectangle,6.0078125,-14.96484375,1,0,0,6.0078125,-14.96484375,1,0,0,0,153,153,131,1,,,,,,,,
,,,,,,,,,,,,,FF,,,,,,,,1.2306,,,,,,,,,,,,,,,,,,,,,,610336af8890b00f2a4fff86,61036b52aba3bc0d1b42657b,2021-07-29_23h01.02.617,Simcolourproject_2stim_asymm_v5,2020.2.10,MacIntel,60,61025ae37ef11b136ea224fe,,,,,,,,,2792,28.83203125,-63.84375,1,0,0,response3disk,,4,2.265625,8.94921875,1,0,0,rectangle,2.265625,8.94921875,1,0,0,2.265625,8.94921875,1,0,0,0,154,154,76,1,,,,,,,,
,,,,,,,,,,,,,FF,,,,,,,,0.5155,,,,,,,,,,,,,,,,,,,,,,610336af8890b00f2a4fff86,61036b52aba3bc0d1b42657b,2021-07-29_23h01.02.617,Simcolourproject_2stim_asymm_v5,2020.2.10,MacIntel,60,61025ae37ef11b136ea224fe,,,,,,,,,3510,-40.921875,57.75,1,0,0,response7disk,,0,8.21484375,-9.8359375,1,0,0,rectangle,8.21484375,-9.8359375,1,0,0,8.21484375,-9.8359375,1,0,0,0,155,155,110,1,,,,,,,,
,,,,,,,,,,,,,FF,,,,,,,,0.6981,,,,,,,,,,,,,,,,,,,,,,610336af8890b00f2a4fff86,61036b52aba3bc0d1b42657b,2021-07-29_23h01.02.617,Simcolourproject_2stim_asymm_v5,2020.2.10,MacIntel,60,61025ae37ef11b136ea224fe,,,,,,,,,257,-36.30859375,-47.25,1,0,0,response5disk,,3,-13.02734375,-2.24609375,1,0,0,rectangle,-13.02734375,-2.24609375,1,0,0,-13.02734375,-2.24609375,1,0,0,0,156,156,134,1,,,,,,,,
,,,,,,,,,,,,,FF,,,,,,,,0.7817,,,,,,,,,,,,,,,,,,,,,,610336af8890b00f2a4fff86,61036b52aba3bc0d1b42657b,2021-07-29_23h01.02.617,Simcolourproject_2stim_asymm_v5,2020.2.10,MacIntel,60,61025ae37ef11b136ea224fe,,,,,,,,,786,53.40625,-71.83984375,1,0,0,response3disk,,4,9.9921875,-13.890625,1,0,0,rectangle,9.9921875,-13.890625,1,0,0,9.9921875,-13.890625,1,0,0,0,157,157,8,1,,,,,,,,
,,,,,,,,,,,,,FF,,,,,,,,0.9641,,,,,,,,,,,,,,,,,,,,,,610336af8890b00f2a4fff86,61036b52aba3bc0d1b42657b,2021-07-29_23h01.02.617,Simcolourproject_2stim_asymm_v5,2020.2.10,MacIntel,60,61025ae37ef11b136ea224fe,,,,,,,,,2476,59.98046875,-37.75,1,0,0,response3disk,,5,10.953125,-1.8828125,1,0,0,rectangle,10.953125,-1.8828125,1,0,0,10.953125,-1.8828125,1,0,0,0,158,158,145,1,,,,,,,,
,,,,,,,,,,,,,FF,,,,,,,,1.2128,,,,,,,,,,,,,,,,,,,,,,610336af8890b00f2a4fff86,61036b52aba3bc0d1b42657b,2021-07-29_23h01.02.617,Simcolourproject_2stim_asymm_v5,2020.2.10,MacIntel,60,61025ae37ef11b136ea224fe,,,,,,,,,1708,64.25,29.74609375,1,0,0,response1disk,,6,-1.94140625,-1.6875,1,0,0,rectangle,-1.94140625,-1.6875,1,0,0,-1.94140625,-1.6875,1,0,0,0,159,159,68,1,,,,,,,,
,,,,,,,,,,,,,FF,,,,,,,,0.7134,,,,,,,,,,,,,,,,,,,,,,610336af8890b00f2a4fff86,61036b52aba3bc0d1b42657b,2021-07-29_23h01.02.617,Simcolourproject_2stim_asymm_v5,2020.2.10,MacIntel,60,61025ae37ef11b136ea224fe,,,,,,,,,2204,43.23828125,22.5703125,1,0,0,response1disk,,6,13.6015625,3.46484375,1,0,0,rectangle,13.6015625,3.46484375,1,0,0,13.6015625,3.46484375,1,0,0,1,0,160,135,1,,,,,,,,
,,,,,,,,,,,,,FF,,,,,,,,0.5494,,,,,,,,,,,,,,,,,,,,,,610336af8890b00f2a4fff86,61036b52aba3bc0d1b42657b,2021-07-29_23h01.02.617,Simcolourproject_2stim_asymm_v5,2020.2.10,MacIntel,60,61025ae37ef11b136ea224fe,,,,,,,,,1714,20.41015625,31.23828125,1,0,0,response1disk,,7,4.13671875,6.55859375,1,0,0,rectangle,4.13671875,6.55859375,1,0,0,4.13671875,6.55859375,1,0,0,1,1,161,37,1,,,,,,,,
,,,,,,,,,,,,,FF,,,,,,,,0.7319,,,,,,,,,,,,,,,,,,,,,,610336af8890b00f2a4fff86,61036b52aba3bc0d1b42657b,2021-07-29_23h01.02.617,Simcolourproject_2stim_asymm_v5,2020.2.10,MacIntel,60,61025ae37ef11b136ea224fe,,,,,,,,,2971,19.46484375,39.74609375,1,0,0,response1disk,,7,11.72265625,-11.20703125,1,0,0,rectangle,11.72265625,-11.20703125,1,0,0,11.72265625,-11.20703125,1,0,0,1,2,162,5,1,,,,,,,,
,,,,,,,,,,,,,FF,,,,,,,,0.8987,,,,,,,,,,,,,,,,,,,,,,610336af8890b00f2a4fff86,61036b52aba3bc0d1b42657b,2021-07-29_23h01.02.617,Simcolourproject_2stim_asymm_v5,2020.2.10,MacIntel,60,61025ae37ef11b136ea224fe,,,,,,,,,2258,22.1796875,30.47265625,1,0,0,response1disk,,7,13.81640625,6.1171875,1,0,0,rectangle,13.81640625,6.1171875,1,0,0,13.81640625,6.1171875,1,0,0,1,3,163,17,1,,,,,,,,
,,,,,,,,,,,,,FF,,,,,,,,1.031,,,,,,,,,,,,,,,,,,,,,,610336af8890b00f2a4fff86,61036b52aba3bc0d1b42657b,2021-07-29_23h01.02.617,Simcolourproject_2stim_asymm_v5,2020.2.10,MacIntel,60,61025ae37ef11b136ea224fe,,,,,,,,,4151,-18.38671875,-56.05859375,1,0,0,response5disk,,3,10.6171875,-4.4609375,1,0,0,rectangle,10.6171875,-4.4609375,1,0,0,10.6171875,-4.4609375,1,0,0,1,4,164,85,1,,,,,,,,
,,,,,,,,,,,,,FF,,,,,,,,0.6999,,,,,,,,,,,,,,,,,,,,,,610336af8890b00f2a4fff86,61036b52aba3bc0d1b42657b,2021-07-29_23h01.02.617,Simcolourproject_2stim_asymm_v5,2020.2.10,MacIntel,60,61025ae37ef11b136ea224fe,,,,,,,,,1950,20.984375,-38.703125,1,0,0,response3disk,,4,6.33203125,-10.9375,1,0,0,rectangle,6.33203125,-10.9375,1,0,0,6.33203125,-10.9375,1,0,0,1,5,165,54,1,,,,,,,,
,,,,,,,,,,,,,FF,,,,,,,,0.9797,,,,,,,,,,,,,,,,,,,,,,610336af8890b00f2a4fff86,61036b52aba3bc0d1b42657b,2021-07-29_23h01.02.617,Simcolourproject_2stim_asymm_v5,2020.2.10,MacIntel,60,61025ae37ef11b136ea224fe,,,,,,,,,3497,29.6875,22.90234375,1,0,0,response1disk,,6,5.2265625,6.19921875,1,0,0,rectangle,5.2265625,6.19921875,1,0,0,5.2265625,6.19921875,1,0,0,1,6,166,103,1,,,,,,,,
,,,,,,,,,,,,,FF,,,,,,,,1.0644,,,,,,,,,,,,,,,,,,,,,,610336af8890b00f2a4fff86,61036b52aba3bc0d1b42657b,2021-07-29_23h01.02.617,Simcolourproject_2stim_asymm_v5,2020.2.10,MacIntel,60,61025ae37ef11b136ea224fe,,,,,,,,,3205,-49.73046875,-14.578125,1,0,0,response5disk,,2,15.6796875,12.75390625,1,0,0,rectangle,15.6796875,12.75390625,1,0,0,15.6796875,12.75390625,1,0,0,1,7,167,123,1,,,,,,,,
,,,,,,,,,,,,,FF,,,,,,,,0.815,,,,,,,,,,,,,,,,,,,,,,610336af8890b00f2a4fff86,61036b52aba3bc0d1b42657b,2021-07-29_23h01.02.617,Simcolourproject_2stim_asymm_v5,2020.2.10,MacIntel,60,61025ae37ef11b136ea224fe,,,,,,,,,3950,26.1328125,-43.296875,1,0,0,response3disk,,4,0.58203125,-4.91015625,1,0,0,rectangle,0.58203125,-4.91015625,1,0,0,0.58203125,-4.91015625,1,0,0,1,8,168,43,1,,,,,,,,
,,,,,,,,,,,,,FF,,,,,,,,1.3458,,,,,,,,,,,,,,,,,,,,,,610336af8890b00f2a4fff86,61036b52aba3bc0d1b42657b,2021-07-29_23h01.02.617,Simcolourproject_2stim_asymm_v5,2020.2.10,MacIntel,60,61025ae37ef11b136ea224fe,,,,,,,,,2962,26.76953125,-37.953125,1,0,0,response3disk,,4,9.76953125,-1.578125,1,0,0,rectangle,9.76953125,-1.578125,1,0,0,9.76953125,-1.578125,1,0,0,1,9,169,3,1,,,,,,,,
,,,,,,,,,,,,,FF,,,,,,,,1.1475,,,,,,,,,,,,,,,,,,,,,,610336af8890b00f2a4fff86,61036b52aba3bc0d1b42657b,2021-07-29_23h01.02.617,Simcolourproject_2stim_asymm_v5,2020.2.10,MacIntel,60,61025ae37ef11b136ea224fe,,,,,,,,,1017,44.125,29.95703125,1,0,0,response1disk,,6,10.16015625,7.2265625,1,0,0,rectangle,10.16015625,7.2265625,1,0,0,10.16015625,7.2265625,1,0,0,1,10,170,87,1,,,,,,,,
,,,,,,,,,,,,,FF,,,,,,,,1.0806,,,,,,,,,,,,,,,,,,,,,,610336af8890b00f2a4fff86,61036b52aba3bc0d1b42657b,2021-07-29_23h01.02.617,Simcolourproject_2stim_asymm_v5,2020.2.10,MacIntel,60,61025ae37ef11b136ea224fe,,,,,,,,,1769,44.84765625,-28.54296875,1,0,0,response3disk,,5,22.6953125,-6.9296875,1,0,0,rectangle,22.6953125,-6.9296875,1,0,0,22.6953125,-6.9296875,1,0,0,1,11,171,108,1,,,,,,,,
,,,,,,,,,,,,,FF,,,,,,,,0.9479,,,,,,,,,,,,,,,,,,,,,,610336af8890b00f2a4fff86,61036b52aba3bc0d1b42657b,2021-07-29_23h01.02.617,Simcolourproject_2stim_asymm_v5,2020.2.10,MacIntel,60,61025ae37ef11b136ea224fe,,,,,,,,,3148,-26.26953125,-32.50390625,1,0,0,response5disk,,3,5.01953125,8.38671875,1,0,0,rectangle,5.01953125,8.38671875,1,0,0,5.01953125,8.38671875,1,0,0,1,12,172,26,1,,,,,,,,
,,,,,,,,,,,,,FF,,,,,,,,0.7152,,,,,,,,,,,,,,,,,,,,,,610336af8890b00f2a4fff86,61036b52aba3bc0d1b42657b,2021-07-29_23h01.02.617,Simcolourproject_2stim_asymm_v5,2020.2.10,MacIntel,60,61025ae37ef11b136ea224fe,,,,,,,,,828,60.66796875,34.15625,1,0,0,response1disk,,6,13.72265625,8.359375,1,0,0,rectangle,13.72265625,8.359375,1,0,0,13.72265625,8.359375,1,0,0,1,13,173,89,1,,,,,,,,
,,,,,,,,,,,,,FF,,,,,,,,0.7815,,,,,,,,,,,,,,,,,,,,,,610336af8890b00f2a4fff86,61036b52aba3bc0d1b42657b,2021-07-29_23h01.02.617,Simcolourproject_2stim_asymm_v5,2020.2.10,MacIntel,60,61025ae37ef11b136ea224fe,,,,,,,,,1290,-45.390625,32.56640625,1,0,0,response7disk,,1,-14.05859375,8.0625,1,0,0,rectangle,-14.05859375,8.0625,1,0,0,-14.05859375,8.0625,1,0,0,1,14,174,105,1,,,,,,,,
,,,,,,,,,,,,,FF,,,,,,,,0.6319,,,,,,,,,,,,,,,,,,,,,,610336af8890b00f2a4fff86,61036b52aba3bc0d1b42657b,2021-07-29_23h01.02.617,Simcolourproject_2stim_asymm_v5,2020.2.10,MacIntel,60,61025ae37ef11b136ea224fe,,,,,,,,,4052,-38.41015625,22.81640625,1,0,0,response7disk,,1,0.46484375,-4.2109375,1,0,0,rectangle,0.46484375,-4.2109375,1,0,0,0.46484375,-4.2109375,1,0,0,1,15,175,84,1,,,,,,,,
,,,,,,,,,,,,,FF,,,,,,,,0.5488,,,,,,,,,,,,,,,,,,,,,,610336af8890b00f2a4fff86,61036b52aba3bc0d1b42657b,2021-07-29_23h01.02.617,Simcolourproject_2stim_asymm_v5,2020.2.10,MacIntel,60,61025ae37ef11b136ea224fe,,,,,,,,,1633,54.359375,29.3984375,1,0,0,response1disk,,6,-2.22265625,2.74609375,1,0,0,rectangle,-2.22265625,2.74609375,1,0,0,-2.22265625,2.74609375,1,0,0,1,16,176,81,1,,,,,,,,
,,,,,,,,,,,,,FF,,,,,,,,0.5159,,,,,,,,,,,,,,,,,,,,,,610336af8890b00f2a4fff86,61036b52aba3bc0d1b42657b,2021-07-29_23h01.02.617,Simcolourproject_2stim_asymm_v5,2020.2.10,MacIntel,60,61025ae37ef11b136ea224fe,,,,,,,,,1428,49.73828125,27.17578125,1,0,0,response1disk,,6,5.015625,1.57421875,1,0,0,rectangle,5.015625,1.57421875,1,0,0,5.015625,1.57421875,1,0,0,1,17,177,134,1,,,,,,,,
,,,,,,,,,,,,,FF,,,,,,,,0.8146,,,,,,,,,,,,,,,,,,,,,,610336af8890b00f2a4fff86,61036b52aba3bc0d1b42657b,2021-07-29_23h01.02.617,Simcolourproject_2stim_asymm_v5,2020.2.10,MacIntel,60,61025ae37ef11b136ea224fe,,,,,,,,,4,-16.7890625,-39.69140625,1,0,0,response5disk,,3,3.67578125,-7.02734375,1,0,0,rectangle,3.67578125,-7.02734375,1,0,0,3.67578125,-7.02734375,1,0,0,1,18,178,146,1,,,,,,,,
,,,,,,,,,,,,,FF,,,,,,,,0.7156,,,,,,,,,,,,,,,,,,,,,,610336af8890b00f2a4fff86,61036b52aba3bc0d1b42657b,2021-07-29_23h01.02.617,Simcolourproject_2stim_asymm_v5,2020.2.10,MacIntel,60,61025ae37ef11b136ea224fe,,,,,,,,,2044,-16.70703125,-45.22265625,1,0,0,response5disk,,3,-5.3125,-4.00390625,1,0,0,rectangle,-5.3125,-4.00390625,1,0,0,-5.3125,-4.00390625,1,0,0,1,19,179,110,1,,,,,,,,
,,,,,,,,,,,,,FF,,,,,,,,0.5817,,,,,,,,,,,,,,,,,,,,,,610336af8890b00f2a4fff86,61036b52aba3bc0d1b42657b,2021-07-29_23h01.02.617,Simcolourproject_2stim_asymm_v5,2020.2.10,MacIntel,60,61025ae37ef11b136ea224fe,,,,,,,,,2260,26.73046875,-46.3046875,1,0,0,response3disk,,4,2.28125,5.2109375,1,0,0,rectangle,2.28125,5.2109375,1,0,0,2.28125,5.2109375,1,0,0,1,20,180,156,1,,,,,,,,
,,,,,,,,,,,,,FF,,,,,,,,0.5652,,,,,,,,,,,,,,,,,,,,,,610336af8890b00f2a4fff86,61036b52aba3bc0d1b42657b,2021-07-29_23h01.02.617,Simcolourproject_2stim_asymm_v5,2020.2.10,MacIntel,60,61025ae37ef11b136ea224fe,,,,,,,,,1483,75.19140625,-27.4921875,1,0,0,response3disk,,5,-7.078125,-2.078125,1,0,0,rectangle,-7.078125,-2.078125,1,0,0,-7.078125,-2.078125,1,0,0,1,21,181,8,1,,,,,,,,
,,,,,,,,,,,,,FF,,,,,,,,0.5486,,,,,,,,,,,,,,,,,,,,,,610336af8890b00f2a4fff86,61036b52aba3bc0d1b42657b,2021-07-29_23h01.02.617,Simcolourproject_2stim_asymm_v5,2020.2.10,MacIntel,60,61025ae37ef11b136ea224fe,,,,,,,,,2744,27.453125,-15.52734375,1,0,0,response3disk,,5,-17.8125,-2.83984375,1,0,0,rectangle,-17.8125,-2.83984375,1,0,0,-17.8125,-2.83984375,1,0,0,1,22,182,64,1,,,,,,,,
,,,,,,,,,,,,,FF,,,,,,,,1.2291,,,,,,,,,,,,,,,,,,,,,,610336af8890b00f2a4fff86,61036b52aba3bc0d1b42657b,2021-07-29_23h01.02.617,Simcolourproject_2stim_asymm_v5,2020.2.10,MacIntel,60,61025ae37ef11b136ea224fe,,,,,,,,,3744,-20.05078125,-59.91015625,1,0,0,response5disk,,3,-1.1796875,-0.0546875,1,0,0,rectangle,-1.1796875,-0.0546875,1,0,0,-1.1796875,-0.0546875,1,0,0,1,23,183,66,1,,,,,,,,
,,,,,,,,,,,,,FF,,,,,,,,1.4134,,,,,,,,,,,,,,,,,,,,,,610336af8890b00f2a4fff86,61036b52aba3bc0d1b42657b,2021-07-29_23h01.02.617,Simcolourproject_2stim_asymm_v5,2020.2.10,MacIntel,60,61025ae37ef11b136ea224fe,,,,,,,,,490,52.234375,-29.3984375,1,0,0,response3disk,,5,16.93359375,-15.2265625,1,0,0,rectangle,86.12890625,27.0625,1,0,0,22.5390625,1.9296875,1,0,0,1,24,184,72,1,,response1disk_3,TRUE,6,6,"[290,106,192,315,84,88,95,72,185,211,96,40,98,148,197,185,75,318,232,320]",1.4464,rectangle
,,,,,,,,,,,,,FF,,,,,,,,2.0451,,,,,,,,,,,,,,,,,,,,,,610336af8890b00f2a4fff86,61036b52aba3bc0d1b42657b,2021-07-29_23h01.02.617,Simcolourproject_2stim_asymm_v5,2020.2.10,MacIntel,60,61025ae37ef11b136ea224fe,,,,,,,,,1407,70.58984375,34.734375,1,0,0,response1disk,,6,7.0625,-8.1015625,1,0,0,rectangle,7.0625,-8.1015625,1,0,0,7.0625,-8.1015625,1,0,0,1,25,185,102,1,,,,,,,,
,,,,,,,,,,,,,FF,,,,,,,,0.6152,,,,,,,,,,,,,,,,,,,,,,610336af8890b00f2a4fff86,61036b52aba3bc0d1b42657b,2021-07-29_23h01.02.617,Simcolourproject_2stim_asymm_v5,2020.2.10,MacIntel,60,61025ae37ef11b136ea224fe,,,,,,,,,3048,-24.22265625,-42.69140625,1,0,0,response5disk,,3,7.34375,6.94140625,1,0,0,rectangle,7.34375,6.94140625,1,0,0,7.34375,6.94140625,1,0,0,1,26,186,139,1,,,,,,,,
,,,,,,,,,,,,,FF,,,,,,,,0.4993,,,,,,,,,,,,,,,,,,,,,,610336af8890b00f2a4fff86,61036b52aba3bc0d1b42657b,2021-07-29_23h01.02.617,Simcolourproject_2stim_asymm_v5,2020.2.10,MacIntel,60,61025ae37ef11b136ea224fe,,,,,,,,,1954,-19.54296875,-39.76171875,1,0,0,response5disk,,3,19.84375,11.56640625,1,0,0,rectangle,19.84375,11.56640625,1,0,0,19.84375,11.56640625,1,0,0,1,27,187,147,1,,,,,,,,
,,,,,,,,,,,,,FF,,,,,,,,0.5325,,,,,,,,,,,,,,,,,,,,,,610336af8890b00f2a4fff86,61036b52aba3bc0d1b42657b,2021-07-29_23h01.02.617,Simcolourproject_2stim_asymm_v5,2020.2.10,MacIntel,60,61025ae37ef11b136ea224fe,,,,,,,,,2713,28.2578125,-34.3125,1,0,0,response3disk,,4,-3.171875,-15.6484375,1,0,0,rectangle,-3.171875,-15.6484375,1,0,0,-3.171875,-15.6484375,1,0,0,1,28,188,67,1,,,,,,,,
,,,,,,,,,,,,,FF,,,,,,,,0.6649,,,,,,,,,,,,,,,,,,,,,,610336af8890b00f2a4fff86,61036b52aba3bc0d1b42657b,2021-07-29_23h01.02.617,Simcolourproject_2stim_asymm_v5,2020.2.10,MacIntel,60,61025ae37ef11b136ea224fe,,,,,,,,,992,36.3984375,-25.296875,1,0,0,response3disk,,5,14.7265625,-14.1015625,1,0,0,rectangle,14.7265625,-14.1015625,1,0,0,14.7265625,-14.1015625,1,0,0,1,29,189,90,1,,,,,,,,
,,,,,,,,,,,,,FF,,,,,,,,0.6819,,,,,,,,,,,,,,,,,,,,,,610336af8890b00f2a4fff86,61036b52aba3bc0d1b42657b,2021-07-29_23h01.02.617,Simcolourproject_2stim_asymm_v5,2020.2.10,MacIntel,60,61025ae37ef11b136ea224fe,,,,,,,,,3492,49.40234375,25.18359375,1,0,0,response1disk,,6,-10.83203125,-4.69140625,1,0,0,rectangle,-10.83203125,-4.69140625,1,0,0,-10.83203125,-4.69140625,1,0,0,1,30,190,32,1,,,,,,,,
,,,,,,,,,,,,,FF,,,,,,,,0.8814,,,,,,,,,,,,,,,,,,,,,,610336af8890b00f2a4fff86,61036b52aba3bc0d1b42657b,2021-07-29_23h01.02.617,Simcolourproject_2stim_asymm_v5,2020.2.10,MacIntel,60,61025ae37ef11b136ea224fe,,,,,,,,,4294,-65.84375,20.49609375,1,0,0,response7disk,,1,-10.91015625,-1.046875,1,0,0,rectangle,95.00390625,30.44140625,1,0,0,3.15234375,4.05078125,1,0,0,1,31,191,120,1,,response1disk_3,TRUE,6,6,"[290,106,192,315,84,88,95,72,185,211,96,40,98,148,197,185,75,318,232,320]",1.347,rectangle
,,,,,,,,,,,,,FF,,,,,,,,0.6327,,,,,,,,,,,,,,,,,,,,,,610336af8890b00f2a4fff86,61036b52aba3bc0d1b42657b,2021-07-29_23h01.02.617,Simcolourproject_2stim_asymm_v5,2020.2.10,MacIntel,60,61025ae37ef11b136ea224fe,,,,,,,,,801,-24.51171875,58.05859375,1,0,0,response7disk,,0,-3.93359375,11.3671875,1,0,0,rectangle,-3.93359375,11.3671875,1,0,0,-3.93359375,11.3671875,1,0,0,1,32,192,115,1,,,,,,,,
,,,,,,,,,,,,,FF,,,,,,,,0.9639,,,,,,,,,,,,,,,,,,,,,,610336af8890b00f2a4fff86,61036b52aba3bc0d1b42657b,2021-07-29_23h01.02.617,Simcolourproject_2stim_asymm_v5,2020.2.10,MacIntel,60,61025ae37ef11b136ea224fe,,,,,,,,,1118,15.8515625,-44.046875,1,0,0,response3disk,,4,-4.359375,-14.390625,1,0,0,rectangle,-4.359375,-14.390625,1,0,0,-4.359375,-14.390625,1,0,0,1,33,193,142,1,,,,,,,,
,,,,,,,,,,,,,FF,,,,,,,,0.5161,,,,,,,,,,,,,,,,,,,,,,610336af8890b00f2a4fff86,61036b52aba3bc0d1b42657b,2021-07-29_23h01.02.617,Simcolourproject_2stim_asymm_v5,2020.2.10,MacIntel,60,61025ae37ef11b136ea224fe,,,,,,,,,4118,-46.140625,18.5546875,1,0,0,response7disk,,1,-15.90625,-1.421875,1,0,0,rectangle,-15.90625,-1.421875,1,0,0,-15.90625,-1.421875,1,0,0,1,34,194,11,1,,,,,,,,
,,,,,,,,,,,,,FF,,,,,,,,0.5478,,,,,,,,,,,,,,,,,,,,,,610336af8890b00f2a4fff86,61036b52aba3bc0d1b42657b,2021-07-29_23h01.02.617,Simcolourproject_2stim_asymm_v5,2020.2.10,MacIntel,60,61025ae37ef11b136ea224fe,,,,,,,,,2875,17.93359375,-38.26171875,1,0,0,response3disk,,4,5.20703125,-9.90234375,1,0,0,rectangle,5.20703125,-9.90234375,1,0,0,5.20703125,-9.90234375,1,0,0,1,35,195,141,1,,,,,,,,
,,,,,,,,,,,,,FF,,,,,,,,0.6494,,,,,,,,,,,,,,,,,,,,,,610336af8890b00f2a4fff86,61036b52aba3bc0d1b42657b,2021-07-29_23h01.02.617,Simcolourproject_2stim_asymm_v5,2020.2.10,MacIntel,60,61025ae37ef11b136ea224fe,,,,,,,,,4024,-38.6171875,14.109375,1,0,0,response7disk,,1,-13.75,0.13671875,1,0,0,rectangle,34.71875,-54.078125,1,0,0,8.2109375,-15.74609375,1,0,0,1,36,196,9,1,,response3disk_3,TRUE,4,4,"[290,106,192,315,84,88,95,72,185,211,96,40,98,148,197,185,75,318,232,320]",1.613,rectangle
,,,,,,,,,,,,,FF,,,,,,,,0.8483,,,,,,,,,,,,,,,,,,,,,,610336af8890b00f2a4fff86,61036b52aba3bc0d1b42657b,2021-07-29_23h01.02.617,Simcolourproject_2stim_asymm_v5,2020.2.10,MacIntel,60,61025ae37ef11b136ea224fe,,,,,,,,,2417,-22.1484375,-45.30859375,1,0,0,response5disk,,3,0.046875,1.5078125,1,0,0,rectangle,0.046875,1.5078125,1,0,0,0.046875,1.5078125,1,0,0,1,37,197,0,1,,,,,,,,
,,,,,,,,,,,,,FF,,,,,,,,0.6316,,,,,,,,,,,,,,,,,,,,,,610336af8890b00f2a4fff86,61036b52aba3bc0d1b42657b,2021-07-29_23h01.02.617,Simcolourproject_2stim_asymm_v5,2020.2.10,MacIntel,60,61025ae37ef11b136ea224fe,,,,,,,,,2973,58.5078125,-23.10546875,1,0,0,response3disk,,5,-5.7265625,-5.13671875,1,0,0,rectangle,-5.7265625,-5.13671875,1,0,0,-5.7265625,-5.13671875,1,0,0,1,38,198,143,1,,,,,,,,
,,,,,,,,,,,,,FF,,,,,,,,0.6984,,,,,,,,,,,,,,,,,,,,,,610336af8890b00f2a4fff86,61036b52aba3bc0d1b42657b,2021-07-29_23h01.02.617,Simcolourproject_2stim_asymm_v5,2020.2.10,MacIntel,60,61025ae37ef11b136ea224fe,,,,,,,,,4078,58.99609375,-34.16015625,1,0,0,response3disk,,5,-20.16015625,-1.61328125,1,0,0,rectangle,-20.16015625,-1.61328125,1,0,0,-20.16015625,-1.61328125,1,0,0,1,39,199,45,1,,,,,,,,
,,,,,,,,,,,,,FF,,,,,,,,0.6653,,,,,,,,,,,,,,,,,,,,,,610336af8890b00f2a4fff86,61036b52aba3bc0d1b42657b,2021-07-29_23h01.02.617,Simcolourproject_2stim_asymm_v5,2020.2.10,MacIntel,60,61025ae37ef11b136ea224fe,,,,,,,,,883,28.3828125,-35.84375,1,0,0,response3disk,,4,8.6484375,-4.7421875,1,0,0,rectangle,8.6484375,-4.7421875,1,0,0,8.6484375,-4.7421875,1,0,0,1,40,200,133,1,,,,,,,,
,,,,,,,,,,,,,FF,,,,,,,,1.048,,,,,,,,,,,,,,,,,,,,,,610336af8890b00f2a4fff86,61036b52aba3bc0d1b42657b,2021-07-29_23h01.02.617,Simcolourproject_2stim_asymm_v5,2020.2.10,MacIntel,60,61025ae37ef11b136ea224fe,,,,,,,,,3227,74.37890625,43.41796875,1,0,0,response1disk,,6,27.02734375,9.81640625,1,0,0,rectangle,27.02734375,9.81640625,1,0,0,27.02734375,9.81640625,1,0,0,1,41,201,106,1,,,,,,,,
,,,,,,,,,,,,,FF,,,,,,,,0.8151,,,,,,,,,,,,,,,,,,,,,,610336af8890b00f2a4fff86,61036b52aba3bc0d1b42657b,2021-07-29_23h01.02.617,Simcolourproject_2stim_asymm_v5,2020.2.10,MacIntel,60,61025ae37ef11b136ea224fe,,,,,,,,,1974,48.25,-26.5859375,1,0,0,response3disk,,5,0.046875,-3.984375,1,0,0,rectangle,0.046875,-3.984375,1,0,0,0.046875,-3.984375,1,0,0,1,42,202,131,1,,,,,,,,
,,,,,,,,,,,,,FF,,,,,,,,0.6647,,,,,,,,,,,,,,,,,,,,,,610336af8890b00f2a4fff86,61036b52aba3bc0d1b42657b,2021-07-29_23h01.02.617,Simcolourproject_2stim_asymm_v5,2020.2.10,MacIntel,60,61025ae37ef11b136ea224fe,,,,,,,,,2698,40.13671875,52.5546875,1,0,0,response1disk,,7,9.65625,11.2734375,1,0,0,rectangle,9.65625,11.2734375,1,0,0,9.65625,11.2734375,1,0,0,1,43,203,92,1,,,,,,,,
,,,,,,,,,,,,,FF,,,,,,,,0.5996,,,,,,,,,,,,,,,,,,,,,,610336af8890b00f2a4fff86,61036b52aba3bc0d1b42657b,2021-07-29_23h01.02.617,Simcolourproject_2stim_asymm_v5,2020.2.10,MacIntel,60,61025ae37ef11b136ea224fe,,,,,,,,,3399,46.78515625,-39.375,1,0,0,response3disk,,5,9.015625,-7.86328125,1,0,0,rectangle,9.015625,-7.86328125,1,0,0,9.015625,-7.86328125,1,0,0,1,44,204,50,1,,,,,,,,
,,,,,,,,,,,,,FF,,,,,,,,0.4331,,,,,,,,,,,,,,,,,,,,,,610336af8890b00f2a4fff86,61036b52aba3bc0d1b42657b,2021-07-29_23h01.02.617,Simcolourproject_2stim_asymm_v5,2020.2.10,MacIntel,60,61025ae37ef11b136ea224fe,,,,,,,,,451,44.9296875,-31.4453125,1,0,0,response3disk,,5,13.9921875,-7.65234375,1,0,0,rectangle,13.9921875,-7.65234375,1,0,0,13.9921875,-7.65234375,1,0,0,1,45,205,16,1,,,,,,,,
,,,,,,,,,,,,,FF,,,,,,,,0.5986,,,,,,,,,,,,,,,,,,,,,,610336af8890b00f2a4fff86,61036b52aba3bc0d1b42657b,2021-07-29_23h01.02.617,Simcolourproject_2stim_asymm_v5,2020.2.10,MacIntel,60,61025ae37ef11b136ea224fe,,,,,,,,,1470,23.69140625,-14.75390625,1,0,0,response3disk,,5,24.3671875,-5.78515625,1,0,0,rectangle,24.3671875,-5.78515625,1,0,0,24.3671875,-5.78515625,1,0,0,1,46,206,117,1,,,,,,,,
,,,,,,,,,,,,,FF,,,,,,,,0.765,,,,,,,,,,,,,,,,,,,,,,610336af8890b00f2a4fff86,61036b52aba3bc0d1b42657b,2021-07-29_23h01.02.617,Simcolourproject_2stim_asymm_v5,2020.2.10,MacIntel,60,61025ae37ef11b136ea224fe,,,,,,,,,1901,36.69921875,-63.546875,1,0,0,response3disk,,4,-16.83203125,3.71484375,1,0,0,rectangle,-16.83203125,3.71484375,1,0,0,-16.83203125,3.71484375,1,0,0,1,47,207,112,1,,,,,,,,
,,,,,,,,,,,,,FF,,,,,,,,0.4824,,,,,,,,,,,,,,,,,,,,,,610336af8890b00f2a4fff86,61036b52aba3bc0d1b42657b,2021-07-29_23h01.02.617,Simcolourproject_2stim_asymm_v5,2020.2.10,MacIntel,60,61025ae37ef11b136ea224fe,,,,,,,,,1744,-25.73046875,-50.03515625,1,0,0,response5disk,,3,-10.1484375,1.171875,1,0,0,rectangle,-10.1484375,1.171875,1,0,0,-10.1484375,1.171875,1,0,0,1,48,208,6,1,,,,,,,,
,,,,,,,,,,,,,FF,,,,,,,,0.6334,,,,,,,,,,,,,,,,,,,,,,610336af8890b00f2a4fff86,61036b52aba3bc0d1b42657b,2021-07-29_23h01.02.617,Simcolourproject_2stim_asymm_v5,2020.2.10,MacIntel,60,61025ae37ef11b136ea224fe,,,,,,,,,168,-18.5,-57.3671875,1,0,0,response5disk,,3,-3.9296875,3.30859375,1,0,0,rectangle,-3.9296875,3.30859375,1,0,0,-3.9296875,3.30859375,1,0,0,1,49,209,58,1,,,,,,,,
,,,,,,,,,,,,,FF,,,,,,,,0.6994,,,,,,,,,,,,,,,,,,,,,,610336af8890b00f2a4fff86,61036b52aba3bc0d1b42657b,2021-07-29_23h01.02.617,Simcolourproject_2stim_asymm_v5,2020.2.10,MacIntel,60,61025ae37ef11b136ea224fe,,,,,,,,,1780,19.375,-52.765625,1,0,0,response3disk,,4,0.83203125,1.96484375,1,0,0,rectangle,-49.09375,73.33984375,1,0,0,-12.890625,-0.84765625,1,0,0,1,50,210,20,1,,response7disk_3,TRUE,0,0,"[290,106,192,315,84,88,95,72,185,211,96,40,98,148,197,185,75,318,232,320]",1.7628,rectangle
,,,,,,,,,,,,,FF,,,,,,,,1.0984,,,,,,,,,,,,,,,,,,,,,,610336af8890b00f2a4fff86,61036b52aba3bc0d1b42657b,2021-07-29_23h01.02.617,Simcolourproject_2stim_asymm_v5,2020.2.10,MacIntel,60,61025ae37ef11b136ea224fe,,,,,,,,,2503,34.70703125,-16.62890625,1,0,0,response3disk,,5,5.2734375,-2.8125,1,0,0,rectangle,5.2734375,-2.8125,1,0,0,5.2734375,-2.8125,1,0,0,1,51,211,34,1,,,,,,,,
,,,,,,,,,,,,,FF,,,,,,,,0.7326,,,,,,,,,,,,,,,,,,,,,,610336af8890b00f2a4fff86,61036b52aba3bc0d1b42657b,2021-07-29_23h01.02.617,Simcolourproject_2stim_asymm_v5,2020.2.10,MacIntel,60,61025ae37ef11b136ea224fe,,,,,,,,,3721,36.328125,-44.94921875,1,0,0,response3disk,,4,10.35546875,-15.203125,1,0,0,rectangle,10.35546875,-15.203125,1,0,0,10.35546875,-15.203125,1,0,0,1,52,212,101,1,,,,,,,,
,,,,,,,,,,,,,FF,,,,,,,,0.7647,,,,,,,,,,,,,,,,,,,,,,610336af8890b00f2a4fff86,61036b52aba3bc0d1b42657b,2021-07-29_23h01.02.617,Simcolourproject_2stim_asymm_v5,2020.2.10,MacIntel,60,61025ae37ef11b136ea224fe,,,,,,,,,1211,-36.609375,-19.29296875,1,0,0,response5disk,,2,-3.9609375,2.3046875,1,0,0,rectangle,-3.9609375,2.3046875,1,0,0,-3.9609375,2.3046875,1,0,0,1,53,213,70,1,,,,,,,,
,,,,,,,,,,,,,FF,,,,,,,,0.5487,,,,,,,,,,,,,,,,,,,,,,610336af8890b00f2a4fff86,61036b52aba3bc0d1b42657b,2021-07-29_23h01.02.617,Simcolourproject_2stim_asymm_v5,2020.2.10,MacIntel,60,61025ae37ef11b136ea224fe,,,,,,,,,1763,-20.2578125,-62,1,0,0,response5disk,,3,-3.10546875,4.49609375,1,0,0,rectangle,-3.10546875,4.49609375,1,0,0,-3.10546875,4.49609375,1,0,0,1,54,214,144,1,,,,,,,,
,,,,,,,,,,,,,FF,,,,,,,,0.9311,,,,,,,,,,,,,,,,,,,,,,610336af8890b00f2a4fff86,61036b52aba3bc0d1b42657b,2021-07-29_23h01.02.617,Simcolourproject_2stim_asymm_v5,2020.2.10,MacIntel,60,61025ae37ef11b136ea224fe,,,,,,,,,743,36.546875,31.1328125,1,0,0,response1disk,,6,9.0234375,13.0234375,1,0,0,rectangle,9.0234375,13.0234375,1,0,0,9.0234375,13.0234375,1,0,0,1,55,215,159,1,,,,,,,,
,,,,,,,,,,,,,FF,,,,,,,,0.8302,,,,,,,,,,,,,,,,,,,,,,610336af8890b00f2a4fff86,61036b52aba3bc0d1b42657b,2021-07-29_23h01.02.617,Simcolourproject_2stim_asymm_v5,2020.2.10,MacIntel,60,61025ae37ef11b136ea224fe,,,,,,,,,3750,23.47265625,-55.453125,1,0,0,response3disk,,4,6.3359375,9.31640625,1,0,0,rectangle,6.3359375,9.31640625,1,0,0,6.3359375,9.31640625,1,0,0,1,56,216,99,1,,,,,,,,
,,,,,,,,,,,,,FF,,,,,,,,0.8635,,,,,,,,,,,,,,,,,,,,,,610336af8890b00f2a4fff86,61036b52aba3bc0d1b42657b,2021-07-29_23h01.02.617,Simcolourproject_2stim_asymm_v5,2020.2.10,MacIntel,60,61025ae37ef11b136ea224fe,,,,,,,,,3299,32.3984375,64.640625,1,0,0,response1disk,,7,8.3125,10.0625,1,0,0,rectangle,8.3125,10.0625,1,0,0,8.3125,10.0625,1,0,0,1,57,217,4,1,,,,,,,,
,,,,,,,,,,,,,FF,,,,,,,,0.9472,,,,,,,,,,,,,,,,,,,,,,610336af8890b00f2a4fff86,61036b52aba3bc0d1b42657b,2021-07-29_23h01.02.617,Simcolourproject_2stim_asymm_v5,2020.2.10,MacIntel,60,61025ae37ef11b136ea224fe,,,,,,,,,1196,48.375,27,1,0,0,response1disk,,6,20.5078125,-3.62890625,1,0,0,rectangle,20.5078125,-3.62890625,1,0,0,20.5078125,-3.62890625,1,0,0,1,58,218,86,1,,,,,,,,
,,,,,,,,,,,,,FF,,,,,,,,0.5841,,,,,,,,,,,,,,,,,,,,,,610336af8890b00f2a4fff86,61036b52aba3bc0d1b42657b,2021-07-29_23h01.02.617,Simcolourproject_2stim_asymm_v5,2020.2.10,MacIntel,60,61025ae37ef11b136ea224fe,,,,,,,,,4187,46.81640625,25.09375,1,0,0,response1disk,,6,8.53515625,5.15625,1,0,0,rectangle,8.53515625,5.15625,1,0,0,8.53515625,5.15625,1,0,0,1,59,219,83,1,,,,,,,,
,,,,,,,,,,,,,FF,,,,,,,,0.5486,,,,,,,,,,,,,,,,,,,,,,610336af8890b00f2a4fff86,61036b52aba3bc0d1b42657b,2021-07-29_23h01.02.617,Simcolourproject_2stim_asymm_v5,2020.2.10,MacIntel,60,61025ae37ef11b136ea224fe,,,,,,,,,402,38.796875,27.02734375,1,0,0,response1disk,,6,-0.671875,7.62890625,1,0,0,rectangle,-0.671875,7.62890625,1,0,0,-0.671875,7.62890625,1,0,0,1,60,220,39,1,,,,,,,,
,,,,,,,,,,,,,FF,,,,,,,,0.7318,,,,,,,,,,,,,,,,,,,,,,610336af8890b00f2a4fff86,61036b52aba3bc0d1b42657b,2021-07-29_23h01.02.617,Simcolourproject_2stim_asymm_v5,2020.2.10,MacIntel,60,61025ae37ef11b136ea224fe,,,,,,,,,4362,-38.9296875,-16.60546875,1,0,0,response5disk,,2,10.4921875,11.48828125,1,0,0,rectangle,10.4921875,11.48828125,1,0,0,10.4921875,11.48828125,1,0,0,1,61,221,21,1,,,,,,,,
,,,,,,,,,,,,,FF,,,,,,,,0.799,,,,,,,,,,,,,,,,,,,,,,610336af8890b00f2a4fff86,61036b52aba3bc0d1b42657b,2021-07-29_23h01.02.617,Simcolourproject_2stim_asymm_v5,2020.2.10,MacIntel,60,61025ae37ef11b136ea224fe,,,,,,,,,700,22.7421875,-30.6796875,1,0,0,response3disk,,4,12.49609375,-5.98046875,1,0,0,rectangle,12.49609375,-5.98046875,1,0,0,12.49609375,-5.98046875,1,0,0,1,62,222,150,1,,,,,,,,
,,,,,,,,,,,,,FF,,,,,,,,1.2639,,,,,,,,,,,,,,,,,,,,,,610336af8890b00f2a4fff86,61036b52aba3bc0d1b42657b,2021-07-29_23h01.02.617,Simcolourproject_2stim_asymm_v5,2020.2.10,MacIntel,60,61025ae37ef11b136ea224fe,,,,,,,,,1555,52.078125,30.59375,1,0,0,response1disk,,6,-0.51171875,-0.3515625,1,0,0,rectangle,-0.51171875,-0.3515625,1,0,0,-0.51171875,-0.3515625,1,0,0,1,63,223,137,1,,,,,,,,
,,,,,,,,,,,,,FF,,,,,,,,0.7316,,,,,,,,,,,,,,,,,,,,,,610336af8890b00f2a4fff86,61036b52aba3bc0d1b42657b,2021-07-29_23h01.02.617,Simcolourproject_2stim_asymm_v5,2020.2.10,MacIntel,60,61025ae37ef11b136ea224fe,,,,,,,,,241,24.3203125,55.22265625,1,0,0,response1disk,,7,2.84375,-1.1796875,1,0,0,rectangle,2.84375,-1.1796875,1,0,0,2.84375,-1.1796875,1,0,0,1,64,224,15,1,,,,,,,,
,,,,,,,,,,,,,FF,,,,,,,,0.8155,,,,,,,,,,,,,,,,,,,,,,610336af8890b00f2a4fff86,61036b52aba3bc0d1b42657b,2021-07-29_23h01.02.617,Simcolourproject_2stim_asymm_v5,2020.2.10,MacIntel,60,61025ae37ef11b136ea224fe,,,,,,,,,2181,39.2109375,-40.6328125,1,0,0,response3disk,,4,8.65234375,6.10546875,1,0,0,rectangle,8.65234375,6.10546875,1,0,0,8.65234375,6.10546875,1,0,0,1,65,225,138,1,,,,,,,,
,,,,,,,,,,,,,FF,,,,,,,,0.8146,,,,,,,,,,,,,,,,,,,,,,610336af8890b00f2a4fff86,61036b52aba3bc0d1b42657b,2021-07-29_23h01.02.617,Simcolourproject_2stim_asymm_v5,2020.2.10,MacIntel,60,61025ae37ef11b136ea224fe,,,,,,,,,164,-45.20703125,-34.28125,1,0,0,response5disk,,2,-2.8125,-9.69140625,1,0,0,rectangle,-2.8125,-9.69140625,1,0,0,-2.8125,-9.69140625,1,0,0,1,66,226,122,1,,,,,,,,
,,,,,,,,,,,,,FF,,,,,,,,0.8315,,,,,,,,,,,,,,,,,,,,,,610336af8890b00f2a4fff86,61036b52aba3bc0d1b42657b,2021-07-29_23h01.02.617,Simcolourproject_2stim_asymm_v5,2020.2.10,MacIntel,60,61025ae37ef11b136ea224fe,,,,,,,,,2009,36.79296875,46.96484375,1,0,0,response1disk,,7,1.75390625,-2.3046875,1,0,0,rectangle,1.75390625,-2.3046875,1,0,0,1.75390625,-2.3046875,1,0,0,1,67,227,75,1,,,,,,,,
,,,,,,,,,,,,,FF,,,,,,,,0.5483,,,,,,,,,,,,,,,,,,,,,,610336af8890b00f2a4fff86,61036b52aba3bc0d1b42657b,2021-07-29_23h01.02.617,Simcolourproject_2stim_asymm_v5,2020.2.10,MacIntel,60,61025ae37ef11b136ea224fe,,,,,,,,,39,32.69921875,52.1640625,1,0,0,response1disk,,7,9.0546875,10.05078125,1,0,0,rectangle,9.0546875,10.05078125,1,0,0,9.0546875,10.05078125,1,0,0,1,68,228,10,1,,,,,,,,
,,,,,,,,,,,,,FF,,,,,,,,0.4823,,,,,,,,,,,,,,,,,,,,,,610336af8890b00f2a4fff86,61036b52aba3bc0d1b42657b,2021-07-29_23h01.02.617,Simcolourproject_2stim_asymm_v5,2020.2.10,MacIntel,60,61025ae37ef11b136ea224fe,,,,,,,,,2921,35.90234375,44.45703125,1,0,0,response1disk,,7,5.3515625,-10.8125,1,0,0,rectangle,5.3515625,-10.8125,1,0,0,5.3515625,-10.8125,1,0,0,1,69,229,46,1,,,,,,,,
,,,,,,,,,,,,,FF,,,,,,,,0.9141,,,,,,,,,,,,,,,,,,,,,,610336af8890b00f2a4fff86,61036b52aba3bc0d1b42657b,2021-07-29_23h01.02.617,Simcolourproject_2stim_asymm_v5,2020.2.10,MacIntel,60,61025ae37ef11b136ea224fe,,,,,,,,,2490,43.5078125,-34.4921875,1,0,0,response3disk,,5,-5.81640625,3.06640625,1,0,0,rectangle,-5.81640625,3.06640625,1,0,0,-5.81640625,3.06640625,1,0,0,1,70,230,96,1,,,,,,,,
,,,,,,,,,,,,,FF,,,,,,,,0.915,,,,,,,,,,,,,,,,,,,,,,610336af8890b00f2a4fff86,61036b52aba3bc0d1b42657b,2021-07-29_23h01.02.617,Simcolourproject_2stim_asymm_v5,2020.2.10,MacIntel,60,61025ae37ef11b136ea224fe,,,,,,,,,228,69.49609375,24,1,0,0,response1disk,,6,14.3984375,-4.16015625,1,0,0,rectangle,-24.7109375,-66.2890625,1,0,0,-0.1015625,-14.40625,1,0,0,1,71,231,28,1,,response5disk_3,TRUE,3,3,"[290,106,192,315,84,88,95,72,185,211,96,40,98,148,197,185,75,318,232,320]",1.646,rectangle
,,,,,,,,,,,,,FF,,,,,,,,2.2101,,,,,,,,,,,,,,,,,,,,,,610336af8890b00f2a4fff86,61036b52aba3bc0d1b42657b,2021-07-29_23h01.02.617,Simcolourproject_2stim_asymm_v5,2020.2.10,MacIntel,60,61025ae37ef11b136ea224fe,,,,,,,,,2413,-50.546875,-48.98828125,1,0,0,response5disk,,2,-5.140625,-12.8984375,1,0,0,rectangle,-5.140625,-12.8984375,1,0,0,-5.140625,-12.8984375,1,0,0,1,72,232,148,1,,,,,,,,
,,,,,,,,,,,,,FF,,,,,,,,0.6859,,,,,,,,,,,,,,,,,,,,,,610336af8890b00f2a4fff86,61036b52aba3bc0d1b42657b,2021-07-29_23h01.02.617,Simcolourproject_2stim_asymm_v5,2020.2.10,MacIntel,60,61025ae37ef11b136ea224fe,,,,,,,,,1713,-15.90625,-52.84765625,1,0,0,response5disk,,3,5.17578125,6.45703125,1,0,0,rectangle,5.17578125,6.45703125,1,0,0,5.17578125,6.45703125,1,0,0,1,73,233,121,1,,,,,,,,
,,,,,,,,,,,,,FF,,,,,,,,0.8155,,,,,,,,,,,,,,,,,,,,,,610336af8890b00f2a4fff86,61036b52aba3bc0d1b42657b,2021-07-29_23h01.02.617,Simcolourproject_2stim_asymm_v5,2020.2.10,MacIntel,60,61025ae37ef11b136ea224fe,,,,,,,,,1771,35.078125,-14.08984375,1,0,0,response3disk,,5,2.65625,-14.5,1,0,0,rectangle,2.65625,-14.5,1,0,0,2.65625,-14.5,1,0,0,1,74,234,38,1,,,,,,,,
,,,,,,,,,,,,,FF,,,,,,,,0.7483,,,,,,,,,,,,,,,,,,,,,,610336af8890b00f2a4fff86,61036b52aba3bc0d1b42657b,2021-07-29_23h01.02.617,Simcolourproject_2stim_asymm_v5,2020.2.10,MacIntel,60,61025ae37ef11b136ea224fe,,,,,,,,,2685,35.41015625,-27.7890625,1,0,0,response3disk,,5,9.49609375,11.578125,1,0,0,rectangle,9.49609375,11.578125,1,0,0,9.49609375,11.578125,1,0,0,1,75,235,97,1,,,,,,,,
,,,,,,,,,,,,,FF,,,,,,,,0.8146,,,,,,,,,,,,,,,,,,,,,,610336af8890b00f2a4fff86,61036b52aba3bc0d1b42657b,2021-07-29_23h01.02.617,Simcolourproject_2stim_asymm_v5,2020.2.10,MacIntel,60,61025ae37ef11b136ea224fe,,,,,,,,,325,30.66796875,75.98828125,1,0,0,response1disk,,7,9.21484375,0.578125,1,0,0,rectangle,9.21484375,0.578125,1,0,0,9.21484375,0.578125,1,0,0,1,76,236,55,1,,,,,,,,
,,,,,,,,,,,,,FF,,,,,,,,0.6322,,,,,,,,,,,,,,,,,,,,,,610336af8890b00f2a4fff86,61036b52aba3bc0d1b42657b,2021-07-29_23h01.02.617,Simcolourproject_2stim_asymm_v5,2020.2.10,MacIntel,60,61025ae37ef11b136ea224fe,,,,,,,,,2887,-22.91015625,-34.10546875,1,0,0,response5disk,,3,-11.9765625,15.5,1,0,0,rectangle,-11.9765625,15.5,1,0,0,-11.9765625,15.5,1,0,0,1,77,237,109,1,,,,,,,,
,,,,,,,,,,,,,FF,,,,,,,,1.1657,,,,,,,,,,,,,,,,,,,,,,610336af8890b00f2a4fff86,61036b52aba3bc0d1b42657b,2021-07-29_23h01.02.617,Simcolourproject_2stim_asymm_v5,2020.2.10,MacIntel,60,61025ae37ef11b136ea224fe,,,,,,,,,538,39.75,85.7109375,1,0,0,response1disk,,7,6.01953125,-5.390625,1,0,0,rectangle,6.01953125,-5.390625,1,0,0,6.01953125,-5.390625,1,0,0,1,78,238,51,1,,,,,,,,
,,,,,,,,,,,,,FF,,,,,,,,0.7983,,,,,,,,,,,,,,,,,,,,,,610336af8890b00f2a4fff86,61036b52aba3bc0d1b42657b,2021-07-29_23h01.02.617,Simcolourproject_2stim_asymm_v5,2020.2.10,MacIntel,60,61025ae37ef11b136ea224fe,,,,,,,,,3904,24.87890625,-21.48046875,1,0,0,response3disk,,5,6.44140625,2.12109375,1,0,0,rectangle,6.44140625,2.12109375,1,0,0,6.44140625,2.12109375,1,0,0,1,79,239,29,1,,,,,,,,
,,,,,,,,,,,,,FF,,,,,,,,0.6487,,,,,,,,,,,,,,,,,,,,,,610336af8890b00f2a4fff86,61036b52aba3bc0d1b42657b,2021-07-29_23h01.02.617,Simcolourproject_2stim_asymm_v5,2020.2.10,MacIntel,60,61025ae37ef11b136ea224fe,,,,,,,,,4157,35.8125,-22.87890625,1,0,0,response3disk,,5,-4.5703125,14.9296875,1,0,0,rectangle,-4.5703125,14.9296875,1,0,0,-4.5703125,14.9296875,1,0,0,1,80,240,7,1,,,,,,,,
,,,,,,,,,,,,,FF,,,,,,,,0.8811,,,,,,,,,,,,,,,,,,,,,,610336af8890b00f2a4fff86,61036b52aba3bc0d1b42657b,2021-07-29_23h01.02.617,Simcolourproject_2stim_asymm_v5,2020.2.10,MacIntel,60,61025ae37ef11b136ea224fe,,,,,,,,,2621,50.20703125,-24.14453125,1,0,0,response3disk,,5,19.92578125,-9.9140625,1,0,0,rectangle,19.92578125,-9.9140625,1,0,0,19.92578125,-9.9140625,1,0,0,1,81,241,61,1,,,,,,,,
,,,,,,,,,,,,,FF,,,,,,,,0.9158,,,,,,,,,,,,,,,,,,,,,,610336af8890b00f2a4fff86,61036b52aba3bc0d1b42657b,2021-07-29_23h01.02.617,Simcolourproject_2stim_asymm_v5,2020.2.10,MacIntel,60,61025ae37ef11b136ea224fe,,,,,,,,,3482,34.4296875,-21.63671875,1,0,0,response3disk,,5,5.1328125,4.94140625,1,0,0,rectangle,5.1328125,4.94140625,1,0,0,5.1328125,4.94140625,1,0,0,1,82,242,12,1,,,,,,,,
,,,,,,,,,,,,,FF,,,,,,,,0.998,,,,,,,,,,,,,,,,,,,,,,610336af8890b00f2a4fff86,61036b52aba3bc0d1b42657b,2021-07-29_23h01.02.617,Simcolourproject_2stim_asymm_v5,2020.2.10,MacIntel,60,61025ae37ef11b136ea224fe,,,,,,,,,119,45.40234375,81.01953125,1,0,0,response1disk,,7,19.80859375,10.15625,1,0,0,rectangle,19.80859375,10.15625,1,0,0,19.80859375,10.15625,1,0,0,1,83,243,155,1,,,,,,,,
,,,,,,,,,,,,,FF,,,,,,,,0.6152,,,,,,,,,,,,,,,,,,,,,,610336af8890b00f2a4fff86,61036b52aba3bc0d1b42657b,2021-07-29_23h01.02.617,Simcolourproject_2stim_asymm_v5,2020.2.10,MacIntel,60,61025ae37ef11b136ea224fe,,,,,,,,,859,22.4609375,41.1171875,1,0,0,response1disk,,7,0.34765625,-3.3828125,1,0,0,rectangle,0.34765625,-3.3828125,1,0,0,0.34765625,-3.3828125,1,0,0,1,84,244,129,1,,,,,,,,
,,,,,,,,,,,,,FF,,,,,,,,0.6149,,,,,,,,,,,,,,,,,,,,,,610336af8890b00f2a4fff86,61036b52aba3bc0d1b42657b,2021-07-29_23h01.02.617,Simcolourproject_2stim_asymm_v5,2020.2.10,MacIntel,60,61025ae37ef11b136ea224fe,,,,,,,,,3774,20.03515625,46.90625,1,0,0,response1disk,,7,-2.89453125,-7.07421875,1,0,0,rectangle,-2.89453125,-7.07421875,1,0,0,-2.89453125,-7.07421875,1,0,0,1,85,245,76,1,,,,,,,,
,,,,,,,,,,,,,FF,,,,,,,,0.5823,,,,,,,,,,,,,,,,,,,,,,610336af8890b00f2a4fff86,61036b52aba3bc0d1b42657b,2021-07-29_23h01.02.617,Simcolourproject_2stim_asymm_v5,2020.2.10,MacIntel,60,61025ae37ef11b136ea224fe,,,,,,,,,2695,48.24609375,24.23828125,1,0,0,response1disk,,6,-6.94921875,0.96484375,1,0,0,rectangle,-6.94921875,0.96484375,1,0,0,-6.94921875,0.96484375,1,0,0,1,86,246,19,1,,,,,,,,
,,,,,,,,,,,,,FF,,,,,,,,0.9963,,,,,,,,,,,,,,,,,,,,,,610336af8890b00f2a4fff86,61036b52aba3bc0d1b42657b,2021-07-29_23h01.02.617,Simcolourproject_2stim_asymm_v5,2020.2.10,MacIntel,60,61025ae37ef11b136ea224fe,,,,,,,,,3959,28.17578125,57.3515625,1,0,0,response1disk,,7,5.9453125,-5.234375,1,0,0,rectangle,5.9453125,-5.234375,1,0,0,5.9453125,-5.234375,1,0,0,1,87,247,63,1,,,,,,,,
,,,,,,,,,,,,,FF,,,,,,,,0.4822,,,,,,,,,,,,,,,,,,,,,,610336af8890b00f2a4fff86,61036b52aba3bc0d1b42657b,2021-07-29_23h01.02.617,Simcolourproject_2stim_asymm_v5,2020.2.10,MacIntel,60,61025ae37ef11b136ea224fe,,,,,,,,,3521,22.19140625,66.671875,1,0,0,response1disk,,7,2.51171875,-1.1171875,1,0,0,rectangle,2.51171875,-1.1171875,1,0,0,2.51171875,-1.1171875,1,0,0,1,88,248,136,1,,,,,,,,
