key_resp.keys,key_resp.rt,key_resp_14.keys,key_resp_14.rt,key_resp_15.keys,key_resp_15.rt,key_resp_17.keys,key_resp_17.rt,key_resp_9.keys,key_resp_9.rt,key_resp_10.keys,key_resp_10.rt,practice_comparison,Ecc,mouse_5.x,mouse_5.y,mouse_5.leftButton,mouse_5.midButton,mouse_5.rightButton,mouse_5.clicked_name,pracsimilarity,response_time,mouse_10.x,mouse_10.y,mouse_10.leftButton,mouse_10.midButton,mouse_10.rightButton,mouse_10.clicked_name,mouse_7.x,mouse_7.y,mouse_7.leftButton,mouse_7.midButton,mouse_7.rightButton,mouse_6.x,mouse_6.y,mouse_6.leftButton,mouse_6.midButton,mouse_6.rightButton,duringprac.thisRepN,duringprac.thisTrialN,duringprac.thisN,duringprac.thisIndex,duringprac.ran,participant,session,date,expName,psychopyVersion,OS,frameRate,study_id,mouse_7.clicked_name,catchpracsimilarity,catch_response_time,catchnumberprac,catchtrialorderprac,mouse_6.clicked_name,key_resp_22.keys,key_resp_22.rt,realcomparison,mouse.x,mouse.y,mouse.leftButton,mouse.midButton,mouse.rightButton,mouse.clicked_name,Colour2,similarity,mouse_2.x,mouse_2.y,mouse_2.leftButton,mouse_2.midButton,mouse_2.rightButton,mouse_2.clicked_name,mouse_3.x,mouse_3.y,mouse_3.leftButton,mouse_3.midButton,mouse_3.rightButton,mouse_11.x,mouse_11.y,mouse_11.leftButton,mouse_11.midButton,mouse_11.rightButton,trials_2.thisRepN,trials_2.thisTrialN,trials_2.thisN,trials_2.thisIndex,trials_2.ran,Colour1,mouse_3.clicked_name,catchornah,catchsimilarity,catchnumber,catchtrialorder,catchRT,mouse_11.clicked_name
space,1.7225,space,11.4032,space,26.7644,space,12.8806,space,1.1675,space,5.437,149,PF,31.94470215,-86.14038086,1,0,0,response3disk_5,4,12.983,11.61297607,-3.864471436,1,0,0,rectangle_8,11.61297607,-3.864471436,1,0,0,11.61297607,-3.864471436,1,0,0,0,0,0,2,1,610328909dde1ee1a352daef,61036b5f7d4c69350054cb0e,2021-07-29_20h03.08.694,Simcolourproject_2stim_asymm_v5,2020.2.10,MacIntel,60,61025ae37ef11b136ea224fe,,,,,,,,,,,,,,,,,,,,,,,,,,,,,,,,,,,,,,,,,,,,,,
,,,,,,,,,,,,73,FF,99.34765625,38.13671875,1,0,0,response1disk_5,6,8.15,9.346984863,1.586608887,1,0,0,rectangle_8,50.01959229,-94.04974365,1,0,0,10.72784424,-1.238708496,1,0,0,0,1,1,0,1,610328909dde1ee1a352daef,61036b5f7d4c69350054cb0e,2021-07-29_20h03.08.694,Simcolourproject_2stim_asymm_v5,2020.2.10,MacIntel,60,61025ae37ef11b136ea224fe,response3disk_7,4,3.0333,4,"[2,5]",rectangle_4,,,,,,,,,,,,,,,,,,,,,,,,,,,,,,,,,,,,,,,,
,,,,,,,,,,,,71,FF,-81.16467285,-47.06729126,1,0,0,response5disk_5,2,5.4161,3.646728516,-2.270233154,1,0,0,rectangle_8,3.646728516,-2.270233154,1,0,0,3.646728516,-2.270233154,1,0,0,0,2,2,5,1,610328909dde1ee1a352daef,61036b5f7d4c69350054cb0e,2021-07-29_20h03.08.694,Simcolourproject_2stim_asymm_v5,2020.2.10,MacIntel,60,61025ae37ef11b136ea224fe,,,,,,,,,,,,,,,,,,,,,,,,,,,,,,,,,,,,,,,,,,,,,,
,,,,,,,,,,,,76,PF,-74.83959961,-48.00030518,1,0,0,response5disk_5,2,4.5501,11.06896973,-1.751678467,1,0,0,rectangle_8,11.06896973,-1.751678467,1,0,0,11.06896973,-1.751678467,1,0,0,0,3,3,1,1,610328909dde1ee1a352daef,61036b5f7d4c69350054cb0e,2021-07-29_20h03.08.694,Simcolourproject_2stim_asymm_v5,2020.2.10,MacIntel,60,61025ae37ef11b136ea224fe,,,,,,,,,,,,,,,,,,,,,,,,,,,,,,,,,,,,,,,,,,,,,,
,,,,,,,,,,,,74,PF,94.75170898,-36.88171387,1,0,0,response3disk_5,5,5.0159,11.3392334,-2.654144287,1,0,0,rectangle_8,54.72119141,-101.256897,1,0,0,17.27001953,1.767700195,1,0,0,0,4,4,4,1,610328909dde1ee1a352daef,61036b5f7d4c69350054cb0e,2021-07-29_20h03.08.694,Simcolourproject_2stim_asymm_v5,2020.2.10,MacIntel,60,61025ae37ef11b136ea224fe,response3disk_7,4,2.0344,4,"[2,5]",rectangle_4,,,,,,,,,,,,,,,,,,,,,,,,,,,,,,,,,,,,,,,,
,,,,,,,,,,,,145,FF,-60.74072266,-31.60107422,1,0,0,response5disk_5,2,1.7653,0.249023438,-5.963531494,1,0,0,rectangle_8,0.249023438,-5.963531494,1,0,0,0.249023438,-5.963531494,1,0,0,0,5,5,3,1,610328909dde1ee1a352daef,61036b5f7d4c69350054cb0e,2021-07-29_20h03.08.694,Simcolourproject_2stim_asymm_v5,2020.2.10,MacIntel,60,61025ae37ef11b136ea224fe,,,,,,,,,,,,,,,,,,,,,,,,,,,,,,,,,,,,,,,,,,,,,,
,,,,,,,,,,,,93,PF,-75.50292969,-28.88623047,1,0,0,response5disk_5,2,3.3011,-2.0546875,-6.770446777,1,0,0,rectangle_8,-2.0546875,-6.770446777,1,0,0,-2.0546875,-6.770446777,1,0,0,0,6,6,6,1,610328909dde1ee1a352daef,61036b5f7d4c69350054cb0e,2021-07-29_20h03.08.694,Simcolourproject_2stim_asymm_v5,2020.2.10,MacIntel,60,61025ae37ef11b136ea224fe,,,,,,,,,,,,,,,,,,,,,,,,,,,,,,,,,,,,,,,,,,,,,,
,,,,,,,,,,,,,FF,,,,,,,,1.333,,,,,,,,,,,,,,,,,,,,,,610328909dde1ee1a352daef,61036b5f7d4c69350054cb0e,2021-07-29_20h03.08.694,Simcolourproject_2stim_asymm_v5,2020.2.10,MacIntel,60,61025ae37ef11b136ea224fe,,,,,,,space,2.5495,4267,-75.50830078,-42.21392822,1,0,0,response5disk,,2,20.60876465,4.018951416,1,0,0,rectangle,20.60876465,4.018951416,1,0,0,20.60876465,4.018951416,1,0,0,0,0,0,142,1,,,,,,,,
,,,,,,,,,,,,,FF,,,,,,,,1.7829,,,,,,,,,,,,,,,,,,,,,,610328909dde1ee1a352daef,61036b5f7d4c69350054cb0e,2021-07-29_20h03.08.694,Simcolourproject_2stim_asymm_v5,2020.2.10,MacIntel,60,61025ae37ef11b136ea224fe,,,,,,,,,3951,-74.45007324,-33.30297852,1,0,0,response5disk,,2,-12.97460938,-0.192565918,1,0,0,rectangle,-12.97460938,-0.192565918,1,0,0,-12.97460938,-0.192565918,1,0,0,0,1,1,7,1,,,,,,,,
,,,,,,,,,,,,,FF,,,,,,,,2.166,,,,,,,,,,,,,,,,,,,,,,610328909dde1ee1a352daef,61036b5f7d4c69350054cb0e,2021-07-29_20h03.08.694,Simcolourproject_2stim_asymm_v5,2020.2.10,MacIntel,60,61025ae37ef11b136ea224fe,,,,,,,,,2394,68.49310303,-27.28329468,1,0,0,response3disk,,5,21.99414063,-1.153015137,1,0,0,rectangle,21.99414063,-1.153015137,1,0,0,21.99414063,-1.153015137,1,0,0,0,2,2,140,1,,,,,,,,
,,,,,,,,,,,,,FF,,,,,,,,1.3821,,,,,,,,,,,,,,,,,,,,,,610328909dde1ee1a352daef,61036b5f7d4c69350054cb0e,2021-07-29_20h03.08.694,Simcolourproject_2stim_asymm_v5,2020.2.10,MacIntel,60,61025ae37ef11b136ea224fe,,,,,,,,,3514,-32.46520996,-72.72436523,1,0,0,response5disk,,3,2.786865234,0.015686035,1,0,0,rectangle,2.786865234,0.015686035,1,0,0,2.786865234,0.015686035,1,0,0,0,3,3,36,1,,,,,,,,
,,,,,,,,,,,,,FF,,,,,,,,1.4511,,,,,,,,,,,,,,,,,,,,,,610328909dde1ee1a352daef,61036b5f7d4c69350054cb0e,2021-07-29_20h03.08.694,Simcolourproject_2stim_asymm_v5,2020.2.10,MacIntel,60,61025ae37ef11b136ea224fe,,,,,,,,,1035,-27.89013672,-78.82318115,1,0,0,response5disk,,3,-8.43762207,-8.468231201,1,0,0,rectangle,-8.43762207,-8.468231201,1,0,0,-8.43762207,-8.468231201,1,0,0,0,4,4,70,1,,,,,,,,
,,,,,,,,,,,,,FF,,,,,,,,1.7491,,,,,,,,,,,,,,,,,,,,,,610328909dde1ee1a352daef,61036b5f7d4c69350054cb0e,2021-07-29_20h03.08.694,Simcolourproject_2stim_asymm_v5,2020.2.10,MacIntel,60,61025ae37ef11b136ea224fe,,,,,,,,,3991,58.38995361,-31.54879761,1,0,0,response3disk,,5,11.24072266,-3.12286377,1,0,0,rectangle,11.24072266,-3.12286377,1,0,0,11.24072266,-3.12286377,1,0,0,0,5,5,113,1,,,,,,,,
,,,,,,,,,,,,,FF,,,,,,,,1.6839,,,,,,,,,,,,,,,,,,,,,,610328909dde1ee1a352daef,61036b5f7d4c69350054cb0e,2021-07-29_20h03.08.694,Simcolourproject_2stim_asymm_v5,2020.2.10,MacIntel,60,61025ae37ef11b136ea224fe,,,,,,,,,1031,39.78448486,-84.36700439,1,0,0,response3disk,,4,4.51348877,4.376464844,1,0,0,rectangle,4.51348877,4.376464844,1,0,0,4.51348877,4.376464844,1,0,0,0,6,6,116,1,,,,,,,,
,,,,,,,,,,,,,FF,,,,,,,,3.1671,,,,,,,,,,,,,,,,,,,,,,610328909dde1ee1a352daef,61036b5f7d4c69350054cb0e,2021-07-29_20h03.08.694,Simcolourproject_2stim_asymm_v5,2020.2.10,MacIntel,60,61025ae37ef11b136ea224fe,,,,,,,,,3205,-43.79779053,-80.27947998,1,0,0,response5disk,,3,-10.93225098,-4.580993652,1,0,0,rectangle,-10.93225098,-4.580993652,1,0,0,-10.93225098,-4.580993652,1,0,0,0,7,7,27,1,,,,,,,,
,,,,,,,,,,,,,FF,,,,,,,,2.5658,,,,,,,,,,,,,,,,,,,,,,610328909dde1ee1a352daef,61036b5f7d4c69350054cb0e,2021-07-29_20h03.08.694,Simcolourproject_2stim_asymm_v5,2020.2.10,MacIntel,60,61025ae37ef11b136ea224fe,,,,,,,,,1224,-36.04785156,-76.86138916,1,0,0,response5disk,,3,-0.825744629,0.81729126,1,0,0,rectangle,-0.825744629,0.81729126,1,0,0,-0.825744629,0.81729126,1,0,0,0,8,8,86,1,,,,,,,,
,,,,,,,,,,,,,FF,,,,,,,,1.2501,,,,,,,,,,,,,,,,,,,,,,610328909dde1ee1a352daef,61036b5f7d4c69350054cb0e,2021-07-29_20h03.08.694,Simcolourproject_2stim_asymm_v5,2020.2.10,MacIntel,60,61025ae37ef11b136ea224fe,,,,,,,,,162,-65.23486328,-44.4354248,1,0,0,response5disk,,2,-4.207275391,-1.273254395,1,0,0,rectangle,-4.207275391,-1.273254395,1,0,0,-4.207275391,-1.273254395,1,0,0,0,9,9,71,1,,,,,,,,
,,,,,,,,,,,,,FF,,,,,,,,1.4009,,,,,,,,,,,,,,,,,,,,,,610328909dde1ee1a352daef,61036b5f7d4c69350054cb0e,2021-07-29_20h03.08.694,Simcolourproject_2stim_asymm_v5,2020.2.10,MacIntel,60,61025ae37ef11b136ea224fe,,,,,,,,,2777,-66.94250488,33.89874268,1,0,0,response7disk,,1,-7.112792969,2.129119873,1,0,0,rectangle,-78.55950928,47.33850098,1,0,0,7.138916016,-0.267150879,1,0,0,0,10,10,143,1,,response7disk_3,TRUE,1,1,"[159,88,79,63,268,56,231,232,55,209,256,147,196,244,201,154,11,239,266,106]",1.5492,rectangle
,,,,,,,,,,,,,FF,,,,,,,,1.7342,,,,,,,,,,,,,,,,,,,,,,610328909dde1ee1a352daef,61036b5f7d4c69350054cb0e,2021-07-29_20h03.08.694,Simcolourproject_2stim_asymm_v5,2020.2.10,MacIntel,60,61025ae37ef11b136ea224fe,,,,,,,,,1045,93.93432617,-43.49371338,1,0,0,response3disk,,5,3.090454102,0.880706787,1,0,0,rectangle,3.090454102,0.880706787,1,0,0,3.090454102,0.880706787,1,0,0,0,11,11,25,1,,,,,,,,
,,,,,,,,,,,,,FF,,,,,,,,2.5653,,,,,,,,,,,,,,,,,,,,,,610328909dde1ee1a352daef,61036b5f7d4c69350054cb0e,2021-07-29_20h03.08.694,Simcolourproject_2stim_asymm_v5,2020.2.10,MacIntel,60,61025ae37ef11b136ea224fe,,,,,,,,,2070,38.50238037,-66.17425537,1,0,0,response3disk,,4,8.638549805,-10.93762207,1,0,0,rectangle,8.638549805,-10.93762207,1,0,0,8.638549805,-10.93762207,1,0,0,0,12,12,54,1,,,,,,,,
,,,,,,,,,,,,,FF,,,,,,,,1.7164,,,,,,,,,,,,,,,,,,,,,,610328909dde1ee1a352daef,61036b5f7d4c69350054cb0e,2021-07-29_20h03.08.694,Simcolourproject_2stim_asymm_v5,2020.2.10,MacIntel,60,61025ae37ef11b136ea224fe,,,,,,,,,1468,-58.9364624,-102.1618652,1,0,0,response5disk,,3,-0.41809082,7.663696289,1,0,0,rectangle,-0.41809082,7.663696289,1,0,0,-0.41809082,7.663696289,1,0,0,0,13,13,51,1,,,,,,,,
,,,,,,,,,,,,,FF,,,,,,,,2.1325,,,,,,,,,,,,,,,,,,,,,,610328909dde1ee1a352daef,61036b5f7d4c69350054cb0e,2021-07-29_20h03.08.694,Simcolourproject_2stim_asymm_v5,2020.2.10,MacIntel,60,61025ae37ef11b136ea224fe,,,,,,,,,1230,-64.32647705,-45.6451416,1,0,0,response5disk,,2,-11.63201904,-13.10284424,1,0,0,rectangle,-11.63201904,-13.10284424,1,0,0,-11.63201904,-13.10284424,1,0,0,0,14,14,137,1,,,,,,,,
,,,,,,,,,,,,,FF,,,,,,,,1.4672,,,,,,,,,,,,,,,,,,,,,,610328909dde1ee1a352daef,61036b5f7d4c69350054cb0e,2021-07-29_20h03.08.694,Simcolourproject_2stim_asymm_v5,2020.2.10,MacIntel,60,61025ae37ef11b136ea224fe,,,,,,,,,476,44.03179932,-57.83752441,1,0,0,response3disk,,4,14.92358398,-5.860107422,1,0,0,rectangle,14.92358398,-5.860107422,1,0,0,14.92358398,-5.860107422,1,0,0,0,15,15,61,1,,,,,,,,
,,,,,,,,,,,,,FF,,,,,,,,1.2,,,,,,,,,,,,,,,,,,,,,,610328909dde1ee1a352daef,61036b5f7d4c69350054cb0e,2021-07-29_20h03.08.694,Simcolourproject_2stim_asymm_v5,2020.2.10,MacIntel,60,61025ae37ef11b136ea224fe,,,,,,,,,1749,-32.38146973,-77.84069824,1,0,0,response5disk,,3,-9.171264648,-3.556762695,1,0,0,rectangle,-9.171264648,-3.556762695,1,0,0,-9.171264648,-3.556762695,1,0,0,0,16,16,141,1,,,,,,,,
,,,,,,,,,,,,,FF,,,,,,,,2.7507,,,,,,,,,,,,,,,,,,,,,,610328909dde1ee1a352daef,61036b5f7d4c69350054cb0e,2021-07-29_20h03.08.694,Simcolourproject_2stim_asymm_v5,2020.2.10,MacIntel,60,61025ae37ef11b136ea224fe,,,,,,,,,1790,38.30535889,-68.15509033,1,0,0,response3disk,,4,24.79412842,7.086456299,1,0,0,rectangle,24.79412842,7.086456299,1,0,0,24.79412842,7.086456299,1,0,0,0,17,17,82,1,,,,,,,,
,,,,,,,,,,,,,FF,,,,,,,,2.5005,,,,,,,,,,,,,,,,,,,,,,610328909dde1ee1a352daef,61036b5f7d4c69350054cb0e,2021-07-29_20h03.08.694,Simcolourproject_2stim_asymm_v5,2020.2.10,MacIntel,60,61025ae37ef11b136ea224fe,,,,,,,,,1438,-41.82910156,-92.20953369,1,0,0,response5disk,,3,-7.482788086,1.161315918,1,0,0,rectangle,-7.482788086,1.161315918,1,0,0,-7.482788086,1.161315918,1,0,0,0,18,18,58,1,,,,,,,,
,,,,,,,,,,,,,FF,,,,,,,,1.7997,,,,,,,,,,,,,,,,,,,,,,610328909dde1ee1a352daef,61036b5f7d4c69350054cb0e,2021-07-29_20h03.08.694,Simcolourproject_2stim_asymm_v5,2020.2.10,MacIntel,60,61025ae37ef11b136ea224fe,,,,,,,,,829,-32.55102539,-58.72915649,1,0,0,response5disk,,3,10.78851318,6.096343994,1,0,0,rectangle,10.78851318,6.096343994,1,0,0,10.78851318,6.096343994,1,0,0,0,19,19,10,1,,,,,,,,
,,,,,,,,,,,,,FF,,,,,,,,1.3673,,,,,,,,,,,,,,,,,,,,,,610328909dde1ee1a352daef,61036b5f7d4c69350054cb0e,2021-07-29_20h03.08.694,Simcolourproject_2stim_asymm_v5,2020.2.10,MacIntel,60,61025ae37ef11b136ea224fe,,,,,,,,,2419,-38.39343262,-65.12451172,1,0,0,response5disk,,3,-10.81561279,6.720184326,1,0,0,rectangle,-10.81561279,6.720184326,1,0,0,-10.81561279,6.720184326,1,0,0,0,20,20,144,1,,,,,,,,
,,,,,,,,,,,,,FF,,,,,,,,2.8489,,,,,,,,,,,,,,,,,,,,,,610328909dde1ee1a352daef,61036b5f7d4c69350054cb0e,2021-07-29_20h03.08.694,Simcolourproject_2stim_asymm_v5,2020.2.10,MacIntel,60,61025ae37ef11b136ea224fe,,,,,,,,,114,37.64312744,-53.33016968,1,0,0,response3disk,,4,15.58654785,-8.054626465,1,0,0,rectangle,15.58654785,-8.054626465,1,0,0,15.58654785,-8.054626465,1,0,0,0,21,21,148,1,,,,,,,,
,,,,,,,,,,,,,FF,,,,,,,,2.6338,,,,,,,,,,,,,,,,,,,,,,610328909dde1ee1a352daef,61036b5f7d4c69350054cb0e,2021-07-29_20h03.08.694,Simcolourproject_2stim_asymm_v5,2020.2.10,MacIntel,60,61025ae37ef11b136ea224fe,,,,,,,,,2953,-29.94390869,-91.62207031,1,0,0,response5disk,,3,-16.51983643,-11.51324463,1,0,0,rectangle,-16.51983643,-11.51324463,1,0,0,-16.51983643,-11.51324463,1,0,0,0,22,22,104,1,,,,,,,,
,,,,,,,,,,,,,FF,,,,,,,,1.1338,,,,,,,,,,,,,,,,,,,,,,610328909dde1ee1a352daef,61036b5f7d4c69350054cb0e,2021-07-29_20h03.08.694,Simcolourproject_2stim_asymm_v5,2020.2.10,MacIntel,60,61025ae37ef11b136ea224fe,,,,,,,,,1557,35.94293213,-61.70083618,1,0,0,response3disk,,4,23.85223389,-1.350036621,1,0,0,rectangle,23.85223389,-1.350036621,1,0,0,23.85223389,-1.350036621,1,0,0,0,23,23,159,1,,,,,,,,
,,,,,,,,,,,,,FF,,,,,,,,1.2501,,,,,,,,,,,,,,,,,,,,,,610328909dde1ee1a352daef,61036b5f7d4c69350054cb0e,2021-07-29_20h03.08.694,Simcolourproject_2stim_asymm_v5,2020.2.10,MacIntel,60,61025ae37ef11b136ea224fe,,,,,,,,,3454,48.76318359,-70.66204834,1,0,0,response3disk,,4,11.74749756,3.329772949,1,0,0,rectangle,11.74749756,3.329772949,1,0,0,11.74749756,3.329772949,1,0,0,0,24,24,18,1,,,,,,,,
,,,,,,,,,,,,,FF,,,,,,,,1.4833,,,,,,,,,,,,,,,,,,,,,,610328909dde1ee1a352daef,61036b5f7d4c69350054cb0e,2021-07-29_20h03.08.694,Simcolourproject_2stim_asymm_v5,2020.2.10,MacIntel,60,61025ae37ef11b136ea224fe,,,,,,,,,1137,-70.67340088,-47.17510986,1,0,0,response5disk,,2,-22.59643555,-7.930114746,1,0,0,rectangle,-22.59643555,-7.930114746,1,0,0,-22.59643555,-7.930114746,1,0,0,0,25,25,154,1,,,,,,,,
,,,,,,,,,,,,,FF,,,,,,,,0.7336,,,,,,,,,,,,,,,,,,,,,,610328909dde1ee1a352daef,61036b5f7d4c69350054cb0e,2021-07-29_20h03.08.694,Simcolourproject_2stim_asymm_v5,2020.2.10,MacIntel,60,61025ae37ef11b136ea224fe,,,,,,,,,3434,-72.75695801,-50.89215088,1,0,0,response5disk,,2,-13.87988281,-4.801239014,1,0,0,rectangle,-13.87988281,-4.801239014,1,0,0,-13.87988281,-4.801239014,1,0,0,0,26,26,122,1,,,,,,,,
,,,,,,,,,,,,,FF,,,,,,,,0.9828,,,,,,,,,,,,,,,,,,,,,,610328909dde1ee1a352daef,61036b5f7d4c69350054cb0e,2021-07-29_20h03.08.694,Simcolourproject_2stim_asymm_v5,2020.2.10,MacIntel,60,61025ae37ef11b136ea224fe,,,,,,,,,135,50.93933105,-72.38793945,1,0,0,response3disk,,4,15.71240234,-5.049804688,1,0,0,rectangle,15.71240234,-5.049804688,1,0,0,15.71240234,-5.049804688,1,0,0,0,27,27,132,1,,,,,,,,
,,,,,,,,,,,,,FF,,,,,,,,1.0501,,,,,,,,,,,,,,,,,,,,,,610328909dde1ee1a352daef,61036b5f7d4c69350054cb0e,2021-07-29_20h03.08.694,Simcolourproject_2stim_asymm_v5,2020.2.10,MacIntel,60,61025ae37ef11b136ea224fe,,,,,,,,,1570,46.71881104,-76.51599121,1,0,0,response3disk,,4,18.01599121,-4.085876465,1,0,0,rectangle,18.01599121,-4.085876465,1,0,0,18.01599121,-4.085876465,1,0,0,0,28,28,88,1,,,,,,,,
,,,,,,,,,,,,,FF,,,,,,,,1.1675,,,,,,,,,,,,,,,,,,,,,,610328909dde1ee1a352daef,61036b5f7d4c69350054cb0e,2021-07-29_20h03.08.694,Simcolourproject_2stim_asymm_v5,2020.2.10,MacIntel,60,61025ae37ef11b136ea224fe,,,,,,,,,3519,-34.63293457,-84.30133057,1,0,0,response5disk,,3,0.073669434,-2.244842529,1,0,0,rectangle,0.073669434,-2.244842529,1,0,0,0.073669434,-2.244842529,1,0,0,0,29,29,46,1,,,,,,,,
,,,,,,,,,,,,,FF,,,,,,,,1.2826,,,,,,,,,,,,,,,,,,,,,,610328909dde1ee1a352daef,61036b5f7d4c69350054cb0e,2021-07-29_20h03.08.694,Simcolourproject_2stim_asymm_v5,2020.2.10,MacIntel,60,61025ae37ef11b136ea224fe,,,,,,,,,419,70.67749023,-32.53939819,1,0,0,response3disk,,5,19.70111084,8.938537598,1,0,0,rectangle,19.70111084,8.938537598,1,0,0,19.70111084,8.938537598,1,0,0,0,30,30,139,1,,,,,,,,
,,,,,,,,,,,,,FF,,,,,,,,1.4671,,,,,,,,,,,,,,,,,,,,,,610328909dde1ee1a352daef,61036b5f7d4c69350054cb0e,2021-07-29_20h03.08.694,Simcolourproject_2stim_asymm_v5,2020.2.10,MacIntel,60,61025ae37ef11b136ea224fe,,,,,,,,,3958,29.84832764,-56.2354126,1,0,0,response3disk,,4,14.36590576,-2.524597168,1,0,0,rectangle,14.36590576,-2.524597168,1,0,0,14.36590576,-2.524597168,1,0,0,0,31,31,87,1,,,,,,,,
,,,,,,,,,,,,,FF,,,,,,,,0.9324,,,,,,,,,,,,,,,,,,,,,,610328909dde1ee1a352daef,61036b5f7d4c69350054cb0e,2021-07-29_20h03.08.694,Simcolourproject_2stim_asymm_v5,2020.2.10,MacIntel,60,61025ae37ef11b136ea224fe,,,,,,,,,3849,-36.51434326,-62.9934082,1,0,0,response5disk,,3,-6.146911621,1.805358887,1,0,0,rectangle,-6.146911621,1.805358887,1,0,0,-6.146911621,1.805358887,1,0,0,0,32,32,35,1,,,,,,,,
,,,,,,,,,,,,,FF,,,,,,,,1.2673,,,,,,,,,,,,,,,,,,,,,,610328909dde1ee1a352daef,61036b5f7d4c69350054cb0e,2021-07-29_20h03.08.694,Simcolourproject_2stim_asymm_v5,2020.2.10,MacIntel,60,61025ae37ef11b136ea224fe,,,,,,,,,2177,-38.15802002,-73.55517578,1,0,0,response5disk,,3,-11.6774292,-0.321716309,1,0,0,rectangle,-11.6774292,-0.321716309,1,0,0,-11.6774292,-0.321716309,1,0,0,0,33,33,89,1,,,,,,,,
,,,,,,,,,,,,,FF,,,,,,,,1.2996,,,,,,,,,,,,,,,,,,,,,,610328909dde1ee1a352daef,61036b5f7d4c69350054cb0e,2021-07-29_20h03.08.694,Simcolourproject_2stim_asymm_v5,2020.2.10,MacIntel,60,61025ae37ef11b136ea224fe,,,,,,,,,1016,59.28527832,-37.31903076,1,0,0,response3disk,,5,19.24969482,1.540283203,1,0,0,rectangle,19.24969482,1.540283203,1,0,0,19.24969482,1.540283203,1,0,0,0,34,34,38,1,,,,,,,,
,,,,,,,,,,,,,FF,,,,,,,,0.8001,,,,,,,,,,,,,,,,,,,,,,610328909dde1ee1a352daef,61036b5f7d4c69350054cb0e,2021-07-29_20h03.08.694,Simcolourproject_2stim_asymm_v5,2020.2.10,MacIntel,60,61025ae37ef11b136ea224fe,,,,,,,,,2661,-70.06164551,-33.39691162,1,0,0,response5disk,,2,5.64654541,4.782043457,1,0,0,rectangle,5.64654541,4.782043457,1,0,0,5.64654541,4.782043457,1,0,0,0,35,35,6,1,,,,,,,,
,,,,,,,,,,,,,FF,,,,,,,,1.0999,,,,,,,,,,,,,,,,,,,,,,610328909dde1ee1a352daef,61036b5f7d4c69350054cb0e,2021-07-29_20h03.08.694,Simcolourproject_2stim_asymm_v5,2020.2.10,MacIntel,60,61025ae37ef11b136ea224fe,,,,,,,,,3959,-23.24456787,-65.57141113,1,0,0,response5disk,,3,-6.398681641,-1.311706543,1,0,0,rectangle,-6.398681641,-1.311706543,1,0,0,-6.398681641,-1.311706543,1,0,0,0,36,36,44,1,,,,,,,,
,,,,,,,,,,,,,FF,,,,,,,,1.7166,,,,,,,,,,,,,,,,,,,,,,610328909dde1ee1a352daef,61036b5f7d4c69350054cb0e,2021-07-29_20h03.08.694,Simcolourproject_2stim_asymm_v5,2020.2.10,MacIntel,60,61025ae37ef11b136ea224fe,,,,,,,,,3181,31.61584473,-74.29431152,1,0,0,response3disk,,4,13.66650391,5.747619629,1,0,0,rectangle,13.66650391,5.747619629,1,0,0,13.66650391,5.747619629,1,0,0,0,37,37,124,1,,,,,,,,
,,,,,,,,,,,,,FF,,,,,,,,1.3657,,,,,,,,,,,,,,,,,,,,,,610328909dde1ee1a352daef,61036b5f7d4c69350054cb0e,2021-07-29_20h03.08.694,Simcolourproject_2stim_asymm_v5,2020.2.10,MacIntel,60,61025ae37ef11b136ea224fe,,,,,,,,,623,-41.80426025,-74.17523193,1,0,0,response5disk,,3,-7.946899414,-3.750488281,1,0,0,rectangle,-7.946899414,-3.750488281,1,0,0,-7.946899414,-3.750488281,1,0,0,0,38,38,64,1,,,,,,,,
,,,,,,,,,,,,,FF,,,,,,,,1.1179,,,,,,,,,,,,,,,,,,,,,,610328909dde1ee1a352daef,61036b5f7d4c69350054cb0e,2021-07-29_20h03.08.694,Simcolourproject_2stim_asymm_v5,2020.2.10,MacIntel,60,61025ae37ef11b136ea224fe,,,,,,,,,145,33.44171143,-78.49707031,1,0,0,response3disk,,4,16.51135254,-3.05682373,1,0,0,rectangle,16.51135254,-3.05682373,1,0,0,16.51135254,-3.05682373,1,0,0,0,39,39,43,1,,,,,,,,
,,,,,,,,,,,,,FF,,,,,,,,3.9495,,,,,,,,,,,,,,,,,,,,,,610328909dde1ee1a352daef,61036b5f7d4c69350054cb0e,2021-07-29_20h03.08.694,Simcolourproject_2stim_asymm_v5,2020.2.10,MacIntel,60,61025ae37ef11b136ea224fe,,,,,,,,,421,42.40008545,-71.62188721,1,0,0,response3disk,,4,22.02636719,-17.98547363,1,0,0,rectangle,22.02636719,-17.98547363,1,0,0,22.02636719,-17.98547363,1,0,0,0,40,40,111,1,,,,,,,,
,,,,,,,,,,,,,FF,,,,,,,,1.3327,,,,,,,,,,,,,,,,,,,,,,610328909dde1ee1a352daef,61036b5f7d4c69350054cb0e,2021-07-29_20h03.08.694,Simcolourproject_2stim_asymm_v5,2020.2.10,MacIntel,60,61025ae37ef11b136ea224fe,,,,,,,,,2093,-76.34155273,26.63378906,1,0,0,response7disk,,1,19.5032959,-5.044799805,1,0,0,rectangle,19.5032959,-5.044799805,1,0,0,19.5032959,-5.044799805,1,0,0,0,41,41,90,1,,,,,,,,
,,,,,,,,,,,,,FF,,,,,,,,1.7339,,,,,,,,,,,,,,,,,,,,,,610328909dde1ee1a352daef,61036b5f7d4c69350054cb0e,2021-07-29_20h03.08.694,Simcolourproject_2stim_asymm_v5,2020.2.10,MacIntel,60,61025ae37ef11b136ea224fe,,,,,,,,,468,-66.65869141,-31.44430542,1,0,0,response5disk,,2,12.61462402,-1.290313721,1,0,0,rectangle,12.61462402,-1.290313721,1,0,0,12.61462402,-1.290313721,1,0,0,0,42,42,103,1,,,,,,,,
,,,,,,,,,,,,,FF,,,,,,,,1.5001,,,,,,,,,,,,,,,,,,,,,,610328909dde1ee1a352daef,61036b5f7d4c69350054cb0e,2021-07-29_20h03.08.694,Simcolourproject_2stim_asymm_v5,2020.2.10,MacIntel,60,61025ae37ef11b136ea224fe,,,,,,,,,3503,-52.8260498,-23.19137573,1,0,0,response5disk,,2,-0.619140625,4.508880615,1,0,0,rectangle,-0.619140625,4.508880615,1,0,0,-0.619140625,4.508880615,1,0,0,0,43,43,130,1,,,,,,,,
,,,,,,,,,,,,,FF,,,,,,,,1.6345,,,,,,,,,,,,,,,,,,,,,,610328909dde1ee1a352daef,61036b5f7d4c69350054cb0e,2021-07-29_20h03.08.694,Simcolourproject_2stim_asymm_v5,2020.2.10,MacIntel,60,61025ae37ef11b136ea224fe,,,,,,,,,109,19.61169434,-60.07092285,1,0,0,response3disk,,4,10.95391846,-11.18862915,1,0,0,rectangle,10.95391846,-11.18862915,1,0,0,10.95391846,-11.18862915,1,0,0,0,44,44,156,1,,,,,,,,
,,,,,,,,,,,,,FF,,,,,,,,2.2171,,,,,,,,,,,,,,,,,,,,,,610328909dde1ee1a352daef,61036b5f7d4c69350054cb0e,2021-07-29_20h03.08.694,Simcolourproject_2stim_asymm_v5,2020.2.10,MacIntel,60,61025ae37ef11b136ea224fe,,,,,,,,,528,-84.66723633,-38.98718262,1,0,0,response5disk,,2,-21.14434814,-3.999511719,1,0,0,rectangle,-21.14434814,-3.999511719,1,0,0,-21.14434814,-3.999511719,1,0,0,0,45,45,1,1,,,,,,,,
,,,,,,,,,,,,,FF,,,,,,,,2.7509,,,,,,,,,,,,,,,,,,,,,,610328909dde1ee1a352daef,61036b5f7d4c69350054cb0e,2021-07-29_20h03.08.694,Simcolourproject_2stim_asymm_v5,2020.2.10,MacIntel,60,61025ae37ef11b136ea224fe,,,,,,,,,3643,43.66351318,-54.55999756,1,0,0,response3disk,,4,19.29455566,-10.72711182,1,0,0,rectangle,19.29455566,-10.72711182,1,0,0,19.29455566,-10.72711182,1,0,0,0,46,46,110,1,,,,,,,,
,,,,,,,,,,,,,FF,,,,,,,,1.2336,,,,,,,,,,,,,,,,,,,,,,610328909dde1ee1a352daef,61036b5f7d4c69350054cb0e,2021-07-29_20h03.08.694,Simcolourproject_2stim_asymm_v5,2020.2.10,MacIntel,60,61025ae37ef11b136ea224fe,,,,,,,,,220,41.63134766,-57.65032959,1,0,0,response3disk,,4,26.41253662,2.388549805,1,0,0,rectangle,26.41253662,2.388549805,1,0,0,26.41253662,2.388549805,1,0,0,0,47,47,78,1,,,,,,,,
,,,,,,,,,,,,,FF,,,,,,,,0.983,,,,,,,,,,,,,,,,,,,,,,610328909dde1ee1a352daef,61036b5f7d4c69350054cb0e,2021-07-29_20h03.08.694,Simcolourproject_2stim_asymm_v5,2020.2.10,MacIntel,60,61025ae37ef11b136ea224fe,,,,,,,,,1300,-45.19592285,-61.765625,1,0,0,response5disk,,3,8.765563965,2.566833496,1,0,0,rectangle,8.765563965,2.566833496,1,0,0,8.765563965,2.566833496,1,0,0,0,48,48,52,1,,,,,,,,
,,,,,,,,,,,,,FF,,,,,,,,1.5004,,,,,,,,,,,,,,,,,,,,,,610328909dde1ee1a352daef,61036b5f7d4c69350054cb0e,2021-07-29_20h03.08.694,Simcolourproject_2stim_asymm_v5,2020.2.10,MacIntel,60,61025ae37ef11b136ea224fe,,,,,,,,,3301,-32.4387207,-40.50958252,1,0,0,response5disk,,3,-10.0491333,4.531951904,1,0,0,rectangle,-10.0491333,4.531951904,1,0,0,-10.0491333,4.531951904,1,0,0,0,49,49,138,1,,,,,,,,
,,,,,,,,,,,,,FF,,,,,,,,3.1002,,,,,,,,,,,,,,,,,,,,,,610328909dde1ee1a352daef,61036b5f7d4c69350054cb0e,2021-07-29_20h03.08.694,Simcolourproject_2stim_asymm_v5,2020.2.10,MacIntel,60,61025ae37ef11b136ea224fe,,,,,,,,,2137,38.73602295,-44.98248291,1,0,0,response3disk,,4,30.75158691,-3.477020264,1,0,0,rectangle,30.75158691,-3.477020264,1,0,0,30.75158691,-3.477020264,1,0,0,0,50,50,79,1,,,,,,,,
,,,,,,,,,,,,,FF,,,,,,,,3.5346,,,,,,,,,,,,,,,,,,,,,,610328909dde1ee1a352daef,61036b5f7d4c69350054cb0e,2021-07-29_20h03.08.694,Simcolourproject_2stim_asymm_v5,2020.2.10,MacIntel,60,61025ae37ef11b136ea224fe,,,,,,,,,854,23.83056641,-39.6138916,1,0,0,response3disk,,4,22.67102051,-0.897949219,1,0,0,rectangle,22.67102051,-0.897949219,1,0,0,22.67102051,-0.897949219,1,0,0,0,51,51,107,1,,,,,,,,
,,,,,,,,,,,,,FF,,,,,,,,1.0163,,,,,,,,,,,,,,,,,,,,,,610328909dde1ee1a352daef,61036b5f7d4c69350054cb0e,2021-07-29_20h03.08.694,Simcolourproject_2stim_asymm_v5,2020.2.10,MacIntel,60,61025ae37ef11b136ea224fe,,,,,,,,,232,45.03411865,-22.80102539,1,0,0,response3disk,,5,0.508117676,5.852600098,1,0,0,rectangle,0.508117676,5.852600098,1,0,0,0.508117676,5.852600098,1,0,0,0,52,52,17,1,,,,,,,,
,,,,,,,,,,,,,FF,,,,,,,,1.3993,,,,,,,,,,,,,,,,,,,,,,610328909dde1ee1a352daef,61036b5f7d4c69350054cb0e,2021-07-29_20h03.08.694,Simcolourproject_2stim_asymm_v5,2020.2.10,MacIntel,60,61025ae37ef11b136ea224fe,,,,,,,,,3711,-70.48248291,-20.83169556,1,0,0,response5disk,,2,-4.578674316,4.965942383,1,0,0,rectangle,-4.578674316,4.965942383,1,0,0,-4.578674316,4.965942383,1,0,0,0,53,53,3,1,,,,,,,,
,,,,,,,,,,,,,FF,,,,,,,,1.8657,,,,,,,,,,,,,,,,,,,,,,610328909dde1ee1a352daef,61036b5f7d4c69350054cb0e,2021-07-29_20h03.08.694,Simcolourproject_2stim_asymm_v5,2020.2.10,MacIntel,60,61025ae37ef11b136ea224fe,,,,,,,,,3349,-33.70892334,-62.98852539,1,0,0,response5disk,,3,-10.04589844,2.118774414,1,0,0,rectangle,-73.60760498,29.9197998,1,0,0,6.731323242,-8.234741211,1,0,0,0,54,54,60,1,,response7disk_3,TRUE,1,1,"[159,88,79,63,268,56,231,232,55,209,256,147,196,244,201,154,11,239,266,106]",1.5017,rectangle
,,,,,,,,,,,,,FF,,,,,,,,2.8499,,,,,,,,,,,,,,,,,,,,,,610328909dde1ee1a352daef,61036b5f7d4c69350054cb0e,2021-07-29_20h03.08.694,Simcolourproject_2stim_asymm_v5,2020.2.10,MacIntel,60,61025ae37ef11b136ea224fe,,,,,,,,,880,-34.52429199,-88.11669922,1,0,0,response5disk,,3,6.708862305,-12.57601929,1,0,0,rectangle,-65.11077881,38.07711792,1,0,0,-0.064453125,-1.441589355,1,0,0,0,55,55,125,1,,response7disk_3,TRUE,1,1,"[159,88,79,63,268,56,231,232,55,209,256,147,196,244,201,154,11,239,266,106]",1.3336,rectangle
,,,,,,,,,,,,,FF,,,,,,,,3.5002,,,,,,,,,,,,,,,,,,,,,,610328909dde1ee1a352daef,61036b5f7d4c69350054cb0e,2021-07-29_20h03.08.694,Simcolourproject_2stim_asymm_v5,2020.2.10,MacIntel,60,61025ae37ef11b136ea224fe,,,,,,,,,1811,59.5213623,-28.09942627,1,0,0,response3disk,,5,19.06182861,-2.283630371,1,0,0,rectangle,19.06182861,-2.283630371,1,0,0,19.06182861,-2.283630371,1,0,0,0,56,56,157,1,,,,,,,,
,,,,,,,,,,,,,FF,,,,,,,,4.0006,,,,,,,,,,,,,,,,,,,,,,610328909dde1ee1a352daef,61036b5f7d4c69350054cb0e,2021-07-29_20h03.08.694,Simcolourproject_2stim_asymm_v5,2020.2.10,MacIntel,60,61025ae37ef11b136ea224fe,,,,,,,,,4226,58.06237793,71.67010498,1,0,0,response1disk,,7,-28.15490723,-11.6505127,1,0,0,rectangle,-28.15490723,-11.6505127,1,0,0,-28.15490723,-11.6505127,1,0,0,0,57,57,85,1,,,,,,,,
,,,,,,,,,,,,,FF,,,,,,,,1.3007,,,,,,,,,,,,,,,,,,,,,,610328909dde1ee1a352daef,61036b5f7d4c69350054cb0e,2021-07-29_20h03.08.694,Simcolourproject_2stim_asymm_v5,2020.2.10,MacIntel,60,61025ae37ef11b136ea224fe,,,,,,,,,3280,43.34643555,-49.32745361,1,0,0,response3disk,,4,24.99395752,-6.497375488,1,0,0,rectangle,24.99395752,-6.497375488,1,0,0,24.99395752,-6.497375488,1,0,0,0,58,58,108,1,,,,,,,,
,,,,,,,,,,,,,FF,,,,,,,,1.8671,,,,,,,,,,,,,,,,,,,,,,610328909dde1ee1a352daef,61036b5f7d4c69350054cb0e,2021-07-29_20h03.08.694,Simcolourproject_2stim_asymm_v5,2020.2.10,MacIntel,60,61025ae37ef11b136ea224fe,,,,,,,,,2214,33.37854004,-90.75537109,1,0,0,response3disk,,4,33.14416504,2.738708496,1,0,0,rectangle,33.14416504,2.738708496,1,0,0,33.14416504,2.738708496,1,0,0,0,59,59,28,1,,,,,,,,
,,,,,,,,,,,,,FF,,,,,,,,1.1339,,,,,,,,,,,,,,,,,,,,,,610328909dde1ee1a352daef,61036b5f7d4c69350054cb0e,2021-07-29_20h03.08.694,Simcolourproject_2stim_asymm_v5,2020.2.10,MacIntel,60,61025ae37ef11b136ea224fe,,,,,,,,,1922,56.13372803,-41.76953125,1,0,0,response3disk,,5,20.87695313,-2.346008301,1,0,0,rectangle,20.87695313,-2.346008301,1,0,0,20.87695313,-2.346008301,1,0,0,0,60,60,8,1,,,,,,,,
,,,,,,,,,,,,,FF,,,,,,,,1.2501,,,,,,,,,,,,,,,,,,,,,,610328909dde1ee1a352daef,61036b5f7d4c69350054cb0e,2021-07-29_20h03.08.694,Simcolourproject_2stim_asymm_v5,2020.2.10,MacIntel,60,61025ae37ef11b136ea224fe,,,,,,,,,2314,-25.77331543,-41.27926636,1,0,0,response5disk,,3,-15.7532959,-5.031219482,1,0,0,rectangle,-15.7532959,-5.031219482,1,0,0,-15.7532959,-5.031219482,1,0,0,0,61,61,97,1,,,,,,,,
,,,,,,,,,,,,,FF,,,,,,,,1.4827,,,,,,,,,,,,,,,,,,,,,,610328909dde1ee1a352daef,61036b5f7d4c69350054cb0e,2021-07-29_20h03.08.694,Simcolourproject_2stim_asymm_v5,2020.2.10,MacIntel,60,61025ae37ef11b136ea224fe,,,,,,,,,2907,-25.39880371,-53.96704102,1,0,0,response5disk,,3,-18.42504883,-9.365875244,1,0,0,rectangle,-63.76885986,33.77780151,1,0,0,-23.29174805,-3.270721436,1,0,0,0,62,62,105,1,,response7disk_3,TRUE,1,1,"[159,88,79,63,268,56,231,232,55,209,256,147,196,244,201,154,11,239,266,106]",1.383,rectangle
,,,,,,,,,,,,,FF,,,,,,,,2.7154,,,,,,,,,,,,,,,,,,,,,,610328909dde1ee1a352daef,61036b5f7d4c69350054cb0e,2021-07-29_20h03.08.694,Simcolourproject_2stim_asymm_v5,2020.2.10,MacIntel,60,61025ae37ef11b136ea224fe,,,,,,,,,3897,-49.83734131,-79.49554443,1,0,0,response5disk,,3,-14.90930176,-2.626800537,1,0,0,rectangle,-14.90930176,-2.626800537,1,0,0,-14.90930176,-2.626800537,1,0,0,0,63,63,131,1,,,,,,,,
,,,,,,,,,,,,,FF,,,,,,,,1.168,,,,,,,,,,,,,,,,,,,,,,610328909dde1ee1a352daef,61036b5f7d4c69350054cb0e,2021-07-29_20h03.08.694,Simcolourproject_2stim_asymm_v5,2020.2.10,MacIntel,60,61025ae37ef11b136ea224fe,,,,,,,,,878,-21.62792969,-90.30639648,1,0,0,response5disk,,3,-15.03729248,5.019866943,1,0,0,rectangle,-15.03729248,5.019866943,1,0,0,-15.03729248,5.019866943,1,0,0,0,64,64,22,1,,,,,,,,
,,,,,,,,,,,,,FF,,,,,,,,1.0501,,,,,,,,,,,,,,,,,,,,,,610328909dde1ee1a352daef,61036b5f7d4c69350054cb0e,2021-07-29_20h03.08.694,Simcolourproject_2stim_asymm_v5,2020.2.10,MacIntel,60,61025ae37ef11b136ea224fe,,,,,,,,,2865,36.21362305,-66.02941895,1,0,0,response3disk,,4,31.43676758,-6.472473145,1,0,0,rectangle,31.43676758,-6.472473145,1,0,0,31.43676758,-6.472473145,1,0,0,0,65,65,95,1,,,,,,,,
,,,,,,,,,,,,,FF,,,,,,,,1.0505,,,,,,,,,,,,,,,,,,,,,,610328909dde1ee1a352daef,61036b5f7d4c69350054cb0e,2021-07-29_20h03.08.694,Simcolourproject_2stim_asymm_v5,2020.2.10,MacIntel,60,61025ae37ef11b136ea224fe,,,,,,,,,3803,27.42736816,-70.29870605,1,0,0,response3disk,,4,21.62792969,-14.96466064,1,0,0,rectangle,21.62792969,-14.96466064,1,0,0,21.62792969,-14.96466064,1,0,0,0,66,66,92,1,,,,,,,,
,,,,,,,,,,,,,FF,,,,,,,,0.7016,,,,,,,,,,,,,,,,,,,,,,610328909dde1ee1a352daef,61036b5f7d4c69350054cb0e,2021-07-29_20h03.08.694,Simcolourproject_2stim_asymm_v5,2020.2.10,MacIntel,60,61025ae37ef11b136ea224fe,,,,,,,,,3555,31.47125244,-63.80541992,1,0,0,response3disk,,4,19.9029541,-6.405059814,1,0,0,rectangle,19.9029541,-6.405059814,1,0,0,19.9029541,-6.405059814,1,0,0,0,67,67,30,1,,,,,,,,
,,,,,,,,,,,,,FF,,,,,,,,0.8004,,,,,,,,,,,,,,,,,,,,,,610328909dde1ee1a352daef,61036b5f7d4c69350054cb0e,2021-07-29_20h03.08.694,Simcolourproject_2stim_asymm_v5,2020.2.10,MacIntel,60,61025ae37ef11b136ea224fe,,,,,,,,,3392,-42.05010986,-66.23553467,1,0,0,response5disk,,3,-15.95336914,-10.99969482,1,0,0,rectangle,-15.95336914,-10.99969482,1,0,0,-15.95336914,-10.99969482,1,0,0,0,68,68,47,1,,,,,,,,
,,,,,,,,,,,,,FF,,,,,,,,1.233,,,,,,,,,,,,,,,,,,,,,,610328909dde1ee1a352daef,61036b5f7d4c69350054cb0e,2021-07-29_20h03.08.694,Simcolourproject_2stim_asymm_v5,2020.2.10,MacIntel,60,61025ae37ef11b136ea224fe,,,,,,,,,1737,28.98687744,-66.16723633,1,0,0,response3disk,,4,28.98687744,8.089660645,1,0,0,rectangle,28.98687744,8.089660645,1,0,0,28.98687744,8.089660645,1,0,0,0,69,69,112,1,,,,,,,,
,,,,,,,,,,,,,FF,,,,,,,,2.5837,,,,,,,,,,,,,,,,,,,,,,610328909dde1ee1a352daef,61036b5f7d4c69350054cb0e,2021-07-29_20h03.08.694,Simcolourproject_2stim_asymm_v5,2020.2.10,MacIntel,60,61025ae37ef11b136ea224fe,,,,,,,,,1774,20.10070801,-61.24176025,1,0,0,response3disk,,4,16.96228027,-9.013427734,1,0,0,rectangle,16.96228027,-9.013427734,1,0,0,16.96228027,-9.013427734,1,0,0,0,70,70,106,1,,,,,,,,
,,,,,,,,,,,,,FF,,,,,,,,0.7328,,,,,,,,,,,,,,,,,,,,,,610328909dde1ee1a352daef,61036b5f7d4c69350054cb0e,2021-07-29_20h03.08.694,Simcolourproject_2stim_asymm_v5,2020.2.10,MacIntel,60,61025ae37ef11b136ea224fe,,,,,,,,,189,-78.50689697,-31.60192871,1,0,0,response5disk,,2,-14.84454346,-9.95425415,1,0,0,rectangle,-14.84454346,-9.95425415,1,0,0,-14.84454346,-9.95425415,1,0,0,0,71,71,117,1,,,,,,,,
,,,,,,,,,,,,,FF,,,,,,,,1.2997,,,,,,,,,,,,,,,,,,,,,,610328909dde1ee1a352daef,61036b5f7d4c69350054cb0e,2021-07-29_20h03.08.694,Simcolourproject_2stim_asymm_v5,2020.2.10,MacIntel,60,61025ae37ef11b136ea224fe,,,,,,,,,1702,-49.32312012,-69.20172119,1,0,0,response5disk,,3,-24.36047363,-9.006896973,1,0,0,rectangle,-24.36047363,-9.006896973,1,0,0,-24.36047363,-9.006896973,1,0,0,0,72,72,128,1,,,,,,,,
,,,,,,,,,,,,,FF,,,,,,,,1.2171,,,,,,,,,,,,,,,,,,,,,,610328909dde1ee1a352daef,61036b5f7d4c69350054cb0e,2021-07-29_20h03.08.694,Simcolourproject_2stim_asymm_v5,2020.2.10,MacIntel,60,61025ae37ef11b136ea224fe,,,,,,,,,2756,96.93310547,-45.47009277,1,0,0,response3disk,,5,18.54821777,-3.834106445,1,0,0,rectangle,18.54821777,-3.834106445,1,0,0,18.54821777,-3.834106445,1,0,0,0,73,73,136,1,,,,,,,,
,,,,,,,,,,,,,FF,,,,,,,,0.7991,,,,,,,,,,,,,,,,,,,,,,610328909dde1ee1a352daef,61036b5f7d4c69350054cb0e,2021-07-29_20h03.08.694,Simcolourproject_2stim_asymm_v5,2020.2.10,MacIntel,60,61025ae37ef11b136ea224fe,,,,,,,,,2929,47.26586914,-27.88900757,1,0,0,response3disk,,5,19.40765381,-3.22845459,1,0,0,rectangle,19.40765381,-3.22845459,1,0,0,19.40765381,-3.22845459,1,0,0,0,74,74,93,1,,,,,,,,
,,,,,,,,,,,,,FF,,,,,,,,1.0499,,,,,,,,,,,,,,,,,,,,,,610328909dde1ee1a352daef,61036b5f7d4c69350054cb0e,2021-07-29_20h03.08.694,Simcolourproject_2stim_asymm_v5,2020.2.10,MacIntel,60,61025ae37ef11b136ea224fe,,,,,,,,,2154,40.28430176,-57.12133789,1,0,0,response3disk,,4,25.87164307,-4.165649414,1,0,0,rectangle,25.87164307,-4.165649414,1,0,0,25.87164307,-4.165649414,1,0,0,0,75,75,150,1,,,,,,,,
,,,,,,,,,,,,,FF,,,,,,,,1.3841,,,,,,,,,,,,,,,,,,,,,,610328909dde1ee1a352daef,61036b5f7d4c69350054cb0e,2021-07-29_20h03.08.694,Simcolourproject_2stim_asymm_v5,2020.2.10,MacIntel,60,61025ae37ef11b136ea224fe,,,,,,,,,105,-34.02130127,-79.78601074,1,0,0,response5disk,,3,-14.46844482,-9.668762207,1,0,0,rectangle,-14.46844482,-9.668762207,1,0,0,-14.46844482,-9.668762207,1,0,0,0,76,76,48,1,,,,,,,,
,,,,,,,,,,,,,FF,,,,,,,,1.3667,,,,,,,,,,,,,,,,,,,,,,610328909dde1ee1a352daef,61036b5f7d4c69350054cb0e,2021-07-29_20h03.08.694,Simcolourproject_2stim_asymm_v5,2020.2.10,MacIntel,60,61025ae37ef11b136ea224fe,,,,,,,,,3289,58.77587891,25.16995239,1,0,0,response1disk,,6,32.54943848,-0.00604248,1,0,0,rectangle,32.54943848,-0.00604248,1,0,0,32.54943848,-0.00604248,1,0,0,0,77,77,16,1,,,,,,,,
,,,,,,,,,,,,,FF,,,,,,,,2.3286,,,,,,,,,,,,,,,,,,,,,,610328909dde1ee1a352daef,61036b5f7d4c69350054cb0e,2021-07-29_20h03.08.694,Simcolourproject_2stim_asymm_v5,2020.2.10,MacIntel,60,61025ae37ef11b136ea224fe,,,,,,,,,3003,37.99475098,-104.4407349,1,0,0,response3disk,,4,13.16442871,-5.259277344,1,0,0,rectangle,-32.59033203,-105.9651489,1,0,0,-5.509033203,14.1595459,1,0,0,0,78,78,40,1,,response5disk_3,TRUE,3,3,"[159,88,79,63,268,56,231,232,55,209,256,147,196,244,201,154,11,239,266,106]",1.4991,rectangle
,,,,,,,,,,,,,FF,,,,,,,,1.5669,,,,,,,,,,,,,,,,,,,,,,610328909dde1ee1a352daef,61036b5f7d4c69350054cb0e,2021-07-29_20h03.08.694,Simcolourproject_2stim_asymm_v5,2020.2.10,MacIntel,60,61025ae37ef11b136ea224fe,,,,,,,,,3750,-36.09564209,-68.08947754,1,0,0,response5disk,,3,-13.2199707,6.137390137,1,0,0,rectangle,-13.2199707,6.137390137,1,0,0,-13.2199707,6.137390137,1,0,0,0,79,79,127,1,,,,,,,,
,,,,,,,,,,,,,FF,,,,,,,,1.0004,,,,,,,,,,,,,,,,,,,,,,610328909dde1ee1a352daef,61036b5f7d4c69350054cb0e,2021-07-29_20h03.08.694,Simcolourproject_2stim_asymm_v5,2020.2.10,MacIntel,60,61025ae37ef11b136ea224fe,,,,,,,,,2081,32.36169434,-72.67120361,1,0,0,response3disk,,4,24.03460693,-12.40319824,1,0,0,rectangle,24.03460693,-12.40319824,1,0,0,24.03460693,-12.40319824,1,0,0,0,80,80,146,1,,,,,,,,
,,,,,,,,,,,,,FF,,,,,,,,1.1328,,,,,,,,,,,,,,,,,,,,,,610328909dde1ee1a352daef,61036b5f7d4c69350054cb0e,2021-07-29_20h03.08.694,Simcolourproject_2stim_asymm_v5,2020.2.10,MacIntel,60,61025ae37ef11b136ea224fe,,,,,,,,,2402,52.68774414,-52.64434814,1,0,0,response3disk,,5,13.07940674,-16.40136719,1,0,0,rectangle,13.07940674,-16.40136719,1,0,0,13.07940674,-16.40136719,1,0,0,0,81,81,41,1,,,,,,,,
,,,,,,,,,,,,,FF,,,,,,,,0.9009,,,,,,,,,,,,,,,,,,,,,,610328909dde1ee1a352daef,61036b5f7d4c69350054cb0e,2021-07-29_20h03.08.694,Simcolourproject_2stim_asymm_v5,2020.2.10,MacIntel,60,61025ae37ef11b136ea224fe,,,,,,,,,3946,-82.94152832,-32.34301758,1,0,0,response5disk,,2,-4.346923828,1.417907715,1,0,0,rectangle,-4.346923828,1.417907715,1,0,0,-4.346923828,1.417907715,1,0,0,0,82,82,77,1,,,,,,,,
,,,,,,,,,,,,,FF,,,,,,,,1.7325,,,,,,,,,,,,,,,,,,,,,,610328909dde1ee1a352daef,61036b5f7d4c69350054cb0e,2021-07-29_20h03.08.694,Simcolourproject_2stim_asymm_v5,2020.2.10,MacIntel,60,61025ae37ef11b136ea224fe,,,,,,,,,4366,-41.28918457,60.66436768,1,0,0,response7disk,,0,-5.81439209,0.73046875,1,0,0,rectangle,-5.81439209,0.73046875,1,0,0,-5.81439209,0.73046875,1,0,0,0,83,83,114,1,,,,,,,,
,,,,,,,,,,,,,FF,,,,,,,,1.7331,,,,,,,,,,,,,,,,,,,,,,610328909dde1ee1a352daef,61036b5f7d4c69350054cb0e,2021-07-29_20h03.08.694,Simcolourproject_2stim_asymm_v5,2020.2.10,MacIntel,60,61025ae37ef11b136ea224fe,,,,,,,,,2390,-30.90856934,-75.90124512,1,0,0,response5disk,,3,14.30401611,6.308959961,1,0,0,rectangle,14.30401611,6.308959961,1,0,0,14.30401611,6.308959961,1,0,0,0,84,84,65,1,,,,,,,,
,,,,,,,,,,,,,FF,,,,,,,,1.4496,,,,,,,,,,,,,,,,,,,,,,610328909dde1ee1a352daef,61036b5f7d4c69350054cb0e,2021-07-29_20h03.08.694,Simcolourproject_2stim_asymm_v5,2020.2.10,MacIntel,60,61025ae37ef11b136ea224fe,,,,,,,,,1143,-39.56555176,-77.97033691,1,0,0,response5disk,,3,-14.0838623,-7.459320068,1,0,0,rectangle,-14.0838623,-7.459320068,1,0,0,-14.0838623,-7.459320068,1,0,0,0,85,85,96,1,,,,,,,,
,,,,,,,,,,,,,FF,,,,,,,,0.8005,,,,,,,,,,,,,,,,,,,,,,610328909dde1ee1a352daef,61036b5f7d4c69350054cb0e,2021-07-29_20h03.08.694,Simcolourproject_2stim_asymm_v5,2020.2.10,MacIntel,60,61025ae37ef11b136ea224fe,,,,,,,,,3622,-37.29205322,-54.81237793,1,0,0,response5disk,,3,-5.081298828,2.831237793,1,0,0,rectangle,-5.081298828,2.831237793,1,0,0,-5.081298828,2.831237793,1,0,0,0,86,86,32,1,,,,,,,,
,,,,,,,,,,,,,FF,,,,,,,,1.5339,,,,,,,,,,,,,,,,,,,,,,610328909dde1ee1a352daef,61036b5f7d4c69350054cb0e,2021-07-29_20h03.08.694,Simcolourproject_2stim_asymm_v5,2020.2.10,MacIntel,60,61025ae37ef11b136ea224fe,,,,,,,,,2696,70.82092285,-38.66906738,1,0,0,response3disk,,5,33.28582764,-2.149627686,1,0,0,rectangle,38.62261963,-85.9251709,1,0,0,24.81689453,-9.254089355,1,0,0,0,87,87,80,1,,response3disk_3,TRUE,4,4,"[159,88,79,63,268,56,231,232,55,209,256,147,196,244,201,154,11,239,266,106]",1.3314,rectangle
,,,,,,,,,,,,,FF,,,,,,,,1.2826,,,,,,,,,,,,,,,,,,,,,,610328909dde1ee1a352daef,61036b5f7d4c69350054cb0e,2021-07-29_20h03.08.694,Simcolourproject_2stim_asymm_v5,2020.2.10,MacIntel,60,61025ae37ef11b136ea224fe,,,,,,,,,2327,69.06195068,-43.67486572,1,0,0,response3disk,,5,8.147338867,-4.579650879,1,0,0,rectangle,8.147338867,-4.579650879,1,0,0,8.147338867,-4.579650879,1,0,0,0,88,88,98,1,,,,,,,,
,,,,,,,,,,,,,FF,,,,,,,,2.0326,,,,,,,,,,,,,,,,,,,,,,610328909dde1ee1a352daef,61036b5f7d4c69350054cb0e,2021-07-29_20h03.08.694,Simcolourproject_2stim_asymm_v5,2020.2.10,MacIntel,60,61025ae37ef11b136ea224fe,,,,,,,,,2951,-31.1605835,-65.70007324,1,0,0,response5disk,,3,-26.29333496,-2.757873535,1,0,0,rectangle,-26.29333496,-2.757873535,1,0,0,-26.29333496,-2.757873535,1,0,0,0,89,89,21,1,,,,,,,,
,,,,,,,,,,,,,FF,,,,,,,,1.1833,,,,,,,,,,,,,,,,,,,,,,610328909dde1ee1a352daef,61036b5f7d4c69350054cb0e,2021-07-29_20h03.08.694,Simcolourproject_2stim_asymm_v5,2020.2.10,MacIntel,60,61025ae37ef11b136ea224fe,,,,,,,,,1626,73.76885986,-36.74554443,1,0,0,response3disk,,5,24.61291504,0.604797363,1,0,0,rectangle,24.61291504,0.604797363,1,0,0,24.61291504,0.604797363,1,0,0,0,90,90,24,1,,,,,,,,
,,,,,,,,,,,,,FF,,,,,,,,9.0829,,,,,,,,,,,,,,,,,,,,,,610328909dde1ee1a352daef,61036b5f7d4c69350054cb0e,2021-07-29_20h03.08.694,Simcolourproject_2stim_asymm_v5,2020.2.10,MacIntel,60,61025ae37ef11b136ea224fe,,,,,,,,,3745,70.7076416,-37.74749756,1,0,0,response3disk,,5,6.76348877,-4.257141113,1,0,0,rectangle,6.76348877,-4.257141113,1,0,0,6.76348877,-4.257141113,1,0,0,0,91,91,149,1,,,,,,,,
,,,,,,,,,,,,,FF,,,,,,,,3.3159,,,,,,,,,,,,,,,,,,,,,,610328909dde1ee1a352daef,61036b5f7d4c69350054cb0e,2021-07-29_20h03.08.694,Simcolourproject_2stim_asymm_v5,2020.2.10,MacIntel,60,61025ae37ef11b136ea224fe,,,,,,,,,2720,-21.34130859,-52.69229126,1,0,0,response5disk,,3,-11.16949463,3.246154785,1,0,0,rectangle,-11.16949463,3.246154785,1,0,0,-11.16949463,3.246154785,1,0,0,0,92,92,0,1,,,,,,,,
,,,,,,,,,,,,,FF,,,,,,,,0.6499,,,,,,,,,,,,,,,,,,,,,,610328909dde1ee1a352daef,61036b5f7d4c69350054cb0e,2021-07-29_20h03.08.694,Simcolourproject_2stim_asymm_v5,2020.2.10,MacIntel,60,61025ae37ef11b136ea224fe,,,,,,,,,2943,-24.09448242,-41.39642334,1,0,0,response5disk,,3,-13.37310791,7.30456543,1,0,0,rectangle,-13.37310791,7.30456543,1,0,0,-13.37310791,7.30456543,1,0,0,0,93,93,56,1,,,,,,,,
,,,,,,,,,,,,,FF,,,,,,,,0.9336,,,,,,,,,,,,,,,,,,,,,,610328909dde1ee1a352daef,61036b5f7d4c69350054cb0e,2021-07-29_20h03.08.694,Simcolourproject_2stim_asymm_v5,2020.2.10,MacIntel,60,61025ae37ef11b136ea224fe,,,,,,,,,1342,50.91534424,-76.67480469,1,0,0,response3disk,,4,24.78723145,-10.45822144,1,0,0,rectangle,24.78723145,-10.45822144,1,0,0,24.78723145,-10.45822144,1,0,0,0,94,94,72,1,,,,,,,,
,,,,,,,,,,,,,FF,,,,,,,,0.7167,,,,,,,,,,,,,,,,,,,,,,610328909dde1ee1a352daef,61036b5f7d4c69350054cb0e,2021-07-29_20h03.08.694,Simcolourproject_2stim_asymm_v5,2020.2.10,MacIntel,60,61025ae37ef11b136ea224fe,,,,,,,,,8,-26.27630615,-56.96618652,1,0,0,response5disk,,3,-23.1673584,-6.485626221,1,0,0,rectangle,-23.1673584,-6.485626221,1,0,0,-23.1673584,-6.485626221,1,0,0,0,95,95,12,1,,,,,,,,
,,,,,,,,,,,,,FF,,,,,,,,2.6834,,,,,,,,,,,,,,,,,,,,,,610328909dde1ee1a352daef,61036b5f7d4c69350054cb0e,2021-07-29_20h03.08.694,Simcolourproject_2stim_asymm_v5,2020.2.10,MacIntel,60,61025ae37ef11b136ea224fe,,,,,,,,,2306,50.89440918,-34.63623047,1,0,0,response3disk,,5,11.12695313,-6.432830811,1,0,0,rectangle,11.12695313,-6.432830811,1,0,0,11.12695313,-6.432830811,1,0,0,0,96,96,94,1,,,,,,,,
,,,,,,,,,,,,,FF,,,,,,,,0.6834,,,,,,,,,,,,,,,,,,,,,,610328909dde1ee1a352daef,61036b5f7d4c69350054cb0e,2021-07-29_20h03.08.694,Simcolourproject_2stim_asymm_v5,2020.2.10,MacIntel,60,61025ae37ef11b136ea224fe,,,,,,,,,3237,-31.21337891,-53.71856689,1,0,0,response5disk,,3,-23.9720459,-8.604614258,1,0,0,rectangle,-23.9720459,-8.604614258,1,0,0,-23.9720459,-8.604614258,1,0,0,0,97,97,83,1,,,,,,,,
,,,,,,,,,,,,,FF,,,,,,,,0.7836,,,,,,,,,,,,,,,,,,,,,,610328909dde1ee1a352daef,61036b5f7d4c69350054cb0e,2021-07-29_20h03.08.694,Simcolourproject_2stim_asymm_v5,2020.2.10,MacIntel,60,61025ae37ef11b136ea224fe,,,,,,,,,648,58.69512939,-84.39648438,1,0,0,response3disk,,4,30.41217041,-12.54696655,1,0,0,rectangle,30.41217041,-12.54696655,1,0,0,30.41217041,-12.54696655,1,0,0,0,98,98,68,1,,,,,,,,
,,,,,,,,,,,,,FF,,,,,,,,3.582,,,,,,,,,,,,,,,,,,,,,,610328909dde1ee1a352daef,61036b5f7d4c69350054cb0e,2021-07-29_20h03.08.694,Simcolourproject_2stim_asymm_v5,2020.2.10,MacIntel,60,61025ae37ef11b136ea224fe,,,,,,,,,3125,92.21203613,-29.50689697,1,0,0,response3disk,,5,-5.193237305,-0.944274902,1,0,0,rectangle,-5.193237305,-0.944274902,1,0,0,-5.193237305,-0.944274902,1,0,0,0,99,99,145,1,,,,,,,,
,,,,,,,,,,,,,FF,,,,,,,,0.934,,,,,,,,,,,,,,,,,,,,,,610328909dde1ee1a352daef,61036b5f7d4c69350054cb0e,2021-07-29_20h03.08.694,Simcolourproject_2stim_asymm_v5,2020.2.10,MacIntel,60,61025ae37ef11b136ea224fe,,,,,,,,,2960,88.81420898,-43.77270508,1,0,0,response3disk,,5,-9.335449219,2.185302734,1,0,0,rectangle,-9.335449219,2.185302734,1,0,0,-9.335449219,2.185302734,1,0,0,0,100,100,147,1,,,,,,,,
,,,,,,,,,,,,,FF,,,,,,,,0.7506,,,,,,,,,,,,,,,,,,,,,,610328909dde1ee1a352daef,61036b5f7d4c69350054cb0e,2021-07-29_20h03.08.694,Simcolourproject_2stim_asymm_v5,2020.2.10,MacIntel,60,61025ae37ef11b136ea224fe,,,,,,,,,3306,95.30505371,-36.55859375,1,0,0,response3disk,,5,2.976074219,-4.143280029,1,0,0,rectangle,2.976074219,-4.143280029,1,0,0,2.976074219,-4.143280029,1,0,0,0,101,101,23,1,,,,,,,,
,,,,,,,,,,,,,FF,,,,,,,,0.5669,,,,,,,,,,,,,,,,,,,,,,610328909dde1ee1a352daef,61036b5f7d4c69350054cb0e,2021-07-29_20h03.08.694,Simcolourproject_2stim_asymm_v5,2020.2.10,MacIntel,60,61025ae37ef11b136ea224fe,,,,,,,,,2913,67.08026123,-41.10595703,1,0,0,response3disk,,5,23.21038818,-16.35009766,1,0,0,rectangle,23.21038818,-16.35009766,1,0,0,23.21038818,-16.35009766,1,0,0,0,102,102,109,1,,,,,,,,
,,,,,,,,,,,,,FF,,,,,,,,1.0334,,,,,,,,,,,,,,,,,,,,,,610328909dde1ee1a352daef,61036b5f7d4c69350054cb0e,2021-07-29_20h03.08.694,Simcolourproject_2stim_asymm_v5,2020.2.10,MacIntel,60,61025ae37ef11b136ea224fe,,,,,,,,,241,64.23486328,-31.68945313,1,0,0,response3disk,,5,10.29321289,-11.33285522,1,0,0,rectangle,10.29321289,-11.33285522,1,0,0,10.29321289,-11.33285522,1,0,0,0,103,103,57,1,,,,,,,,
,,,,,,,,,,,,,FF,,,,,,,,0.784,,,,,,,,,,,,,,,,,,,,,,610328909dde1ee1a352daef,61036b5f7d4c69350054cb0e,2021-07-29_20h03.08.694,Simcolourproject_2stim_asymm_v5,2020.2.10,MacIntel,60,61025ae37ef11b136ea224fe,,,,,,,,,1263,81.85852051,-18.33221436,1,0,0,response3disk,,5,3.623779297,13.14465332,1,0,0,rectangle,3.623779297,13.14465332,1,0,0,3.623779297,13.14465332,1,0,0,0,104,104,2,1,,,,,,,,
,,,,,,,,,,,,,FF,,,,,,,,1.4842,,,,,,,,,,,,,,,,,,,,,,610328909dde1ee1a352daef,61036b5f7d4c69350054cb0e,2021-07-29_20h03.08.694,Simcolourproject_2stim_asymm_v5,2020.2.10,MacIntel,60,61025ae37ef11b136ea224fe,,,,,,,,,3574,81.42797852,19.48455811,1,0,0,response1disk,,6,0.463867188,1.500152588,1,0,0,rectangle,-80.88659668,-28.2411499,1,0,0,3.060546875,2.908874512,1,0,0,0,105,105,91,1,,response5disk_3,TRUE,2,2,"[159,88,79,63,268,56,231,232,55,209,256,147,196,244,201,154,11,239,266,106]",1.6835,rectangle
,,,,,,,,,,,,,FF,,,,,,,,1.4163,,,,,,,,,,,,,,,,,,,,,,610328909dde1ee1a352daef,61036b5f7d4c69350054cb0e,2021-07-29_20h03.08.694,Simcolourproject_2stim_asymm_v5,2020.2.10,MacIntel,60,61025ae37ef11b136ea224fe,,,,,,,,,1255,43.08618164,-32.58496094,1,0,0,response3disk,,5,14.88195801,-12.57232666,1,0,0,rectangle,14.88195801,-12.57232666,1,0,0,14.88195801,-12.57232666,1,0,0,0,106,106,53,1,,,,,,,,
,,,,,,,,,,,,,FF,,,,,,,,4.7504,,,,,,,,,,,,,,,,,,,,,,610328909dde1ee1a352daef,61036b5f7d4c69350054cb0e,2021-07-29_20h03.08.694,Simcolourproject_2stim_asymm_v5,2020.2.10,MacIntel,60,61025ae37ef11b136ea224fe,,,,,,,,,44,38.78875732,27.18630981,1,0,0,response1disk,,6,16.59344482,4.089355469,1,0,0,rectangle,16.59344482,4.089355469,1,0,0,16.59344482,4.089355469,1,0,0,0,107,107,14,1,,,,,,,,
,,,,,,,,,,,,,FF,,,,,,,,0.7331,,,,,,,,,,,,,,,,,,,,,,610328909dde1ee1a352daef,61036b5f7d4c69350054cb0e,2021-07-29_20h03.08.694,Simcolourproject_2stim_asymm_v5,2020.2.10,MacIntel,60,61025ae37ef11b136ea224fe,,,,,,,,,4259,55.54724121,25.20828247,1,0,0,response1disk,,6,19.85095215,9.438995361,1,0,0,rectangle,19.85095215,9.438995361,1,0,0,19.85095215,9.438995361,1,0,0,0,108,108,100,1,,,,,,,,
,,,,,,,,,,,,,FF,,,,,,,,0.9,,,,,,,,,,,,,,,,,,,,,,610328909dde1ee1a352daef,61036b5f7d4c69350054cb0e,2021-07-29_20h03.08.694,Simcolourproject_2stim_asymm_v5,2020.2.10,MacIntel,60,61025ae37ef11b136ea224fe,,,,,,,,,1286,-26.73345947,-43.16708374,1,0,0,response5disk,,3,-10.01489258,6.281616211,1,0,0,rectangle,-10.01489258,6.281616211,1,0,0,-10.01489258,6.281616211,1,0,0,0,109,109,102,1,,,,,,,,
,,,,,,,,,,,,,FF,,,,,,,,0.7668,,,,,,,,,,,,,,,,,,,,,,610328909dde1ee1a352daef,61036b5f7d4c69350054cb0e,2021-07-29_20h03.08.694,Simcolourproject_2stim_asymm_v5,2020.2.10,MacIntel,60,61025ae37ef11b136ea224fe,,,,,,,,,1092,35.33630371,25.12582397,1,0,0,response1disk,,6,3.962402344,-2.342407227,1,0,0,rectangle,3.962402344,-2.342407227,1,0,0,3.962402344,-2.342407227,1,0,0,0,110,110,63,1,,,,,,,,
,,,,,,,,,,,,,FF,,,,,,,,0.8663,,,,,,,,,,,,,,,,,,,,,,610328909dde1ee1a352daef,61036b5f7d4c69350054cb0e,2021-07-29_20h03.08.694,Simcolourproject_2stim_asymm_v5,2020.2.10,MacIntel,60,61025ae37ef11b136ea224fe,,,,,,,,,1675,-74.6416626,-37.0803833,1,0,0,response5disk,,2,-1.084838867,-9.274749756,1,0,0,rectangle,-1.084838867,-9.274749756,1,0,0,-1.084838867,-9.274749756,1,0,0,0,111,111,39,1,,,,,,,,
,,,,,,,,,,,,,FF,,,,,,,,0.7172,,,,,,,,,,,,,,,,,,,,,,610328909dde1ee1a352daef,61036b5f7d4c69350054cb0e,2021-07-29_20h03.08.694,Simcolourproject_2stim_asymm_v5,2020.2.10,MacIntel,60,61025ae37ef11b136ea224fe,,,,,,,,,1564,27.3092041,-38.78485107,1,0,0,response3disk,,4,18.78588867,-7.353668213,1,0,0,rectangle,18.78588867,-7.353668213,1,0,0,18.78588867,-7.353668213,1,0,0,0,112,112,26,1,,,,,,,,
,,,,,,,,,,,,,FF,,,,,,,,1.1837,,,,,,,,,,,,,,,,,,,,,,610328909dde1ee1a352daef,61036b5f7d4c69350054cb0e,2021-07-29_20h03.08.694,Simcolourproject_2stim_asymm_v5,2020.2.10,MacIntel,60,61025ae37ef11b136ea224fe,,,,,,,,,1687,-22.6751709,-62.20635986,1,0,0,response5disk,,3,-15.45532227,-5.637145996,1,0,0,rectangle,-15.45532227,-5.637145996,1,0,0,-15.45532227,-5.637145996,1,0,0,0,113,113,152,1,,,,,,,,
,,,,,,,,,,,,,FF,,,,,,,,1.4667,,,,,,,,,,,,,,,,,,,,,,610328909dde1ee1a352daef,61036b5f7d4c69350054cb0e,2021-07-29_20h03.08.694,Simcolourproject_2stim_asymm_v5,2020.2.10,MacIntel,60,61025ae37ef11b136ea224fe,,,,,,,,,3866,44.27532959,-29.99401855,1,0,0,response3disk,,5,6.940368652,-9.262237549,1,0,0,rectangle,6.940368652,-9.262237549,1,0,0,6.940368652,-9.262237549,1,0,0,0,114,114,123,1,,,,,,,,
,,,,,,,,,,,,,FF,,,,,,,,1.9332,,,,,,,,,,,,,,,,,,,,,,610328909dde1ee1a352daef,61036b5f7d4c69350054cb0e,2021-07-29_20h03.08.694,Simcolourproject_2stim_asymm_v5,2020.2.10,MacIntel,60,61025ae37ef11b136ea224fe,,,,,,,,,570,39.31738281,-43.06512451,1,0,0,response3disk,,4,34.95568848,-10.86517334,1,0,0,rectangle,34.95568848,-10.86517334,1,0,0,34.95568848,-10.86517334,1,0,0,0,115,115,34,1,,,,,,,,
,,,,,,,,,,,,,FF,,,,,,,,1.0499,,,,,,,,,,,,,,,,,,,,,,610328909dde1ee1a352daef,61036b5f7d4c69350054cb0e,2021-07-29_20h03.08.694,Simcolourproject_2stim_asymm_v5,2020.2.10,MacIntel,60,61025ae37ef11b136ea224fe,,,,,,,,,3018,52.68920898,22.26983643,1,0,0,response1disk,,6,14.36047363,0.246582031,1,0,0,rectangle,14.36047363,0.246582031,1,0,0,14.36047363,0.246582031,1,0,0,0,116,116,153,1,,,,,,,,
,,,,,,,,,,,,,FF,,,,,,,,1.049,,,,,,,,,,,,,,,,,,,,,,610328909dde1ee1a352daef,61036b5f7d4c69350054cb0e,2021-07-29_20h03.08.694,Simcolourproject_2stim_asymm_v5,2020.2.10,MacIntel,60,61025ae37ef11b136ea224fe,,,,,,,,,927,48.67907715,36.13851929,1,0,0,response1disk,,6,11.28515625,4.345581055,1,0,0,rectangle,11.28515625,4.345581055,1,0,0,11.28515625,4.345581055,1,0,0,0,117,117,9,1,,,,,,,,
,,,,,,,,,,,,,FF,,,,,,,,0.7838,,,,,,,,,,,,,,,,,,,,,,610328909dde1ee1a352daef,61036b5f7d4c69350054cb0e,2021-07-29_20h03.08.694,Simcolourproject_2stim_asymm_v5,2020.2.10,MacIntel,60,61025ae37ef11b136ea224fe,,,,,,,,,1244,59.97283936,43.48748779,1,0,0,response1disk,,6,18.77740479,12.33670044,1,0,0,rectangle,18.77740479,12.33670044,1,0,0,18.77740479,12.33670044,1,0,0,0,118,118,101,1,,,,,,,,
,,,,,,,,,,,,,FF,,,,,,,,0.6336,,,,,,,,,,,,,,,,,,,,,,610328909dde1ee1a352daef,61036b5f7d4c69350054cb0e,2021-07-29_20h03.08.694,Simcolourproject_2stim_asymm_v5,2020.2.10,MacIntel,60,61025ae37ef11b136ea224fe,,,,,,,,,1777,48.77026367,19.26098633,1,0,0,response1disk,,6,15.1449585,-1.617431641,1,0,0,rectangle,15.1449585,-1.617431641,1,0,0,15.1449585,-1.617431641,1,0,0,0,119,119,126,1,,,,,,,,
,,,,,,,,,,,,,FF,,,,,,,,0.7344,,,,,,,,,,,,,,,,,,,,,,610328909dde1ee1a352daef,61036b5f7d4c69350054cb0e,2021-07-29_20h03.08.694,Simcolourproject_2stim_asymm_v5,2020.2.10,MacIntel,60,61025ae37ef11b136ea224fe,,,,,,,,,1651,47.76629639,27.34298706,1,0,0,response1disk,,6,16.80841064,-14.96008301,1,0,0,rectangle,16.80841064,-14.96008301,1,0,0,16.80841064,-14.96008301,1,0,0,0,120,120,19,1,,,,,,,,
,,,,,,,,,,,,,FF,,,,,,,,0.45,,,,,,,,,,,,,,,,,,,,,,610328909dde1ee1a352daef,61036b5f7d4c69350054cb0e,2021-07-29_20h03.08.694,Simcolourproject_2stim_asymm_v5,2020.2.10,MacIntel,60,61025ae37ef11b136ea224fe,,,,,,,,,2253,64.83465576,31.44122314,1,0,0,response1disk,,6,34.68096924,2.706970215,1,0,0,rectangle,34.68096924,2.706970215,1,0,0,34.68096924,2.706970215,1,0,0,0,121,121,155,1,,,,,,,,
,,,,,,,,,,,,,FF,,,,,,,,0.4495,,,,,,,,,,,,,,,,,,,,,,610328909dde1ee1a352daef,61036b5f7d4c69350054cb0e,2021-07-29_20h03.08.694,Simcolourproject_2stim_asymm_v5,2020.2.10,MacIntel,60,61025ae37ef11b136ea224fe,,,,,,,,,3171,60.03533936,27.37252808,1,0,0,response1disk,,6,14.43432617,-3.063293457,1,0,0,rectangle,14.43432617,-3.063293457,1,0,0,14.43432617,-3.063293457,1,0,0,0,122,122,121,1,,,,,,,,
,,,,,,,,,,,,,FF,,,,,,,,0.9837,,,,,,,,,,,,,,,,,,,,,,610328909dde1ee1a352daef,61036b5f7d4c69350054cb0e,2021-07-29_20h03.08.694,Simcolourproject_2stim_asymm_v5,2020.2.10,MacIntel,60,61025ae37ef11b136ea224fe,,,,,,,,,524,-47.74487305,-69.85876465,1,0,0,response5disk,,3,-9.113525391,-5.111480713,1,0,0,rectangle,-9.113525391,-5.111480713,1,0,0,-9.113525391,-5.111480713,1,0,0,0,123,123,20,1,,,,,,,,
,,,,,,,,,,,,,FF,,,,,,,,1.1334,,,,,,,,,,,,,,,,,,,,,,610328909dde1ee1a352daef,61036b5f7d4c69350054cb0e,2021-07-29_20h03.08.694,Simcolourproject_2stim_asymm_v5,2020.2.10,MacIntel,60,61025ae37ef11b136ea224fe,,,,,,,,,2127,54.23553467,-26.21887207,1,0,0,response3disk,,5,18.73266602,-14.36102295,1,0,0,rectangle,18.73266602,-14.36102295,1,0,0,18.73266602,-14.36102295,1,0,0,0,124,124,120,1,,,,,,,,
,,,,,,,,,,,,,FF,,,,,,,,1.5839,,,,,,,,,,,,,,,,,,,,,,610328909dde1ee1a352daef,61036b5f7d4c69350054cb0e,2021-07-29_20h03.08.694,Simcolourproject_2stim_asymm_v5,2020.2.10,MacIntel,60,61025ae37ef11b136ea224fe,,,,,,,,,2032,-29.41156006,-54.5267334,1,0,0,response5disk,,3,-17.1282959,-16.29595947,1,0,0,rectangle,-17.1282959,-16.29595947,1,0,0,-17.1282959,-16.29595947,1,0,0,0,125,125,50,1,,,,,,,,
,,,,,,,,,,,,,FF,,,,,,,,0.9503,,,,,,,,,,,,,,,,,,,,,,610328909dde1ee1a352daef,61036b5f7d4c69350054cb0e,2021-07-29_20h03.08.694,Simcolourproject_2stim_asymm_v5,2020.2.10,MacIntel,60,61025ae37ef11b136ea224fe,,,,,,,,,2911,50.39123535,28.77200317,1,0,0,response1disk,,6,12.71160889,14.43041992,1,0,0,rectangle,12.71160889,14.43041992,1,0,0,12.71160889,14.43041992,1,0,0,0,126,126,134,1,,,,,,,,
,,,,,,,,,,,,,FF,,,,,,,,1.5332,,,,,,,,,,,,,,,,,,,,,,610328909dde1ee1a352daef,61036b5f7d4c69350054cb0e,2021-07-29_20h03.08.694,Simcolourproject_2stim_asymm_v5,2020.2.10,MacIntel,60,61025ae37ef11b136ea224fe,,,,,,,,,2208,52.08337402,24.42260742,1,0,0,response1disk,,6,14.24017334,0.581176758,1,0,0,rectangle,14.24017334,0.581176758,1,0,0,14.24017334,0.581176758,1,0,0,0,127,127,55,1,,,,,,,,
,,,,,,,,,,,,,FF,,,,,,,,2.0157,,,,,,,,,,,,,,,,,,,,,,610328909dde1ee1a352daef,61036b5f7d4c69350054cb0e,2021-07-29_20h03.08.694,Simcolourproject_2stim_asymm_v5,2020.2.10,MacIntel,60,61025ae37ef11b136ea224fe,,,,,,,,,4311,46.48254395,29.39233398,1,0,0,response1disk,,6,9.513061523,10.76574707,1,0,0,rectangle,9.513061523,10.76574707,1,0,0,9.513061523,10.76574707,1,0,0,0,128,128,115,1,,,,,,,,
,,,,,,,,,,,,,FF,,,,,,,,3.2329,,,,,,,,,,,,,,,,,,,,,,610328909dde1ee1a352daef,61036b5f7d4c69350054cb0e,2021-07-29_20h03.08.694,Simcolourproject_2stim_asymm_v5,2020.2.10,MacIntel,60,61025ae37ef11b136ea224fe,,,,,,,,,156,-42.43151855,-55.54650879,1,0,0,response5disk,,3,-15.27874756,-11.97802734,1,0,0,rectangle,-15.27874756,-11.97802734,1,0,0,-15.27874756,-11.97802734,1,0,0,0,129,129,45,1,,,,,,,,
,,,,,,,,,,,,,FF,,,,,,,,1.0842,,,,,,,,,,,,,,,,,,,,,,610328909dde1ee1a352daef,61036b5f7d4c69350054cb0e,2021-07-29_20h03.08.694,Simcolourproject_2stim_asymm_v5,2020.2.10,MacIntel,60,61025ae37ef11b136ea224fe,,,,,,,,,1243,52.09069824,18.41699219,1,0,0,response1disk,,6,23.20025635,4.703338623,1,0,0,rectangle,23.20025635,4.703338623,1,0,0,23.20025635,4.703338623,1,0,0,0,130,130,158,1,,,,,,,,
,,,,,,,,,,,,,FF,,,,,,,,1.0831,,,,,,,,,,,,,,,,,,,,,,610328909dde1ee1a352daef,61036b5f7d4c69350054cb0e,2021-07-29_20h03.08.694,Simcolourproject_2stim_asymm_v5,2020.2.10,MacIntel,60,61025ae37ef11b136ea224fe,,,,,,,,,3359,47.01647949,38.60360718,1,0,0,response1disk,,6,11.27008057,4.029876709,1,0,0,rectangle,11.27008057,4.029876709,1,0,0,11.27008057,4.029876709,1,0,0,0,131,131,81,1,,,,,,,,
,,,,,,,,,,,,,FF,,,,,,,,0.9668,,,,,,,,,,,,,,,,,,,,,,610328909dde1ee1a352daef,61036b5f7d4c69350054cb0e,2021-07-29_20h03.08.694,Simcolourproject_2stim_asymm_v5,2020.2.10,MacIntel,60,61025ae37ef11b136ea224fe,,,,,,,,,3248,-19.67712402,-55.68695068,1,0,0,response5disk,,3,-6.690124512,-5.053039551,1,0,0,rectangle,-6.690124512,-5.053039551,1,0,0,-6.690124512,-5.053039551,1,0,0,0,132,132,66,1,,,,,,,,
,,,,,,,,,,,,,FF,,,,,,,,1.1669,,,,,,,,,,,,,,,,,,,,,,610328909dde1ee1a352daef,61036b5f7d4c69350054cb0e,2021-07-29_20h03.08.694,Simcolourproject_2stim_asymm_v5,2020.2.10,MacIntel,60,61025ae37ef11b136ea224fe,,,,,,,,,642,-24.6739502,-70.90478516,1,0,0,response5disk,,3,-10.50457764,-11.25799561,1,0,0,rectangle,-10.50457764,-11.25799561,1,0,0,-10.50457764,-11.25799561,1,0,0,0,133,133,129,1,,,,,,,,
,,,,,,,,,,,,,FF,,,,,,,,0.5682,,,,,,,,,,,,,,,,,,,,,,610328909dde1ee1a352daef,61036b5f7d4c69350054cb0e,2021-07-29_20h03.08.694,Simcolourproject_2stim_asymm_v5,2020.2.10,MacIntel,60,61025ae37ef11b136ea224fe,,,,,,,,,2362,-24.47338867,-49.07876587,1,0,0,response5disk,,3,-18.41015625,-6.095031738,1,0,0,rectangle,-18.41015625,-6.095031738,1,0,0,-18.41015625,-6.095031738,1,0,0,0,134,134,118,1,,,,,,,,
,,,,,,,,,,,,,FF,,,,,,,,1.2494,,,,,,,,,,,,,,,,,,,,,,610328909dde1ee1a352daef,61036b5f7d4c69350054cb0e,2021-07-29_20h03.08.694,Simcolourproject_2stim_asymm_v5,2020.2.10,MacIntel,60,61025ae37ef11b136ea224fe,,,,,,,,,3376,-60.18280029,-36.22851563,1,0,0,response5disk,,2,-13.77337646,-9.125854492,1,0,0,rectangle,-13.77337646,-9.125854492,1,0,0,-13.77337646,-9.125854492,1,0,0,0,135,135,15,1,,,,,,,,
,,,,,,,,,,,,,FF,,,,,,,,0.5345,,,,,,,,,,,,,,,,,,,,,,610328909dde1ee1a352daef,61036b5f7d4c69350054cb0e,2021-07-29_20h03.08.694,Simcolourproject_2stim_asymm_v5,2020.2.10,MacIntel,60,61025ae37ef11b136ea224fe,,,,,,,,,3746,-62.90008545,-34.15222168,1,0,0,response5disk,,2,-20.79284668,-13.7947998,1,0,0,rectangle,-20.79284668,-13.7947998,1,0,0,-20.79284668,-13.7947998,1,0,0,0,136,136,42,1,,,,,,,,
,,,,,,,,,,,,,FF,,,,,,,,1.2659,,,,,,,,,,,,,,,,,,,,,,610328909dde1ee1a352daef,61036b5f7d4c69350054cb0e,2021-07-29_20h03.08.694,Simcolourproject_2stim_asymm_v5,2020.2.10,MacIntel,60,61025ae37ef11b136ea224fe,,,,,,,,,3335,38.44293213,29.3548584,1,0,0,response1disk,,6,17.69549561,7.376098633,1,0,0,rectangle,17.69549561,7.376098633,1,0,0,17.69549561,7.376098633,1,0,0,0,137,137,13,1,,,,,,,,
,,,,,,,,,,,,,FF,,,,,,,,1.6,,,,,,,,,,,,,,,,,,,,,,610328909dde1ee1a352daef,61036b5f7d4c69350054cb0e,2021-07-29_20h03.08.694,Simcolourproject_2stim_asymm_v5,2020.2.10,MacIntel,60,61025ae37ef11b136ea224fe,,,,,,,,,2717,-34.15936279,-90.85467529,1,0,0,response5disk,,3,-4.094604492,-8.258178711,1,0,0,rectangle,-4.094604492,-8.258178711,1,0,0,-4.094604492,-8.258178711,1,0,0,0,138,138,49,1,,,,,,,,
,,,,,,,,,,,,,FF,,,,,,,,0.9167,,,,,,,,,,,,,,,,,,,,,,610328909dde1ee1a352daef,61036b5f7d4c69350054cb0e,2021-07-29_20h03.08.694,Simcolourproject_2stim_asymm_v5,2020.2.10,MacIntel,60,61025ae37ef11b136ea224fe,,,,,,,,,3261,39.52416992,-57.13656616,1,0,0,response3disk,,4,8.315002441,-8.221282959,1,0,0,rectangle,8.315002441,-8.221282959,1,0,0,8.315002441,-8.221282959,1,0,0,0,139,139,135,1,,,,,,,,
,,,,,,,,,,,,,FF,,,,,,,,1.4169,,,,,,,,,,,,,,,,,,,,,,610328909dde1ee1a352daef,61036b5f7d4c69350054cb0e,2021-07-29_20h03.08.694,Simcolourproject_2stim_asymm_v5,2020.2.10,MacIntel,60,61025ae37ef11b136ea224fe,,,,,,,,,823,-49.56750488,-60.00015259,1,0,0,response5disk,,3,-20.74316406,5.645385742,1,0,0,rectangle,-20.74316406,5.645385742,1,0,0,-20.74316406,5.645385742,1,0,0,0,140,140,73,1,,,,,,,,
,,,,,,,,,,,,,FF,,,,,,,,2.3671,,,,,,,,,,,,,,,,,,,,,,610328909dde1ee1a352daef,61036b5f7d4c69350054cb0e,2021-07-29_20h03.08.694,Simcolourproject_2stim_asymm_v5,2020.2.10,MacIntel,60,61025ae37ef11b136ea224fe,,,,,,,,,3351,43.56518555,-32.17047119,1,0,0,response3disk,,5,9.832336426,-3.96383667,1,0,0,rectangle,9.832336426,-3.96383667,1,0,0,9.832336426,-3.96383667,1,0,0,0,141,141,119,1,,,,,,,,
,,,,,,,,,,,,,FF,,,,,,,,0.8169,,,,,,,,,,,,,,,,,,,,,,610328909dde1ee1a352daef,61036b5f7d4c69350054cb0e,2021-07-29_20h03.08.694,Simcolourproject_2stim_asymm_v5,2020.2.10,MacIntel,60,61025ae37ef11b136ea224fe,,,,,,,,,3180,51.72015381,-33.40393066,1,0,0,response3disk,,5,19.90814209,-10.95684814,1,0,0,rectangle,19.90814209,-10.95684814,1,0,0,19.90814209,-10.95684814,1,0,0,0,142,142,67,1,,,,,,,,
,,,,,,,,,,,,,FF,,,,,,,,1.1836,,,,,,,,,,,,,,,,,,,,,,610328909dde1ee1a352daef,61036b5f7d4c69350054cb0e,2021-07-29_20h03.08.694,Simcolourproject_2stim_asymm_v5,2020.2.10,MacIntel,60,61025ae37ef11b136ea224fe,,,,,,,,,1220,-52.94152832,-84.2600708,1,0,0,response5disk,,3,-24.75109863,-11.48852539,1,0,0,rectangle,-24.75109863,-11.48852539,1,0,0,-24.75109863,-11.48852539,1,0,0,0,143,143,69,1,,,,,,,,
,,,,,,,,,,,,,FF,,,,,,,,1.317,,,,,,,,,,,,,,,,,,,,,,610328909dde1ee1a352daef,61036b5f7d4c69350054cb0e,2021-07-29_20h03.08.694,Simcolourproject_2stim_asymm_v5,2020.2.10,MacIntel,60,61025ae37ef11b136ea224fe,,,,,,,,,1932,81.69262695,-27.31286621,1,0,0,response3disk,,5,22.73840332,-6.700134277,1,0,0,rectangle,22.73840332,-6.700134277,1,0,0,22.73840332,-6.700134277,1,0,0,0,144,144,76,1,,,,,,,,
,,,,,,,,,,,,,FF,,,,,,,,0.7153,,,,,,,,,,,,,,,,,,,,,,610328909dde1ee1a352daef,61036b5f7d4c69350054cb0e,2021-07-29_20h03.08.694,Simcolourproject_2stim_asymm_v5,2020.2.10,MacIntel,60,61025ae37ef11b136ea224fe,,,,,,,,,279,-57.36309814,-42.15597534,1,0,0,response5disk,,2,-6.650085449,-7.195678711,1,0,0,rectangle,-6.650085449,-7.195678711,1,0,0,-6.650085449,-7.195678711,1,0,0,0,145,145,31,1,,,,,,,,
,,,,,,,,,,,,,FF,,,,,,,,0.8162,,,,,,,,,,,,,,,,,,,,,,610328909dde1ee1a352daef,61036b5f7d4c69350054cb0e,2021-07-29_20h03.08.694,Simcolourproject_2stim_asymm_v5,2020.2.10,MacIntel,60,61025ae37ef11b136ea224fe,,,,,,,,,2542,-69.97277832,26.91070557,1,0,0,response7disk,,1,-13.98431396,-8.361755371,1,0,0,rectangle,41.3190918,-69.85900879,1,0,0,20.44274902,8.98147583,1,0,0,0,146,146,74,1,,response3disk_3,TRUE,4,4,"[159,88,79,63,268,56,231,232,55,209,256,147,196,244,201,154,11,239,266,106]",1.3174,rectangle
,,,,,,,,,,,,,FF,,,,,,,,0.8831,,,,,,,,,,,,,,,,,,,,,,610328909dde1ee1a352daef,61036b5f7d4c69350054cb0e,2021-07-29_20h03.08.694,Simcolourproject_2stim_asymm_v5,2020.2.10,MacIntel,60,61025ae37ef11b136ea224fe,,,,,,,,,284,-32.93231201,-66.42687988,1,0,0,response5disk,,3,-21.40350342,-1.505706787,1,0,0,rectangle,-21.40350342,-1.505706787,1,0,0,-21.40350342,-1.505706787,1,0,0,0,147,147,62,1,,,,,,,,
,,,,,,,,,,,,,FF,,,,,,,,0.7844,,,,,,,,,,,,,,,,,,,,,,610328909dde1ee1a352daef,61036b5f7d4c69350054cb0e,2021-07-29_20h03.08.694,Simcolourproject_2stim_asymm_v5,2020.2.10,MacIntel,60,61025ae37ef11b136ea224fe,,,,,,,,,2307,-57.02319336,-33.43835449,1,0,0,response5disk,,2,0.633789063,0.222473145,1,0,0,rectangle,0.633789063,0.222473145,1,0,0,0.633789063,0.222473145,1,0,0,0,148,148,151,1,,,,,,,,
,,,,,,,,,,,,,FF,,,,,,,,1.0003,,,,,,,,,,,,,,,,,,,,,,610328909dde1ee1a352daef,61036b5f7d4c69350054cb0e,2021-07-29_20h03.08.694,Simcolourproject_2stim_asymm_v5,2020.2.10,MacIntel,60,61025ae37ef11b136ea224fe,,,,,,,,,3933,61.59735107,-30.8694458,1,0,0,response3disk,,5,29.54620361,15.3092041,1,0,0,rectangle,29.54620361,15.3092041,1,0,0,29.54620361,15.3092041,1,0,0,0,149,149,75,1,,,,,,,,
,,,,,,,,,,,,,FF,,,,,,,,0.9492,,,,,,,,,,,,,,,,,,,,,,610328909dde1ee1a352daef,61036b5f7d4c69350054cb0e,2021-07-29_20h03.08.694,Simcolourproject_2stim_asymm_v5,2020.2.10,MacIntel,60,61025ae37ef11b136ea224fe,,,,,,,,,3813,42.83221436,-60.0489502,1,0,0,response3disk,,4,31.60900879,-3.477508545,1,0,0,rectangle,31.60900879,-3.477508545,1,0,0,31.60900879,-3.477508545,1,0,0,0,150,150,84,1,,,,,,,,
,,,,,,,,,,,,,FF,,,,,,,,1.0497,,,,,,,,,,,,,,,,,,,,,,610328909dde1ee1a352daef,61036b5f7d4c69350054cb0e,2021-07-29_20h03.08.694,Simcolourproject_2stim_asymm_v5,2020.2.10,MacIntel,60,61025ae37ef11b136ea224fe,,,,,,,,,1971,-41.18225098,-117.505249,1,0,0,response5disk,,3,-9.054382324,-8.341705322,1,0,0,rectangle,-9.054382324,-8.341705322,1,0,0,-9.054382324,-8.341705322,1,0,0,0,151,151,33,1,,,,,,,,
,,,,,,,,,,,,,FF,,,,,,,,0.8845,,,,,,,,,,,,,,,,,,,,,,610328909dde1ee1a352daef,61036b5f7d4c69350054cb0e,2021-07-29_20h03.08.694,Simcolourproject_2stim_asymm_v5,2020.2.10,MacIntel,60,61025ae37ef11b136ea224fe,,,,,,,,,2781,-68.4564209,-25.09918213,1,0,0,response5disk,,2,-6.890991211,-5.167358398,1,0,0,rectangle,-6.890991211,-5.167358398,1,0,0,-6.890991211,-5.167358398,1,0,0,0,152,152,133,1,,,,,,,,
,,,,,,,,,,,,,FF,,,,,,,,1.8674,,,,,,,,,,,,,,,,,,,,,,610328909dde1ee1a352daef,61036b5f7d4c69350054cb0e,2021-07-29_20h03.08.694,Simcolourproject_2stim_asymm_v5,2020.2.10,MacIntel,60,61025ae37ef11b136ea224fe,,,,,,,,,722,-77.11700439,31.74743652,1,0,0,response7disk,,1,-17.23199463,-2.59161377,1,0,0,rectangle,-60.4967041,31.41082764,1,0,0,-24.13977051,-1.126281738,1,0,0,0,153,153,37,1,,response7disk_3,TRUE,1,1,"[159,88,79,63,268,56,231,232,55,209,256,147,196,244,201,154,11,239,266,106]",1.0159,rectangle
,,,,,,,,,,,,,FF,,,,,,,,1.1835,,,,,,,,,,,,,,,,,,,,,,610328909dde1ee1a352daef,61036b5f7d4c69350054cb0e,2021-07-29_20h03.08.694,Simcolourproject_2stim_asymm_v5,2020.2.10,MacIntel,60,61025ae37ef11b136ea224fe,,,,,,,,,929,76.81604004,31.61724854,1,0,0,response1disk,,6,3.872680664,-7.676177979,1,0,0,rectangle,3.872680664,-7.676177979,1,0,0,3.872680664,-7.676177979,1,0,0,0,154,154,4,1,,,,,,,,
,,,,,,,,,,,,,FF,,,,,,,,0.7501,,,,,,,,,,,,,,,,,,,,,,610328909dde1ee1a352daef,61036b5f7d4c69350054cb0e,2021-07-29_20h03.08.694,Simcolourproject_2stim_asymm_v5,2020.2.10,MacIntel,60,61025ae37ef11b136ea224fe,,,,,,,,,596,79.17047119,41.0760498,1,0,0,response1disk,,6,-1.421508789,3.986022949,1,0,0,rectangle,-1.421508789,3.986022949,1,0,0,-1.421508789,3.986022949,1,0,0,0,155,155,29,1,,,,,,,,
,,,,,,,,,,,,,FF,,,,,,,,1.0845,,,,,,,,,,,,,,,,,,,,,,610328909dde1ee1a352daef,61036b5f7d4c69350054cb0e,2021-07-29_20h03.08.694,Simcolourproject_2stim_asymm_v5,2020.2.10,MacIntel,60,61025ae37ef11b136ea224fe,,,,,,,,,2114,24.9465332,-86.59942627,1,0,0,response3disk,,4,11.02081299,-7.897949219,1,0,0,rectangle,11.02081299,-7.897949219,1,0,0,11.02081299,-7.897949219,1,0,0,0,156,156,99,1,,,,,,,,
,,,,,,,,,,,,,FF,,,,,,,,1.234,,,,,,,,,,,,,,,,,,,,,,610328909dde1ee1a352daef,61036b5f7d4c69350054cb0e,2021-07-29_20h03.08.694,Simcolourproject_2stim_asymm_v5,2020.2.10,MacIntel,60,61025ae37ef11b136ea224fe,,,,,,,,,1394,56.64001465,-45.06695557,1,0,0,response3disk,,5,3.384155273,-9.262023926,1,0,0,rectangle,3.384155273,-9.262023926,1,0,0,3.384155273,-9.262023926,1,0,0,0,157,157,11,1,,,,,,,,
,,,,,,,,,,,,,FF,,,,,,,,0.7156,,,,,,,,,,,,,,,,,,,,,,610328909dde1ee1a352daef,61036b5f7d4c69350054cb0e,2021-07-29_20h03.08.694,Simcolourproject_2stim_asymm_v5,2020.2.10,MacIntel,60,61025ae37ef11b136ea224fe,,,,,,,,,3384,-35.23077393,-66.63049316,1,0,0,response5disk,,3,-12.13684082,2.179931641,1,0,0,rectangle,-88.0970459,43.49682617,1,0,0,-7.173461914,0.885925293,1,0,0,0,158,158,5,1,,response7disk_3,TRUE,1,1,"[159,88,79,63,268,56,231,232,55,209,256,147,196,244,201,154,11,239,266,106]",1.1838,rectangle
,,,,,,,,,,,,,FF,,,,,,,,2.3489,,,,,,,,,,,,,,,,,,,,,,610328909dde1ee1a352daef,61036b5f7d4c69350054cb0e,2021-07-29_20h03.08.694,Simcolourproject_2stim_asymm_v5,2020.2.10,MacIntel,60,61025ae37ef11b136ea224fe,,,,,,,,,2558,73.73461914,40.78424072,1,0,0,response1disk,,6,10.81976318,9.995300293,1,0,0,rectangle,10.81976318,9.995300293,1,0,0,10.81976318,9.995300293,1,0,0,0,159,159,59,1,,,,,,,,
,,,,,,,,,,,,,FF,,,,,,,,2.1003,,,,,,,,,,,,,,,,,,,,,,610328909dde1ee1a352daef,61036b5f7d4c69350054cb0e,2021-07-29_20h03.08.694,Simcolourproject_2stim_asymm_v5,2020.2.10,MacIntel,60,61025ae37ef11b136ea224fe,,,,,,,,,4267,-83.83056641,-37.09619141,1,0,0,response5disk,,2,2.511962891,17.58129883,1,0,0,rectangle,2.511962891,17.58129883,1,0,0,2.511962891,17.58129883,1,0,0,1,0,160,109,1,,,,,,,,
,,,,,,,,,,,,,FF,,,,,,,,1.2831,,,,,,,,,,,,,,,,,,,,,,610328909dde1ee1a352daef,61036b5f7d4c69350054cb0e,2021-07-29_20h03.08.694,Simcolourproject_2stim_asymm_v5,2020.2.10,MacIntel,60,61025ae37ef11b136ea224fe,,,,,,,,,3951,-75.55517578,-28.13409424,1,0,0,response5disk,,2,6.629699707,-13.4390564,1,0,0,rectangle,6.629699707,-13.4390564,1,0,0,6.629699707,-13.4390564,1,0,0,1,1,161,145,1,,,,,,,,
,,,,,,,,,,,,,FF,,,,,,,,1.0352,,,,,,,,,,,,,,,,,,,,,,610328909dde1ee1a352daef,61036b5f7d4c69350054cb0e,2021-07-29_20h03.08.694,Simcolourproject_2stim_asymm_v5,2020.2.10,MacIntel,60,61025ae37ef11b136ea224fe,,,,,,,,,2394,31.80096436,-60.24664307,1,0,0,response3disk,,4,13.1026001,-0.801177979,1,0,0,rectangle,13.1026001,-0.801177979,1,0,0,13.1026001,-0.801177979,1,0,0,1,2,162,98,1,,,,,,,,
,,,,,,,,,,,,,FF,,,,,,,,0.8173,,,,,,,,,,,,,,,,,,,,,,610328909dde1ee1a352daef,61036b5f7d4c69350054cb0e,2021-07-29_20h03.08.694,Simcolourproject_2stim_asymm_v5,2020.2.10,MacIntel,60,61025ae37ef11b136ea224fe,,,,,,,,,3514,-49.29956055,-81.62200928,1,0,0,response5disk,,3,-4.996154785,0.155792236,1,0,0,rectangle,-4.996154785,0.155792236,1,0,0,-4.996154785,0.155792236,1,0,0,1,3,163,54,1,,,,,,,,
,,,,,,,,,,,,,FF,,,,,,,,3.001,,,,,,,,,,,,,,,,,,,,,,610328909dde1ee1a352daef,61036b5f7d4c69350054cb0e,2021-07-29_20h03.08.694,Simcolourproject_2stim_asymm_v5,2020.2.10,MacIntel,60,61025ae37ef11b136ea224fe,,,,,,,,,1035,66.27758789,-31.08996582,1,0,0,response3disk,,5,6.954467773,-9.208679199,1,0,0,rectangle,6.954467773,-9.208679199,1,0,0,6.954467773,-9.208679199,1,0,0,1,4,164,74,1,,,,,,,,
,,,,,,,,,,,,,FF,,,,,,,,1.0332,,,,,,,,,,,,,,,,,,,,,,610328909dde1ee1a352daef,61036b5f7d4c69350054cb0e,2021-07-29_20h03.08.694,Simcolourproject_2stim_asymm_v5,2020.2.10,MacIntel,60,61025ae37ef11b136ea224fe,,,,,,,,,3991,58.66589355,-30.15710449,1,0,0,response3disk,,5,24.46582031,-1.228942871,1,0,0,rectangle,24.46582031,-1.228942871,1,0,0,24.46582031,-1.228942871,1,0,0,1,5,165,82,1,,,,,,,,
,,,,,,,,,,,,,FF,,,,,,,,1.1999,,,,,,,,,,,,,,,,,,,,,,610328909dde1ee1a352daef,61036b5f7d4c69350054cb0e,2021-07-29_20h03.08.694,Simcolourproject_2stim_asymm_v5,2020.2.10,MacIntel,60,61025ae37ef11b136ea224fe,,,,,,,,,1031,24.57727051,-60.33291626,1,0,0,response3disk,,4,14.27587891,7.010192871,1,0,0,rectangle,14.27587891,7.010192871,1,0,0,14.27587891,7.010192871,1,0,0,1,6,166,118,1,,,,,,,,
,,,,,,,,,,,,,FF,,,,,,,,1.9164,,,,,,,,,,,,,,,,,,,,,,610328909dde1ee1a352daef,61036b5f7d4c69350054cb0e,2021-07-29_20h03.08.694,Simcolourproject_2stim_asymm_v5,2020.2.10,MacIntel,60,61025ae37ef11b136ea224fe,,,,,,,,,3205,-30.53643799,-66.940979,1,0,0,response5disk,,3,-16.90161133,2.485473633,1,0,0,rectangle,-16.90161133,2.485473633,1,0,0,-16.90161133,2.485473633,1,0,0,1,7,167,16,1,,,,,,,,
,,,,,,,,,,,,,FF,,,,,,,,1.2172,,,,,,,,,,,,,,,,,,,,,,610328909dde1ee1a352daef,61036b5f7d4c69350054cb0e,2021-07-29_20h03.08.694,Simcolourproject_2stim_asymm_v5,2020.2.10,MacIntel,60,61025ae37ef11b136ea224fe,,,,,,,,,1224,-32.92657471,-77.85552979,1,0,0,response5disk,,3,-3.328491211,-1.930603027,1,0,0,rectangle,-3.328491211,-1.930603027,1,0,0,-3.328491211,-1.930603027,1,0,0,1,8,168,129,1,,,,,,,,
,,,,,,,,,,,,,FF,,,,,,,,1.5662,,,,,,,,,,,,,,,,,,,,,,610328909dde1ee1a352daef,61036b5f7d4c69350054cb0e,2021-07-29_20h03.08.694,Simcolourproject_2stim_asymm_v5,2020.2.10,MacIntel,60,61025ae37ef11b136ea224fe,,,,,,,,,162,-47.17834473,-69.85150146,1,0,0,response5disk,,3,-15.1739502,4.384338379,1,0,0,rectangle,-15.1739502,4.384338379,1,0,0,-15.1739502,4.384338379,1,0,0,1,9,169,57,1,,,,,,,,
,,,,,,,,,,,,,FF,,,,,,,,0.8,,,,,,,,,,,,,,,,,,,,,,610328909dde1ee1a352daef,61036b5f7d4c69350054cb0e,2021-07-29_20h03.08.694,Simcolourproject_2stim_asymm_v5,2020.2.10,MacIntel,60,61025ae37ef11b136ea224fe,,,,,,,,,2777,-74.88165283,-38.05975342,1,0,0,response5disk,,2,-8.575439453,-4.167053223,1,0,0,rectangle,-8.575439453,-4.167053223,1,0,0,-8.575439453,-4.167053223,1,0,0,1,10,170,104,1,,,,,,,,
,,,,,,,,,,,,,FF,,,,,,,,1.0176,,,,,,,,,,,,,,,,,,,,,,610328909dde1ee1a352daef,61036b5f7d4c69350054cb0e,2021-07-29_20h03.08.694,Simcolourproject_2stim_asymm_v5,2020.2.10,MacIntel,60,61025ae37ef11b136ea224fe,,,,,,,,,1045,39.31799316,-62.5425415,1,0,0,response3disk,,4,24.2300415,-0.131561279,1,0,0,rectangle,24.2300415,-0.131561279,1,0,0,24.2300415,-0.131561279,1,0,0,1,11,171,19,1,,,,,,,,
,,,,,,,,,,,,,FF,,,,,,,,1.033,,,,,,,,,,,,,,,,,,,,,,610328909dde1ee1a352daef,61036b5f7d4c69350054cb0e,2021-07-29_20h03.08.694,Simcolourproject_2stim_asymm_v5,2020.2.10,MacIntel,60,61025ae37ef11b136ea224fe,,,,,,,,,2070,79.33630371,-48.54211426,1,0,0,response3disk,,5,25.94763184,-15.55944824,1,0,0,rectangle,25.94763184,-15.55944824,1,0,0,25.94763184,-15.55944824,1,0,0,1,12,172,154,1,,,,,,,,
,,,,,,,,,,,,,FF,,,,,,,,1.299,,,,,,,,,,,,,,,,,,,,,,610328909dde1ee1a352daef,61036b5f7d4c69350054cb0e,2021-07-29_20h03.08.694,Simcolourproject_2stim_asymm_v5,2020.2.10,MacIntel,60,61025ae37ef11b136ea224fe,,,,,,,,,1468,-28.05627441,-83.43884277,1,0,0,response5disk,,3,-8.58203125,-11.28179932,1,0,0,rectangle,-8.58203125,-11.28179932,1,0,0,-8.58203125,-11.28179932,1,0,0,1,13,173,122,1,,,,,,,,
,,,,,,,,,,,,,FF,,,,,,,,1.5169,,,,,,,,,,,,,,,,,,,,,,610328909dde1ee1a352daef,61036b5f7d4c69350054cb0e,2021-07-29_20h03.08.694,Simcolourproject_2stim_asymm_v5,2020.2.10,MacIntel,60,61025ae37ef11b136ea224fe,,,,,,,,,1230,-79.57623291,-42.29425049,1,0,0,response5disk,,2,-14.48577881,5.692199707,1,0,0,rectangle,-14.48577881,5.692199707,1,0,0,-14.48577881,5.692199707,1,0,0,1,14,174,153,1,,,,,,,,
,,,,,,,,,,,,,FF,,,,,,,,1.4169,,,,,,,,,,,,,,,,,,,,,,610328909dde1ee1a352daef,61036b5f7d4c69350054cb0e,2021-07-29_20h03.08.694,Simcolourproject_2stim_asymm_v5,2020.2.10,MacIntel,60,61025ae37ef11b136ea224fe,,,,,,,,,476,-43.77050781,-85.87451172,1,0,0,response5disk,,3,-25.97888184,-1.318359375,1,0,0,rectangle,-25.97888184,-1.318359375,1,0,0,-25.97888184,-1.318359375,1,0,0,1,15,175,89,1,,,,,,,,
,,,,,,,,,,,,,FF,,,,,,,,1.0165,,,,,,,,,,,,,,,,,,,,,,610328909dde1ee1a352daef,61036b5f7d4c69350054cb0e,2021-07-29_20h03.08.694,Simcolourproject_2stim_asymm_v5,2020.2.10,MacIntel,60,61025ae37ef11b136ea224fe,,,,,,,,,1749,-49.85467529,-37.58398438,1,0,0,response5disk,,2,2.216918945,-2.218017578,1,0,0,rectangle,2.216918945,-2.218017578,1,0,0,2.216918945,-2.218017578,1,0,0,1,16,176,9,1,,,,,,,,
,,,,,,,,,,,,,FF,,,,,,,,1.0667,,,,,,,,,,,,,,,,,,,,,,610328909dde1ee1a352daef,61036b5f7d4c69350054cb0e,2021-07-29_20h03.08.694,Simcolourproject_2stim_asymm_v5,2020.2.10,MacIntel,60,61025ae37ef11b136ea224fe,,,,,,,,,1790,54.09667969,-26.94140625,1,0,0,response3disk,,5,14.3805542,-5.985931396,1,0,0,rectangle,14.3805542,-5.985931396,1,0,0,14.3805542,-5.985931396,1,0,0,1,17,177,132,1,,,,,,,,
,,,,,,,,,,,,,FF,,,,,,,,0.9997,,,,,,,,,,,,,,,,,,,,,,610328909dde1ee1a352daef,61036b5f7d4c69350054cb0e,2021-07-29_20h03.08.694,Simcolourproject_2stim_asymm_v5,2020.2.10,MacIntel,60,61025ae37ef11b136ea224fe,,,,,,,,,1438,34.39123535,-61.02334595,1,0,0,response3disk,,4,30.46899414,-6.284393311,1,0,0,rectangle,30.46899414,-6.284393311,1,0,0,30.46899414,-6.284393311,1,0,0,1,18,178,17,1,,,,,,,,
,,,,,,,,,,,,,FF,,,,,,,,0.8335,,,,,,,,,,,,,,,,,,,,,,610328909dde1ee1a352daef,61036b5f7d4c69350054cb0e,2021-07-29_20h03.08.694,Simcolourproject_2stim_asymm_v5,2020.2.10,MacIntel,60,61025ae37ef11b136ea224fe,,,,,,,,,829,-25.1796875,-76.6887207,1,0,0,response5disk,,3,2.672607422,-7.805175781,1,0,0,rectangle,2.672607422,-7.805175781,1,0,0,2.672607422,-7.805175781,1,0,0,1,19,179,4,1,,,,,,,,
,,,,,,,,,,,,,FF,,,,,,,,0.7013,,,,,,,,,,,,,,,,,,,,,,610328909dde1ee1a352daef,61036b5f7d4c69350054cb0e,2021-07-29_20h03.08.694,Simcolourproject_2stim_asymm_v5,2020.2.10,MacIntel,60,61025ae37ef11b136ea224fe,,,,,,,,,2419,-67.3996582,-41.13763428,1,0,0,response5disk,,2,0.538574219,-14.84329224,1,0,0,rectangle,0.538574219,-14.84329224,1,0,0,0.538574219,-14.84329224,1,0,0,1,20,180,108,1,,,,,,,,
,,,,,,,,,,,,,FF,,,,,,,,0.8658,,,,,,,,,,,,,,,,,,,,,,610328909dde1ee1a352daef,61036b5f7d4c69350054cb0e,2021-07-29_20h03.08.694,Simcolourproject_2stim_asymm_v5,2020.2.10,MacIntel,60,61025ae37ef11b136ea224fe,,,,,,,,,114,61.11968994,27.45849609,1,0,0,response1disk,,6,13.80395508,-4.060119629,1,0,0,rectangle,13.80395508,-4.060119629,1,0,0,13.80395508,-4.060119629,1,0,0,1,21,181,106,1,,,,,,,,
,,,,,,,,,,,,,FF,,,,,,,,1.4179,,,,,,,,,,,,,,,,,,,,,,610328909dde1ee1a352daef,61036b5f7d4c69350054cb0e,2021-07-29_20h03.08.694,Simcolourproject_2stim_asymm_v5,2020.2.10,MacIntel,60,61025ae37ef11b136ea224fe,,,,,,,,,2953,32.31213379,-70.20922852,1,0,0,response3disk,,4,28.93817139,-11.60601807,1,0,0,rectangle,28.93817139,-11.60601807,1,0,0,28.93817139,-11.60601807,1,0,0,1,22,182,80,1,,,,,,,,
,,,,,,,,,,,,,FF,,,,,,,,1.4499,,,,,,,,,,,,,,,,,,,,,,610328909dde1ee1a352daef,61036b5f7d4c69350054cb0e,2021-07-29_20h03.08.694,Simcolourproject_2stim_asymm_v5,2020.2.10,MacIntel,60,61025ae37ef11b136ea224fe,,,,,,,,,1557,38.7590332,56.96777344,1,0,0,response1disk,,7,29.09851074,10.53973389,1,0,0,rectangle,29.09851074,10.53973389,1,0,0,29.09851074,10.53973389,1,0,0,1,23,183,8,1,,,,,,,,
,,,,,,,,,,,,,FF,,,,,,,,0.8831,,,,,,,,,,,,,,,,,,,,,,610328909dde1ee1a352daef,61036b5f7d4c69350054cb0e,2021-07-29_20h03.08.694,Simcolourproject_2stim_asymm_v5,2020.2.10,MacIntel,60,61025ae37ef11b136ea224fe,,,,,,,,,3454,67.02355957,23.79522705,1,0,0,response1disk,,6,30.48236084,3.093780518,1,0,0,rectangle,30.48236084,3.093780518,1,0,0,30.48236084,3.093780518,1,0,0,1,24,184,67,1,,,,,,,,
,,,,,,,,,,,,,FF,,,,,,,,0.899,,,,,,,,,,,,,,,,,,,,,,610328909dde1ee1a352daef,61036b5f7d4c69350054cb0e,2021-07-29_20h03.08.694,Simcolourproject_2stim_asymm_v5,2020.2.10,MacIntel,60,61025ae37ef11b136ea224fe,,,,,,,,,1137,-75.51452637,-31.03411865,1,0,0,response5disk,,2,-25.61773682,-17.82336426,1,0,0,rectangle,-25.61773682,-17.82336426,1,0,0,-25.61773682,-17.82336426,1,0,0,1,25,185,56,1,,,,,,,,
,,,,,,,,,,,,,FF,,,,,,,,0.6836,,,,,,,,,,,,,,,,,,,,,,610328909dde1ee1a352daef,61036b5f7d4c69350054cb0e,2021-07-29_20h03.08.694,Simcolourproject_2stim_asymm_v5,2020.2.10,MacIntel,60,61025ae37ef11b136ea224fe,,,,,,,,,3434,-59.89526367,-21.19281006,1,0,0,response5disk,,2,5.282714844,-4.045379639,1,0,0,rectangle,5.282714844,-4.045379639,1,0,0,5.282714844,-4.045379639,1,0,0,1,26,186,10,1,,,,,,,,
,,,,,,,,,,,,,FF,,,,,,,,2.2154,,,,,,,,,,,,,,,,,,,,,,610328909dde1ee1a352daef,61036b5f7d4c69350054cb0e,2021-07-29_20h03.08.694,Simcolourproject_2stim_asymm_v5,2020.2.10,MacIntel,60,61025ae37ef11b136ea224fe,,,,,,,,,135,67.23425293,-71.45910645,1,0,0,response3disk,,4,14.78710938,-10.78344727,1,0,0,rectangle,14.78710938,-10.78344727,1,0,0,14.78710938,-10.78344727,1,0,0,1,27,187,63,1,,,,,,,,
,,,,,,,,,,,,,FF,,,,,,,,3.1331,,,,,,,,,,,,,,,,,,,,,,610328909dde1ee1a352daef,61036b5f7d4c69350054cb0e,2021-07-29_20h03.08.694,Simcolourproject_2stim_asymm_v5,2020.2.10,MacIntel,60,61025ae37ef11b136ea224fe,,,,,,,,,1570,-29.8692627,-62.81768799,1,0,0,response5disk,,3,-13.08850098,1.51159668,1,0,0,rectangle,-13.08850098,1.51159668,1,0,0,-13.08850098,1.51159668,1,0,0,1,28,188,25,1,,,,,,,,
,,,,,,,,,,,,,FF,,,,,,,,0.7514,,,,,,,,,,,,,,,,,,,,,,610328909dde1ee1a352daef,61036b5f7d4c69350054cb0e,2021-07-29_20h03.08.694,Simcolourproject_2stim_asymm_v5,2020.2.10,MacIntel,60,61025ae37ef11b136ea224fe,,,,,,,,,3519,-85.59832764,-49.28399658,1,0,0,response5disk,,2,-6.713806152,-1.927520752,1,0,0,rectangle,-6.713806152,-1.927520752,1,0,0,-6.713806152,-1.927520752,1,0,0,1,29,189,49,1,,,,,,,,
,,,,,,,,,,,,,FF,,,,,,,,3.2673,,,,,,,,,,,,,,,,,,,,,,610328909dde1ee1a352daef,61036b5f7d4c69350054cb0e,2021-07-29_20h03.08.694,Simcolourproject_2stim_asymm_v5,2020.2.10,MacIntel,60,61025ae37ef11b136ea224fe,,,,,,,,,419,36.66955566,-54.87774658,1,0,0,response3disk,,4,10.34265137,-0.975769043,1,0,0,rectangle,10.34265137,-0.975769043,1,0,0,10.34265137,-0.975769043,1,0,0,1,30,190,90,1,,,,,,,,
,,,,,,,,,,,,,FF,,,,,,,,1.1013,,,,,,,,,,,,,,,,,,,,,,610328909dde1ee1a352daef,61036b5f7d4c69350054cb0e,2021-07-29_20h03.08.694,Simcolourproject_2stim_asymm_v5,2020.2.10,MacIntel,60,61025ae37ef11b136ea224fe,,,,,,,,,3958,41.85986328,-69.07836914,1,0,0,response3disk,,4,19.79394531,-2.874572754,1,0,0,rectangle,19.79394531,-2.874572754,1,0,0,19.79394531,-2.874572754,1,0,0,1,31,191,50,1,,,,,,,,
,,,,,,,,,,,,,FF,,,,,,,,0.8669,,,,,,,,,,,,,,,,,,,,,,610328909dde1ee1a352daef,61036b5f7d4c69350054cb0e,2021-07-29_20h03.08.694,Simcolourproject_2stim_asymm_v5,2020.2.10,MacIntel,60,61025ae37ef11b136ea224fe,,,,,,,,,3849,-35.78845215,-64.71887207,1,0,0,response5disk,,3,-6.527709961,-2.215576172,1,0,0,rectangle,-6.527709961,-2.215576172,1,0,0,-6.527709961,-2.215576172,1,0,0,1,32,192,15,1,,,,,,,,
,,,,,,,,,,,,,FF,,,,,,,,0.7328,,,,,,,,,,,,,,,,,,,,,,610328909dde1ee1a352daef,61036b5f7d4c69350054cb0e,2021-07-29_20h03.08.694,Simcolourproject_2stim_asymm_v5,2020.2.10,MacIntel,60,61025ae37ef11b136ea224fe,,,,,,,,,2177,-31.4039917,-56.5378418,1,0,0,response5disk,,3,-8.369262695,7.814056396,1,0,0,rectangle,-8.369262695,7.814056396,1,0,0,-8.369262695,7.814056396,1,0,0,1,33,193,44,1,,,,,,,,
,,,,,,,,,,,,,FF,,,,,,,,1.6827,,,,,,,,,,,,,,,,,,,,,,610328909dde1ee1a352daef,61036b5f7d4c69350054cb0e,2021-07-29_20h03.08.694,Simcolourproject_2stim_asymm_v5,2020.2.10,MacIntel,60,61025ae37ef11b136ea224fe,,,,,,,,,1016,46.66265869,-73.99536133,1,0,0,response3disk,,4,12.62054443,-5.710449219,1,0,0,rectangle,12.62054443,-5.710449219,1,0,0,12.62054443,-5.710449219,1,0,0,1,34,194,105,1,,,,,,,,
,,,,,,,,,,,,,FF,,,,,,,,0.9165,,,,,,,,,,,,,,,,,,,,,,610328909dde1ee1a352daef,61036b5f7d4c69350054cb0e,2021-07-29_20h03.08.694,Simcolourproject_2stim_asymm_v5,2020.2.10,MacIntel,60,61025ae37ef11b136ea224fe,,,,,,,,,2661,-76.84564209,-32.66818237,1,0,0,response5disk,,2,-3.489807129,-15.74945068,1,0,0,rectangle,-63.92614746,-36.55859375,1,0,0,-9.030578613,-2.276092529,1,0,0,1,35,195,97,1,,response5disk_3,TRUE,2,2,"[159,88,79,63,268,56,231,232,55,209,256,147,196,244,201,154,11,239,266,106]",1.1167,rectangle
,,,,,,,,,,,,,FF,,,,,,,,2.283,,,,,,,,,,,,,,,,,,,,,,610328909dde1ee1a352daef,61036b5f7d4c69350054cb0e,2021-07-29_20h03.08.694,Simcolourproject_2stim_asymm_v5,2020.2.10,MacIntel,60,61025ae37ef11b136ea224fe,,,,,,,,,3959,76.27624512,-38.48309326,1,0,0,response3disk,,5,16.62646484,5.283081055,1,0,0,rectangle,16.62646484,5.283081055,1,0,0,16.62646484,5.283081055,1,0,0,1,36,196,66,1,,,,,,,,
,,,,,,,,,,,,,FF,,,,,,,,2.8832,,,,,,,,,,,,,,,,,,,,,,610328909dde1ee1a352daef,61036b5f7d4c69350054cb0e,2021-07-29_20h03.08.694,Simcolourproject_2stim_asymm_v5,2020.2.10,MacIntel,60,61025ae37ef11b136ea224fe,,,,,,,,,3181,35.32952881,54.4588623,1,0,0,response1disk,,7,15.73925781,16.78009033,1,0,0,rectangle,15.73925781,16.78009033,1,0,0,15.73925781,16.78009033,1,0,0,1,37,197,3,1,,,,,,,,
,,,,,,,,,,,,,FF,,,,,,,,1.4325,,,,,,,,,,,,,,,,,,,,,,610328909dde1ee1a352daef,61036b5f7d4c69350054cb0e,2021-07-29_20h03.08.694,Simcolourproject_2stim_asymm_v5,2020.2.10,MacIntel,60,61025ae37ef11b136ea224fe,,,,,,,,,623,-93.43078613,-39.20513916,1,0,0,response5disk,,2,-9.184997559,-3.273773193,1,0,0,rectangle,-9.184997559,-3.273773193,1,0,0,-9.184997559,-3.273773193,1,0,0,1,38,198,124,1,,,,,,,,
,,,,,,,,,,,,,FF,,,,,,,,1.85,,,,,,,,,,,,,,,,,,,,,,610328909dde1ee1a352daef,61036b5f7d4c69350054cb0e,2021-07-29_20h03.08.694,Simcolourproject_2stim_asymm_v5,2020.2.10,MacIntel,60,61025ae37ef11b136ea224fe,,,,,,,,,145,52.70141602,-21.65817261,1,0,0,response3disk,,5,10.88677979,-4.4453125,1,0,0,rectangle,10.88677979,-4.4453125,1,0,0,10.88677979,-4.4453125,1,0,0,1,39,199,111,1,,,,,,,,
,,,,,,,,,,,,,FF,,,,,,,,1.734,,,,,,,,,,,,,,,,,,,,,,610328909dde1ee1a352daef,61036b5f7d4c69350054cb0e,2021-07-29_20h03.08.694,Simcolourproject_2stim_asymm_v5,2020.2.10,MacIntel,60,61025ae37ef11b136ea224fe,,,,,,,,,421,69.57678223,50.6730957,1,0,0,response1disk,,6,26.26019287,-4.779785156,1,0,0,rectangle,-77.36743164,34.85900879,1,0,0,-1.515441895,3.547302246,1,0,0,1,40,200,75,1,,response7disk_3,TRUE,1,1,"[159,88,79,63,268,56,231,232,55,209,256,147,196,244,201,154,11,239,266,106]",1.1494,rectangle
,,,,,,,,,,,,,FF,,,,,,,,2.7823,,,,,,,,,,,,,,,,,,,,,,610328909dde1ee1a352daef,61036b5f7d4c69350054cb0e,2021-07-29_20h03.08.694,Simcolourproject_2stim_asymm_v5,2020.2.10,MacIntel,60,61025ae37ef11b136ea224fe,,,,,,,,,2093,39.53546143,-53.66253662,1,0,0,response3disk,,4,30.88671875,-5.874084473,1,0,0,rectangle,30.88671875,-5.874084473,1,0,0,30.88671875,-5.874084473,1,0,0,1,41,201,31,1,,,,,,,,
,,,,,,,,,,,,,FF,,,,,,,,0.9327,,,,,,,,,,,,,,,,,,,,,,610328909dde1ee1a352daef,61036b5f7d4c69350054cb0e,2021-07-29_20h03.08.694,Simcolourproject_2stim_asymm_v5,2020.2.10,MacIntel,60,61025ae37ef11b136ea224fe,,,,,,,,,468,-33.58520508,-71.7980957,1,0,0,response5disk,,3,-13.95794678,-5.505310059,1,0,0,rectangle,-13.95794678,-5.505310059,1,0,0,-13.95794678,-5.505310059,1,0,0,1,42,202,110,1,,,,,,,,
,,,,,,,,,,,,,FF,,,,,,,,1.0342,,,,,,,,,,,,,,,,,,,,,,610328909dde1ee1a352daef,61036b5f7d4c69350054cb0e,2021-07-29_20h03.08.694,Simcolourproject_2stim_asymm_v5,2020.2.10,MacIntel,60,61025ae37ef11b136ea224fe,,,,,,,,,3503,-33.15454102,-81.58398438,1,0,0,response5disk,,3,-22.765625,-3.623962402,1,0,0,rectangle,-22.765625,-3.623962402,1,0,0,-22.765625,-3.623962402,1,0,0,1,43,203,107,1,,,,,,,,
,,,,,,,,,,,,,FF,,,,,,,,0.8838,,,,,,,,,,,,,,,,,,,,,,610328909dde1ee1a352daef,61036b5f7d4c69350054cb0e,2021-07-29_20h03.08.694,Simcolourproject_2stim_asymm_v5,2020.2.10,MacIntel,60,61025ae37ef11b136ea224fe,,,,,,,,,109,73.00793457,-31.97158813,1,0,0,response3disk,,5,-3.578735352,2.239807129,1,0,0,rectangle,-3.578735352,2.239807129,1,0,0,-3.578735352,2.239807129,1,0,0,1,44,204,35,1,,,,,,,,
,,,,,,,,,,,,,FF,,,,,,,,1.0326,,,,,,,,,,,,,,,,,,,,,,610328909dde1ee1a352daef,61036b5f7d4c69350054cb0e,2021-07-29_20h03.08.694,Simcolourproject_2stim_asymm_v5,2020.2.10,MacIntel,60,61025ae37ef11b136ea224fe,,,,,,,,,528,47.45532227,-81.14898682,1,0,0,response3disk,,4,17.26275635,-10.0010376,1,0,0,rectangle,17.26275635,-10.0010376,1,0,0,17.26275635,-10.0010376,1,0,0,1,45,205,2,1,,,,,,,,
,,,,,,,,,,,,,FF,,,,,,,,1.2164,,,,,,,,,,,,,,,,,,,,,,610328909dde1ee1a352daef,61036b5f7d4c69350054cb0e,2021-07-29_20h03.08.694,Simcolourproject_2stim_asymm_v5,2020.2.10,MacIntel,60,61025ae37ef11b136ea224fe,,,,,,,,,3643,59.2232666,-72.86907959,1,0,0,response3disk,,4,24.25299072,-5.74609375,1,0,0,rectangle,24.25299072,-5.74609375,1,0,0,24.25299072,-5.74609375,1,0,0,1,46,206,120,1,,,,,,,,
,,,,,,,,,,,,,FF,,,,,,,,2.1666,,,,,,,,,,,,,,,,,,,,,,610328909dde1ee1a352daef,61036b5f7d4c69350054cb0e,2021-07-29_20h03.08.694,Simcolourproject_2stim_asymm_v5,2020.2.10,MacIntel,60,61025ae37ef11b136ea224fe,,,,,,,,,220,38.39208984,-67.57519531,1,0,0,response3disk,,4,23.33850098,1.036987305,1,0,0,rectangle,23.33850098,1.036987305,1,0,0,23.33850098,1.036987305,1,0,0,1,47,207,138,1,,,,,,,,
,,,,,,,,,,,,,FF,,,,,,,,0.9001,,,,,,,,,,,,,,,,,,,,,,610328909dde1ee1a352daef,61036b5f7d4c69350054cb0e,2021-07-29_20h03.08.694,Simcolourproject_2stim_asymm_v5,2020.2.10,MacIntel,60,61025ae37ef11b136ea224fe,,,,,,,,,1300,-68.89001465,-36.4932251,1,0,0,response5disk,,2,8.933410645,0.559936523,1,0,0,rectangle,69.27807617,-40.56039429,1,0,0,0.533935547,-3.145751953,1,0,0,1,48,208,117,1,,response3disk_3,TRUE,5,5,"[159,88,79,63,268,56,231,232,55,209,256,147,196,244,201,154,11,239,266,106]",1.4841,rectangle
,,,,,,,,,,,,,FF,,,,,,,,0.9334,,,,,,,,,,,,,,,,,,,,,,610328909dde1ee1a352daef,61036b5f7d4c69350054cb0e,2021-07-29_20h03.08.694,Simcolourproject_2stim_asymm_v5,2020.2.10,MacIntel,60,61025ae37ef11b136ea224fe,,,,,,,,,3301,60.78466797,23.09140015,1,0,0,response1disk,,6,5.704162598,3.824584961,1,0,0,rectangle,5.704162598,3.824584961,1,0,0,5.704162598,3.824584961,1,0,0,1,49,209,119,1,,,,,,,,
,,,,,,,,,,,,,FF,,,,,,,,0.5497,,,,,,,,,,,,,,,,,,,,,,610328909dde1ee1a352daef,61036b5f7d4c69350054cb0e,2021-07-29_20h03.08.694,Simcolourproject_2stim_asymm_v5,2020.2.10,MacIntel,60,61025ae37ef11b136ea224fe,,,,,,,,,2137,60.55462646,23.75549316,1,0,0,response1disk,,6,5.729064941,-0.084777832,1,0,0,rectangle,5.729064941,-0.084777832,1,0,0,5.729064941,-0.084777832,1,0,0,1,50,210,100,1,,,,,,,,
,,,,,,,,,,,,,FF,,,,,,,,0.6993,,,,,,,,,,,,,,,,,,,,,,610328909dde1ee1a352daef,61036b5f7d4c69350054cb0e,2021-07-29_20h03.08.694,Simcolourproject_2stim_asymm_v5,2020.2.10,MacIntel,60,61025ae37ef11b136ea224fe,,,,,,,,,854,28.62219238,58.72579956,1,0,0,response1disk,,7,14.012146,17.20281982,1,0,0,rectangle,14.012146,17.20281982,1,0,0,14.012146,17.20281982,1,0,0,1,51,211,43,1,,,,,,,,
,,,,,,,,,,,,,FF,,,,,,,,0.8497,,,,,,,,,,,,,,,,,,,,,,610328909dde1ee1a352daef,61036b5f7d4c69350054cb0e,2021-07-29_20h03.08.694,Simcolourproject_2stim_asymm_v5,2020.2.10,MacIntel,60,61025ae37ef11b136ea224fe,,,,,,,,,232,86.7020874,-52.87908936,1,0,0,response3disk,,5,8.92980957,-16.53039551,1,0,0,rectangle,8.92980957,-16.53039551,1,0,0,8.92980957,-16.53039551,1,0,0,1,52,212,68,1,,,,,,,,
,,,,,,,,,,,,,FF,,,,,,,,1.2997,,,,,,,,,,,,,,,,,,,,,,610328909dde1ee1a352daef,61036b5f7d4c69350054cb0e,2021-07-29_20h03.08.694,Simcolourproject_2stim_asymm_v5,2020.2.10,MacIntel,60,61025ae37ef11b136ea224fe,,,,,,,,,3711,-56.06842041,-86.50048828,1,0,0,response5disk,,3,-18.8026123,-13.03094482,1,0,0,rectangle,-18.8026123,-13.03094482,1,0,0,-18.8026123,-13.03094482,1,0,0,1,53,213,85,1,,,,,,,,
,,,,,,,,,,,,,FF,,,,,,,,0.6657,,,,,,,,,,,,,,,,,,,,,,610328909dde1ee1a352daef,61036b5f7d4c69350054cb0e,2021-07-29_20h03.08.694,Simcolourproject_2stim_asymm_v5,2020.2.10,MacIntel,60,61025ae37ef11b136ea224fe,,,,,,,,,3349,27.52557373,-79.99645996,1,0,0,response3disk,,4,-0.589904785,-13.20956421,1,0,0,rectangle,-0.589904785,-13.20956421,1,0,0,-0.589904785,-13.20956421,1,0,0,1,54,214,60,1,,,,,,,,
,,,,,,,,,,,,,FF,,,,,,,,0.683,,,,,,,,,,,,,,,,,,,,,,610328909dde1ee1a352daef,61036b5f7d4c69350054cb0e,2021-07-29_20h03.08.694,Simcolourproject_2stim_asymm_v5,2020.2.10,MacIntel,60,61025ae37ef11b136ea224fe,,,,,,,,,880,65.16564941,-37.31585693,1,0,0,response3disk,,5,-3.244506836,-11.4609375,1,0,0,rectangle,-3.244506836,-11.4609375,1,0,0,-3.244506836,-11.4609375,1,0,0,1,55,215,142,1,,,,,,,,
,,,,,,,,,,,,,FF,,,,,,,,2.0508,,,,,,,,,,,,,,,,,,,,,,610328909dde1ee1a352daef,61036b5f7d4c69350054cb0e,2021-07-29_20h03.08.694,Simcolourproject_2stim_asymm_v5,2020.2.10,MacIntel,60,61025ae37ef11b136ea224fe,,,,,,,,,1811,18.56658936,-53.19122314,1,0,0,response3disk,,4,-9.438903809,16.8637085,1,0,0,rectangle,-9.438903809,16.8637085,1,0,0,-9.438903809,16.8637085,1,0,0,1,56,216,146,1,,,,,,,,
,,,,,,,,,,,,,FF,,,,,,,,0.8176,,,,,,,,,,,,,,,,,,,,,,610328909dde1ee1a352daef,61036b5f7d4c69350054cb0e,2021-07-29_20h03.08.694,Simcolourproject_2stim_asymm_v5,2020.2.10,MacIntel,60,61025ae37ef11b136ea224fe,,,,,,,,,4226,48.29571533,55.84985352,1,0,0,response1disk,,7,14.14312744,-3.390197754,1,0,0,rectangle,14.14312744,-3.390197754,1,0,0,14.14312744,-3.390197754,1,0,0,1,57,217,149,1,,,,,,,,
,,,,,,,,,,,,,FF,,,,,,,,0.4666,,,,,,,,,,,,,,,,,,,,,,610328909dde1ee1a352daef,61036b5f7d4c69350054cb0e,2021-07-29_20h03.08.694,Simcolourproject_2stim_asymm_v5,2020.2.10,MacIntel,60,61025ae37ef11b136ea224fe,,,,,,,,,3280,101.538208,21.14239502,1,0,0,response1disk,,6,25.1965332,8.790649414,1,0,0,rectangle,25.1965332,8.790649414,1,0,0,25.1965332,8.790649414,1,0,0,1,58,218,1,1,,,,,,,,
,,,,,,,,,,,,,FF,,,,,,,,0.818,,,,,,,,,,,,,,,,,,,,,,610328909dde1ee1a352daef,61036b5f7d4c69350054cb0e,2021-07-29_20h03.08.694,Simcolourproject_2stim_asymm_v5,2020.2.10,MacIntel,60,61025ae37ef11b136ea224fe,,,,,,,,,2214,64.25317383,-28.47900391,1,0,0,response3disk,,5,-7.924804688,-11.26483154,1,0,0,rectangle,-7.924804688,-11.26483154,1,0,0,-7.924804688,-11.26483154,1,0,0,1,59,219,143,1,,,,,,,,
,,,,,,,,,,,,,FF,,,,,,,,1.0842,,,,,,,,,,,,,,,,,,,,,,610328909dde1ee1a352daef,61036b5f7d4c69350054cb0e,2021-07-29_20h03.08.694,Simcolourproject_2stim_asymm_v5,2020.2.10,MacIntel,60,61025ae37ef11b136ea224fe,,,,,,,,,1922,72.21362305,-41.13000488,1,0,0,response3disk,,5,-12.49212646,-12.50057983,1,0,0,rectangle,-12.49212646,-12.50057983,1,0,0,-12.49212646,-12.50057983,1,0,0,1,60,220,39,1,,,,,,,,
,,,,,,,,,,,,,FF,,,,,,,,0.6348,,,,,,,,,,,,,,,,,,,,,,610328909dde1ee1a352daef,61036b5f7d4c69350054cb0e,2021-07-29_20h03.08.694,Simcolourproject_2stim_asymm_v5,2020.2.10,MacIntel,60,61025ae37ef11b136ea224fe,,,,,,,,,2314,63.83520508,-45.2258606,1,0,0,response3disk,,5,0.21472168,2.280395508,1,0,0,rectangle,0.21472168,2.280395508,1,0,0,0.21472168,2.280395508,1,0,0,1,61,221,72,1,,,,,,,,
,,,,,,,,,,,,,FF,,,,,,,,0.8332,,,,,,,,,,,,,,,,,,,,,,610328909dde1ee1a352daef,61036b5f7d4c69350054cb0e,2021-07-29_20h03.08.694,Simcolourproject_2stim_asymm_v5,2020.2.10,MacIntel,60,61025ae37ef11b136ea224fe,,,,,,,,,2907,33.23040771,-57.14337158,1,0,0,response3disk,,4,5.070922852,11.63275146,1,0,0,rectangle,5.070922852,11.63275146,1,0,0,5.070922852,11.63275146,1,0,0,1,62,222,93,1,,,,,,,,
,,,,,,,,,,,,,FF,,,,,,,,1.2673,,,,,,,,,,,,,,,,,,,,,,610328909dde1ee1a352daef,61036b5f7d4c69350054cb0e,2021-07-29_20h03.08.694,Simcolourproject_2stim_asymm_v5,2020.2.10,MacIntel,60,61025ae37ef11b136ea224fe,,,,,,,,,3897,102.0068359,-32.62854004,1,0,0,response3disk,,5,6.801940918,-5.782104492,1,0,0,rectangle,6.801940918,-5.782104492,1,0,0,6.801940918,-5.782104492,1,0,0,1,63,223,99,1,,,,,,,,
,,,,,,,,,,,,,FF,,,,,,,,1.617,,,,,,,,,,,,,,,,,,,,,,610328909dde1ee1a352daef,61036b5f7d4c69350054cb0e,2021-07-29_20h03.08.694,Simcolourproject_2stim_asymm_v5,2020.2.10,MacIntel,60,61025ae37ef11b136ea224fe,,,,,,,,,878,49.86566162,-76.94458008,1,0,0,response3disk,,4,30.39862061,-13.55584717,1,0,0,rectangle,30.39862061,-13.55584717,1,0,0,30.39862061,-13.55584717,1,0,0,1,64,224,77,1,,,,,,,,
,,,,,,,,,,,,,FF,,,,,,,,0.6165,,,,,,,,,,,,,,,,,,,,,,610328909dde1ee1a352daef,61036b5f7d4c69350054cb0e,2021-07-29_20h03.08.694,Simcolourproject_2stim_asymm_v5,2020.2.10,MacIntel,60,61025ae37ef11b136ea224fe,,,,,,,,,2865,70.29602051,-46.74731445,1,0,0,response3disk,,5,15.26306152,-15.5324707,1,0,0,rectangle,15.26306152,-15.5324707,1,0,0,15.26306152,-15.5324707,1,0,0,1,65,225,11,1,,,,,,,,
,,,,,,,,,,,,,FF,,,,,,,,0.6504,,,,,,,,,,,,,,,,,,,,,,610328909dde1ee1a352daef,61036b5f7d4c69350054cb0e,2021-07-29_20h03.08.694,Simcolourproject_2stim_asymm_v5,2020.2.10,MacIntel,60,61025ae37ef11b136ea224fe,,,,,,,,,3803,75.19354248,-17.48388672,1,0,0,response3disk,,5,-1.894226074,12.27398682,1,0,0,rectangle,-1.894226074,12.27398682,1,0,0,-1.894226074,12.27398682,1,0,0,1,66,226,30,1,,,,,,,,
,,,,,,,,,,,,,FF,,,,,,,,2.6177,,,,,,,,,,,,,,,,,,,,,,610328909dde1ee1a352daef,61036b5f7d4c69350054cb0e,2021-07-29_20h03.08.694,Simcolourproject_2stim_asymm_v5,2020.2.10,MacIntel,60,61025ae37ef11b136ea224fe,,,,,,,,,3555,28.99060059,-77.81158447,1,0,0,response3disk,,4,14.30834961,-13.07598877,1,0,0,rectangle,14.30834961,-13.07598877,1,0,0,14.30834961,-13.07598877,1,0,0,1,67,227,159,1,,,,,,,,
,,,,,,,,,,,,,FF,,,,,,,,0.5829,,,,,,,,,,,,,,,,,,,,,,610328909dde1ee1a352daef,61036b5f7d4c69350054cb0e,2021-07-29_20h03.08.694,Simcolourproject_2stim_asymm_v5,2020.2.10,MacIntel,60,61025ae37ef11b136ea224fe,,,,,,,,,3392,36.32824707,-65.19543457,1,0,0,response3disk,,4,15.32879639,-12.21533203,1,0,0,rectangle,15.32879639,-12.21533203,1,0,0,15.32879639,-12.21533203,1,0,0,1,68,228,61,1,,,,,,,,
,,,,,,,,,,,,,FF,,,,,,,,0.6666,,,,,,,,,,,,,,,,,,,,,,610328909dde1ee1a352daef,61036b5f7d4c69350054cb0e,2021-07-29_20h03.08.694,Simcolourproject_2stim_asymm_v5,2020.2.10,MacIntel,60,61025ae37ef11b136ea224fe,,,,,,,,,1737,39.81414795,-73.37042236,1,0,0,response3disk,,4,18.42266846,9.223083496,1,0,0,rectangle,18.42266846,9.223083496,1,0,0,18.42266846,9.223083496,1,0,0,1,69,229,73,1,,,,,,,,
,,,,,,,,,,,,,FF,,,,,,,,0.5998,,,,,,,,,,,,,,,,,,,,,,610328909dde1ee1a352daef,61036b5f7d4c69350054cb0e,2021-07-29_20h03.08.694,Simcolourproject_2stim_asymm_v5,2020.2.10,MacIntel,60,61025ae37ef11b136ea224fe,,,,,,,,,1774,32.97521973,-62.36218262,1,0,0,response3disk,,4,27.77459717,-14.93264771,1,0,0,rectangle,-85.30285645,47.14892578,1,0,0,-17.95916748,0.397583008,1,0,0,1,70,230,53,1,,response7disk_3,TRUE,1,1,"[159,88,79,63,268,56,231,232,55,209,256,147,196,244,201,154,11,239,266,106]",1.2824,rectangle
,,,,,,,,,,,,,FF,,,,,,,,1.3827,,,,,,,,,,,,,,,,,,,,,,610328909dde1ee1a352daef,61036b5f7d4c69350054cb0e,2021-07-29_20h03.08.694,Simcolourproject_2stim_asymm_v5,2020.2.10,MacIntel,60,61025ae37ef11b136ea224fe,,,,,,,,,189,-37.51263428,-82.95751953,1,0,0,response5disk,,3,-14.92816162,2.134643555,1,0,0,rectangle,33.32147217,79.70593262,1,0,0,9.35760498,-8.727813721,1,0,0,1,71,231,84,1,,response1disk_3,TRUE,7,7,"[159,88,79,63,268,56,231,232,55,209,256,147,196,244,201,154,11,239,266,106]",3.2161,rectangle
,,,,,,,,,,,,,FF,,,,,,,,4.0328,,,,,,,,,,,,,,,,,,,,,,610328909dde1ee1a352daef,61036b5f7d4c69350054cb0e,2021-07-29_20h03.08.694,Simcolourproject_2stim_asymm_v5,2020.2.10,MacIntel,60,61025ae37ef11b136ea224fe,,,,,,,,,1702,63.67999268,-74.43713379,1,0,0,response3disk,,4,17.34710693,-14.24905396,1,0,0,rectangle,17.34710693,-14.24905396,1,0,0,17.34710693,-14.24905396,1,0,0,1,72,232,115,1,,,,,,,,
,,,,,,,,,,,,,FF,,,,,,,,1.0005,,,,,,,,,,,,,,,,,,,,,,610328909dde1ee1a352daef,61036b5f7d4c69350054cb0e,2021-07-29_20h03.08.694,Simcolourproject_2stim_asymm_v5,2020.2.10,MacIntel,60,61025ae37ef11b136ea224fe,,,,,,,,,2756,30.87908936,-58.89797974,1,0,0,response3disk,,4,18.5824585,8.274780273,1,0,0,rectangle,18.5824585,8.274780273,1,0,0,18.5824585,8.274780273,1,0,0,1,73,233,71,1,,,,,,,,
,,,,,,,,,,,,,FF,,,,,,,,1.2331,,,,,,,,,,,,,,,,,,,,,,610328909dde1ee1a352daef,61036b5f7d4c69350054cb0e,2021-07-29_20h03.08.694,Simcolourproject_2stim_asymm_v5,2020.2.10,MacIntel,60,61025ae37ef11b136ea224fe,,,,,,,,,2929,83.15234375,-47.6550293,1,0,0,response3disk,,5,0.666259766,0.898620605,1,0,0,rectangle,0.666259766,0.898620605,1,0,0,0.666259766,0.898620605,1,0,0,1,74,234,5,1,,,,,,,,
,,,,,,,,,,,,,FF,,,,,,,,1.0007,,,,,,,,,,,,,,,,,,,,,,610328909dde1ee1a352daef,61036b5f7d4c69350054cb0e,2021-07-29_20h03.08.694,Simcolourproject_2stim_asymm_v5,2020.2.10,MacIntel,60,61025ae37ef11b136ea224fe,,,,,,,,,2154,58.82513428,-32.4977417,1,0,0,response3disk,,5,31.00640869,1.436889648,1,0,0,rectangle,31.00640869,1.436889648,1,0,0,31.00640869,1.436889648,1,0,0,1,75,235,22,1,,,,,,,,
,,,,,,,,,,,,,FF,,,,,,,,1.7004,,,,,,,,,,,,,,,,,,,,,,610328909dde1ee1a352daef,61036b5f7d4c69350054cb0e,2021-07-29_20h03.08.694,Simcolourproject_2stim_asymm_v5,2020.2.10,MacIntel,60,61025ae37ef11b136ea224fe,,,,,,,,,105,39.02636719,-98.07128906,1,0,0,response3disk,,4,16.65478516,-5.055480957,1,0,0,rectangle,16.65478516,-5.055480957,1,0,0,16.65478516,-5.055480957,1,0,0,1,76,236,135,1,,,,,,,,
,,,,,,,,,,,,,FF,,,,,,,,1.3675,,,,,,,,,,,,,,,,,,,,,,610328909dde1ee1a352daef,61036b5f7d4c69350054cb0e,2021-07-29_20h03.08.694,Simcolourproject_2stim_asymm_v5,2020.2.10,MacIntel,60,61025ae37ef11b136ea224fe,,,,,,,,,3289,57.77270508,-66.26971436,1,0,0,response3disk,,4,12.94177246,4.898284912,1,0,0,rectangle,12.94177246,4.898284912,1,0,0,12.94177246,4.898284912,1,0,0,1,77,237,121,1,,,,,,,,
,,,,,,,,,,,,,FF,,,,,,,,2.1147,,,,,,,,,,,,,,,,,,,,,,610328909dde1ee1a352daef,61036b5f7d4c69350054cb0e,2021-07-29_20h03.08.694,Simcolourproject_2stim_asymm_v5,2020.2.10,MacIntel,60,61025ae37ef11b136ea224fe,,,,,,,,,3003,48.00952148,-85.73901367,1,0,0,response3disk,,4,16.88153076,-13.65222168,1,0,0,rectangle,29.8359375,-47.51004028,1,0,0,8.798278809,7.131530762,1,0,0,1,78,238,113,1,,response3disk_3,TRUE,4,4,"[159,88,79,63,268,56,231,232,55,209,256,147,196,244,201,154,11,239,266,106]",1.5,rectangle
,,,,,,,,,,,,,FF,,,,,,,,3.1323,,,,,,,,,,,,,,,,,,,,,,610328909dde1ee1a352daef,61036b5f7d4c69350054cb0e,2021-07-29_20h03.08.694,Simcolourproject_2stim_asymm_v5,2020.2.10,MacIntel,60,61025ae37ef11b136ea224fe,,,,,,,,,3750,-25.6295166,-75.45892334,1,0,0,response5disk,,3,-11.8190918,-8.04876709,1,0,0,rectangle,-11.8190918,-8.04876709,1,0,0,-11.8190918,-8.04876709,1,0,0,1,79,239,103,1,,,,,,,,
,,,,,,,,,,,,,FF,,,,,,,,1.0818,,,,,,,,,,,,,,,,,,,,,,610328909dde1ee1a352daef,61036b5f7d4c69350054cb0e,2021-07-29_20h03.08.694,Simcolourproject_2stim_asymm_v5,2020.2.10,MacIntel,60,61025ae37ef11b136ea224fe,,,,,,,,,2081,81.07830811,-39.76046753,1,0,0,response3disk,,5,12.19281006,-1.139892578,1,0,0,rectangle,12.19281006,-1.139892578,1,0,0,12.19281006,-1.139892578,1,0,0,1,80,240,91,1,,,,,,,,
