key_resp.keys,key_resp.rt,key_resp_14.keys,key_resp_14.rt,key_resp_15.keys,key_resp_15.rt,key_resp_17.keys,key_resp_17.rt,key_resp_9.keys,key_resp_9.rt,key_resp_10.keys,key_resp_10.rt,practice_comparison,Ecc,mouse_5.x,mouse_5.y,mouse_5.leftButton,mouse_5.midButton,mouse_5.rightButton,mouse_5.clicked_name,pracsimilarity,response_time,mouse_10.x,mouse_10.y,mouse_10.leftButton,mouse_10.midButton,mouse_10.rightButton,mouse_10.clicked_name,mouse_7.x,mouse_7.y,mouse_7.leftButton,mouse_7.midButton,mouse_7.rightButton,mouse_6.x,mouse_6.y,mouse_6.leftButton,mouse_6.midButton,mouse_6.rightButton,duringprac.thisRepN,duringprac.thisTrialN,duringprac.thisN,duringprac.thisIndex,duringprac.ran,participant,session,date,expName,psychopyVersion,OS,frameRate,study_id,mouse_7.clicked_name,catchpracsimilarity,catch_response_time,catchnumberprac,catchtrialorderprac,mouse_6.clicked_name,key_resp_22.keys,key_resp_22.rt,realcomparison,mouse.x,mouse.y,mouse.leftButton,mouse.midButton,mouse.rightButton,mouse.clicked_name,Colour2,similarity,mouse_2.x,mouse_2.y,mouse_2.leftButton,mouse_2.midButton,mouse_2.rightButton,mouse_2.clicked_name,mouse_3.x,mouse_3.y,mouse_3.leftButton,mouse_3.midButton,mouse_3.rightButton,mouse_11.x,mouse_11.y,mouse_11.leftButton,mouse_11.midButton,mouse_11.rightButton,trials_2.thisRepN,trials_2.thisTrialN,trials_2.thisN,trials_2.thisIndex,trials_2.ran,Colour1,mouse_3.clicked_name,catchornah,catchsimilarity,catchnumber,catchtrialorder,catchRT,mouse_11.clicked_name
space,1.533,space,14.295,space,25.808,space,1.715,space,2.487,space,3.215,65,PF,41,95,1,0,0,response1disk_5,7,11.883,-6,-1,1,0,0,rectangle_8,-6,-1,1,0,0,-6,-1,1,0,0,0,0,0,2,1,61036408097ef9b5244058ed,61036e33236ad4ffc5587c93,2021-07-29_23h13.33.301,Simcolourproject_2stim_asymm_v5,2020.2.10,Win32,60,61025ae37ef11b136ea224fe,,,,,,,,,,,,,,,,,,,,,,,,,,,,,,,,,,,,,,,,,,,,,,
,,,,,,,,,,,,60,FF,48,99,1,0,0,response1disk_5,7,1.621,15,3,1,0,0,rectangle_8,44,107,1,0,0,2,-3,1,0,0,0,1,1,3,1,61036408097ef9b5244058ed,61036e33236ad4ffc5587c93,2021-07-29_23h13.33.301,Simcolourproject_2stim_asymm_v5,2020.2.10,Win32,60,61025ae37ef11b136ea224fe,response1disk_7,7,3.169,7,"[2,5]",rectangle_4,,,,,,,,,,,,,,,,,,,,,,,,,,,,,,,,,,,,,,,,
,,,,,,,,,,,,61,PF,71,47,1,0,0,response1disk_5,6,1.752,18,2,1,0,0,rectangle_8,18,2,1,0,0,18,2,1,0,0,0,2,2,1,1,61036408097ef9b5244058ed,61036e33236ad4ffc5587c93,2021-07-29_23h13.33.301,Simcolourproject_2stim_asymm_v5,2020.2.10,Win32,60,61025ae37ef11b136ea224fe,,,,,,,,,,,,,,,,,,,,,,,,,,,,,,,,,,,,,,,,,,,,,,
,,,,,,,,,,,,149,FF,27,61,1,0,0,response1disk_5,7,0.967,-1,-3,1,0,0,rectangle_8,-1,-3,1,0,0,-1,-3,1,0,0,0,3,3,5,1,61036408097ef9b5244058ed,61036e33236ad4ffc5587c93,2021-07-29_23h13.33.301,Simcolourproject_2stim_asymm_v5,2020.2.10,Win32,60,61025ae37ef11b136ea224fe,,,,,,,,,,,,,,,,,,,,,,,,,,,,,,,,,,,,,,,,,,,,,,
,,,,,,,,,,,,137,PF,56,-35,1,0,0,response3disk_5,5,1.486,0,-4,1,0,0,rectangle_8,23,31,1,0,0,11,-10,1,0,0,0,4,4,6,1,61036408097ef9b5244058ed,61036e33236ad4ffc5587c93,2021-07-29_23h13.33.301,Simcolourproject_2stim_asymm_v5,2020.2.10,Win32,60,61025ae37ef11b136ea224fe,response1disk_7,7,2.069,7,"[2,5]",rectangle_4,,,,,,,,,,,,,,,,,,,,,,,,,,,,,,,,,,,,,,,,
,,,,,,,,,,,,71,PF,34,113,1,0,0,response1disk_5,7,1.285,-3,2,1,0,0,rectangle_8,-3,2,1,0,0,-3,2,1,0,0,0,5,5,4,1,61036408097ef9b5244058ed,61036e33236ad4ffc5587c93,2021-07-29_23h13.33.301,Simcolourproject_2stim_asymm_v5,2020.2.10,Win32,60,61025ae37ef11b136ea224fe,,,,,,,,,,,,,,,,,,,,,,,,,,,,,,,,,,,,,,,,,,,,,,
,,,,,,,,,,,,11,FF,-29,-74,1,0,0,response5disk_5,3,2.219,11,1,1,0,0,rectangle_8,11,1,1,0,0,11,1,1,0,0,0,6,6,0,1,61036408097ef9b5244058ed,61036e33236ad4ffc5587c93,2021-07-29_23h13.33.301,Simcolourproject_2stim_asymm_v5,2020.2.10,Win32,60,61025ae37ef11b136ea224fe,,,,,,,,,,,,,,,,,,,,,,,,,,,,,,,,,,,,,,,,,,,,,,
,,,,,,,,,,,,,FF,,,,,,,,1.835,,,,,,,,,,,,,,,,,,,,,,61036408097ef9b5244058ed,61036e33236ad4ffc5587c93,2021-07-29_23h13.33.301,Simcolourproject_2stim_asymm_v5,2020.2.10,Win32,60,61025ae37ef11b136ea224fe,,,,,,,space,3.084,3205,67,43,1,0,0,response1disk,,6,-18,3,1,0,0,rectangle,-18,3,1,0,0,-18,3,1,0,0,0,0,0,95,1,,,,,,,,
,,,,,,,,,,,,,FF,,,,,,,,0.885,,,,,,,,,,,,,,,,,,,,,,61036408097ef9b5244058ed,61036e33236ad4ffc5587c93,2021-07-29_23h13.33.301,Simcolourproject_2stim_asymm_v5,2020.2.10,Win32,60,61025ae37ef11b136ea224fe,,,,,,,,,931,39,85,1,0,0,response1disk,,7,10,5,1,0,0,rectangle,10,5,1,0,0,10,5,1,0,0,0,1,1,54,1,,,,,,,,
,,,,,,,,,,,,,FF,,,,,,,,1.051,,,,,,,,,,,,,,,,,,,,,,61036408097ef9b5244058ed,61036e33236ad4ffc5587c93,2021-07-29_23h13.33.301,Simcolourproject_2stim_asymm_v5,2020.2.10,Win32,60,61025ae37ef11b136ea224fe,,,,,,,,,896,24,-71,1,0,0,response3disk,,4,-27,13,1,0,0,rectangle,-27,13,1,0,0,-27,13,1,0,0,0,2,2,48,1,,,,,,,,
,,,,,,,,,,,,,FF,,,,,,,,1.368,,,,,,,,,,,,,,,,,,,,,,61036408097ef9b5244058ed,61036e33236ad4ffc5587c93,2021-07-29_23h13.33.301,Simcolourproject_2stim_asymm_v5,2020.2.10,Win32,60,61025ae37ef11b136ea224fe,,,,,,,,,1417,43,81,1,0,0,response1disk,,7,-13,-9,1,0,0,rectangle,-13,-9,1,0,0,-13,-9,1,0,0,0,3,3,8,1,,,,,,,,
,,,,,,,,,,,,,FF,,,,,,,,1.368,,,,,,,,,,,,,,,,,,,,,,61036408097ef9b5244058ed,61036e33236ad4ffc5587c93,2021-07-29_23h13.33.301,Simcolourproject_2stim_asymm_v5,2020.2.10,Win32,60,61025ae37ef11b136ea224fe,,,,,,,,,3513,-20,-74,1,0,0,response5disk,,3,27,2,1,0,0,rectangle,27,2,1,0,0,27,2,1,0,0,0,4,4,59,1,,,,,,,,
,,,,,,,,,,,,,FF,,,,,,,,1.987,,,,,,,,,,,,,,,,,,,,,,61036408097ef9b5244058ed,61036e33236ad4ffc5587c93,2021-07-29_23h13.33.301,Simcolourproject_2stim_asymm_v5,2020.2.10,Win32,60,61025ae37ef11b136ea224fe,,,,,,,,,3709,-75,-29,1,0,0,response5disk,,2,0,-8,1,0,0,rectangle,0,-8,1,0,0,0,-8,1,0,0,0,5,5,143,1,,,,,,,,
,,,,,,,,,,,,,FF,,,,,,,,2.871,,,,,,,,,,,,,,,,,,,,,,61036408097ef9b5244058ed,61036e33236ad4ffc5587c93,2021-07-29_23h13.33.301,Simcolourproject_2stim_asymm_v5,2020.2.10,Win32,60,61025ae37ef11b136ea224fe,,,,,,,,,2768,53,-53,1,0,0,response3disk,,5,0,7,1,0,0,rectangle,0,7,1,0,0,0,7,1,0,0,0,6,6,39,1,,,,,,,,
,,,,,,,,,,,,,FF,,,,,,,,0.784,,,,,,,,,,,,,,,,,,,,,,61036408097ef9b5244058ed,61036e33236ad4ffc5587c93,2021-07-29_23h13.33.301,Simcolourproject_2stim_asymm_v5,2020.2.10,Win32,60,61025ae37ef11b136ea224fe,,,,,,,,,499,48,67,1,0,0,response1disk,,7,17,11,1,0,0,rectangle,17,11,1,0,0,17,11,1,0,0,0,7,7,139,1,,,,,,,,
,,,,,,,,,,,,,FF,,,,,,,,0.787,,,,,,,,,,,,,,,,,,,,,,61036408097ef9b5244058ed,61036e33236ad4ffc5587c93,2021-07-29_23h13.33.301,Simcolourproject_2stim_asymm_v5,2020.2.10,Win32,60,61025ae37ef11b136ea224fe,,,,,,,,,4211,23,63,1,0,0,response1disk,,7,-5,-3,1,0,0,rectangle,-5,-3,1,0,0,-5,-3,1,0,0,0,8,8,1,1,,,,,,,,
,,,,,,,,,,,,,FF,,,,,,,,1.405,,,,,,,,,,,,,,,,,,,,,,61036408097ef9b5244058ed,61036e33236ad4ffc5587c93,2021-07-29_23h13.33.301,Simcolourproject_2stim_asymm_v5,2020.2.10,Win32,60,61025ae37ef11b136ea224fe,,,,,,,,,300,63,-15,1,0,0,response3disk,,5,13,-1,1,0,0,rectangle,13,-1,1,0,0,13,-1,1,0,0,0,9,9,119,1,,,,,,,,
,,,,,,,,,,,,,FF,,,,,,,,1.468,,,,,,,,,,,,,,,,,,,,,,61036408097ef9b5244058ed,61036e33236ad4ffc5587c93,2021-07-29_23h13.33.301,Simcolourproject_2stim_asymm_v5,2020.2.10,Win32,60,61025ae37ef11b136ea224fe,,,,,,,,,1693,42,30,1,0,0,response1disk,,6,-3,7,1,0,0,rectangle,-3,7,1,0,0,-3,7,1,0,0,0,10,10,74,1,,,,,,,,
,,,,,,,,,,,,,FF,,,,,,,,1.067,,,,,,,,,,,,,,,,,,,,,,61036408097ef9b5244058ed,61036e33236ad4ffc5587c93,2021-07-29_23h13.33.301,Simcolourproject_2stim_asymm_v5,2020.2.10,Win32,60,61025ae37ef11b136ea224fe,,,,,,,,,3252,-41,-38,1,0,0,response5disk,,2,5,-2,1,0,0,rectangle,5,-2,1,0,0,5,-2,1,0,0,0,11,11,69,1,,,,,,,,
,,,,,,,,,,,,,FF,,,,,,,,1.486,,,,,,,,,,,,,,,,,,,,,,61036408097ef9b5244058ed,61036e33236ad4ffc5587c93,2021-07-29_23h13.33.301,Simcolourproject_2stim_asymm_v5,2020.2.10,Win32,60,61025ae37ef11b136ea224fe,,,,,,,,,3787,44,29,1,0,0,response1disk,,6,-11,-9,1,0,0,rectangle,-11,-9,1,0,0,-11,-9,1,0,0,0,12,12,135,1,,,,,,,,
,,,,,,,,,,,,,FF,,,,,,,,0.851,,,,,,,,,,,,,,,,,,,,,,61036408097ef9b5244058ed,61036e33236ad4ffc5587c93,2021-07-29_23h13.33.301,Simcolourproject_2stim_asymm_v5,2020.2.10,Win32,60,61025ae37ef11b136ea224fe,,,,,,,,,1713,36,63,1,0,0,response1disk,,7,9,2,1,0,0,rectangle,9,2,1,0,0,9,2,1,0,0,0,13,13,29,1,,,,,,,,
,,,,,,,,,,,,,FF,,,,,,,,1.685,,,,,,,,,,,,,,,,,,,,,,61036408097ef9b5244058ed,61036e33236ad4ffc5587c93,2021-07-29_23h13.33.301,Simcolourproject_2stim_asymm_v5,2020.2.10,Win32,60,61025ae37ef11b136ea224fe,,,,,,,,,631,-30,-46,1,0,0,response5disk,,3,-3,1,1,0,0,rectangle,-3,1,1,0,0,-3,1,1,0,0,0,14,14,17,1,,,,,,,,
,,,,,,,,,,,,,FF,,,,,,,,2.219,,,,,,,,,,,,,,,,,,,,,,61036408097ef9b5244058ed,61036e33236ad4ffc5587c93,2021-07-29_23h13.33.301,Simcolourproject_2stim_asymm_v5,2020.2.10,Win32,60,61025ae37ef11b136ea224fe,,,,,,,,,2256,25,48,1,0,0,response1disk,,7,7,11,1,0,0,rectangle,7,11,1,0,0,7,11,1,0,0,0,15,15,107,1,,,,,,,,
,,,,,,,,,,,,,FF,,,,,,,,1.568,,,,,,,,,,,,,,,,,,,,,,61036408097ef9b5244058ed,61036e33236ad4ffc5587c93,2021-07-29_23h13.33.301,Simcolourproject_2stim_asymm_v5,2020.2.10,Win32,60,61025ae37ef11b136ea224fe,,,,,,,,,196,45,15,1,0,0,response1disk,,6,3,-8,1,0,0,rectangle,3,-8,1,0,0,3,-8,1,0,0,0,16,16,20,1,,,,,,,,
,,,,,,,,,,,,,FF,,,,,,,,0.802,,,,,,,,,,,,,,,,,,,,,,61036408097ef9b5244058ed,61036e33236ad4ffc5587c93,2021-07-29_23h13.33.301,Simcolourproject_2stim_asymm_v5,2020.2.10,Win32,60,61025ae37ef11b136ea224fe,,,,,,,,,3270,34,83,1,0,0,response1disk,,7,3,8,1,0,0,rectangle,3,8,1,0,0,3,8,1,0,0,0,17,17,131,1,,,,,,,,
,,,,,,,,,,,,,FF,,,,,,,,1.001,,,,,,,,,,,,,,,,,,,,,,61036408097ef9b5244058ed,61036e33236ad4ffc5587c93,2021-07-29_23h13.33.301,Simcolourproject_2stim_asymm_v5,2020.2.10,Win32,60,61025ae37ef11b136ea224fe,,,,,,,,,4081,31,56,1,0,0,response1disk,,7,-1,2,1,0,0,rectangle,-1,2,1,0,0,-1,2,1,0,0,0,18,18,114,1,,,,,,,,
,,,,,,,,,,,,,FF,,,,,,,,0.9,,,,,,,,,,,,,,,,,,,,,,61036408097ef9b5244058ed,61036e33236ad4ffc5587c93,2021-07-29_23h13.33.301,Simcolourproject_2stim_asymm_v5,2020.2.10,Win32,60,61025ae37ef11b136ea224fe,,,,,,,,,554,43,28,1,0,0,response1disk,,6,8,2,1,0,0,rectangle,8,2,1,0,0,8,2,1,0,0,0,19,19,19,1,,,,,,,,
,,,,,,,,,,,,,FF,,,,,,,,1.001,,,,,,,,,,,,,,,,,,,,,,61036408097ef9b5244058ed,61036e33236ad4ffc5587c93,2021-07-29_23h13.33.301,Simcolourproject_2stim_asymm_v5,2020.2.10,Win32,60,61025ae37ef11b136ea224fe,,,,,,,,,2685,57,31,1,0,0,response1disk,,6,26,-2,1,0,0,rectangle,26,-2,1,0,0,26,-2,1,0,0,0,20,20,43,1,,,,,,,,
,,,,,,,,,,,,,FF,,,,,,,,0.884,,,,,,,,,,,,,,,,,,,,,,61036408097ef9b5244058ed,61036e33236ad4ffc5587c93,2021-07-29_23h13.33.301,Simcolourproject_2stim_asymm_v5,2020.2.10,Win32,60,61025ae37ef11b136ea224fe,,,,,,,,,3616,41,55,1,0,0,response1disk,,7,11,7,1,0,0,rectangle,11,7,1,0,0,11,7,1,0,0,0,21,21,65,1,,,,,,,,
,,,,,,,,,,,,,FF,,,,,,,,0.535,,,,,,,,,,,,,,,,,,,,,,61036408097ef9b5244058ed,61036e33236ad4ffc5587c93,2021-07-29_23h13.33.301,Simcolourproject_2stim_asymm_v5,2020.2.10,Win32,60,61025ae37ef11b136ea224fe,,,,,,,,,1707,30,52,1,0,0,response1disk,,7,2,-3,1,0,0,rectangle,2,-3,1,0,0,2,-3,1,0,0,0,22,22,25,1,,,,,,,,
,,,,,,,,,,,,,FF,,,,,,,,1.176,,,,,,,,,,,,,,,,,,,,,,61036408097ef9b5244058ed,61036e33236ad4ffc5587c93,2021-07-29_23h13.33.301,Simcolourproject_2stim_asymm_v5,2020.2.10,Win32,60,61025ae37ef11b136ea224fe,,,,,,,,,347,66,-25,1,0,0,response3disk,,5,-21,-12,1,0,0,rectangle,-21,-12,1,0,0,-21,-12,1,0,0,0,23,23,128,1,,,,,,,,
,,,,,,,,,,,,,FF,,,,,,,,1.351,,,,,,,,,,,,,,,,,,,,,,61036408097ef9b5244058ed,61036e33236ad4ffc5587c93,2021-07-29_23h13.33.301,Simcolourproject_2stim_asymm_v5,2020.2.10,Win32,60,61025ae37ef11b136ea224fe,,,,,,,,,3994,-75,-37,1,0,0,response5disk,,2,21,13,1,0,0,rectangle,21,13,1,0,0,21,13,1,0,0,0,24,24,157,1,,,,,,,,
,,,,,,,,,,,,,FF,,,,,,,,0.934,,,,,,,,,,,,,,,,,,,,,,61036408097ef9b5244058ed,61036e33236ad4ffc5587c93,2021-07-29_23h13.33.301,Simcolourproject_2stim_asymm_v5,2020.2.10,Win32,60,61025ae37ef11b136ea224fe,,,,,,,,,1538,78,29,1,0,0,response1disk,,6,13,-6,1,0,0,rectangle,13,-6,1,0,0,13,-6,1,0,0,0,25,25,55,1,,,,,,,,
,,,,,,,,,,,,,FF,,,,,,,,1.319,,,,,,,,,,,,,,,,,,,,,,61036408097ef9b5244058ed,61036e33236ad4ffc5587c93,2021-07-29_23h13.33.301,Simcolourproject_2stim_asymm_v5,2020.2.10,Win32,60,61025ae37ef11b136ea224fe,,,,,,,,,633,63,35,1,0,0,response1disk,,6,-1,-11,1,0,0,rectangle,-1,-11,1,0,0,-1,-11,1,0,0,0,26,26,11,1,,,,,,,,
,,,,,,,,,,,,,FF,,,,,,,,1.135,,,,,,,,,,,,,,,,,,,,,,61036408097ef9b5244058ed,61036e33236ad4ffc5587c93,2021-07-29_23h13.33.301,Simcolourproject_2stim_asymm_v5,2020.2.10,Win32,60,61025ae37ef11b136ea224fe,,,,,,,,,1662,57,-18,1,0,0,response3disk,,5,3,10,1,0,0,rectangle,3,10,1,0,0,3,10,1,0,0,0,27,27,3,1,,,,,,,,
,,,,,,,,,,,,,FF,,,,,,,,2.07,,,,,,,,,,,,,,,,,,,,,,61036408097ef9b5244058ed,61036e33236ad4ffc5587c93,2021-07-29_23h13.33.301,Simcolourproject_2stim_asymm_v5,2020.2.10,Win32,60,61025ae37ef11b136ea224fe,,,,,,,,,1484,-19,-42,1,0,0,response5disk,,3,11,-4,1,0,0,rectangle,11,-4,1,0,0,11,-4,1,0,0,0,28,28,52,1,,,,,,,,
,,,,,,,,,,,,,FF,,,,,,,,1.518,,,,,,,,,,,,,,,,,,,,,,61036408097ef9b5244058ed,61036e33236ad4ffc5587c93,2021-07-29_23h13.33.301,Simcolourproject_2stim_asymm_v5,2020.2.10,Win32,60,61025ae37ef11b136ea224fe,,,,,,,,,2966,59,25,1,0,0,response1disk,,6,1,-3,1,0,0,rectangle,1,-3,1,0,0,1,-3,1,0,0,0,29,29,94,1,,,,,,,,
,,,,,,,,,,,,,FF,,,,,,,,2.086,,,,,,,,,,,,,,,,,,,,,,61036408097ef9b5244058ed,61036e33236ad4ffc5587c93,2021-07-29_23h13.33.301,Simcolourproject_2stim_asymm_v5,2020.2.10,Win32,60,61025ae37ef11b136ea224fe,,,,,,,,,3402,30,63,1,0,0,response1disk,,7,-1,1,1,0,0,rectangle,-1,1,1,0,0,-1,1,1,0,0,0,30,30,142,1,,,,,,,,
,,,,,,,,,,,,,FF,,,,,,,,1.518,,,,,,,,,,,,,,,,,,,,,,61036408097ef9b5244058ed,61036e33236ad4ffc5587c93,2021-07-29_23h13.33.301,Simcolourproject_2stim_asymm_v5,2020.2.10,Win32,60,61025ae37ef11b136ea224fe,,,,,,,,,1066,45,63,1,0,0,response1disk,,7,9,-1,1,0,0,rectangle,9,-1,1,0,0,9,-1,1,0,0,0,31,31,155,1,,,,,,,,
,,,,,,,,,,,,,FF,,,,,,,,1.084,,,,,,,,,,,,,,,,,,,,,,61036408097ef9b5244058ed,61036e33236ad4ffc5587c93,2021-07-29_23h13.33.301,Simcolourproject_2stim_asymm_v5,2020.2.10,Win32,60,61025ae37ef11b136ea224fe,,,,,,,,,3235,86,39,1,0,0,response1disk,,6,7,-8,1,0,0,rectangle,7,-8,1,0,0,7,-8,1,0,0,0,32,32,45,1,,,,,,,,
,,,,,,,,,,,,,FF,,,,,,,,1.29,,,,,,,,,,,,,,,,,,,,,,61036408097ef9b5244058ed,61036e33236ad4ffc5587c93,2021-07-29_23h13.33.301,Simcolourproject_2stim_asymm_v5,2020.2.10,Win32,60,61025ae37ef11b136ea224fe,,,,,,,,,2421,-37,-66,1,0,0,response5disk,,3,5,-4,1,0,0,rectangle,5,-4,1,0,0,5,-4,1,0,0,0,33,33,42,1,,,,,,,,
,,,,,,,,,,,,,FF,,,,,,,,0.718,,,,,,,,,,,,,,,,,,,,,,61036408097ef9b5244058ed,61036e33236ad4ffc5587c93,2021-07-29_23h13.33.301,Simcolourproject_2stim_asymm_v5,2020.2.10,Win32,60,61025ae37ef11b136ea224fe,,,,,,,,,2027,-39,-51,1,0,0,response5disk,,3,0,10,1,0,0,rectangle,-78,-27,1,0,0,7,-3,1,0,0,0,34,34,33,1,,response5disk_3,TRUE,2,2,"[268,176,101,234,96,239,322,273,174,277,81,227,244,119,267,35,208,251,164,284]",2.552,rectangle
,,,,,,,,,,,,,FF,,,,,,,,1.247,,,,,,,,,,,,,,,,,,,,,,61036408097ef9b5244058ed,61036e33236ad4ffc5587c93,2021-07-29_23h13.33.301,Simcolourproject_2stim_asymm_v5,2020.2.10,Win32,60,61025ae37ef11b136ea224fe,,,,,,,,,1456,-45,-25,1,0,0,response5disk,,2,-6,4,1,0,0,rectangle,-6,4,1,0,0,-6,4,1,0,0,0,35,35,81,1,,,,,,,,
,,,,,,,,,,,,,FF,,,,,,,,1.92,,,,,,,,,,,,,,,,,,,,,,61036408097ef9b5244058ed,61036e33236ad4ffc5587c93,2021-07-29_23h13.33.301,Simcolourproject_2stim_asymm_v5,2020.2.10,Win32,60,61025ae37ef11b136ea224fe,,,,,,,,,800,67,-79,1,0,0,response3disk,,4,8,-13,1,0,0,rectangle,8,-13,1,0,0,8,-13,1,0,0,0,36,36,80,1,,,,,,,,
,,,,,,,,,,,,,FF,,,,,,,,0.985,,,,,,,,,,,,,,,,,,,,,,61036408097ef9b5244058ed,61036e33236ad4ffc5587c93,2021-07-29_23h13.33.301,Simcolourproject_2stim_asymm_v5,2020.2.10,Win32,60,61025ae37ef11b136ea224fe,,,,,,,,,710,63,46,1,0,0,response1disk,,6,7,3,1,0,0,rectangle,7,3,1,0,0,7,3,1,0,0,0,37,37,116,1,,,,,,,,
,,,,,,,,,,,,,FF,,,,,,,,0.719,,,,,,,,,,,,,,,,,,,,,,61036408097ef9b5244058ed,61036e33236ad4ffc5587c93,2021-07-29_23h13.33.301,Simcolourproject_2stim_asymm_v5,2020.2.10,Win32,60,61025ae37ef11b136ea224fe,,,,,,,,,2327,75,46,1,0,0,response1disk,,6,7,1,1,0,0,rectangle,7,1,1,0,0,7,1,1,0,0,0,38,38,0,1,,,,,,,,
,,,,,,,,,,,,,FF,,,,,,,,1.168,,,,,,,,,,,,,,,,,,,,,,61036408097ef9b5244058ed,61036e33236ad4ffc5587c93,2021-07-29_23h13.33.301,Simcolourproject_2stim_asymm_v5,2020.2.10,Win32,60,61025ae37ef11b136ea224fe,,,,,,,,,3782,-49,24,1,0,0,response7disk,,1,13,2,1,0,0,rectangle,13,2,1,0,0,13,2,1,0,0,0,39,39,92,1,,,,,,,,
,,,,,,,,,,,,,FF,,,,,,,,1.302,,,,,,,,,,,,,,,,,,,,,,61036408097ef9b5244058ed,61036e33236ad4ffc5587c93,2021-07-29_23h13.33.301,Simcolourproject_2stim_asymm_v5,2020.2.10,Win32,60,61025ae37ef11b136ea224fe,,,,,,,,,4351,-37,-22,1,0,0,response5disk,,2,7,0,1,0,0,rectangle,7,0,1,0,0,7,0,1,0,0,0,40,40,56,1,,,,,,,,
,,,,,,,,,,,,,FF,,,,,,,,0.816,,,,,,,,,,,,,,,,,,,,,,61036408097ef9b5244058ed,61036e33236ad4ffc5587c93,2021-07-29_23h13.33.301,Simcolourproject_2stim_asymm_v5,2020.2.10,Win32,60,61025ae37ef11b136ea224fe,,,,,,,,,1544,51,18,1,0,0,response1disk,,6,9,-4,1,0,0,rectangle,9,-4,1,0,0,9,-4,1,0,0,0,41,41,14,1,,,,,,,,
,,,,,,,,,,,,,FF,,,,,,,,0.735,,,,,,,,,,,,,,,,,,,,,,61036408097ef9b5244058ed,61036e33236ad4ffc5587c93,2021-07-29_23h13.33.301,Simcolourproject_2stim_asymm_v5,2020.2.10,Win32,60,61025ae37ef11b136ea224fe,,,,,,,,,1763,53,33,1,0,0,response1disk,,6,16,3,1,0,0,rectangle,16,3,1,0,0,16,3,1,0,0,0,42,42,9,1,,,,,,,,
,,,,,,,,,,,,,FF,,,,,,,,1.718,,,,,,,,,,,,,,,,,,,,,,61036408097ef9b5244058ed,61036e33236ad4ffc5587c93,2021-07-29_23h13.33.301,Simcolourproject_2stim_asymm_v5,2020.2.10,Win32,60,61025ae37ef11b136ea224fe,,,,,,,,,4161,-31,85,1,0,0,response7disk,,0,7,1,1,0,0,rectangle,7,1,1,0,0,7,1,1,0,0,0,43,43,12,1,,,,,,,,
,,,,,,,,,,,,,FF,,,,,,,,0.836,,,,,,,,,,,,,,,,,,,,,,61036408097ef9b5244058ed,61036e33236ad4ffc5587c93,2021-07-29_23h13.33.301,Simcolourproject_2stim_asymm_v5,2020.2.10,Win32,60,61025ae37ef11b136ea224fe,,,,,,,,,1634,95,33,1,0,0,response1disk,,6,12,1,1,0,0,rectangle,12,1,1,0,0,12,1,1,0,0,0,44,44,79,1,,,,,,,,
,,,,,,,,,,,,,FF,,,,,,,,1.264,,,,,,,,,,,,,,,,,,,,,,61036408097ef9b5244058ed,61036e33236ad4ffc5587c93,2021-07-29_23h13.33.301,Simcolourproject_2stim_asymm_v5,2020.2.10,Win32,60,61025ae37ef11b136ea224fe,,,,,,,,,2539,52,53,1,0,0,response1disk,,7,6,1,1,0,0,rectangle,6,1,1,0,0,6,1,1,0,0,0,45,45,41,1,,,,,,,,
,,,,,,,,,,,,,FF,,,,,,,,0.869,,,,,,,,,,,,,,,,,,,,,,61036408097ef9b5244058ed,61036e33236ad4ffc5587c93,2021-07-29_23h13.33.301,Simcolourproject_2stim_asymm_v5,2020.2.10,Win32,60,61025ae37ef11b136ea224fe,,,,,,,,,3475,-58,24,1,0,0,response7disk,,1,2,1,1,0,0,rectangle,2,1,1,0,0,2,1,1,0,0,0,46,46,86,1,,,,,,,,
,,,,,,,,,,,,,FF,,,,,,,,1.769,,,,,,,,,,,,,,,,,,,,,,61036408097ef9b5244058ed,61036e33236ad4ffc5587c93,2021-07-29_23h13.33.301,Simcolourproject_2stim_asymm_v5,2020.2.10,Win32,60,61025ae37ef11b136ea224fe,,,,,,,,,3294,-68,41,1,0,0,response7disk,,1,11,14,1,0,0,rectangle,11,14,1,0,0,11,14,1,0,0,0,47,47,2,1,,,,,,,,
,,,,,,,,,,,,,FF,,,,,,,,1.352,,,,,,,,,,,,,,,,,,,,,,61036408097ef9b5244058ed,61036e33236ad4ffc5587c93,2021-07-29_23h13.33.301,Simcolourproject_2stim_asymm_v5,2020.2.10,Win32,60,61025ae37ef11b136ea224fe,,,,,,,,,3033,77,53,1,0,0,response1disk,,6,-4,1,1,0,0,rectangle,-4,1,1,0,0,-4,1,1,0,0,0,48,48,47,1,,,,,,,,
,,,,,,,,,,,,,FF,,,,,,,,0.901,,,,,,,,,,,,,,,,,,,,,,61036408097ef9b5244058ed,61036e33236ad4ffc5587c93,2021-07-29_23h13.33.301,Simcolourproject_2stim_asymm_v5,2020.2.10,Win32,60,61025ae37ef11b136ea224fe,,,,,,,,,1708,43,46,1,0,0,response1disk,,7,2,3,1,0,0,rectangle,2,3,1,0,0,2,3,1,0,0,0,49,49,71,1,,,,,,,,
,,,,,,,,,,,,,FF,,,,,,,,1.086,,,,,,,,,,,,,,,,,,,,,,61036408097ef9b5244058ed,61036e33236ad4ffc5587c93,2021-07-29_23h13.33.301,Simcolourproject_2stim_asymm_v5,2020.2.10,Win32,60,61025ae37ef11b136ea224fe,,,,,,,,,2877,18,71,1,0,0,response1disk,,7,-15,4,1,0,0,rectangle,-15,4,1,0,0,-15,4,1,0,0,0,50,50,91,1,,,,,,,,
,,,,,,,,,,,,,FF,,,,,,,,0.751,,,,,,,,,,,,,,,,,,,,,,61036408097ef9b5244058ed,61036e33236ad4ffc5587c93,2021-07-29_23h13.33.301,Simcolourproject_2stim_asymm_v5,2020.2.10,Win32,60,61025ae37ef11b136ea224fe,,,,,,,,,621,48,57,1,0,0,response1disk,,7,9,-5,1,0,0,rectangle,9,-5,1,0,0,9,-5,1,0,0,0,51,51,117,1,,,,,,,,
,,,,,,,,,,,,,FF,,,,,,,,1.369,,,,,,,,,,,,,,,,,,,,,,61036408097ef9b5244058ed,61036e33236ad4ffc5587c93,2021-07-29_23h13.33.301,Simcolourproject_2stim_asymm_v5,2020.2.10,Win32,60,61025ae37ef11b136ea224fe,,,,,,,,,3523,57,45,1,0,0,response1disk,,6,3,-6,1,0,0,rectangle,3,-6,1,0,0,3,-6,1,0,0,0,52,52,87,1,,,,,,,,
,,,,,,,,,,,,,FF,,,,,,,,0.601,,,,,,,,,,,,,,,,,,,,,,61036408097ef9b5244058ed,61036e33236ad4ffc5587c93,2021-07-29_23h13.33.301,Simcolourproject_2stim_asymm_v5,2020.2.10,Win32,60,61025ae37ef11b136ea224fe,,,,,,,,,750,35,61,1,0,0,response1disk,,7,9,-9,1,0,0,rectangle,9,-9,1,0,0,9,-9,1,0,0,0,53,53,100,1,,,,,,,,
,,,,,,,,,,,,,FF,,,,,,,,1.434,,,,,,,,,,,,,,,,,,,,,,61036408097ef9b5244058ed,61036e33236ad4ffc5587c93,2021-07-29_23h13.33.301,Simcolourproject_2stim_asymm_v5,2020.2.10,Win32,60,61025ae37ef11b136ea224fe,,,,,,,,,1617,79,30,1,0,0,response1disk,,6,9,3,1,0,0,rectangle,9,3,1,0,0,9,3,1,0,0,0,54,54,84,1,,,,,,,,
,,,,,,,,,,,,,FF,,,,,,,,0.634,,,,,,,,,,,,,,,,,,,,,,61036408097ef9b5244058ed,61036e33236ad4ffc5587c93,2021-07-29_23h13.33.301,Simcolourproject_2stim_asymm_v5,2020.2.10,Win32,60,61025ae37ef11b136ea224fe,,,,,,,,,840,39,67,1,0,0,response1disk,,7,13,7,1,0,0,rectangle,13,7,1,0,0,13,7,1,0,0,0,55,55,98,1,,,,,,,,
,,,,,,,,,,,,,FF,,,,,,,,1.436,,,,,,,,,,,,,,,,,,,,,,61036408097ef9b5244058ed,61036e33236ad4ffc5587c93,2021-07-29_23h13.33.301,Simcolourproject_2stim_asymm_v5,2020.2.10,Win32,60,61025ae37ef11b136ea224fe,,,,,,,,,1527,22,74,1,0,0,response1disk,,7,2,7,1,0,0,rectangle,2,7,1,0,0,2,7,1,0,0,0,56,56,132,1,,,,,,,,
,,,,,,,,,,,,,FF,,,,,,,,0.734,,,,,,,,,,,,,,,,,,,,,,61036408097ef9b5244058ed,61036e33236ad4ffc5587c93,2021-07-29_23h13.33.301,Simcolourproject_2stim_asymm_v5,2020.2.10,Win32,60,61025ae37ef11b136ea224fe,,,,,,,,,4355,24,37,1,0,0,response1disk,,7,9,-1,1,0,0,rectangle,9,-1,1,0,0,9,-1,1,0,0,0,57,57,105,1,,,,,,,,
,,,,,,,,,,,,,FF,,,,,,,,0.585,,,,,,,,,,,,,,,,,,,,,,61036408097ef9b5244058ed,61036e33236ad4ffc5587c93,2021-07-29_23h13.33.301,Simcolourproject_2stim_asymm_v5,2020.2.10,Win32,60,61025ae37ef11b136ea224fe,,,,,,,,,2971,37,71,1,0,0,response1disk,,7,11,-3,1,0,0,rectangle,11,-3,1,0,0,11,-3,1,0,0,0,58,58,50,1,,,,,,,,
,,,,,,,,,,,,,FF,,,,,,,,0.45,,,,,,,,,,,,,,,,,,,,,,61036408097ef9b5244058ed,61036e33236ad4ffc5587c93,2021-07-29_23h13.33.301,Simcolourproject_2stim_asymm_v5,2020.2.10,Win32,60,61025ae37ef11b136ea224fe,,,,,,,,,1108,29,59,1,0,0,response1disk,,7,15,-2,1,0,0,rectangle,15,-2,1,0,0,15,-2,1,0,0,0,59,59,150,1,,,,,,,,
,,,,,,,,,,,,,FF,,,,,,,,0.484,,,,,,,,,,,,,,,,,,,,,,61036408097ef9b5244058ed,61036e33236ad4ffc5587c93,2021-07-29_23h13.33.301,Simcolourproject_2stim_asymm_v5,2020.2.10,Win32,60,61025ae37ef11b136ea224fe,,,,,,,,,4110,24,52,1,0,0,response1disk,,7,5,5,1,0,0,rectangle,5,5,1,0,0,5,5,1,0,0,0,60,60,140,1,,,,,,,,
,,,,,,,,,,,,,FF,,,,,,,,1.001,,,,,,,,,,,,,,,,,,,,,,61036408097ef9b5244058ed,61036e33236ad4ffc5587c93,2021-07-29_23h13.33.301,Simcolourproject_2stim_asymm_v5,2020.2.10,Win32,60,61025ae37ef11b136ea224fe,,,,,,,,,2441,62,45,1,0,0,response1disk,,6,3,-10,1,0,0,rectangle,3,-10,1,0,0,3,-10,1,0,0,0,61,61,7,1,,,,,,,,
,,,,,,,,,,,,,FF,,,,,,,,1.185,,,,,,,,,,,,,,,,,,,,,,61036408097ef9b5244058ed,61036e33236ad4ffc5587c93,2021-07-29_23h13.33.301,Simcolourproject_2stim_asymm_v5,2020.2.10,Win32,60,61025ae37ef11b136ea224fe,,,,,,,,,4127,46,23,1,0,0,response1disk,,6,12,-6,1,0,0,rectangle,12,-6,1,0,0,12,-6,1,0,0,0,62,62,104,1,,,,,,,,
,,,,,,,,,,,,,FF,,,,,,,,0.734,,,,,,,,,,,,,,,,,,,,,,61036408097ef9b5244058ed,61036e33236ad4ffc5587c93,2021-07-29_23h13.33.301,Simcolourproject_2stim_asymm_v5,2020.2.10,Win32,60,61025ae37ef11b136ea224fe,,,,,,,,,3882,47,45,1,0,0,response1disk,,6,23,2,1,0,0,rectangle,23,2,1,0,0,23,2,1,0,0,0,63,63,125,1,,,,,,,,
,,,,,,,,,,,,,FF,,,,,,,,0.767,,,,,,,,,,,,,,,,,,,,,,61036408097ef9b5244058ed,61036e33236ad4ffc5587c93,2021-07-29_23h13.33.301,Simcolourproject_2stim_asymm_v5,2020.2.10,Win32,60,61025ae37ef11b136ea224fe,,,,,,,,,3176,31,74,1,0,0,response1disk,,7,9,7,1,0,0,rectangle,9,7,1,0,0,9,7,1,0,0,0,64,64,34,1,,,,,,,,
,,,,,,,,,,,,,FF,,,,,,,,1.353,,,,,,,,,,,,,,,,,,,,,,61036408097ef9b5244058ed,61036e33236ad4ffc5587c93,2021-07-29_23h13.33.301,Simcolourproject_2stim_asymm_v5,2020.2.10,Win32,60,61025ae37ef11b136ea224fe,,,,,,,,,2120,28,52,1,0,0,response1disk,,7,13,-1,1,0,0,rectangle,13,-1,1,0,0,13,-1,1,0,0,0,65,65,141,1,,,,,,,,
,,,,,,,,,,,,,FF,,,,,,,,1.568,,,,,,,,,,,,,,,,,,,,,,61036408097ef9b5244058ed,61036e33236ad4ffc5587c93,2021-07-29_23h13.33.301,Simcolourproject_2stim_asymm_v5,2020.2.10,Win32,60,61025ae37ef11b136ea224fe,,,,,,,,,1273,21,61,1,0,0,response1disk,,7,6,-3,1,0,0,rectangle,6,-3,1,0,0,6,-3,1,0,0,0,66,66,63,1,,,,,,,,
,,,,,,,,,,,,,FF,,,,,,,,0.651,,,,,,,,,,,,,,,,,,,,,,61036408097ef9b5244058ed,61036e33236ad4ffc5587c93,2021-07-29_23h13.33.301,Simcolourproject_2stim_asymm_v5,2020.2.10,Win32,60,61025ae37ef11b136ea224fe,,,,,,,,,3704,44,67,1,0,0,response1disk,,7,12,0,1,0,0,rectangle,12,0,1,0,0,12,0,1,0,0,0,67,67,58,1,,,,,,,,
,,,,,,,,,,,,,FF,,,,,,,,0.785,,,,,,,,,,,,,,,,,,,,,,61036408097ef9b5244058ed,61036e33236ad4ffc5587c93,2021-07-29_23h13.33.301,Simcolourproject_2stim_asymm_v5,2020.2.10,Win32,60,61025ae37ef11b136ea224fe,,,,,,,,,2834,54,28,1,0,0,response1disk,,6,-7,-13,1,0,0,rectangle,-7,-13,1,0,0,-7,-13,1,0,0,0,68,68,123,1,,,,,,,,
,,,,,,,,,,,,,FF,,,,,,,,0.502,,,,,,,,,,,,,,,,,,,,,,61036408097ef9b5244058ed,61036e33236ad4ffc5587c93,2021-07-29_23h13.33.301,Simcolourproject_2stim_asymm_v5,2020.2.10,Win32,60,61025ae37ef11b136ea224fe,,,,,,,,,3535,20,48,1,0,0,response1disk,,7,5,-3,1,0,0,rectangle,5,-3,1,0,0,5,-3,1,0,0,0,69,69,111,1,,,,,,,,
,,,,,,,,,,,,,FF,,,,,,,,0.481,,,,,,,,,,,,,,,,,,,,,,61036408097ef9b5244058ed,61036e33236ad4ffc5587c93,2021-07-29_23h13.33.301,Simcolourproject_2stim_asymm_v5,2020.2.10,Win32,60,61025ae37ef11b136ea224fe,,,,,,,,,2204,23,57,1,0,0,response1disk,,7,5,1,1,0,0,rectangle,5,1,1,0,0,5,1,1,0,0,0,70,70,46,1,,,,,,,,
,,,,,,,,,,,,,FF,,,,,,,,0.467,,,,,,,,,,,,,,,,,,,,,,61036408097ef9b5244058ed,61036e33236ad4ffc5587c93,2021-07-29_23h13.33.301,Simcolourproject_2stim_asymm_v5,2020.2.10,Win32,60,61025ae37ef11b136ea224fe,,,,,,,,,362,34,63,1,0,0,response1disk,,7,14,-1,1,0,0,rectangle,14,-1,1,0,0,14,-1,1,0,0,0,71,71,159,1,,,,,,,,
,,,,,,,,,,,,,FF,,,,,,,,0.667,,,,,,,,,,,,,,,,,,,,,,61036408097ef9b5244058ed,61036e33236ad4ffc5587c93,2021-07-29_23h13.33.301,Simcolourproject_2stim_asymm_v5,2020.2.10,Win32,60,61025ae37ef11b136ea224fe,,,,,,,,,1620,21,47,1,0,0,response1disk,,7,12,-9,1,0,0,rectangle,12,-9,1,0,0,12,-9,1,0,0,0,72,72,90,1,,,,,,,,
,,,,,,,,,,,,,FF,,,,,,,,0.935,,,,,,,,,,,,,,,,,,,,,,61036408097ef9b5244058ed,61036e33236ad4ffc5587c93,2021-07-29_23h13.33.301,Simcolourproject_2stim_asymm_v5,2020.2.10,Win32,60,61025ae37ef11b136ea224fe,,,,,,,,,4190,73,-23,1,0,0,response3disk,,5,5,6,1,0,0,rectangle,5,6,1,0,0,5,6,1,0,0,0,73,73,152,1,,,,,,,,
,,,,,,,,,,,,,FF,,,,,,,,1.167,,,,,,,,,,,,,,,,,,,,,,61036408097ef9b5244058ed,61036e33236ad4ffc5587c93,2021-07-29_23h13.33.301,Simcolourproject_2stim_asymm_v5,2020.2.10,Win32,60,61025ae37ef11b136ea224fe,,,,,,,,,3776,-33,88,1,0,0,response7disk,,0,16,-1,1,0,0,rectangle,16,-1,1,0,0,16,-1,1,0,0,0,74,74,40,1,,,,,,,,
,,,,,,,,,,,,,FF,,,,,,,,0.785,,,,,,,,,,,,,,,,,,,,,,61036408097ef9b5244058ed,61036e33236ad4ffc5587c93,2021-07-29_23h13.33.301,Simcolourproject_2stim_asymm_v5,2020.2.10,Win32,60,61025ae37ef11b136ea224fe,,,,,,,,,1372,59,30,1,0,0,response1disk,,6,21,0,1,0,0,rectangle,21,0,1,0,0,21,0,1,0,0,0,75,75,60,1,,,,,,,,
,,,,,,,,,,,,,FF,,,,,,,,0.7,,,,,,,,,,,,,,,,,,,,,,61036408097ef9b5244058ed,61036e33236ad4ffc5587c93,2021-07-29_23h13.33.301,Simcolourproject_2stim_asymm_v5,2020.2.10,Win32,60,61025ae37ef11b136ea224fe,,,,,,,,,1343,25,53,1,0,0,response1disk,,7,6,-11,1,0,0,rectangle,6,-11,1,0,0,6,-11,1,0,0,0,76,76,138,1,,,,,,,,
,,,,,,,,,,,,,FF,,,,,,,,0.634,,,,,,,,,,,,,,,,,,,,,,61036408097ef9b5244058ed,61036e33236ad4ffc5587c93,2021-07-29_23h13.33.301,Simcolourproject_2stim_asymm_v5,2020.2.10,Win32,60,61025ae37ef11b136ea224fe,,,,,,,,,410,27,75,1,0,0,response1disk,,7,7,11,1,0,0,rectangle,7,11,1,0,0,7,11,1,0,0,0,77,77,72,1,,,,,,,,
,,,,,,,,,,,,,FF,,,,,,,,0.568,,,,,,,,,,,,,,,,,,,,,,61036408097ef9b5244058ed,61036e33236ad4ffc5587c93,2021-07-29_23h13.33.301,Simcolourproject_2stim_asymm_v5,2020.2.10,Win32,60,61025ae37ef11b136ea224fe,,,,,,,,,228,33,65,1,0,0,response1disk,,7,1,-9,1,0,0,rectangle,1,-9,1,0,0,1,-9,1,0,0,0,78,78,67,1,,,,,,,,
,,,,,,,,,,,,,FF,,,,,,,,0.618,,,,,,,,,,,,,,,,,,,,,,61036408097ef9b5244058ed,61036e33236ad4ffc5587c93,2021-07-29_23h13.33.301,Simcolourproject_2stim_asymm_v5,2020.2.10,Win32,60,61025ae37ef11b136ea224fe,,,,,,,,,1626,17,69,1,0,0,response1disk,,7,-1,1,1,0,0,rectangle,-1,1,1,0,0,-1,1,1,0,0,0,79,79,31,1,,,,,,,,
,,,,,,,,,,,,,FF,,,,,,,,1.152,,,,,,,,,,,,,,,,,,,,,,61036408097ef9b5244058ed,61036e33236ad4ffc5587c93,2021-07-29_23h13.33.301,Simcolourproject_2stim_asymm_v5,2020.2.10,Win32,60,61025ae37ef11b136ea224fe,,,,,,,,,2239,42,88,1,0,0,response1disk,,7,19,11,1,0,0,rectangle,-14,47,1,0,0,-5,-4,1,0,0,0,80,80,24,1,,response7disk_3,TRUE,0,0,"[268,176,101,234,96,239,322,273,174,277,81,227,244,119,267,35,208,251,164,284]",1.651,rectangle
,,,,,,,,,,,,,FF,,,,,,,,0.968,,,,,,,,,,,,,,,,,,,,,,61036408097ef9b5244058ed,61036e33236ad4ffc5587c93,2021-07-29_23h13.33.301,Simcolourproject_2stim_asymm_v5,2020.2.10,Win32,60,61025ae37ef11b136ea224fe,,,,,,,,,3015,18,63,1,0,0,response1disk,,7,-7,-1,1,0,0,rectangle,-7,-1,1,0,0,-7,-1,1,0,0,0,81,81,101,1,,,,,,,,
,,,,,,,,,,,,,FF,,,,,,,,0.751,,,,,,,,,,,,,,,,,,,,,,61036408097ef9b5244058ed,61036e33236ad4ffc5587c93,2021-07-29_23h13.33.301,Simcolourproject_2stim_asymm_v5,2020.2.10,Win32,60,61025ae37ef11b136ea224fe,,,,,,,,,1281,39,55,1,0,0,response1disk,,7,8,-1,1,0,0,rectangle,8,-1,1,0,0,8,-1,1,0,0,0,82,82,144,1,,,,,,,,
,,,,,,,,,,,,,FF,,,,,,,,0.552,,,,,,,,,,,,,,,,,,,,,,61036408097ef9b5244058ed,61036e33236ad4ffc5587c93,2021-07-29_23h13.33.301,Simcolourproject_2stim_asymm_v5,2020.2.10,Win32,60,61025ae37ef11b136ea224fe,,,,,,,,,2337,27,45,1,0,0,response1disk,,7,11,-1,1,0,0,rectangle,11,-1,1,0,0,11,-1,1,0,0,0,83,83,146,1,,,,,,,,
,,,,,,,,,,,,,FF,,,,,,,,0.485,,,,,,,,,,,,,,,,,,,,,,61036408097ef9b5244058ed,61036e33236ad4ffc5587c93,2021-07-29_23h13.33.301,Simcolourproject_2stim_asymm_v5,2020.2.10,Win32,60,61025ae37ef11b136ea224fe,,,,,,,,,2005,29,47,1,0,0,response1disk,,7,13,5,1,0,0,rectangle,13,5,1,0,0,13,5,1,0,0,0,84,84,66,1,,,,,,,,
,,,,,,,,,,,,,FF,,,,,,,,1.451,,,,,,,,,,,,,,,,,,,,,,61036408097ef9b5244058ed,61036e33236ad4ffc5587c93,2021-07-29_23h13.33.301,Simcolourproject_2stim_asymm_v5,2020.2.10,Win32,60,61025ae37ef11b136ea224fe,,,,,,,,,2727,57,-77,1,0,0,response3disk,,4,4,4,1,0,0,rectangle,4,4,1,0,0,4,4,1,0,0,0,85,85,32,1,,,,,,,,
,,,,,,,,,,,,,FF,,,,,,,,1.387,,,,,,,,,,,,,,,,,,,,,,61036408097ef9b5244058ed,61036e33236ad4ffc5587c93,2021-07-29_23h13.33.301,Simcolourproject_2stim_asymm_v5,2020.2.10,Win32,60,61025ae37ef11b136ea224fe,,,,,,,,,371,57,-37,1,0,0,response3disk,,5,6,-3,1,0,0,rectangle,6,-3,1,0,0,6,-3,1,0,0,0,86,86,75,1,,,,,,,,
,,,,,,,,,,,,,FF,,,,,,,,0.984,,,,,,,,,,,,,,,,,,,,,,61036408097ef9b5244058ed,61036e33236ad4ffc5587c93,2021-07-29_23h13.33.301,Simcolourproject_2stim_asymm_v5,2020.2.10,Win32,60,61025ae37ef11b136ea224fe,,,,,,,,,3024,43,64,1,0,0,response1disk,,7,5,6,1,0,0,rectangle,5,6,1,0,0,5,6,1,0,0,0,87,87,151,1,,,,,,,,
,,,,,,,,,,,,,FF,,,,,,,,0.784,,,,,,,,,,,,,,,,,,,,,,61036408097ef9b5244058ed,61036e33236ad4ffc5587c93,2021-07-29_23h13.33.301,Simcolourproject_2stim_asymm_v5,2020.2.10,Win32,60,61025ae37ef11b136ea224fe,,,,,,,,,2261,83,45,1,0,0,response1disk,,6,-4,-1,1,0,0,rectangle,-4,-1,1,0,0,-4,-1,1,0,0,0,88,88,15,1,,,,,,,,
,,,,,,,,,,,,,FF,,,,,,,,1.353,,,,,,,,,,,,,,,,,,,,,,61036408097ef9b5244058ed,61036e33236ad4ffc5587c93,2021-07-29_23h13.33.301,Simcolourproject_2stim_asymm_v5,2020.2.10,Win32,60,61025ae37ef11b136ea224fe,,,,,,,,,2217,-26,-53,1,0,0,response5disk,,3,-6,-6,1,0,0,rectangle,-6,-6,1,0,0,-6,-6,1,0,0,0,89,89,127,1,,,,,,,,
,,,,,,,,,,,,,FF,,,,,,,,1.135,,,,,,,,,,,,,,,,,,,,,,61036408097ef9b5244058ed,61036e33236ad4ffc5587c93,2021-07-29_23h13.33.301,Simcolourproject_2stim_asymm_v5,2020.2.10,Win32,60,61025ae37ef11b136ea224fe,,,,,,,,,694,28,81,1,0,0,response1disk,,7,-1,3,1,0,0,rectangle,-1,3,1,0,0,-1,3,1,0,0,0,90,90,153,1,,,,,,,,
,,,,,,,,,,,,,FF,,,,,,,,1.185,,,,,,,,,,,,,,,,,,,,,,61036408097ef9b5244058ed,61036e33236ad4ffc5587c93,2021-07-29_23h13.33.301,Simcolourproject_2stim_asymm_v5,2020.2.10,Win32,60,61025ae37ef11b136ea224fe,,,,,,,,,682,43,73,1,0,0,response1disk,,7,0,5,1,0,0,rectangle,0,5,1,0,0,0,5,1,0,0,0,91,91,27,1,,,,,,,,
,,,,,,,,,,,,,FF,,,,,,,,0.653,,,,,,,,,,,,,,,,,,,,,,61036408097ef9b5244058ed,61036e33236ad4ffc5587c93,2021-07-29_23h13.33.301,Simcolourproject_2stim_asymm_v5,2020.2.10,Win32,60,61025ae37ef11b136ea224fe,,,,,,,,,3695,22,56,1,0,0,response1disk,,7,-8,-11,1,0,0,rectangle,-8,-11,1,0,0,-8,-11,1,0,0,0,92,92,133,1,,,,,,,,
,,,,,,,,,,,,,FF,,,,,,,,0.684,,,,,,,,,,,,,,,,,,,,,,61036408097ef9b5244058ed,61036e33236ad4ffc5587c93,2021-07-29_23h13.33.301,Simcolourproject_2stim_asymm_v5,2020.2.10,Win32,60,61025ae37ef11b136ea224fe,,,,,,,,,3564,31,79,1,0,0,response1disk,,7,3,8,1,0,0,rectangle,3,8,1,0,0,3,8,1,0,0,0,93,93,134,1,,,,,,,,
,,,,,,,,,,,,,FF,,,,,,,,0.435,,,,,,,,,,,,,,,,,,,,,,61036408097ef9b5244058ed,61036e33236ad4ffc5587c93,2021-07-29_23h13.33.301,Simcolourproject_2stim_asymm_v5,2020.2.10,Win32,60,61025ae37ef11b136ea224fe,,,,,,,,,3615,34,61,1,0,0,response1disk,,7,17,9,1,0,0,rectangle,17,9,1,0,0,17,9,1,0,0,0,94,94,5,1,,,,,,,,
,,,,,,,,,,,,,FF,,,,,,,,0.466,,,,,,,,,,,,,,,,,,,,,,61036408097ef9b5244058ed,61036e33236ad4ffc5587c93,2021-07-29_23h13.33.301,Simcolourproject_2stim_asymm_v5,2020.2.10,Win32,60,61025ae37ef11b136ea224fe,,,,,,,,,2830,28,45,1,0,0,response1disk,,7,4,6,1,0,0,rectangle,75,45,1,0,0,12,2,1,0,0,0,95,95,106,1,,response1disk_3,TRUE,6,6,"[268,176,101,234,96,239,322,273,174,277,81,227,244,119,267,35,208,251,164,284]",1.635,rectangle
,,,,,,,,,,,,,FF,,,,,,,,1.067,,,,,,,,,,,,,,,,,,,,,,61036408097ef9b5244058ed,61036e33236ad4ffc5587c93,2021-07-29_23h13.33.301,Simcolourproject_2stim_asymm_v5,2020.2.10,Win32,60,61025ae37ef11b136ea224fe,,,,,,,,,4037,27,100,1,0,0,response1disk,,7,-11,1,1,0,0,rectangle,-11,1,1,0,0,-11,1,1,0,0,0,96,96,28,1,,,,,,,,
,,,,,,,,,,,,,FF,,,,,,,,0.951,,,,,,,,,,,,,,,,,,,,,,61036408097ef9b5244058ed,61036e33236ad4ffc5587c93,2021-07-29_23h13.33.301,Simcolourproject_2stim_asymm_v5,2020.2.10,Win32,60,61025ae37ef11b136ea224fe,,,,,,,,,3196,-44,-41,1,0,0,response5disk,,2,21,-10,1,0,0,rectangle,21,-10,1,0,0,21,-10,1,0,0,0,97,97,93,1,,,,,,,,
,,,,,,,,,,,,,FF,,,,,,,,2.135,,,,,,,,,,,,,,,,,,,,,,61036408097ef9b5244058ed,61036e33236ad4ffc5587c93,2021-07-29_23h13.33.301,Simcolourproject_2stim_asymm_v5,2020.2.10,Win32,60,61025ae37ef11b136ea224fe,,,,,,,,,385,35,73,1,0,0,response1disk,,7,-1,-4,1,0,0,rectangle,-1,-4,1,0,0,-1,-4,1,0,0,0,98,98,115,1,,,,,,,,
,,,,,,,,,,,,,FF,,,,,,,,0.984,,,,,,,,,,,,,,,,,,,,,,61036408097ef9b5244058ed,61036e33236ad4ffc5587c93,2021-07-29_23h13.33.301,Simcolourproject_2stim_asymm_v5,2020.2.10,Win32,60,61025ae37ef11b136ea224fe,,,,,,,,,3388,-55,28,1,0,0,response7disk,,1,5,2,1,0,0,rectangle,5,2,1,0,0,5,2,1,0,0,0,99,99,78,1,,,,,,,,
,,,,,,,,,,,,,FF,,,,,,,,0.701,,,,,,,,,,,,,,,,,,,,,,61036408097ef9b5244058ed,61036e33236ad4ffc5587c93,2021-07-29_23h13.33.301,Simcolourproject_2stim_asymm_v5,2020.2.10,Win32,60,61025ae37ef11b136ea224fe,,,,,,,,,1710,33,47,1,0,0,response1disk,,7,11,5,1,0,0,rectangle,-39,-91,1,0,0,-9,-6,1,0,0,0,100,100,89,1,,response5disk_3,TRUE,3,3,"[268,176,101,234,96,239,322,273,174,277,81,227,244,119,267,35,208,251,164,284]",1.988,rectangle
,,,,,,,,,,,,,FF,,,,,,,,0.801,,,,,,,,,,,,,,,,,,,,,,61036408097ef9b5244058ed,61036e33236ad4ffc5587c93,2021-07-29_23h13.33.301,Simcolourproject_2stim_asymm_v5,2020.2.10,Win32,60,61025ae37ef11b136ea224fe,,,,,,,,,2025,-37,62,1,0,0,response7disk,,0,-15,-1,1,0,0,rectangle,-15,-1,1,0,0,-15,-1,1,0,0,0,101,101,49,1,,,,,,,,
,,,,,,,,,,,,,FF,,,,,,,,0.601,,,,,,,,,,,,,,,,,,,,,,61036408097ef9b5244058ed,61036e33236ad4ffc5587c93,2021-07-29_23h13.33.301,Simcolourproject_2stim_asymm_v5,2020.2.10,Win32,60,61025ae37ef11b136ea224fe,,,,,,,,,4181,-30,46,1,0,0,response7disk,,0,0,3,1,0,0,rectangle,0,3,1,0,0,0,3,1,0,0,0,102,102,10,1,,,,,,,,
,,,,,,,,,,,,,FF,,,,,,,,1.668,,,,,,,,,,,,,,,,,,,,,,61036408097ef9b5244058ed,61036e33236ad4ffc5587c93,2021-07-29_23h13.33.301,Simcolourproject_2stim_asymm_v5,2020.2.10,Win32,60,61025ae37ef11b136ea224fe,,,,,,,,,1661,68,37,1,0,0,response1disk,,6,6,1,1,0,0,rectangle,6,1,1,0,0,6,1,1,0,0,0,103,103,88,1,,,,,,,,
,,,,,,,,,,,,,FF,,,,,,,,0.67,,,,,,,,,,,,,,,,,,,,,,61036408097ef9b5244058ed,61036e33236ad4ffc5587c93,2021-07-29_23h13.33.301,Simcolourproject_2stim_asymm_v5,2020.2.10,Win32,60,61025ae37ef11b136ea224fe,,,,,,,,,226,31,79,1,0,0,response1disk,,7,7,1,1,0,0,rectangle,7,1,1,0,0,7,1,1,0,0,0,104,104,83,1,,,,,,,,
,,,,,,,,,,,,,FF,,,,,,,,0.952,,,,,,,,,,,,,,,,,,,,,,61036408097ef9b5244058ed,61036e33236ad4ffc5587c93,2021-07-29_23h13.33.301,Simcolourproject_2stim_asymm_v5,2020.2.10,Win32,60,61025ae37ef11b136ea224fe,,,,,,,,,3337,33,51,1,0,0,response1disk,,7,11,-7,1,0,0,rectangle,11,-7,1,0,0,11,-7,1,0,0,0,105,105,158,1,,,,,,,,
,,,,,,,,,,,,,FF,,,,,,,,1.052,,,,,,,,,,,,,,,,,,,,,,61036408097ef9b5244058ed,61036e33236ad4ffc5587c93,2021-07-29_23h13.33.301,Simcolourproject_2stim_asymm_v5,2020.2.10,Win32,60,61025ae37ef11b136ea224fe,,,,,,,,,3860,27,67,1,0,0,response1disk,,7,-1,6,1,0,0,rectangle,-1,6,1,0,0,-1,6,1,0,0,0,106,106,26,1,,,,,,,,
,,,,,,,,,,,,,FF,,,,,,,,1.051,,,,,,,,,,,,,,,,,,,,,,61036408097ef9b5244058ed,61036e33236ad4ffc5587c93,2021-07-29_23h13.33.301,Simcolourproject_2stim_asymm_v5,2020.2.10,Win32,60,61025ae37ef11b136ea224fe,,,,,,,,,2347,61,36,1,0,0,response1disk,,6,4,-3,1,0,0,rectangle,4,-3,1,0,0,4,-3,1,0,0,0,107,107,36,1,,,,,,,,
,,,,,,,,,,,,,FF,,,,,,,,0.634,,,,,,,,,,,,,,,,,,,,,,61036408097ef9b5244058ed,61036e33236ad4ffc5587c93,2021-07-29_23h13.33.301,Simcolourproject_2stim_asymm_v5,2020.2.10,Win32,60,61025ae37ef11b136ea224fe,,,,,,,,,3119,40,55,1,0,0,response1disk,,7,15,-5,1,0,0,rectangle,15,-5,1,0,0,15,-5,1,0,0,0,108,108,118,1,,,,,,,,
,,,,,,,,,,,,,FF,,,,,,,,0.551,,,,,,,,,,,,,,,,,,,,,,61036408097ef9b5244058ed,61036e33236ad4ffc5587c93,2021-07-29_23h13.33.301,Simcolourproject_2stim_asymm_v5,2020.2.10,Win32,60,61025ae37ef11b136ea224fe,,,,,,,,,114,33,72,1,0,0,response1disk,,7,14,-1,1,0,0,rectangle,14,-1,1,0,0,14,-1,1,0,0,0,109,109,38,1,,,,,,,,
,,,,,,,,,,,,,FF,,,,,,,,0.651,,,,,,,,,,,,,,,,,,,,,,61036408097ef9b5244058ed,61036e33236ad4ffc5587c93,2021-07-29_23h13.33.301,Simcolourproject_2stim_asymm_v5,2020.2.10,Win32,60,61025ae37ef11b136ea224fe,,,,,,,,,2379,37,69,1,0,0,response1disk,,7,0,-7,1,0,0,rectangle,0,-7,1,0,0,0,-7,1,0,0,0,110,110,21,1,,,,,,,,
,,,,,,,,,,,,,FF,,,,,,,,1.285,,,,,,,,,,,,,,,,,,,,,,61036408097ef9b5244058ed,61036e33236ad4ffc5587c93,2021-07-29_23h13.33.301,Simcolourproject_2stim_asymm_v5,2020.2.10,Win32,60,61025ae37ef11b136ea224fe,,,,,,,,,3035,29,64,1,0,0,response1disk,,7,19,-3,1,0,0,rectangle,19,-3,1,0,0,19,-3,1,0,0,0,111,111,137,1,,,,,,,,
,,,,,,,,,,,,,FF,,,,,,,,1.719,,,,,,,,,,,,,,,,,,,,,,61036408097ef9b5244058ed,61036e33236ad4ffc5587c93,2021-07-29_23h13.33.301,Simcolourproject_2stim_asymm_v5,2020.2.10,Win32,60,61025ae37ef11b136ea224fe,,,,,,,,,3503,73,-23,1,0,0,response3disk,,5,-1,4,1,0,0,rectangle,-1,4,1,0,0,-1,4,1,0,0,0,112,112,85,1,,,,,,,,
,,,,,,,,,,,,,FF,,,,,,,,1.334,,,,,,,,,,,,,,,,,,,,,,61036408097ef9b5244058ed,61036e33236ad4ffc5587c93,2021-07-29_23h13.33.301,Simcolourproject_2stim_asymm_v5,2020.2.10,Win32,60,61025ae37ef11b136ea224fe,,,,,,,,,1182,47,95,1,0,0,response1disk,,7,5,5,1,0,0,rectangle,5,5,1,0,0,5,5,1,0,0,0,113,113,64,1,,,,,,,,
,,,,,,,,,,,,,FF,,,,,,,,0.751,,,,,,,,,,,,,,,,,,,,,,61036408097ef9b5244058ed,61036e33236ad4ffc5587c93,2021-07-29_23h13.33.301,Simcolourproject_2stim_asymm_v5,2020.2.10,Win32,60,61025ae37ef11b136ea224fe,,,,,,,,,517,45,84,1,0,0,response1disk,,7,-3,-11,1,0,0,rectangle,-3,-11,1,0,0,-3,-11,1,0,0,0,114,114,145,1,,,,,,,,
,,,,,,,,,,,,,FF,,,,,,,,0.518,,,,,,,,,,,,,,,,,,,,,,61036408097ef9b5244058ed,61036e33236ad4ffc5587c93,2021-07-29_23h13.33.301,Simcolourproject_2stim_asymm_v5,2020.2.10,Win32,60,61025ae37ef11b136ea224fe,,,,,,,,,251,39,51,1,0,0,response1disk,,7,19,6,1,0,0,rectangle,19,6,1,0,0,19,6,1,0,0,0,115,115,35,1,,,,,,,,
,,,,,,,,,,,,,FF,,,,,,,,0.516,,,,,,,,,,,,,,,,,,,,,,61036408097ef9b5244058ed,61036e33236ad4ffc5587c93,2021-07-29_23h13.33.301,Simcolourproject_2stim_asymm_v5,2020.2.10,Win32,60,61025ae37ef11b136ea224fe,,,,,,,,,1086,27,62,1,0,0,response1disk,,7,3,7,1,0,0,rectangle,3,7,1,0,0,3,7,1,0,0,0,116,116,30,1,,,,,,,,
,,,,,,,,,,,,,FF,,,,,,,,0.92,,,,,,,,,,,,,,,,,,,,,,61036408097ef9b5244058ed,61036e33236ad4ffc5587c93,2021-07-29_23h13.33.301,Simcolourproject_2stim_asymm_v5,2020.2.10,Win32,60,61025ae37ef11b136ea224fe,,,,,,,,,2536,37,45,1,0,0,response1disk,,7,27,-8,1,0,0,rectangle,27,-8,1,0,0,27,-8,1,0,0,0,117,117,129,1,,,,,,,,
,,,,,,,,,,,,,FF,,,,,,,,0.567,,,,,,,,,,,,,,,,,,,,,,61036408097ef9b5244058ed,61036e33236ad4ffc5587c93,2021-07-29_23h13.33.301,Simcolourproject_2stim_asymm_v5,2020.2.10,Win32,60,61025ae37ef11b136ea224fe,,,,,,,,,2370,19,45,1,0,0,response1disk,,7,7,-13,1,0,0,rectangle,43,55,1,0,0,8,8,1,0,0,0,118,118,51,1,,response1disk_3,TRUE,7,7,"[268,176,101,234,96,239,322,273,174,277,81,227,244,119,267,35,208,251,164,284]",1.151,rectangle
,,,,,,,,,,,,,FF,,,,,,,,0.529,,,,,,,,,,,,,,,,,,,,,,61036408097ef9b5244058ed,61036e33236ad4ffc5587c93,2021-07-29_23h13.33.301,Simcolourproject_2stim_asymm_v5,2020.2.10,Win32,60,61025ae37ef11b136ea224fe,,,,,,,,,3611,41,47,1,0,0,response1disk,,7,17,4,1,0,0,rectangle,17,4,1,0,0,17,4,1,0,0,0,119,119,109,1,,,,,,,,
,,,,,,,,,,,,,FF,,,,,,,,0.469,,,,,,,,,,,,,,,,,,,,,,61036408097ef9b5244058ed,61036e33236ad4ffc5587c93,2021-07-29_23h13.33.301,Simcolourproject_2stim_asymm_v5,2020.2.10,Win32,60,61025ae37ef11b136ea224fe,,,,,,,,,2340,29,79,1,0,0,response1disk,,7,1,-3,1,0,0,rectangle,1,-3,1,0,0,1,-3,1,0,0,0,120,120,110,1,,,,,,,,
,,,,,,,,,,,,,FF,,,,,,,,0.441,,,,,,,,,,,,,,,,,,,,,,61036408097ef9b5244058ed,61036e33236ad4ffc5587c93,2021-07-29_23h13.33.301,Simcolourproject_2stim_asymm_v5,2020.2.10,Win32,60,61025ae37ef11b136ea224fe,,,,,,,,,3890,18,87,1,0,0,response1disk,,7,17,3,1,0,0,rectangle,17,3,1,0,0,17,3,1,0,0,0,121,121,37,1,,,,,,,,
,,,,,,,,,,,,,FF,,,,,,,,0.601,,,,,,,,,,,,,,,,,,,,,,61036408097ef9b5244058ed,61036e33236ad4ffc5587c93,2021-07-29_23h13.33.301,Simcolourproject_2stim_asymm_v5,2020.2.10,Win32,60,61025ae37ef11b136ea224fe,,,,,,,,,3960,33,71,1,0,0,response1disk,,7,6,7,1,0,0,rectangle,6,7,1,0,0,6,7,1,0,0,0,122,122,120,1,,,,,,,,
,,,,,,,,,,,,,FF,,,,,,,,0.567,,,,,,,,,,,,,,,,,,,,,,61036408097ef9b5244058ed,61036e33236ad4ffc5587c93,2021-07-29_23h13.33.301,Simcolourproject_2stim_asymm_v5,2020.2.10,Win32,60,61025ae37ef11b136ea224fe,,,,,,,,,2247,30,56,1,0,0,response1disk,,7,12,-3,1,0,0,rectangle,12,-3,1,0,0,12,-3,1,0,0,0,123,123,6,1,,,,,,,,
,,,,,,,,,,,,,FF,,,,,,,,0.745,,,,,,,,,,,,,,,,,,,,,,61036408097ef9b5244058ed,61036e33236ad4ffc5587c93,2021-07-29_23h13.33.301,Simcolourproject_2stim_asymm_v5,2020.2.10,Win32,60,61025ae37ef11b136ea224fe,,,,,,,,,1852,22,58,1,0,0,response1disk,,7,-2,-6,1,0,0,rectangle,-2,-6,1,0,0,-2,-6,1,0,0,0,124,124,108,1,,,,,,,,
,,,,,,,,,,,,,FF,,,,,,,,1.375,,,,,,,,,,,,,,,,,,,,,,61036408097ef9b5244058ed,61036e33236ad4ffc5587c93,2021-07-29_23h13.33.301,Simcolourproject_2stim_asymm_v5,2020.2.10,Win32,60,61025ae37ef11b136ea224fe,,,,,,,,,2672,73,41,1,0,0,response1disk,,6,16,6,1,0,0,rectangle,16,6,1,0,0,16,6,1,0,0,0,125,125,112,1,,,,,,,,
,,,,,,,,,,,,,FF,,,,,,,,0.851,,,,,,,,,,,,,,,,,,,,,,61036408097ef9b5244058ed,61036e33236ad4ffc5587c93,2021-07-29_23h13.33.301,Simcolourproject_2stim_asymm_v5,2020.2.10,Win32,60,61025ae37ef11b136ea224fe,,,,,,,,,4286,39,81,1,0,0,response1disk,,7,9,-3,1,0,0,rectangle,9,-3,1,0,0,9,-3,1,0,0,0,126,126,53,1,,,,,,,,
,,,,,,,,,,,,,FF,,,,,,,,1.3,,,,,,,,,,,,,,,,,,,,,,61036408097ef9b5244058ed,61036e33236ad4ffc5587c93,2021-07-29_23h13.33.301,Simcolourproject_2stim_asymm_v5,2020.2.10,Win32,60,61025ae37ef11b136ea224fe,,,,,,,,,720,-40,-57,1,0,0,response5disk,,3,7,3,1,0,0,rectangle,7,3,1,0,0,7,3,1,0,0,0,127,127,61,1,,,,,,,,
,,,,,,,,,,,,,FF,,,,,,,,1.386,,,,,,,,,,,,,,,,,,,,,,61036408097ef9b5244058ed,61036e33236ad4ffc5587c93,2021-07-29_23h13.33.301,Simcolourproject_2stim_asymm_v5,2020.2.10,Win32,60,61025ae37ef11b136ea224fe,,,,,,,,,565,61,65,1,0,0,response1disk,,7,9,5,1,0,0,rectangle,9,5,1,0,0,9,5,1,0,0,0,128,128,70,1,,,,,,,,
,,,,,,,,,,,,,FF,,,,,,,,0.724,,,,,,,,,,,,,,,,,,,,,,61036408097ef9b5244058ed,61036e33236ad4ffc5587c93,2021-07-29_23h13.33.301,Simcolourproject_2stim_asymm_v5,2020.2.10,Win32,60,61025ae37ef11b136ea224fe,,,,,,,,,2624,23,35,1,0,0,response1disk,,7,7,10,1,0,0,rectangle,7,10,1,0,0,7,10,1,0,0,0,129,129,68,1,,,,,,,,
,,,,,,,,,,,,,FF,,,,,,,,0.416,,,,,,,,,,,,,,,,,,,,,,61036408097ef9b5244058ed,61036e33236ad4ffc5587c93,2021-07-29_23h13.33.301,Simcolourproject_2stim_asymm_v5,2020.2.10,Win32,60,61025ae37ef11b136ea224fe,,,,,,,,,2702,28,87,1,0,0,response1disk,,7,-3,-7,1,0,0,rectangle,-3,-7,1,0,0,-3,-7,1,0,0,0,130,130,130,1,,,,,,,,
,,,,,,,,,,,,,FF,,,,,,,,1.317,,,,,,,,,,,,,,,,,,,,,,61036408097ef9b5244058ed,61036e33236ad4ffc5587c93,2021-07-29_23h13.33.301,Simcolourproject_2stim_asymm_v5,2020.2.10,Win32,60,61025ae37ef11b136ea224fe,,,,,,,,,1820,75,-38,1,0,0,response3disk,,5,14,0,1,0,0,rectangle,14,0,1,0,0,14,0,1,0,0,0,131,131,77,1,,,,,,,,
,,,,,,,,,,,,,FF,,,,,,,,1.301,,,,,,,,,,,,,,,,,,,,,,61036408097ef9b5244058ed,61036e33236ad4ffc5587c93,2021-07-29_23h13.33.301,Simcolourproject_2stim_asymm_v5,2020.2.10,Win32,60,61025ae37ef11b136ea224fe,,,,,,,,,2289,66,20,1,0,0,response1disk,,6,18,7,1,0,0,rectangle,18,7,1,0,0,18,7,1,0,0,0,132,132,136,1,,,,,,,,
,,,,,,,,,,,,,FF,,,,,,,,0.718,,,,,,,,,,,,,,,,,,,,,,61036408097ef9b5244058ed,61036e33236ad4ffc5587c93,2021-07-29_23h13.33.301,Simcolourproject_2stim_asymm_v5,2020.2.10,Win32,60,61025ae37ef11b136ea224fe,,,,,,,,,2755,27,91,1,0,0,response1disk,,7,-4,6,1,0,0,rectangle,-4,6,1,0,0,-4,6,1,0,0,0,133,133,23,1,,,,,,,,
,,,,,,,,,,,,,FF,,,,,,,,0.5,,,,,,,,,,,,,,,,,,,,,,61036408097ef9b5244058ed,61036e33236ad4ffc5587c93,2021-07-29_23h13.33.301,Simcolourproject_2stim_asymm_v5,2020.2.10,Win32,60,61025ae37ef11b136ea224fe,,,,,,,,,1083,34,67,1,0,0,response1disk,,7,5,0,1,0,0,rectangle,5,0,1,0,0,5,0,1,0,0,0,134,134,149,1,,,,,,,,
,,,,,,,,,,,,,FF,,,,,,,,1.487,,,,,,,,,,,,,,,,,,,,,,61036408097ef9b5244058ed,61036e33236ad4ffc5587c93,2021-07-29_23h13.33.301,Simcolourproject_2stim_asymm_v5,2020.2.10,Win32,60,61025ae37ef11b136ea224fe,,,,,,,,,3149,65,-79,1,0,0,response3disk,,4,10,8,1,0,0,rectangle,10,8,1,0,0,10,8,1,0,0,0,135,135,18,1,,,,,,,,
,,,,,,,,,,,,,FF,,,,,,,,1.502,,,,,,,,,,,,,,,,,,,,,,61036408097ef9b5244058ed,61036e33236ad4ffc5587c93,2021-07-29_23h13.33.301,Simcolourproject_2stim_asymm_v5,2020.2.10,Win32,60,61025ae37ef11b136ea224fe,,,,,,,,,1333,45,59,1,0,0,response1disk,,7,6,2,1,0,0,rectangle,6,2,1,0,0,6,2,1,0,0,0,136,136,73,1,,,,,,,,
,,,,,,,,,,,,,FF,,,,,,,,0.482,,,,,,,,,,,,,,,,,,,,,,61036408097ef9b5244058ed,61036e33236ad4ffc5587c93,2021-07-29_23h13.33.301,Simcolourproject_2stim_asymm_v5,2020.2.10,Win32,60,61025ae37ef11b136ea224fe,,,,,,,,,3887,25,46,1,0,0,response1disk,,7,7,12,1,0,0,rectangle,7,12,1,0,0,7,12,1,0,0,0,137,137,103,1,,,,,,,,
,,,,,,,,,,,,,FF,,,,,,,,0.936,,,,,,,,,,,,,,,,,,,,,,61036408097ef9b5244058ed,61036e33236ad4ffc5587c93,2021-07-29_23h13.33.301,Simcolourproject_2stim_asymm_v5,2020.2.10,Win32,60,61025ae37ef11b136ea224fe,,,,,,,,,1354,32,37,1,0,0,response1disk,,7,8,-4,1,0,0,rectangle,8,-4,1,0,0,8,-4,1,0,0,0,138,138,126,1,,,,,,,,
,,,,,,,,,,,,,FF,,,,,,,,0.903,,,,,,,,,,,,,,,,,,,,,,61036408097ef9b5244058ed,61036e33236ad4ffc5587c93,2021-07-29_23h13.33.301,Simcolourproject_2stim_asymm_v5,2020.2.10,Win32,60,61025ae37ef11b136ea224fe,,,,,,,,,31,30,51,1,0,0,response1disk,,7,13,-1,1,0,0,rectangle,13,-1,1,0,0,13,-1,1,0,0,0,139,139,97,1,,,,,,,,
,,,,,,,,,,,,,FF,,,,,,,,1.151,,,,,,,,,,,,,,,,,,,,,,61036408097ef9b5244058ed,61036e33236ad4ffc5587c93,2021-07-29_23h13.33.301,Simcolourproject_2stim_asymm_v5,2020.2.10,Win32,60,61025ae37ef11b136ea224fe,,,,,,,,,3339,20,-49,1,0,0,response3disk,,4,-15,7,1,0,0,rectangle,-15,7,1,0,0,-15,7,1,0,0,0,140,140,122,1,,,,,,,,
,,,,,,,,,,,,,FF,,,,,,,,0.801,,,,,,,,,,,,,,,,,,,,,,61036408097ef9b5244058ed,61036e33236ad4ffc5587c93,2021-07-29_23h13.33.301,Simcolourproject_2stim_asymm_v5,2020.2.10,Win32,60,61025ae37ef11b136ea224fe,,,,,,,,,69,49,68,1,0,0,response1disk,,7,5,-5,1,0,0,rectangle,5,-5,1,0,0,5,-5,1,0,0,0,141,141,147,1,,,,,,,,
,,,,,,,,,,,,,FF,,,,,,,,1.202,,,,,,,,,,,,,,,,,,,,,,61036408097ef9b5244058ed,61036e33236ad4ffc5587c93,2021-07-29_23h13.33.301,Simcolourproject_2stim_asymm_v5,2020.2.10,Win32,60,61025ae37ef11b136ea224fe,,,,,,,,,3773,43,27,1,0,0,response1disk,,6,11,11,1,0,0,rectangle,11,11,1,0,0,11,11,1,0,0,0,142,142,156,1,,,,,,,,
,,,,,,,,,,,,,FF,,,,,,,,0.885,,,,,,,,,,,,,,,,,,,,,,61036408097ef9b5244058ed,61036e33236ad4ffc5587c93,2021-07-29_23h13.33.301,Simcolourproject_2stim_asymm_v5,2020.2.10,Win32,60,61025ae37ef11b136ea224fe,,,,,,,,,2848,45,53,1,0,0,response1disk,,7,14,8,1,0,0,rectangle,14,8,1,0,0,14,8,1,0,0,0,143,143,154,1,,,,,,,,
,,,,,,,,,,,,,FF,,,,,,,,1.735,,,,,,,,,,,,,,,,,,,,,,61036408097ef9b5244058ed,61036e33236ad4ffc5587c93,2021-07-29_23h13.33.301,Simcolourproject_2stim_asymm_v5,2020.2.10,Win32,60,61025ae37ef11b136ea224fe,,,,,,,,,1964,-46,-58,1,0,0,response5disk,,3,7,9,1,0,0,rectangle,7,9,1,0,0,7,9,1,0,0,0,144,144,82,1,,,,,,,,
,,,,,,,,,,,,,FF,,,,,,,,1.102,,,,,,,,,,,,,,,,,,,,,,61036408097ef9b5244058ed,61036e33236ad4ffc5587c93,2021-07-29_23h13.33.301,Simcolourproject_2stim_asymm_v5,2020.2.10,Win32,60,61025ae37ef11b136ea224fe,,,,,,,,,1985,34,75,1,0,0,response1disk,,7,-3,4,1,0,0,rectangle,-3,4,1,0,0,-3,4,1,0,0,0,145,145,4,1,,,,,,,,
,,,,,,,,,,,,,FF,,,,,,,,2.054,,,,,,,,,,,,,,,,,,,,,,61036408097ef9b5244058ed,61036e33236ad4ffc5587c93,2021-07-29_23h13.33.301,Simcolourproject_2stim_asymm_v5,2020.2.10,Win32,60,61025ae37ef11b136ea224fe,,,,,,,,,1202,-32,-69,1,0,0,response5disk,,3,-1,3,1,0,0,rectangle,-1,3,1,0,0,-1,3,1,0,0,0,146,146,96,1,,,,,,,,
,,,,,,,,,,,,,FF,,,,,,,,1.369,,,,,,,,,,,,,,,,,,,,,,61036408097ef9b5244058ed,61036e33236ad4ffc5587c93,2021-07-29_23h13.33.301,Simcolourproject_2stim_asymm_v5,2020.2.10,Win32,60,61025ae37ef11b136ea224fe,,,,,,,,,1518,33,67,1,0,0,response1disk,,7,-8,-1,1,0,0,rectangle,-8,-1,1,0,0,-8,-1,1,0,0,0,147,147,62,1,,,,,,,,
,,,,,,,,,,,,,FF,,,,,,,,1.169,,,,,,,,,,,,,,,,,,,,,,61036408097ef9b5244058ed,61036e33236ad4ffc5587c93,2021-07-29_23h13.33.301,Simcolourproject_2stim_asymm_v5,2020.2.10,Win32,60,61025ae37ef11b136ea224fe,,,,,,,,,3723,27,47,1,0,0,response1disk,,7,-7,-13,1,0,0,rectangle,-7,-13,1,0,0,-7,-13,1,0,0,0,148,148,16,1,,,,,,,,
,,,,,,,,,,,,,FF,,,,,,,,0.635,,,,,,,,,,,,,,,,,,,,,,61036408097ef9b5244058ed,61036e33236ad4ffc5587c93,2021-07-29_23h13.33.301,Simcolourproject_2stim_asymm_v5,2020.2.10,Win32,60,61025ae37ef11b136ea224fe,,,,,,,,,3651,22,76,1,0,0,response1disk,,7,-9,1,1,0,0,rectangle,-9,1,1,0,0,-9,1,1,0,0,0,149,149,44,1,,,,,,,,
,,,,,,,,,,,,,FF,,,,,,,,1.021,,,,,,,,,,,,,,,,,,,,,,61036408097ef9b5244058ed,61036e33236ad4ffc5587c93,2021-07-29_23h13.33.301,Simcolourproject_2stim_asymm_v5,2020.2.10,Win32,60,61025ae37ef11b136ea224fe,,,,,,,,,436,67,38,1,0,0,response1disk,,6,-14,1,1,0,0,rectangle,-14,1,1,0,0,-14,1,1,0,0,0,150,150,13,1,,,,,,,,
,,,,,,,,,,,,,FF,,,,,,,,1.526,,,,,,,,,,,,,,,,,,,,,,61036408097ef9b5244058ed,61036e33236ad4ffc5587c93,2021-07-29_23h13.33.301,Simcolourproject_2stim_asymm_v5,2020.2.10,Win32,60,61025ae37ef11b136ea224fe,,,,,,,,,3203,33,-54,1,0,0,response3disk,,4,-5,9,1,0,0,rectangle,-5,9,1,0,0,-5,9,1,0,0,0,151,151,57,1,,,,,,,,
,,,,,,,,,,,,,FF,,,,,,,,0.875,,,,,,,,,,,,,,,,,,,,,,61036408097ef9b5244058ed,61036e33236ad4ffc5587c93,2021-07-29_23h13.33.301,Simcolourproject_2stim_asymm_v5,2020.2.10,Win32,60,61025ae37ef11b136ea224fe,,,,,,,,,4134,22,66,1,0,0,response1disk,,7,-3,10,1,0,0,rectangle,-3,10,1,0,0,-3,10,1,0,0,0,152,152,99,1,,,,,,,,
,,,,,,,,,,,,,FF,,,,,,,,1.444,,,,,,,,,,,,,,,,,,,,,,61036408097ef9b5244058ed,61036e33236ad4ffc5587c93,2021-07-29_23h13.33.301,Simcolourproject_2stim_asymm_v5,2020.2.10,Win32,60,61025ae37ef11b136ea224fe,,,,,,,,,2032,-39,-56,1,0,0,response5disk,,3,-8,-3,1,0,0,rectangle,-8,-3,1,0,0,-8,-3,1,0,0,0,153,153,113,1,,,,,,,,
,,,,,,,,,,,,,FF,,,,,,,,1.079,,,,,,,,,,,,,,,,,,,,,,61036408097ef9b5244058ed,61036e33236ad4ffc5587c93,2021-07-29_23h13.33.301,Simcolourproject_2stim_asymm_v5,2020.2.10,Win32,60,61025ae37ef11b136ea224fe,,,,,,,,,231,42,48,1,0,0,response1disk,,7,4,2,1,0,0,rectangle,4,2,1,0,0,4,2,1,0,0,0,154,154,124,1,,,,,,,,
,,,,,,,,,,,,,FF,,,,,,,,0.601,,,,,,,,,,,,,,,,,,,,,,61036408097ef9b5244058ed,61036e33236ad4ffc5587c93,2021-07-29_23h13.33.301,Simcolourproject_2stim_asymm_v5,2020.2.10,Win32,60,61025ae37ef11b136ea224fe,,,,,,,,,2567,42,70,1,0,0,response1disk,,7,12,-3,1,0,0,rectangle,12,-3,1,0,0,12,-3,1,0,0,0,155,155,22,1,,,,,,,,
,,,,,,,,,,,,,FF,,,,,,,,0.717,,,,,,,,,,,,,,,,,,,,,,61036408097ef9b5244058ed,61036e33236ad4ffc5587c93,2021-07-29_23h13.33.301,Simcolourproject_2stim_asymm_v5,2020.2.10,Win32,60,61025ae37ef11b136ea224fe,,,,,,,,,4092,41,58,1,0,0,response1disk,,7,7,-5,1,0,0,rectangle,7,-5,1,0,0,7,-5,1,0,0,0,156,156,148,1,,,,,,,,
,,,,,,,,,,,,,FF,,,,,,,,0.766,,,,,,,,,,,,,,,,,,,,,,61036408097ef9b5244058ed,61036e33236ad4ffc5587c93,2021-07-29_23h13.33.301,Simcolourproject_2stim_asymm_v5,2020.2.10,Win32,60,61025ae37ef11b136ea224fe,,,,,,,,,2552,35,49,1,0,0,response1disk,,7,9,-5,1,0,0,rectangle,9,-5,1,0,0,9,-5,1,0,0,0,157,157,102,1,,,,,,,,
,,,,,,,,,,,,,FF,,,,,,,,0.518,,,,,,,,,,,,,,,,,,,,,,61036408097ef9b5244058ed,61036e33236ad4ffc5587c93,2021-07-29_23h13.33.301,Simcolourproject_2stim_asymm_v5,2020.2.10,Win32,60,61025ae37ef11b136ea224fe,,,,,,,,,1098,24,57,1,0,0,response1disk,,7,3,1,1,0,0,rectangle,3,1,1,0,0,3,1,1,0,0,0,158,158,76,1,,,,,,,,
,,,,,,,,,,,,,FF,,,,,,,,0.567,,,,,,,,,,,,,,,,,,,,,,61036408097ef9b5244058ed,61036e33236ad4ffc5587c93,2021-07-29_23h13.33.301,Simcolourproject_2stim_asymm_v5,2020.2.10,Win32,60,61025ae37ef11b136ea224fe,,,,,,,,,1792,37,61,1,0,0,response1disk,,7,7,-5,1,0,0,rectangle,7,-5,1,0,0,7,-5,1,0,0,0,159,159,121,1,,,,,,,,
,,,,,,,,,,,,,FF,,,,,,,,0.553,,,,,,,,,,,,,,,,,,,,,,61036408097ef9b5244058ed,61036e33236ad4ffc5587c93,2021-07-29_23h13.33.301,Simcolourproject_2stim_asymm_v5,2020.2.10,Win32,60,61025ae37ef11b136ea224fe,,,,,,,,,3205,-36,-23,1,0,0,response5disk,,2,0,1,1,0,0,rectangle,0,1,1,0,0,0,1,1,0,0,1,0,160,69,1,,,,,,,,
,,,,,,,,,,,,,FF,,,,,,,,0.671,,,,,,,,,,,,,,,,,,,,,,61036408097ef9b5244058ed,61036e33236ad4ffc5587c93,2021-07-29_23h13.33.301,Simcolourproject_2stim_asymm_v5,2020.2.10,Win32,60,61025ae37ef11b136ea224fe,,,,,,,,,931,38,72,1,0,0,response1disk,,7,-5,-2,1,0,0,rectangle,-5,-2,1,0,0,-5,-2,1,0,0,1,1,161,29,1,,,,,,,,
,,,,,,,,,,,,,FF,,,,,,,,1.585,,,,,,,,,,,,,,,,,,,,,,61036408097ef9b5244058ed,61036e33236ad4ffc5587c93,2021-07-29_23h13.33.301,Simcolourproject_2stim_asymm_v5,2020.2.10,Win32,60,61025ae37ef11b136ea224fe,,,,,,,,,896,78,-39,1,0,0,response3disk,,5,7,-7,1,0,0,rectangle,7,-7,1,0,0,7,-7,1,0,0,1,2,162,116,1,,,,,,,,
,,,,,,,,,,,,,FF,,,,,,,,0.585,,,,,,,,,,,,,,,,,,,,,,61036408097ef9b5244058ed,61036e33236ad4ffc5587c93,2021-07-29_23h13.33.301,Simcolourproject_2stim_asymm_v5,2020.2.10,Win32,60,61025ae37ef11b136ea224fe,,,,,,,,,1417,24,58,1,0,0,response1disk,,7,1,3,1,0,0,rectangle,-20,-87,1,0,0,3,-12,1,0,0,1,3,163,143,1,,response5disk_3,TRUE,3,3,"[268,176,101,234,96,239,322,273,174,277,81,227,244,119,267,35,208,251,164,284]",2.087,rectangle
,,,,,,,,,,,,,FF,,,,,,,,0.951,,,,,,,,,,,,,,,,,,,,,,61036408097ef9b5244058ed,61036e33236ad4ffc5587c93,2021-07-29_23h13.33.301,Simcolourproject_2stim_asymm_v5,2020.2.10,Win32,60,61025ae37ef11b136ea224fe,,,,,,,,,3513,-31,-71,1,0,0,response5disk,,3,-9,-9,1,0,0,rectangle,-9,-9,1,0,0,-9,-9,1,0,0,1,4,164,157,1,,,,,,,,
,,,,,,,,,,,,,FF,,,,,,,,1.367,,,,,,,,,,,,,,,,,,,,,,61036408097ef9b5244058ed,61036e33236ad4ffc5587c93,2021-07-29_23h13.33.301,Simcolourproject_2stim_asymm_v5,2020.2.10,Win32,60,61025ae37ef11b136ea224fe,,,,,,,,,3709,-33,-19,1,0,0,response5disk,,2,0,6,1,0,0,rectangle,0,6,1,0,0,0,6,1,0,0,1,5,165,53,1,,,,,,,,
,,,,,,,,,,,,,FF,,,,,,,,1.02,,,,,,,,,,,,,,,,,,,,,,61036408097ef9b5244058ed,61036e33236ad4ffc5587c93,2021-07-29_23h13.33.301,Simcolourproject_2stim_asymm_v5,2020.2.10,Win32,60,61025ae37ef11b136ea224fe,,,,,,,,,2768,41,-65,1,0,0,response3disk,,4,21,-13,1,0,0,rectangle,21,-13,1,0,0,21,-13,1,0,0,1,6,166,0,1,,,,,,,,
,,,,,,,,,,,,,FF,,,,,,,,0.768,,,,,,,,,,,,,,,,,,,,,,61036408097ef9b5244058ed,61036e33236ad4ffc5587c93,2021-07-29_23h13.33.301,Simcolourproject_2stim_asymm_v5,2020.2.10,Win32,60,61025ae37ef11b136ea224fe,,,,,,,,,499,29,71,1,0,0,response1disk,,7,11,10,1,0,0,rectangle,11,10,1,0,0,11,10,1,0,0,1,7,167,20,1,,,,,,,,
,,,,,,,,,,,,,FF,,,,,,,,0.466,,,,,,,,,,,,,,,,,,,,,,61036408097ef9b5244058ed,61036e33236ad4ffc5587c93,2021-07-29_23h13.33.301,Simcolourproject_2stim_asymm_v5,2020.2.10,Win32,60,61025ae37ef11b136ea224fe,,,,,,,,,4211,23,56,1,0,0,response1disk,,7,4,-7,1,0,0,rectangle,4,-7,1,0,0,4,-7,1,0,0,1,8,168,47,1,,,,,,,,
,,,,,,,,,,,,,FF,,,,,,,,0.399,,,,,,,,,,,,,,,,,,,,,,61036408097ef9b5244058ed,61036e33236ad4ffc5587c93,2021-07-29_23h13.33.301,Simcolourproject_2stim_asymm_v5,2020.2.10,Win32,60,61025ae37ef11b136ea224fe,,,,,,,,,300,27,53,1,0,0,response1disk,,7,-3,-7,1,0,0,rectangle,-3,-7,1,0,0,-3,-7,1,0,0,1,9,169,156,1,,,,,,,,
,,,,,,,,,,,,,FF,,,,,,,,1.3,,,,,,,,,,,,,,,,,,,,,,61036408097ef9b5244058ed,61036e33236ad4ffc5587c93,2021-07-29_23h13.33.301,Simcolourproject_2stim_asymm_v5,2020.2.10,Win32,60,61025ae37ef11b136ea224fe,,,,,,,,,1693,61,-47,1,0,0,response3disk,,5,5,7,1,0,0,rectangle,5,7,1,0,0,5,7,1,0,0,1,10,170,105,1,,,,,,,,
,,,,,,,,,,,,,FF,,,,,,,,1.252,,,,,,,,,,,,,,,,,,,,,,61036408097ef9b5244058ed,61036e33236ad4ffc5587c93,2021-07-29_23h13.33.301,Simcolourproject_2stim_asymm_v5,2020.2.10,Win32,60,61025ae37ef11b136ea224fe,,,,,,,,,3252,28,-56,0,0,1,response3disk,,4,-5,1,1,0,0,rectangle,-5,1,1,0,0,-5,1,1,0,0,1,11,171,94,1,,,,,,,,
,,,,,,,,,,,,,FF,,,,,,,,1.036,,,,,,,,,,,,,,,,,,,,,,61036408097ef9b5244058ed,61036e33236ad4ffc5587c93,2021-07-29_23h13.33.301,Simcolourproject_2stim_asymm_v5,2020.2.10,Win32,60,61025ae37ef11b136ea224fe,,,,,,,,,3787,20,61,1,0,0,response1disk,,7,11,13,1,0,0,rectangle,11,13,1,0,0,11,13,1,0,0,1,12,172,110,1,,,,,,,,
,,,,,,,,,,,,,FF,,,,,,,,0.851,,,,,,,,,,,,,,,,,,,,,,61036408097ef9b5244058ed,61036e33236ad4ffc5587c93,2021-07-29_23h13.33.301,Simcolourproject_2stim_asymm_v5,2020.2.10,Win32,60,61025ae37ef11b136ea224fe,,,,,,,,,1713,38,65,1,0,0,response1disk,,7,5,5,1,0,0,rectangle,-54,-31,1,0,0,-2,5,1,0,0,1,13,173,108,1,,response5disk_3,TRUE,2,2,"[268,176,101,234,96,239,322,273,174,277,81,227,244,119,267,35,208,251,164,284]",2.387,rectangle
,,,,,,,,,,,,,FF,,,,,,,,1.199,,,,,,,,,,,,,,,,,,,,,,61036408097ef9b5244058ed,61036e33236ad4ffc5587c93,2021-07-29_23h13.33.301,Simcolourproject_2stim_asymm_v5,2020.2.10,Win32,60,61025ae37ef11b136ea224fe,,,,,,,,,631,-47,-27,1,0,0,response5disk,,2,5,5,1,0,0,rectangle,5,5,1,0,0,5,5,1,0,0,1,14,174,124,1,,,,,,,,
,,,,,,,,,,,,,FF,,,,,,,,0.651,,,,,,,,,,,,,,,,,,,,,,61036408097ef9b5244058ed,61036e33236ad4ffc5587c93,2021-07-29_23h13.33.301,Simcolourproject_2stim_asymm_v5,2020.2.10,Win32,60,61025ae37ef11b136ea224fe,,,,,,,,,2256,15,54,1,0,0,response1disk,,7,-1,11,1,0,0,rectangle,-89,45,1,0,0,-1,3,1,0,0,1,15,175,128,1,,response7disk_3,TRUE,1,1,"[268,176,101,234,96,239,322,273,174,277,81,227,244,119,267,35,208,251,164,284]",1.536,rectangle
,,,,,,,,,,,,,FF,,,,,,,,1.835,,,,,,,,,,,,,,,,,,,,,,61036408097ef9b5244058ed,61036e33236ad4ffc5587c93,2021-07-29_23h13.33.301,Simcolourproject_2stim_asymm_v5,2020.2.10,Win32,60,61025ae37ef11b136ea224fe,,,,,,,,,196,68,36,1,0,0,response1disk,,6,11,-3,1,0,0,rectangle,11,-3,1,0,0,11,-3,1,0,0,1,16,176,118,1,,,,,,,,
,,,,,,,,,,,,,FF,,,,,,,,1.035,,,,,,,,,,,,,,,,,,,,,,61036408097ef9b5244058ed,61036e33236ad4ffc5587c93,2021-07-29_23h13.33.301,Simcolourproject_2stim_asymm_v5,2020.2.10,Win32,60,61025ae37ef11b136ea224fe,,,,,,,,,3270,22,69,1,0,0,response1disk,,7,7,14,1,0,0,rectangle,7,14,1,0,0,7,14,1,0,0,1,17,177,36,1,,,,,,,,
,,,,,,,,,,,,,FF,,,,,,,,0.718,,,,,,,,,,,,,,,,,,,,,,61036408097ef9b5244058ed,61036e33236ad4ffc5587c93,2021-07-29_23h13.33.301,Simcolourproject_2stim_asymm_v5,2020.2.10,Win32,60,61025ae37ef11b136ea224fe,,,,,,,,,4081,36,64,1,0,0,response1disk,,7,13,6,1,0,0,rectangle,13,6,1,0,0,13,6,1,0,0,1,18,178,129,1,,,,,,,,
,,,,,,,,,,,,,FF,,,,,,,,0.435,,,,,,,,,,,,,,,,,,,,,,61036408097ef9b5244058ed,61036e33236ad4ffc5587c93,2021-07-29_23h13.33.301,Simcolourproject_2stim_asymm_v5,2020.2.10,Win32,60,61025ae37ef11b136ea224fe,,,,,,,,,554,27,62,1,0,0,response1disk,,7,7,1,1,0,0,rectangle,7,1,1,0,0,7,1,1,0,0,1,19,179,103,1,,,,,,,,
,,,,,,,,,,,,,FF,,,,,,,,0.601,,,,,,,,,,,,,,,,,,,,,,61036408097ef9b5244058ed,61036e33236ad4ffc5587c93,2021-07-29_23h13.33.301,Simcolourproject_2stim_asymm_v5,2020.2.10,Win32,60,61025ae37ef11b136ea224fe,,,,,,,,,2685,21,49,1,0,0,response1disk,,7,4,-3,1,0,0,rectangle,4,-3,1,0,0,4,-3,1,0,0,1,20,180,41,1,,,,,,,,
,,,,,,,,,,,,,FF,,,,,,,,0.635,,,,,,,,,,,,,,,,,,,,,,61036408097ef9b5244058ed,61036e33236ad4ffc5587c93,2021-07-29_23h13.33.301,Simcolourproject_2stim_asymm_v5,2020.2.10,Win32,60,61025ae37ef11b136ea224fe,,,,,,,,,3616,31,63,1,0,0,response1disk,,7,3,-5,1,0,0,rectangle,3,-5,1,0,0,3,-5,1,0,0,1,21,181,26,1,,,,,,,,
,,,,,,,,,,,,,FF,,,,,,,,0.55,,,,,,,,,,,,,,,,,,,,,,61036408097ef9b5244058ed,61036e33236ad4ffc5587c93,2021-07-29_23h13.33.301,Simcolourproject_2stim_asymm_v5,2020.2.10,Win32,60,61025ae37ef11b136ea224fe,,,,,,,,,1707,26,49,1,0,0,response1disk,,7,15,1,1,0,0,rectangle,15,1,1,0,0,15,1,1,0,0,1,22,182,93,1,,,,,,,,
,,,,,,,,,,,,,FF,,,,,,,,0.517,,,,,,,,,,,,,,,,,,,,,,61036408097ef9b5244058ed,61036e33236ad4ffc5587c93,2021-07-29_23h13.33.301,Simcolourproject_2stim_asymm_v5,2020.2.10,Win32,60,61025ae37ef11b136ea224fe,,,,,,,,,347,31,55,1,0,0,response1disk,,7,16,8,1,0,0,rectangle,16,8,1,0,0,16,8,1,0,0,1,23,183,159,1,,,,,,,,
,,,,,,,,,,,,,FF,,,,,,,,0.936,,,,,,,,,,,,,,,,,,,,,,61036408097ef9b5244058ed,61036e33236ad4ffc5587c93,2021-07-29_23h13.33.301,Simcolourproject_2stim_asymm_v5,2020.2.10,Win32,60,61025ae37ef11b136ea224fe,,,,,,,,,3994,-15,-59,1,0,0,response5disk,,3,9,-14,1,0,0,rectangle,9,-14,1,0,0,9,-14,1,0,0,1,24,184,150,1,,,,,,,,
,,,,,,,,,,,,,FF,,,,,,,,0.659,,,,,,,,,,,,,,,,,,,,,,61036408097ef9b5244058ed,61036e33236ad4ffc5587c93,2021-07-29_23h13.33.301,Simcolourproject_2stim_asymm_v5,2020.2.10,Win32,60,61025ae37ef11b136ea224fe,,,,,,,,,1538,31,87,1,0,0,response1disk,,7,9,5,1,0,0,rectangle,9,5,1,0,0,9,5,1,0,0,1,25,185,46,1,,,,,,,,
,,,,,,,,,,,,,FF,,,,,,,,1.221,,,,,,,,,,,,,,,,,,,,,,61036408097ef9b5244058ed,61036e33236ad4ffc5587c93,2021-07-29_23h13.33.301,Simcolourproject_2stim_asymm_v5,2020.2.10,Win32,60,61025ae37ef11b136ea224fe,,,,,,,,,633,83,34,1,0,0,response1disk,,6,24,-4,1,0,0,rectangle,24,-4,1,0,0,24,-4,1,0,0,1,26,186,96,1,,,,,,,,
,,,,,,,,,,,,,FF,,,,,,,,1.436,,,,,,,,,,,,,,,,,,,,,,61036408097ef9b5244058ed,61036e33236ad4ffc5587c93,2021-07-29_23h13.33.301,Simcolourproject_2stim_asymm_v5,2020.2.10,Win32,60,61025ae37ef11b136ea224fe,,,,,,,,,1662,73,29,1,0,0,response1disk,,6,11,12,1,0,0,rectangle,11,12,1,0,0,11,12,1,0,0,1,27,187,135,1,,,,,,,,
,,,,,,,,,,,,,FF,,,,,,,,0.517,,,,,,,,,,,,,,,,,,,,,,61036408097ef9b5244058ed,61036e33236ad4ffc5587c93,2021-07-29_23h13.33.301,Simcolourproject_2stim_asymm_v5,2020.2.10,Win32,60,61025ae37ef11b136ea224fe,,,,,,,,,1484,27,55,1,0,0,response1disk,,7,4,13,1,0,0,rectangle,4,13,1,0,0,4,13,1,0,0,1,28,188,149,1,,,,,,,,
,,,,,,,,,,,,,FF,,,,,,,,1.102,,,,,,,,,,,,,,,,,,,,,,61036408097ef9b5244058ed,61036e33236ad4ffc5587c93,2021-07-29_23h13.33.301,Simcolourproject_2stim_asymm_v5,2020.2.10,Win32,60,61025ae37ef11b136ea224fe,,,,,,,,,2966,41,67,1,0,0,response1disk,,7,21,13,1,0,0,rectangle,21,13,1,0,0,21,13,1,0,0,1,29,189,123,1,,,,,,,,
,,,,,,,,,,,,,FF,,,,,,,,0.686,,,,,,,,,,,,,,,,,,,,,,61036408097ef9b5244058ed,61036e33236ad4ffc5587c93,2021-07-29_23h13.33.301,Simcolourproject_2stim_asymm_v5,2020.2.10,Win32,60,61025ae37ef11b136ea224fe,,,,,,,,,3402,25,49,1,0,0,response1disk,,7,6,-1,1,0,0,rectangle,6,-1,1,0,0,6,-1,1,0,0,1,30,190,42,1,,,,,,,,
,,,,,,,,,,,,,FF,,,,,,,,0.518,,,,,,,,,,,,,,,,,,,,,,61036408097ef9b5244058ed,61036e33236ad4ffc5587c93,2021-07-29_23h13.33.301,Simcolourproject_2stim_asymm_v5,2020.2.10,Win32,60,61025ae37ef11b136ea224fe,,,,,,,,,1066,28,65,1,0,0,response1disk,,7,5,3,1,0,0,rectangle,5,3,1,0,0,5,3,1,0,0,1,31,191,141,1,,,,,,,,
,,,,,,,,,,,,,FF,,,,,,,,1.067,,,,,,,,,,,,,,,,,,,,,,61036408097ef9b5244058ed,61036e33236ad4ffc5587c93,2021-07-29_23h13.33.301,Simcolourproject_2stim_asymm_v5,2020.2.10,Win32,60,61025ae37ef11b136ea224fe,,,,,,,,,3235,38,-49,1,0,0,response3disk,,4,7,0,1,0,0,rectangle,7,0,1,0,0,7,0,1,0,0,1,32,192,57,1,,,,,,,,
,,,,,,,,,,,,,FF,,,,,,,,1.186,,,,,,,,,,,,,,,,,,,,,,61036408097ef9b5244058ed,61036e33236ad4ffc5587c93,2021-07-29_23h13.33.301,Simcolourproject_2stim_asymm_v5,2020.2.10,Win32,60,61025ae37ef11b136ea224fe,,,,,,,,,2421,-52,-49,1,0,0,response5disk,,2,5,-5,1,0,0,rectangle,5,-5,1,0,0,5,-5,1,0,0,1,33,193,23,1,,,,,,,,
,,,,,,,,,,,,,FF,,,,,,,,0.849,,,,,,,,,,,,,,,,,,,,,,61036408097ef9b5244058ed,61036e33236ad4ffc5587c93,2021-07-29_23h13.33.301,Simcolourproject_2stim_asymm_v5,2020.2.10,Win32,60,61025ae37ef11b136ea224fe,,,,,,,,,2027,-66,-48,1,0,0,response5disk,,2,13,-4,1,0,0,rectangle,13,-4,1,0,0,13,-4,1,0,0,1,34,194,138,1,,,,,,,,
,,,,,,,,,,,,,FF,,,,,,,,0.904,,,,,,,,,,,,,,,,,,,,,,61036408097ef9b5244058ed,61036e33236ad4ffc5587c93,2021-07-29_23h13.33.301,Simcolourproject_2stim_asymm_v5,2020.2.10,Win32,60,61025ae37ef11b136ea224fe,,,,,,,,,1456,-33,-64,1,0,0,response5disk,,3,9,-13,1,0,0,rectangle,9,-13,1,0,0,9,-13,1,0,0,1,35,195,144,1,,,,,,,,
,,,,,,,,,,,,,FF,,,,,,,,0.75,,,,,,,,,,,,,,,,,,,,,,61036408097ef9b5244058ed,61036e33236ad4ffc5587c93,2021-07-29_23h13.33.301,Simcolourproject_2stim_asymm_v5,2020.2.10,Win32,60,61025ae37ef11b136ea224fe,,,,,,,,,800,38,77,1,0,0,response1disk,,7,-2,4,1,0,0,rectangle,-2,4,1,0,0,-2,4,1,0,0,1,36,196,28,1,,,,,,,,
,,,,,,,,,,,,,FF,,,,,,,,0.953,,,,,,,,,,,,,,,,,,,,,,61036408097ef9b5244058ed,61036e33236ad4ffc5587c93,2021-07-29_23h13.33.301,Simcolourproject_2stim_asymm_v5,2020.2.10,Win32,60,61025ae37ef11b136ea224fe,,,,,,,,,710,35,63,1,0,0,response1disk,,7,4,3,1,0,0,rectangle,4,3,1,0,0,4,3,1,0,0,1,37,197,145,1,,,,,,,,
,,,,,,,,,,,,,FF,,,,,,,,2.269,,,,,,,,,,,,,,,,,,,,,,61036408097ef9b5244058ed,61036e33236ad4ffc5587c93,2021-07-29_23h13.33.301,Simcolourproject_2stim_asymm_v5,2020.2.10,Win32,60,61025ae37ef11b136ea224fe,,,,,,,,,2327,31,54,1,0,0,response1disk,,7,-1,-1,1,0,0,rectangle,-1,-1,1,0,0,-1,-1,1,0,0,1,38,198,142,1,,,,,,,,
,,,,,,,,,,,,,FF,,,,,,,,0.818,,,,,,,,,,,,,,,,,,,,,,61036408097ef9b5244058ed,61036e33236ad4ffc5587c93,2021-07-29_23h13.33.301,Simcolourproject_2stim_asymm_v5,2020.2.10,Win32,60,61025ae37ef11b136ea224fe,,,,,,,,,3782,-49,-23,1,0,0,response5disk,,2,-3,-3,1,0,0,rectangle,-3,-3,1,0,0,-3,-3,1,0,0,1,39,199,2,1,,,,,,,,
,,,,,,,,,,,,,FF,,,,,,,,0.969,,,,,,,,,,,,,,,,,,,,,,61036408097ef9b5244058ed,61036e33236ad4ffc5587c93,2021-07-29_23h13.33.301,Simcolourproject_2stim_asymm_v5,2020.2.10,Win32,60,61025ae37ef11b136ea224fe,,,,,,,,,4351,-21,-57,1,0,0,response5disk,,3,5,-5,1,0,0,rectangle,5,-5,1,0,0,5,-5,1,0,0,1,40,200,89,1,,,,,,,,
,,,,,,,,,,,,,FF,,,,,,,,1.236,,,,,,,,,,,,,,,,,,,,,,61036408097ef9b5244058ed,61036e33236ad4ffc5587c93,2021-07-29_23h13.33.301,Simcolourproject_2stim_asymm_v5,2020.2.10,Win32,60,61025ae37ef11b136ea224fe,,,,,,,,,1544,54,23,1,0,0,response1disk,,6,1,-5,1,0,0,rectangle,1,-5,1,0,0,1,-5,1,0,0,1,41,201,24,1,,,,,,,,
,,,,,,,,,,,,,FF,,,,,,,,1.418,,,,,,,,,,,,,,,,,,,,,,61036408097ef9b5244058ed,61036e33236ad4ffc5587c93,2021-07-29_23h13.33.301,Simcolourproject_2stim_asymm_v5,2020.2.10,Win32,60,61025ae37ef11b136ea224fe,,,,,,,,,1763,38,49,1,0,0,response1disk,,7,5,-2,1,0,0,rectangle,5,-2,1,0,0,5,-2,1,0,0,1,42,202,8,1,,,,,,,,
,,,,,,,,,,,,,FF,,,,,,,,0.951,,,,,,,,,,,,,,,,,,,,,,61036408097ef9b5244058ed,61036e33236ad4ffc5587c93,2021-07-29_23h13.33.301,Simcolourproject_2stim_asymm_v5,2020.2.10,Win32,60,61025ae37ef11b136ea224fe,,,,,,,,,4161,-44,88,1,0,0,response7disk,,0,-9,7,1,0,0,rectangle,-9,7,1,0,0,-9,7,1,0,0,1,43,203,88,1,,,,,,,,
,,,,,,,,,,,,,FF,,,,,,,,0.734,,,,,,,,,,,,,,,,,,,,,,61036408097ef9b5244058ed,61036e33236ad4ffc5587c93,2021-07-29_23h13.33.301,Simcolourproject_2stim_asymm_v5,2020.2.10,Win32,60,61025ae37ef11b136ea224fe,,,,,,,,,1634,31,54,1,0,0,response1disk,,7,-7,1,1,0,0,rectangle,-7,1,1,0,0,-7,1,1,0,0,1,44,204,19,1,,,,,,,,
,,,,,,,,,,,,,FF,,,,,,,,0.518,,,,,,,,,,,,,,,,,,,,,,61036408097ef9b5244058ed,61036e33236ad4ffc5587c93,2021-07-29_23h13.33.301,Simcolourproject_2stim_asymm_v5,2020.2.10,Win32,60,61025ae37ef11b136ea224fe,,,,,,,,,2539,37,85,1,0,0,response1disk,,7,-1,3,1,0,0,rectangle,-1,3,1,0,0,-1,3,1,0,0,1,45,205,81,1,,,,,,,,
,,,,,,,,,,,,,FF,,,,,,,,0.685,,,,,,,,,,,,,,,,,,,,,,61036408097ef9b5244058ed,61036e33236ad4ffc5587c93,2021-07-29_23h13.33.301,Simcolourproject_2stim_asymm_v5,2020.2.10,Win32,60,61025ae37ef11b136ea224fe,,,,,,,,,3475,-50,35,1,0,0,response7disk,,1,11,-9,1,0,0,rectangle,11,-9,1,0,0,11,-9,1,0,0,1,46,206,109,1,,,,,,,,
,,,,,,,,,,,,,FF,,,,,,,,1.035,,,,,,,,,,,,,,,,,,,,,,61036408097ef9b5244058ed,61036e33236ad4ffc5587c93,2021-07-29_23h13.33.301,Simcolourproject_2stim_asymm_v5,2020.2.10,Win32,60,61025ae37ef11b136ea224fe,,,,,,,,,3294,-40,-33,1,0,0,response5disk,,2,23,7,1,0,0,rectangle,-75,-50,1,0,0,-9,-11,1,0,0,1,47,207,18,1,,response5disk_3,TRUE,2,2,"[268,176,101,234,96,239,322,273,174,277,81,227,244,119,267,35,208,251,164,284]",1.687,rectangle
,,,,,,,,,,,,,FF,,,,,,,,3.755,,,,,,,,,,,,,,,,,,,,,,61036408097ef9b5244058ed,61036e33236ad4ffc5587c93,2021-07-29_23h13.33.301,Simcolourproject_2stim_asymm_v5,2020.2.10,Win32,60,61025ae37ef11b136ea224fe,,,,,,,,,3033,30,29,1,0,0,response1disk,,6,13,9,1,0,0,rectangle,13,9,1,0,0,13,9,1,0,0,1,48,208,151,1,,,,,,,,
,,,,,,,,,,,,,FF,,,,,,,,0.651,,,,,,,,,,,,,,,,,,,,,,61036408097ef9b5244058ed,61036e33236ad4ffc5587c93,2021-07-29_23h13.33.301,Simcolourproject_2stim_asymm_v5,2020.2.10,Win32,60,61025ae37ef11b136ea224fe,,,,,,,,,1708,23,45,1,0,0,response1disk,,7,7,9,1,0,0,rectangle,7,9,1,0,0,7,9,1,0,0,1,49,209,146,1,,,,,,,,
,,,,,,,,,,,,,FF,,,,,,,,0.802,,,,,,,,,,,,,,,,,,,,,,61036408097ef9b5244058ed,61036e33236ad4ffc5587c93,2021-07-29_23h13.33.301,Simcolourproject_2stim_asymm_v5,2020.2.10,Win32,60,61025ae37ef11b136ea224fe,,,,,,,,,2877,74,39,1,0,0,response1disk,,6,18,-7,1,0,0,rectangle,18,-7,1,0,0,18,-7,1,0,0,1,50,210,74,1,,,,,,,,
,,,,,,,,,,,,,FF,,,,,,,,1.868,,,,,,,,,,,,,,,,,,,,,,61036408097ef9b5244058ed,61036e33236ad4ffc5587c93,2021-07-29_23h13.33.301,Simcolourproject_2stim_asymm_v5,2020.2.10,Win32,60,61025ae37ef11b136ea224fe,,,,,,,,,621,62,31,1,0,0,response1disk,,6,18,0,1,0,0,rectangle,18,0,1,0,0,18,0,1,0,0,1,51,211,80,1,,,,,,,,
,,,,,,,,,,,,,FF,,,,,,,,1.334,,,,,,,,,,,,,,,,,,,,,,61036408097ef9b5244058ed,61036e33236ad4ffc5587c93,2021-07-29_23h13.33.301,Simcolourproject_2stim_asymm_v5,2020.2.10,Win32,60,61025ae37ef11b136ea224fe,,,,,,,,,3523,31,67,1,0,0,response1disk,,7,-6,1,1,0,0,rectangle,-6,1,1,0,0,-6,1,1,0,0,1,52,212,13,1,,,,,,,,
,,,,,,,,,,,,,FF,,,,,,,,0.435,,,,,,,,,,,,,,,,,,,,,,61036408097ef9b5244058ed,61036e33236ad4ffc5587c93,2021-07-29_23h13.33.301,Simcolourproject_2stim_asymm_v5,2020.2.10,Win32,60,61025ae37ef11b136ea224fe,,,,,,,,,750,16,57,1,0,0,response1disk,,7,13,0,1,0,0,rectangle,13,0,1,0,0,13,0,1,0,0,1,53,213,55,1,,,,,,,,
,,,,,,,,,,,,,FF,,,,,,,,0.452,,,,,,,,,,,,,,,,,,,,,,61036408097ef9b5244058ed,61036e33236ad4ffc5587c93,2021-07-29_23h13.33.301,Simcolourproject_2stim_asymm_v5,2020.2.10,Win32,60,61025ae37ef11b136ea224fe,,,,,,,,,1617,33,58,1,0,0,response1disk,,7,5,-3,1,0,0,rectangle,5,-3,1,0,0,5,-3,1,0,0,1,54,214,9,1,,,,,,,,
,,,,,,,,,,,,,FF,,,,,,,,0.467,,,,,,,,,,,,,,,,,,,,,,61036408097ef9b5244058ed,61036e33236ad4ffc5587c93,2021-07-29_23h13.33.301,Simcolourproject_2stim_asymm_v5,2020.2.10,Win32,60,61025ae37ef11b136ea224fe,,,,,,,,,840,19,45,1,0,0,response1disk,,7,3,-8,1,0,0,rectangle,3,-8,1,0,0,3,-8,1,0,0,1,55,215,158,1,,,,,,,,
,,,,,,,,,,,,,FF,,,,,,,,0.935,,,,,,,,,,,,,,,,,,,,,,61036408097ef9b5244058ed,61036e33236ad4ffc5587c93,2021-07-29_23h13.33.301,Simcolourproject_2stim_asymm_v5,2020.2.10,Win32,60,61025ae37ef11b136ea224fe,,,,,,,,,1527,84,33,1,0,0,response1disk,,6,27,1,1,0,0,rectangle,27,1,1,0,0,27,1,1,0,0,1,56,216,139,1,,,,,,,,
,,,,,,,,,,,,,FF,,,,,,,,1.068,,,,,,,,,,,,,,,,,,,,,,61036408097ef9b5244058ed,61036e33236ad4ffc5587c93,2021-07-29_23h13.33.301,Simcolourproject_2stim_asymm_v5,2020.2.10,Win32,60,61025ae37ef11b136ea224fe,,,,,,,,,4355,38,54,1,0,0,response1disk,,7,4,-2,1,0,0,rectangle,4,-2,1,0,0,4,-2,1,0,0,1,57,217,101,1,,,,,,,,
,,,,,,,,,,,,,FF,,,,,,,,0.384,,,,,,,,,,,,,,,,,,,,,,61036408097ef9b5244058ed,61036e33236ad4ffc5587c93,2021-07-29_23h13.33.301,Simcolourproject_2stim_asymm_v5,2020.2.10,Win32,60,61025ae37ef11b136ea224fe,,,,,,,,,2971,27,69,1,0,0,response1disk,,7,11,-1,1,0,0,rectangle,11,-1,1,0,0,11,-1,1,0,0,1,58,218,132,1,,,,,,,,
,,,,,,,,,,,,,FF,,,,,,,,0.351,,,,,,,,,,,,,,,,,,,,,,61036408097ef9b5244058ed,61036e33236ad4ffc5587c93,2021-07-29_23h13.33.301,Simcolourproject_2stim_asymm_v5,2020.2.10,Win32,60,61025ae37ef11b136ea224fe,,,,,,,,,1108,40,53,1,0,0,response1disk,,7,19,-12,1,0,0,rectangle,19,-12,1,0,0,19,-12,1,0,0,1,59,219,63,1,,,,,,,,
,,,,,,,,,,,,,FF,,,,,,,,0.448,,,,,,,,,,,,,,,,,,,,,,61036408097ef9b5244058ed,61036e33236ad4ffc5587c93,2021-07-29_23h13.33.301,Simcolourproject_2stim_asymm_v5,2020.2.10,Win32,60,61025ae37ef11b136ea224fe,,,,,,,,,4110,34,87,1,0,0,response1disk,,7,8,3,1,0,0,rectangle,8,3,1,0,0,8,3,1,0,0,1,60,220,84,1,,,,,,,,
,,,,,,,,,,,,,FF,,,,,,,,0.483,,,,,,,,,,,,,,,,,,,,,,61036408097ef9b5244058ed,61036e33236ad4ffc5587c93,2021-07-29_23h13.33.301,Simcolourproject_2stim_asymm_v5,2020.2.10,Win32,60,61025ae37ef11b136ea224fe,,,,,,,,,2441,17,39,1,0,0,response1disk,,7,3,-3,1,0,0,rectangle,3,-3,1,0,0,3,-3,1,0,0,1,61,221,119,1,,,,,,,,
,,,,,,,,,,,,,FF,,,,,,,,0.935,,,,,,,,,,,,,,,,,,,,,,61036408097ef9b5244058ed,61036e33236ad4ffc5587c93,2021-07-29_23h13.33.301,Simcolourproject_2stim_asymm_v5,2020.2.10,Win32,60,61025ae37ef11b136ea224fe,,,,,,,,,4127,26,69,1,0,0,response1disk,,7,-3,0,1,0,0,rectangle,-3,0,1,0,0,-3,0,1,0,0,1,62,222,45,1,,,,,,,,
,,,,,,,,,,,,,FF,,,,,,,,0.734,,,,,,,,,,,,,,,,,,,,,,61036408097ef9b5244058ed,61036e33236ad4ffc5587c93,2021-07-29_23h13.33.301,Simcolourproject_2stim_asymm_v5,2020.2.10,Win32,60,61025ae37ef11b136ea224fe,,,,,,,,,3882,55,31,1,0,0,response1disk,,6,-4,-3,1,0,0,rectangle,-4,-3,1,0,0,-4,-3,1,0,0,1,63,223,87,1,,,,,,,,
,,,,,,,,,,,,,FF,,,,,,,,0.834,,,,,,,,,,,,,,,,,,,,,,61036408097ef9b5244058ed,61036e33236ad4ffc5587c93,2021-07-29_23h13.33.301,Simcolourproject_2stim_asymm_v5,2020.2.10,Win32,60,61025ae37ef11b136ea224fe,,,,,,,,,3176,33,68,1,0,0,response1disk,,7,6,11,1,0,0,rectangle,6,11,1,0,0,6,11,1,0,0,1,64,224,86,1,,,,,,,,
,,,,,,,,,,,,,FF,,,,,,,,0.718,,,,,,,,,,,,,,,,,,,,,,61036408097ef9b5244058ed,61036e33236ad4ffc5587c93,2021-07-29_23h13.33.301,Simcolourproject_2stim_asymm_v5,2020.2.10,Win32,60,61025ae37ef11b136ea224fe,,,,,,,,,2120,26,44,1,0,0,response1disk,,7,5,1,1,0,0,rectangle,5,1,1,0,0,5,1,1,0,0,1,65,225,48,1,,,,,,,,
,,,,,,,,,,,,,FF,,,,,,,,0.492,,,,,,,,,,,,,,,,,,,,,,61036408097ef9b5244058ed,61036e33236ad4ffc5587c93,2021-07-29_23h13.33.301,Simcolourproject_2stim_asymm_v5,2020.2.10,Win32,60,61025ae37ef11b136ea224fe,,,,,,,,,1273,22,45,1,0,0,response1disk,,7,12,9,1,0,0,rectangle,71,-51,1,0,0,11,14,1,0,0,1,66,226,12,1,,response3disk_3,TRUE,5,4,"[268,176,101,234,96,239,322,273,174,277,81,227,244,119,267,35,208,251,164,284]",1.868,rectangle
,,,,,,,,,,,,,FF,,,,,,,,1.051,,,,,,,,,,,,,,,,,,,,,,61036408097ef9b5244058ed,61036e33236ad4ffc5587c93,2021-07-29_23h13.33.301,Simcolourproject_2stim_asymm_v5,2020.2.10,Win32,60,61025ae37ef11b136ea224fe,,,,,,,,,3704,21,61,1,0,0,response1disk,,7,-1,6,1,0,0,rectangle,-1,6,1,0,0,-1,6,1,0,0,1,67,227,106,1,,,,,,,,
,,,,,,,,,,,,,FF,,,,,,,,1.186,,,,,,,,,,,,,,,,,,,,,,61036408097ef9b5244058ed,61036e33236ad4ffc5587c93,2021-07-29_23h13.33.301,Simcolourproject_2stim_asymm_v5,2020.2.10,Win32,60,61025ae37ef11b136ea224fe,,,,,,,,,2834,80,-22,1,0,0,response3disk,,5,0,1,1,0,0,rectangle,0,1,1,0,0,0,1,1,0,0,1,68,228,44,1,,,,,,,,
,,,,,,,,,,,,,FF,,,,,,,,1.184,,,,,,,,,,,,,,,,,,,,,,61036408097ef9b5244058ed,61036e33236ad4ffc5587c93,2021-07-29_23h13.33.301,Simcolourproject_2stim_asymm_v5,2020.2.10,Win32,60,61025ae37ef11b136ea224fe,,,,,,,,,3535,18,48,1,0,0,response1disk,,7,-1,7,1,0,0,rectangle,-1,7,1,0,0,-1,7,1,0,0,1,69,229,114,1,,,,,,,,
,,,,,,,,,,,,,FF,,,,,,,,0.417,,,,,,,,,,,,,,,,,,,,,,61036408097ef9b5244058ed,61036e33236ad4ffc5587c93,2021-07-29_23h13.33.301,Simcolourproject_2stim_asymm_v5,2020.2.10,Win32,60,61025ae37ef11b136ea224fe,,,,,,,,,2204,50,103,1,0,0,response1disk,,7,0,-2,1,0,0,rectangle,0,-2,1,0,0,0,-2,1,0,0,1,70,230,133,1,,,,,,,,
,,,,,,,,,,,,,FF,,,,,,,,0.634,,,,,,,,,,,,,,,,,,,,,,61036408097ef9b5244058ed,61036e33236ad4ffc5587c93,2021-07-29_23h13.33.301,Simcolourproject_2stim_asymm_v5,2020.2.10,Win32,60,61025ae37ef11b136ea224fe,,,,,,,,,362,44,63,1,0,0,response1disk,,7,1,3,1,0,0,rectangle,1,3,1,0,0,1,3,1,0,0,1,71,231,25,1,,,,,,,,
,,,,,,,,,,,,,FF,,,,,,,,0.401,,,,,,,,,,,,,,,,,,,,,,61036408097ef9b5244058ed,61036e33236ad4ffc5587c93,2021-07-29_23h13.33.301,Simcolourproject_2stim_asymm_v5,2020.2.10,Win32,60,61025ae37ef11b136ea224fe,,,,,,,,,1620,15,79,1,0,0,response1disk,,7,-7,-8,1,0,0,rectangle,-7,-8,1,0,0,-7,-8,1,0,0,1,72,232,73,1,,,,,,,,
,,,,,,,,,,,,,FF,,,,,,,,0.851,,,,,,,,,,,,,,,,,,,,,,61036408097ef9b5244058ed,61036e33236ad4ffc5587c93,2021-07-29_23h13.33.301,Simcolourproject_2stim_asymm_v5,2020.2.10,Win32,60,61025ae37ef11b136ea224fe,,,,,,,,,4190,78,28,1,0,0,response1disk,,6,11,-14,1,0,0,rectangle,-89,36,1,0,0,-21,3,1,0,0,1,73,233,5,1,,response7disk_3,TRUE,1,1,"[268,176,101,234,96,239,322,273,174,277,81,227,244,119,267,35,208,251,164,284]",1.596,rectangle
,,,,,,,,,,,,,FF,,,,,,,,0.871,,,,,,,,,,,,,,,,,,,,,,61036408097ef9b5244058ed,61036e33236ad4ffc5587c93,2021-07-29_23h13.33.301,Simcolourproject_2stim_asymm_v5,2020.2.10,Win32,60,61025ae37ef11b136ea224fe,,,,,,,,,3776,-67,28,1,0,0,response7disk,,1,21,1,1,0,0,rectangle,21,1,1,0,0,21,1,1,0,0,1,74,234,83,1,,,,,,,,
,,,,,,,,,,,,,FF,,,,,,,,1.087,,,,,,,,,,,,,,,,,,,,,,61036408097ef9b5244058ed,61036e33236ad4ffc5587c93,2021-07-29_23h13.33.301,Simcolourproject_2stim_asymm_v5,2020.2.10,Win32,60,61025ae37ef11b136ea224fe,,,,,,,,,1372,55,23,1,0,0,response1disk,,6,0,-3,1,0,0,rectangle,0,-3,1,0,0,0,-3,1,0,0,1,75,235,61,1,,,,,,,,
,,,,,,,,,,,,,FF,,,,,,,,0.567,,,,,,,,,,,,,,,,,,,,,,61036408097ef9b5244058ed,61036e33236ad4ffc5587c93,2021-07-29_23h13.33.301,Simcolourproject_2stim_asymm_v5,2020.2.10,Win32,60,61025ae37ef11b136ea224fe,,,,,,,,,1343,29,49,1,0,0,response1disk,,7,-3,5,1,0,0,rectangle,-3,5,1,0,0,-3,5,1,0,0,1,76,236,16,1,,,,,,,,
,,,,,,,,,,,,,FF,,,,,,,,0.419,,,,,,,,,,,,,,,,,,,,,,61036408097ef9b5244058ed,61036e33236ad4ffc5587c93,2021-07-29_23h13.33.301,Simcolourproject_2stim_asymm_v5,2020.2.10,Win32,60,61025ae37ef11b136ea224fe,,,,,,,,,410,35,82,1,0,0,response1disk,,7,-1,-3,1,0,0,rectangle,-1,-3,1,0,0,-1,-3,1,0,0,1,77,237,98,1,,,,,,,,
,,,,,,,,,,,,,FF,,,,,,,,0.633,,,,,,,,,,,,,,,,,,,,,,61036408097ef9b5244058ed,61036e33236ad4ffc5587c93,2021-07-29_23h13.33.301,Simcolourproject_2stim_asymm_v5,2020.2.10,Win32,60,61025ae37ef11b136ea224fe,,,,,,,,,228,54,84,1,0,0,response1disk,,7,11,0,1,0,0,rectangle,-36,63,1,0,0,0,-5,1,0,0,1,78,238,120,1,,response7disk_3,TRUE,0,0,"[268,176,101,234,96,239,322,273,174,277,81,227,244,119,267,35,208,251,164,284]",1.484,rectangle
,,,,,,,,,,,,,FF,,,,,,,,0.587,,,,,,,,,,,,,,,,,,,,,,61036408097ef9b5244058ed,61036e33236ad4ffc5587c93,2021-07-29_23h13.33.301,Simcolourproject_2stim_asymm_v5,2020.2.10,Win32,60,61025ae37ef11b136ea224fe,,,,,,,,,1626,26,62,1,0,0,response1disk,,7,-9,0,1,0,0,rectangle,-9,0,1,0,0,-9,0,1,0,0,1,79,239,67,1,,,,,,,,
,,,,,,,,,,,,,FF,,,,,,,,1.023,,,,,,,,,,,,,,,,,,,,,,61036408097ef9b5244058ed,61036e33236ad4ffc5587c93,2021-07-29_23h13.33.301,Simcolourproject_2stim_asymm_v5,2020.2.10,Win32,60,61025ae37ef11b136ea224fe,,,,,,,,,2239,21,38,1,0,0,response1disk,,7,-2,5,1,0,0,rectangle,-2,5,1,0,0,-2,5,1,0,0,1,80,240,107,1,,,,,,,,
,,,,,,,,,,,,,FF,,,,,,,,0.751,,,,,,,,,,,,,,,,,,,,,,61036408097ef9b5244058ed,61036e33236ad4ffc5587c93,2021-07-29_23h13.33.301,Simcolourproject_2stim_asymm_v5,2020.2.10,Win32,60,61025ae37ef11b136ea224fe,,,,,,,,,3015,57,59,1,0,0,response1disk,,7,17,-7,1,0,0,rectangle,17,-7,1,0,0,17,-7,1,0,0,1,81,241,22,1,,,,,,,,
,,,,,,,,,,,,,FF,,,,,,,,0.584,,,,,,,,,,,,,,,,,,,,,,61036408097ef9b5244058ed,61036e33236ad4ffc5587c93,2021-07-29_23h13.33.301,Simcolourproject_2stim_asymm_v5,2020.2.10,Win32,60,61025ae37ef11b136ea224fe,,,,,,,,,1281,26,38,1,0,0,response1disk,,7,12,11,1,0,0,rectangle,12,11,1,0,0,12,11,1,0,0,1,82,242,1,1,,,,,,,,
,,,,,,,,,,,,,FF,,,,,,,,0.467,,,,,,,,,,,,,,,,,,,,,,61036408097ef9b5244058ed,61036e33236ad4ffc5587c93,2021-07-29_23h13.33.301,Simcolourproject_2stim_asymm_v5,2020.2.10,Win32,60,61025ae37ef11b136ea224fe,,,,,,,,,2337,29,47,1,0,0,response1disk,,7,5,-9,1,0,0,rectangle,27,88,1,0,0,-4,1,1,0,0,1,83,243,40,1,,response1disk_3,TRUE,7,7,"[268,176,101,234,96,239,322,273,174,277,81,227,244,119,267,35,208,251,164,284]",3.236,rectangle
,,,,,,,,,,,,,FF,,,,,,,,0.636,,,,,,,,,,,,,,,,,,,,,,61036408097ef9b5244058ed,61036e33236ad4ffc5587c93,2021-07-29_23h13.33.301,Simcolourproject_2stim_asymm_v5,2020.2.10,Win32,60,61025ae37ef11b136ea224fe,,,,,,,,,2005,19,67,1,0,0,response1disk,,7,4,11,1,0,0,rectangle,4,11,1,0,0,4,11,1,0,0,1,84,244,154,1,,,,,,,,
,,,,,,,,,,,,,FF,,,,,,,,1.135,,,,,,,,,,,,,,,,,,,,,,61036408097ef9b5244058ed,61036e33236ad4ffc5587c93,2021-07-29_23h13.33.301,Simcolourproject_2stim_asymm_v5,2020.2.10,Win32,60,61025ae37ef11b136ea224fe,,,,,,,,,2727,-49,-24,1,0,0,response5disk,,2,-8,7,1,0,0,rectangle,-8,7,1,0,0,-8,7,1,0,0,1,85,245,147,1,,,,,,,,
,,,,,,,,,,,,,FF,,,,,,,,1.286,,,,,,,,,,,,,,,,,,,,,,61036408097ef9b5244058ed,61036e33236ad4ffc5587c93,2021-07-29_23h13.33.301,Simcolourproject_2stim_asymm_v5,2020.2.10,Win32,60,61025ae37ef11b136ea224fe,,,,,,,,,371,30,-66,1,0,0,response3disk,,4,-3,-2,1,0,0,rectangle,-3,-2,1,0,0,-3,-2,1,0,0,1,86,246,100,1,,,,,,,,
,,,,,,,,,,,,,FF,,,,,,,,0.601,,,,,,,,,,,,,,,,,,,,,,61036408097ef9b5244058ed,61036e33236ad4ffc5587c93,2021-07-29_23h13.33.301,Simcolourproject_2stim_asymm_v5,2020.2.10,Win32,60,61025ae37ef11b136ea224fe,,,,,,,,,3024,27,46,1,0,0,response1disk,,7,3,7,1,0,0,rectangle,3,7,1,0,0,3,7,1,0,0,1,87,247,51,1,,,,,,,,
,,,,,,,,,,,,,FF,,,,,,,,0.667,,,,,,,,,,,,,,,,,,,,,,61036408097ef9b5244058ed,61036e33236ad4ffc5587c93,2021-07-29_23h13.33.301,Simcolourproject_2stim_asymm_v5,2020.2.10,Win32,60,61025ae37ef11b136ea224fe,,,,,,,,,2261,25,47,1,0,0,response1disk,,7,-3,1,1,0,0,rectangle,-3,1,1,0,0,-3,1,1,0,0,1,88,248,17,1,,,,,,,,
,,,,,,,,,,,,,FF,,,,,,,,1.185,,,,,,,,,,,,,,,,,,,,,,61036408097ef9b5244058ed,61036e33236ad4ffc5587c93,2021-07-29_23h13.33.301,Simcolourproject_2stim_asymm_v5,2020.2.10,Win32,60,61025ae37ef11b136ea224fe,,,,,,,,,2217,-48,-55,1,0,0,response5disk,,3,-3,6,1,0,0,rectangle,-3,6,1,0,0,-3,6,1,0,0,1,89,249,85,1,,,,,,,,
,,,,,,,,,,,,,FF,,,,,,,,0.601,,,,,,,,,,,,,,,,,,,,,,61036408097ef9b5244058ed,61036e33236ad4ffc5587c93,2021-07-29_23h13.33.301,Simcolourproject_2stim_asymm_v5,2020.2.10,Win32,60,61025ae37ef11b136ea224fe,,,,,,,,,694,37,68,1,0,0,response1disk,,7,3,8,1,0,0,rectangle,76,-31,1,0,0,12,-3,1,0,0,1,90,250,64,1,,response3disk_3,TRUE,5,5,"[268,176,101,234,96,239,322,273,174,277,81,227,244,119,267,35,208,251,164,284]",1.718,rectangle
,,,,,,,,,,,,,FF,,,,,,,,1.118,,,,,,,,,,,,,,,,,,,,,,61036408097ef9b5244058ed,61036e33236ad4ffc5587c93,2021-07-29_23h13.33.301,Simcolourproject_2stim_asymm_v5,2020.2.10,Win32,60,61025ae37ef11b136ea224fe,,,,,,,,,682,22,51,1,0,0,response1disk,,7,-3,-2,1,0,0,rectangle,-3,-2,1,0,0,-3,-2,1,0,0,1,91,251,140,1,,,,,,,,
,,,,,,,,,,,,,FF,,,,,,,,0.693,,,,,,,,,,,,,,,,,,,,,,61036408097ef9b5244058ed,61036e33236ad4ffc5587c93,2021-07-29_23h13.33.301,Simcolourproject_2stim_asymm_v5,2020.2.10,Win32,60,61025ae37ef11b136ea224fe,,,,,,,,,3695,32,58,1,0,0,response1disk,,7,-1,1,1,0,0,rectangle,-1,1,1,0,0,-1,1,1,0,0,1,92,252,60,1,,,,,,,,
,,,,,,,,,,,,,FF,,,,,,,,0.466,,,,,,,,,,,,,,,,,,,,,,61036408097ef9b5244058ed,61036e33236ad4ffc5587c93,2021-07-29_23h13.33.301,Simcolourproject_2stim_asymm_v5,2020.2.10,Win32,60,61025ae37ef11b136ea224fe,,,,,,,,,3564,33,46,1,0,0,response1disk,,7,11,-7,1,0,0,rectangle,11,-7,1,0,0,11,-7,1,0,0,1,93,253,54,1,,,,,,,,
,,,,,,,,,,,,,FF,,,,,,,,0.437,,,,,,,,,,,,,,,,,,,,,,61036408097ef9b5244058ed,61036e33236ad4ffc5587c93,2021-07-29_23h13.33.301,Simcolourproject_2stim_asymm_v5,2020.2.10,Win32,60,61025ae37ef11b136ea224fe,,,,,,,,,3615,35,57,1,0,0,response1disk,,7,7,6,1,0,0,rectangle,7,6,1,0,0,7,6,1,0,0,1,94,254,31,1,,,,,,,,
,,,,,,,,,,,,,FF,,,,,,,,0.399,,,,,,,,,,,,,,,,,,,,,,61036408097ef9b5244058ed,61036e33236ad4ffc5587c93,2021-07-29_23h13.33.301,Simcolourproject_2stim_asymm_v5,2020.2.10,Win32,60,61025ae37ef11b136ea224fe,,,,,,,,,2830,21,51,1,0,0,response1disk,,7,3,2,1,0,0,rectangle,3,2,1,0,0,3,2,1,0,0,1,95,255,102,1,,,,,,,,
,,,,,,,,,,,,,FF,,,,,,,,0.466,,,,,,,,,,,,,,,,,,,,,,61036408097ef9b5244058ed,61036e33236ad4ffc5587c93,2021-07-29_23h13.33.301,Simcolourproject_2stim_asymm_v5,2020.2.10,Win32,60,61025ae37ef11b136ea224fe,,,,,,,,,4037,21,37,1,0,0,response1disk,,7,5,-1,1,0,0,rectangle,5,-1,1,0,0,5,-1,1,0,0,1,96,256,112,1,,,,,,,,
,,,,,,,,,,,,,FF,,,,,,,,1.066,,,,,,,,,,,,,,,,,,,,,,61036408097ef9b5244058ed,61036e33236ad4ffc5587c93,2021-07-29_23h13.33.301,Simcolourproject_2stim_asymm_v5,2020.2.10,Win32,60,61025ae37ef11b136ea224fe,,,,,,,,,3196,-57,-19,1,0,0,response5disk,,2,-5,10,1,0,0,rectangle,-5,10,1,0,0,-5,10,1,0,0,1,97,257,68,1,,,,,,,,
,,,,,,,,,,,,,FF,,,,,,,,1.385,,,,,,,,,,,,,,,,,,,,,,61036408097ef9b5244058ed,61036e33236ad4ffc5587c93,2021-07-29_23h13.33.301,Simcolourproject_2stim_asymm_v5,2020.2.10,Win32,60,61025ae37ef11b136ea224fe,,,,,,,,,385,65,30,1,0,0,response1disk,,6,11,-7,1,0,0,rectangle,11,-7,1,0,0,11,-7,1,0,0,1,98,258,66,1,,,,,,,,
,,,,,,,,,,,,,FF,,,,,,,,1.051,,,,,,,,,,,,,,,,,,,,,,61036408097ef9b5244058ed,61036e33236ad4ffc5587c93,2021-07-29_23h13.33.301,Simcolourproject_2stim_asymm_v5,2020.2.10,Win32,60,61025ae37ef11b136ea224fe,,,,,,,,,3388,-59,-28,1,0,0,response5disk,,2,-8,8,1,0,0,rectangle,-8,8,1,0,0,-8,8,1,0,0,1,99,259,97,1,,,,,,,,
,,,,,,,,,,,,,FF,,,,,,,,1.118,,,,,,,,,,,,,,,,,,,,,,61036408097ef9b5244058ed,61036e33236ad4ffc5587c93,2021-07-29_23h13.33.301,Simcolourproject_2stim_asymm_v5,2020.2.10,Win32,60,61025ae37ef11b136ea224fe,,,,,,,,,1710,42,65,1,0,0,response1disk,,7,0,11,1,0,0,rectangle,0,11,1,0,0,0,11,1,0,0,1,100,260,75,1,,,,,,,,
,,,,,,,,,,,,,FF,,,,,,,,0.932,,,,,,,,,,,,,,,,,,,,,,61036408097ef9b5244058ed,61036e33236ad4ffc5587c93,2021-07-29_23h13.33.301,Simcolourproject_2stim_asymm_v5,2020.2.10,Win32,60,61025ae37ef11b136ea224fe,,,,,,,,,2025,-25,82,1,0,0,response7disk,,0,5,-7,1,0,0,rectangle,5,-7,1,0,0,5,-7,1,0,0,1,101,261,131,1,,,,,,,,
,,,,,,,,,,,,,FF,,,,,,,,0.636,,,,,,,,,,,,,,,,,,,,,,61036408097ef9b5244058ed,61036e33236ad4ffc5587c93,2021-07-29_23h13.33.301,Simcolourproject_2stim_asymm_v5,2020.2.10,Win32,60,61025ae37ef11b136ea224fe,,,,,,,,,4181,-33,65,1,0,0,response7disk,,0,-9,11,1,0,0,rectangle,-9,11,1,0,0,-9,11,1,0,0,1,102,262,152,1,,,,,,,,
,,,,,,,,,,,,,FF,,,,,,,,1.135,,,,,,,,,,,,,,,,,,,,,,61036408097ef9b5244058ed,61036e33236ad4ffc5587c93,2021-07-29_23h13.33.301,Simcolourproject_2stim_asymm_v5,2020.2.10,Win32,60,61025ae37ef11b136ea224fe,,,,,,,,,1661,31,56,1,0,0,response1disk,,7,-1,0,1,0,0,rectangle,-1,0,1,0,0,-1,0,1,0,0,1,103,263,72,1,,,,,,,,
,,,,,,,,,,,,,FF,,,,,,,,0.686,,,,,,,,,,,,,,,,,,,,,,61036408097ef9b5244058ed,61036e33236ad4ffc5587c93,2021-07-29_23h13.33.301,Simcolourproject_2stim_asymm_v5,2020.2.10,Win32,60,61025ae37ef11b136ea224fe,,,,,,,,,226,27,67,1,0,0,response1disk,,7,-3,5,1,0,0,rectangle,-3,5,1,0,0,-3,5,1,0,0,1,104,264,82,1,,,,,,,,
,,,,,,,,,,,,,FF,,,,,,,,1.233,,,,,,,,,,,,,,,,,,,,,,61036408097ef9b5244058ed,61036e33236ad4ffc5587c93,2021-07-29_23h13.33.301,Simcolourproject_2stim_asymm_v5,2020.2.10,Win32,60,61025ae37ef11b136ea224fe,,,,,,,,,3337,-53,-77,1,0,0,response5disk,,3,1,0,1,0,0,rectangle,1,0,1,0,0,1,0,1,0,0,1,105,265,78,1,,,,,,,,
,,,,,,,,,,,,,FF,,,,,,,,1.252,,,,,,,,,,,,,,,,,,,,,,61036408097ef9b5244058ed,61036e33236ad4ffc5587c93,2021-07-29_23h13.33.301,Simcolourproject_2stim_asymm_v5,2020.2.10,Win32,60,61025ae37ef11b136ea224fe,,,,,,,,,3860,35,83,1,0,0,response1disk,,7,9,-7,1,0,0,rectangle,20,105,1,0,0,7,7,1,0,0,1,106,266,113,1,,response1disk_3,TRUE,7,7,"[268,176,101,234,96,239,322,273,174,277,81,227,244,119,267,35,208,251,164,284]",1.268,rectangle
,,,,,,,,,,,,,FF,,,,,,,,0.65,,,,,,,,,,,,,,,,,,,,,,61036408097ef9b5244058ed,61036e33236ad4ffc5587c93,2021-07-29_23h13.33.301,Simcolourproject_2stim_asymm_v5,2020.2.10,Win32,60,61025ae37ef11b136ea224fe,,,,,,,,,2347,39,95,1,0,0,response1disk,,7,5,14,1,0,0,rectangle,-69,27,1,0,0,-13,5,1,0,0,1,107,267,30,1,,response7disk_3,TRUE,1,1,"[268,176,101,234,96,239,322,273,174,277,81,227,244,119,267,35,208,251,164,284]",2.056,rectangle
,,,,,,,,,,,,,FF,,,,,,,,0.85,,,,,,,,,,,,,,,,,,,,,,61036408097ef9b5244058ed,61036e33236ad4ffc5587c93,2021-07-29_23h13.33.301,Simcolourproject_2stim_asymm_v5,2020.2.10,Win32,60,61025ae37ef11b136ea224fe,,,,,,,,,3119,18,65,1,0,0,response1disk,,7,-11,8,1,0,0,rectangle,-11,8,1,0,0,-11,8,1,0,0,1,108,268,153,1,,,,,,,,
,,,,,,,,,,,,,FF,,,,,,,,0.585,,,,,,,,,,,,,,,,,,,,,,61036408097ef9b5244058ed,61036e33236ad4ffc5587c93,2021-07-29_23h13.33.301,Simcolourproject_2stim_asymm_v5,2020.2.10,Win32,60,61025ae37ef11b136ea224fe,,,,,,,,,114,30,73,1,0,0,response1disk,,7,6,8,1,0,0,rectangle,6,8,1,0,0,6,8,1,0,0,1,109,269,27,1,,,,,,,,
,,,,,,,,,,,,,FF,,,,,,,,0.467,,,,,,,,,,,,,,,,,,,,,,61036408097ef9b5244058ed,61036e33236ad4ffc5587c93,2021-07-29_23h13.33.301,Simcolourproject_2stim_asymm_v5,2020.2.10,Win32,60,61025ae37ef11b136ea224fe,,,,,,,,,2379,33,57,1,0,0,response1disk,,7,12,5,1,0,0,rectangle,12,5,1,0,0,12,5,1,0,0,1,110,270,37,1,,,,,,,,
,,,,,,,,,,,,,FF,,,,,,,,0.475,,,,,,,,,,,,,,,,,,,,,,61036408097ef9b5244058ed,61036e33236ad4ffc5587c93,2021-07-29_23h13.33.301,Simcolourproject_2stim_asymm_v5,2020.2.10,Win32,60,61025ae37ef11b136ea224fe,,,,,,,,,3035,27,48,1,0,0,response1disk,,7,17,4,1,0,0,rectangle,17,4,1,0,0,17,4,1,0,0,1,111,271,99,1,,,,,,,,
,,,,,,,,,,,,,FF,,,,,,,,1.25,,,,,,,,,,,,,,,,,,,,,,61036408097ef9b5244058ed,61036e33236ad4ffc5587c93,2021-07-29_23h13.33.301,Simcolourproject_2stim_asymm_v5,2020.2.10,Win32,60,61025ae37ef11b136ea224fe,,,,,,,,,3503,-18,-68,1,0,0,response5disk,,3,25,-3,1,0,0,rectangle,62,-15,1,0,0,19,-3,1,0,0,1,112,272,121,1,,response3disk_3,TRUE,5,5,"[268,176,101,234,96,239,322,273,174,277,81,227,244,119,267,35,208,251,164,284]",1.448,rectangle
,,,,,,,,,,,,,FF,,,,,,,,0.486,,,,,,,,,,,,,,,,,,,,,,61036408097ef9b5244058ed,61036e33236ad4ffc5587c93,2021-07-29_23h13.33.301,Simcolourproject_2stim_asymm_v5,2020.2.10,Win32,60,61025ae37ef11b136ea224fe,,,,,,,,,1182,41,81,1,0,0,response1disk,,7,3,-5,1,0,0,rectangle,3,-5,1,0,0,3,-5,1,0,0,1,113,273,21,1,,,,,,,,
,,,,,,,,,,,,,FF,,,,,,,,2.069,,,,,,,,,,,,,,,,,,,,,,61036408097ef9b5244058ed,61036e33236ad4ffc5587c93,2021-07-29_23h13.33.301,Simcolourproject_2stim_asymm_v5,2020.2.10,Win32,60,61025ae37ef11b136ea224fe,,,,,,,,,517,17,46,1,0,0,response1disk,,7,-3,-2,1,0,0,rectangle,-3,-2,1,0,0,-3,-2,1,0,0,1,114,274,11,1,,,,,,,,
,,,,,,,,,,,,,FF,,,,,,,,0.566,,,,,,,,,,,,,,,,,,,,,,61036408097ef9b5244058ed,61036e33236ad4ffc5587c93,2021-07-29_23h13.33.301,Simcolourproject_2stim_asymm_v5,2020.2.10,Win32,60,61025ae37ef11b136ea224fe,,,,,,,,,251,31,51,1,0,0,response1disk,,7,7,14,1,0,0,rectangle,7,14,1,0,0,7,14,1,0,0,1,115,275,136,1,,,,,,,,
,,,,,,,,,,,,,FF,,,,,,,,0.432,,,,,,,,,,,,,,,,,,,,,,61036408097ef9b5244058ed,61036e33236ad4ffc5587c93,2021-07-29_23h13.33.301,Simcolourproject_2stim_asymm_v5,2020.2.10,Win32,60,61025ae37ef11b136ea224fe,,,,,,,,,1086,30,59,1,0,0,response1disk,,7,7,3,1,0,0,rectangle,69,-28,1,0,0,19,-11,1,0,0,1,116,276,79,1,,response3disk_3,TRUE,5,5,"[268,176,101,234,96,239,322,273,174,277,81,227,244,119,267,35,208,251,164,284]",1.368,rectangle
,,,,,,,,,,,,,FF,,,,,,,,0.951,,,,,,,,,,,,,,,,,,,,,,61036408097ef9b5244058ed,61036e33236ad4ffc5587c93,2021-07-29_23h13.33.301,Simcolourproject_2stim_asymm_v5,2020.2.10,Win32,60,61025ae37ef11b136ea224fe,,,,,,,,,2536,31,45,1,0,0,response1disk,,7,4,3,1,0,0,rectangle,4,3,1,0,0,4,3,1,0,0,1,117,277,6,1,,,,,,,,
,,,,,,,,,,,,,FF,,,,,,,,0.469,,,,,,,,,,,,,,,,,,,,,,61036408097ef9b5244058ed,61036e33236ad4ffc5587c93,2021-07-29_23h13.33.301,Simcolourproject_2stim_asymm_v5,2020.2.10,Win32,60,61025ae37ef11b136ea224fe,,,,,,,,,2370,16,54,1,0,0,response1disk,,7,-1,3,1,0,0,rectangle,-1,3,1,0,0,-1,3,1,0,0,1,118,278,34,1,,,,,,,,
,,,,,,,,,,,,,FF,,,,,,,,0.399,,,,,,,,,,,,,,,,,,,,,,61036408097ef9b5244058ed,61036e33236ad4ffc5587c93,2021-07-29_23h13.33.301,Simcolourproject_2stim_asymm_v5,2020.2.10,Win32,60,61025ae37ef11b136ea224fe,,,,,,,,,3611,37,63,1,0,0,response1disk,,7,12,5,1,0,0,rectangle,12,5,1,0,0,12,5,1,0,0,1,119,279,155,1,,,,,,,,
,,,,,,,,,,,,,FF,,,,,,,,0.4,,,,,,,,,,,,,,,,,,,,,,61036408097ef9b5244058ed,61036e33236ad4ffc5587c93,2021-07-29_23h13.33.301,Simcolourproject_2stim_asymm_v5,2020.2.10,Win32,60,61025ae37ef11b136ea224fe,,,,,,,,,2340,36,67,1,0,0,response1disk,,7,13,3,1,0,0,rectangle,13,3,1,0,0,13,3,1,0,0,1,120,280,15,1,,,,,,,,
,,,,,,,,,,,,,FF,,,,,,,,0.367,,,,,,,,,,,,,,,,,,,,,,61036408097ef9b5244058ed,61036e33236ad4ffc5587c93,2021-07-29_23h13.33.301,Simcolourproject_2stim_asymm_v5,2020.2.10,Win32,60,61025ae37ef11b136ea224fe,,,,,,,,,3890,33,71,1,0,0,response1disk,,7,7,2,1,0,0,rectangle,7,2,1,0,0,7,2,1,0,0,1,121,281,95,1,,,,,,,,
,,,,,,,,,,,,,FF,,,,,,,,0.471,,,,,,,,,,,,,,,,,,,,,,61036408097ef9b5244058ed,61036e33236ad4ffc5587c93,2021-07-29_23h13.33.301,Simcolourproject_2stim_asymm_v5,2020.2.10,Win32,60,61025ae37ef11b136ea224fe,,,,,,,,,3960,31,59,1,0,0,response1disk,,7,-3,1,1,0,0,rectangle,-3,1,1,0,0,-3,1,1,0,0,1,122,282,111,1,,,,,,,,
,,,,,,,,,,,,,FF,,,,,,,,0.517,,,,,,,,,,,,,,,,,,,,,,61036408097ef9b5244058ed,61036e33236ad4ffc5587c93,2021-07-29_23h13.33.301,Simcolourproject_2stim_asymm_v5,2020.2.10,Win32,60,61025ae37ef11b136ea224fe,,,,,,,,,2247,21,53,1,0,0,response1disk,,7,7,9,1,0,0,rectangle,-76,28,1,0,0,-15,-1,1,0,0,1,123,283,62,1,,response7disk_3,TRUE,1,1,"[268,176,101,234,96,239,322,273,174,277,81,227,244,119,267,35,208,251,164,284]",1.735,rectangle
,,,,,,,,,,,,,FF,,,,,,,,0.517,,,,,,,,,,,,,,,,,,,,,,61036408097ef9b5244058ed,61036e33236ad4ffc5587c93,2021-07-29_23h13.33.301,Simcolourproject_2stim_asymm_v5,2020.2.10,Win32,60,61025ae37ef11b136ea224fe,,,,,,,,,1852,24,63,1,0,0,response1disk,,7,0,-5,1,0,0,rectangle,0,-5,1,0,0,0,-5,1,0,0,1,124,284,56,1,,,,,,,,
,,,,,,,,,,,,,FF,,,,,,,,1.538,,,,,,,,,,,,,,,,,,,,,,61036408097ef9b5244058ed,61036e33236ad4ffc5587c93,2021-07-29_23h13.33.301,Simcolourproject_2stim_asymm_v5,2020.2.10,Win32,60,61025ae37ef11b136ea224fe,,,,,,,,,2672,61,-34,1,0,0,response3disk,,5,1,0,1,0,0,rectangle,1,0,1,0,0,1,0,1,0,0,1,125,285,59,1,,,,,,,,
,,,,,,,,,,,,,FF,,,,,,,,0.584,,,,,,,,,,,,,,,,,,,,,,61036408097ef9b5244058ed,61036e33236ad4ffc5587c93,2021-07-29_23h13.33.301,Simcolourproject_2stim_asymm_v5,2020.2.10,Win32,60,61025ae37ef11b136ea224fe,,,,,,,,,4286,27,43,1,0,0,response1disk,,7,-1,-8,1,0,0,rectangle,-1,-8,1,0,0,-1,-8,1,0,0,1,126,286,14,1,,,,,,,,
,,,,,,,,,,,,,FF,,,,,,,,1.002,,,,,,,,,,,,,,,,,,,,,,61036408097ef9b5244058ed,61036e33236ad4ffc5587c93,2021-07-29_23h13.33.301,Simcolourproject_2stim_asymm_v5,2020.2.10,Win32,60,61025ae37ef11b136ea224fe,,,,,,,,,720,47,-55,1,0,0,response3disk,,4,8,-7,1,0,0,rectangle,8,-7,1,0,0,8,-7,1,0,0,1,127,287,58,1,,,,,,,,
,,,,,,,,,,,,,FF,,,,,,,,0.701,,,,,,,,,,,,,,,,,,,,,,61036408097ef9b5244058ed,61036e33236ad4ffc5587c93,2021-07-29_23h13.33.301,Simcolourproject_2stim_asymm_v5,2020.2.10,Win32,60,61025ae37ef11b136ea224fe,,,,,,,,,565,31,45,1,0,0,response1disk,,7,4,7,1,0,0,rectangle,4,7,1,0,0,4,7,1,0,0,1,128,288,65,1,,,,,,,,
,,,,,,,,,,,,,FF,,,,,,,,1.052,,,,,,,,,,,,,,,,,,,,,,61036408097ef9b5244058ed,61036e33236ad4ffc5587c93,2021-07-29_23h13.33.301,Simcolourproject_2stim_asymm_v5,2020.2.10,Win32,60,61025ae37ef11b136ea224fe,,,,,,,,,2624,32,50,1,0,0,response1disk,,7,-9,8,1,0,0,rectangle,-9,8,1,0,0,-9,8,1,0,0,1,129,289,90,1,,,,,,,,
,,,,,,,,,,,,,FF,,,,,,,,0.449,,,,,,,,,,,,,,,,,,,,,,61036408097ef9b5244058ed,61036e33236ad4ffc5587c93,2021-07-29_23h13.33.301,Simcolourproject_2stim_asymm_v5,2020.2.10,Win32,60,61025ae37ef11b136ea224fe,,,,,,,,,2702,22,48,1,0,0,response1disk,,7,-3,-2,1,0,0,rectangle,-3,-2,1,0,0,-3,-2,1,0,0,1,130,290,49,1,,,,,,,,
,,,,,,,,,,,,,FF,,,,,,,,1.535,,,,,,,,,,,,,,,,,,,,,,61036408097ef9b5244058ed,61036e33236ad4ffc5587c93,2021-07-29_23h13.33.301,Simcolourproject_2stim_asymm_v5,2020.2.10,Win32,60,61025ae37ef11b136ea224fe,,,,,,,,,1820,33,-54,1,0,0,response3disk,,4,1,-3,1,0,0,rectangle,1,-3,1,0,0,1,-3,1,0,0,1,131,291,77,1,,,,,,,,
,,,,,,,,,,,,,FF,,,,,,,,1.201,,,,,,,,,,,,,,,,,,,,,,61036408097ef9b5244058ed,61036e33236ad4ffc5587c93,2021-07-29_23h13.33.301,Simcolourproject_2stim_asymm_v5,2020.2.10,Win32,60,61025ae37ef11b136ea224fe,,,,,,,,,2289,58,27,1,0,0,response1disk,,6,-1,12,1,0,0,rectangle,-1,12,1,0,0,-1,12,1,0,0,1,132,292,3,1,,,,,,,,
,,,,,,,,,,,,,FF,,,,,,,,0.635,,,,,,,,,,,,,,,,,,,,,,61036408097ef9b5244058ed,61036e33236ad4ffc5587c93,2021-07-29_23h13.33.301,Simcolourproject_2stim_asymm_v5,2020.2.10,Win32,60,61025ae37ef11b136ea224fe,,,,,,,,,2755,27,45,1,0,0,response1disk,,7,5,9,1,0,0,rectangle,5,9,1,0,0,5,9,1,0,0,1,133,293,33,1,,,,,,,,
,,,,,,,,,,,,,FF,,,,,,,,0.556,,,,,,,,,,,,,,,,,,,,,,61036408097ef9b5244058ed,61036e33236ad4ffc5587c93,2021-07-29_23h13.33.301,Simcolourproject_2stim_asymm_v5,2020.2.10,Win32,60,61025ae37ef11b136ea224fe,,,,,,,,,1083,28,53,1,0,0,response1disk,,7,8,-1,1,0,0,rectangle,8,-1,1,0,0,8,-1,1,0,0,1,134,294,70,1,,,,,,,,
,,,,,,,,,,,,,FF,,,,,,,,0.985,,,,,,,,,,,,,,,,,,,,,,61036408097ef9b5244058ed,61036e33236ad4ffc5587c93,2021-07-29_23h13.33.301,Simcolourproject_2stim_asymm_v5,2020.2.10,Win32,60,61025ae37ef11b136ea224fe,,,,,,,,,3149,-23,-58,1,0,0,response5disk,,3,-2,-7,1,0,0,rectangle,-2,-7,1,0,0,-2,-7,1,0,0,1,135,295,122,1,,,,,,,,
,,,,,,,,,,,,,FF,,,,,,,,0.642,,,,,,,,,,,,,,,,,,,,,,61036408097ef9b5244058ed,61036e33236ad4ffc5587c93,2021-07-29_23h13.33.301,Simcolourproject_2stim_asymm_v5,2020.2.10,Win32,60,61025ae37ef11b136ea224fe,,,,,,,,,1333,22,59,1,0,0,response1disk,,7,-5,-9,1,0,0,rectangle,-5,-9,1,0,0,-5,-9,1,0,0,1,136,296,43,1,,,,,,,,
,,,,,,,,,,,,,FF,,,,,,,,1.188,,,,,,,,,,,,,,,,,,,,,,61036408097ef9b5244058ed,61036e33236ad4ffc5587c93,2021-07-29_23h13.33.301,Simcolourproject_2stim_asymm_v5,2020.2.10,Win32,60,61025ae37ef11b136ea224fe,,,,,,,,,3887,55,-57,1,0,0,response3disk,,4,7,2,1,0,0,rectangle,7,2,1,0,0,7,2,1,0,0,1,137,297,38,1,,,,,,,,
,,,,,,,,,,,,,FF,,,,,,,,0.668,,,,,,,,,,,,,,,,,,,,,,61036408097ef9b5244058ed,61036e33236ad4ffc5587c93,2021-07-29_23h13.33.301,Simcolourproject_2stim_asymm_v5,2020.2.10,Win32,60,61025ae37ef11b136ea224fe,,,,,,,,,1354,36,53,1,0,0,response1disk,,7,-2,-7,1,0,0,rectangle,-2,-7,1,0,0,-2,-7,1,0,0,1,138,298,125,1,,,,,,,,
,,,,,,,,,,,,,FF,,,,,,,,0.585,,,,,,,,,,,,,,,,,,,,,,61036408097ef9b5244058ed,61036e33236ad4ffc5587c93,2021-07-29_23h13.33.301,Simcolourproject_2stim_asymm_v5,2020.2.10,Win32,60,61025ae37ef11b136ea224fe,,,,,,,,,31,19,51,1,0,0,response1disk,,7,-7,-11,1,0,0,rectangle,-7,-11,1,0,0,-7,-11,1,0,0,1,139,299,115,1,,,,,,,,
,,,,,,,,,,,,,FF,,,,,,,,1.151,,,,,,,,,,,,,,,,,,,,,,61036408097ef9b5244058ed,61036e33236ad4ffc5587c93,2021-07-29_23h13.33.301,Simcolourproject_2stim_asymm_v5,2020.2.10,Win32,60,61025ae37ef11b136ea224fe,,,,,,,,,3339,28,-73,1,0,0,response3disk,,4,-5,3,1,0,0,rectangle,-5,3,1,0,0,-5,3,1,0,0,1,140,300,117,1,,,,,,,,
,,,,,,,,,,,,,FF,,,,,,,,0.467,,,,,,,,,,,,,,,,,,,,,,61036408097ef9b5244058ed,61036e33236ad4ffc5587c93,2021-07-29_23h13.33.301,Simcolourproject_2stim_asymm_v5,2020.2.10,Win32,60,61025ae37ef11b136ea224fe,,,,,,,,,69,21,63,1,0,0,response1disk,,7,9,-2,1,0,0,rectangle,9,-2,1,0,0,9,-2,1,0,0,1,141,301,71,1,,,,,,,,
,,,,,,,,,,,,,FF,,,,,,,,1.068,,,,,,,,,,,,,,,,,,,,,,61036408097ef9b5244058ed,61036e33236ad4ffc5587c93,2021-07-29_23h13.33.301,Simcolourproject_2stim_asymm_v5,2020.2.10,Win32,60,61025ae37ef11b136ea224fe,,,,,,,,,3773,83,-21,1,0,0,response3disk,,5,3,1,1,0,0,rectangle,3,1,1,0,0,3,1,1,0,0,1,142,302,39,1,,,,,,,,
,,,,,,,,,,,,,FF,,,,,,,,0.834,,,,,,,,,,,,,,,,,,,,,,61036408097ef9b5244058ed,61036e33236ad4ffc5587c93,2021-07-29_23h13.33.301,Simcolourproject_2stim_asymm_v5,2020.2.10,Win32,60,61025ae37ef11b136ea224fe,,,,,,,,,2848,54,32,1,0,0,response1disk,,6,7,12,1,0,0,rectangle,7,12,1,0,0,7,12,1,0,0,1,143,303,104,1,,,,,,,,
,,,,,,,,,,,,,FF,,,,,,,,1.001,,,,,,,,,,,,,,,,,,,,,,61036408097ef9b5244058ed,61036e33236ad4ffc5587c93,2021-07-29_23h13.33.301,Simcolourproject_2stim_asymm_v5,2020.2.10,Win32,60,61025ae37ef11b136ea224fe,,,,,,,,,1964,-43,-15,1,0,0,response5disk,,2,-9,-5,1,0,0,rectangle,-9,-5,1,0,0,-9,-5,1,0,0,1,144,304,92,1,,,,,,,,
