key_resp.keys,key_resp.rt,key_resp_14.keys,key_resp_14.rt,key_resp_15.keys,key_resp_15.rt,key_resp_17.keys,key_resp_17.rt,key_resp_9.keys,key_resp_9.rt,key_resp_10.keys,key_resp_10.rt,practice_comparison,Ecc,mouse_5.x,mouse_5.y,mouse_5.leftButton,mouse_5.midButton,mouse_5.rightButton,mouse_5.clicked_name,pracsimilarity,response_time,mouse_10.x,mouse_10.y,mouse_10.leftButton,mouse_10.midButton,mouse_10.rightButton,mouse_10.clicked_name,mouse_7.x,mouse_7.y,mouse_7.leftButton,mouse_7.midButton,mouse_7.rightButton,mouse_6.x,mouse_6.y,mouse_6.leftButton,mouse_6.midButton,mouse_6.rightButton,duringprac.thisRepN,duringprac.thisTrialN,duringprac.thisN,duringprac.thisIndex,duringprac.ran,participant,session,date,expName,psychopyVersion,OS,frameRate,study_id,mouse_7.clicked_name,catchpracsimilarity,catch_response_time,catchnumberprac,catchtrialorderprac,mouse_6.clicked_name,key_resp_22.keys,key_resp_22.rt,realcomparison,mouse.x,mouse.y,mouse.leftButton,mouse.midButton,mouse.rightButton,mouse.clicked_name,Colour2,similarity,mouse_2.x,mouse_2.y,mouse_2.leftButton,mouse_2.midButton,mouse_2.rightButton,mouse_2.clicked_name,mouse_3.x,mouse_3.y,mouse_3.leftButton,mouse_3.midButton,mouse_3.rightButton,mouse_11.x,mouse_11.y,mouse_11.leftButton,mouse_11.midButton,mouse_11.rightButton,trials_2.thisRepN,trials_2.thisTrialN,trials_2.thisN,trials_2.thisIndex,trials_2.ran,Colour1,mouse_3.clicked_name,catchornah,catchsimilarity,catchnumber,catchtrialorder,catchRT,mouse_11.clicked_name
space,1.5772,space,6.335,space,28.0638,space,3.3372,space,0.8498,space,4.8775,152,FF,60.2331543,-39.21234131,1,0,0,response3disk_5,5,15.451,1.750244141,-6.946594238,1,0,0,rectangle_8,1.750244141,-6.946594238,1,0,0,1.750244141,-6.946594238,1,0,0,0,0,0,3,1,610361af7915c5f2c51a4983,61036bc50932c682af6e03c5,2021-07-29_22h09.12.519,Simcolourproject_2stim_asymm_v5,2020.2.10,MacIntel,60,61025ae37ef11b136ea224fe,,,,,,,,,,,,,,,,,,,,,,,,,,,,,,,,,,,,,,,,,,,,,,
,,,,,,,,,,,,139,PF,-60.09545898,-20.95263672,1,0,0,response5disk_5,2,2.1999,-4.224914551,-3.589324951,1,0,0,rectangle_8,59.22650146,-30.62145996,1,0,0,-9.25,4.416778564,1,0,0,0,1,1,2,1,610361af7915c5f2c51a4983,61036bc50932c682af6e03c5,2021-07-29_22h09.12.519,Simcolourproject_2stim_asymm_v5,2020.2.10,MacIntel,60,61025ae37ef11b136ea224fe,response3disk_7,5,3.6686,5,"[2,5]",rectangle_4,,,,,,,,,,,,,,,,,,,,,,,,,,,,,,,,,,,,,,,,
,,,,,,,,,,,,113,PF,30.82128906,-65.6138916,1,0,0,response3disk_5,4,3.0824,0.926818848,-1.627563477,1,0,0,rectangle_8,0.926818848,-1.627563477,1,0,0,0.926818848,-1.627563477,1,0,0,0,2,2,1,1,610361af7915c5f2c51a4983,61036bc50932c682af6e03c5,2021-07-29_22h09.12.519,Simcolourproject_2stim_asymm_v5,2020.2.10,MacIntel,60,61025ae37ef11b136ea224fe,,,,,,,,,,,,,,,,,,,,,,,,,,,,,,,,,,,,,,,,,,,,,,
,,,,,,,,,,,,0,FF,-54.5244751,-81.54089355,1,0,0,response5disk_5,3,4.7668,-17.35070801,-5.302307129,1,0,0,rectangle_8,-17.35070801,-5.302307129,1,0,0,-17.35070801,-5.302307129,1,0,0,0,3,3,0,1,610361af7915c5f2c51a4983,61036bc50932c682af6e03c5,2021-07-29_22h09.12.519,Simcolourproject_2stim_asymm_v5,2020.2.10,MacIntel,60,61025ae37ef11b136ea224fe,,,,,,,,,,,,,,,,,,,,,,,,,,,,,,,,,,,,,,,,,,,,,,
,,,,,,,,,,,,121,PF,-77.40484619,29.69128418,1,0,0,response7disk_5,1,2.0837,17.34436035,-6.758850098,1,0,0,rectangle_8,74.48632813,-33.63092041,1,0,0,11.48187256,-6.900939941,1,0,0,0,4,4,4,1,610361af7915c5f2c51a4983,61036bc50932c682af6e03c5,2021-07-29_22h09.12.519,Simcolourproject_2stim_asymm_v5,2020.2.10,MacIntel,60,61025ae37ef11b136ea224fe,response3disk_7,5,2.6335,5,"[2,5]",rectangle_4,,,,,,,,,,,,,,,,,,,,,,,,,,,,,,,,,,,,,,,,
,,,,,,,,,,,,94,FF,-61.00793457,-38.66238403,1,0,0,response5disk_5,2,2.7325,3.054199219,-12.63256836,1,0,0,rectangle_8,3.054199219,-12.63256836,1,0,0,3.054199219,-12.63256836,1,0,0,0,5,5,5,1,610361af7915c5f2c51a4983,61036bc50932c682af6e03c5,2021-07-29_22h09.12.519,Simcolourproject_2stim_asymm_v5,2020.2.10,MacIntel,60,61025ae37ef11b136ea224fe,,,,,,,,,,,,,,,,,,,,,,,,,,,,,,,,,,,,,,,,,,,,,,
,,,,,,,,,,,,14,PF,-94.5133667,48.54138184,1,0,0,response7disk_5,1,3.5994,10.50396729,10.45245361,1,0,0,rectangle_8,10.50396729,10.45245361,1,0,0,10.50396729,10.45245361,1,0,0,0,6,6,6,1,610361af7915c5f2c51a4983,61036bc50932c682af6e03c5,2021-07-29_22h09.12.519,Simcolourproject_2stim_asymm_v5,2020.2.10,MacIntel,60,61025ae37ef11b136ea224fe,,,,,,,,,,,,,,,,,,,,,,,,,,,,,,,,,,,,,,,,,,,,,,
,,,,,,,,,,,,,FF,,,,,,,,2.383,,,,,,,,,,,,,,,,,,,,,,610361af7915c5f2c51a4983,61036bc50932c682af6e03c5,2021-07-29_22h09.12.519,Simcolourproject_2stim_asymm_v5,2020.2.10,MacIntel,60,61025ae37ef11b136ea224fe,,,,,,,space,2.9177,561,33.34753418,-102.6315308,1,0,0,response3disk,,4,2.696472168,-5.703063965,1,0,0,rectangle,2.696472168,-5.703063965,1,0,0,2.696472168,-5.703063965,1,0,0,0,0,0,64,1,,,,,,,,
,,,,,,,,,,,,,FF,,,,,,,,1.2991,,,,,,,,,,,,,,,,,,,,,,610361af7915c5f2c51a4983,61036bc50932c682af6e03c5,2021-07-29_22h09.12.519,Simcolourproject_2stim_asymm_v5,2020.2.10,MacIntel,60,61025ae37ef11b136ea224fe,,,,,,,,,3425,-39.47943115,78.2024231,1,0,0,response7disk,,0,15.55267334,-1.407531738,1,0,0,rectangle,15.55267334,-1.407531738,1,0,0,15.55267334,-1.407531738,1,0,0,0,1,1,104,1,,,,,,,,
,,,,,,,,,,,,,FF,,,,,,,,3.7832,,,,,,,,,,,,,,,,,,,,,,610361af7915c5f2c51a4983,61036bc50932c682af6e03c5,2021-07-29_22h09.12.519,Simcolourproject_2stim_asymm_v5,2020.2.10,MacIntel,60,61025ae37ef11b136ea224fe,,,,,,,,,1171,88.53521729,68.01123047,1,0,0,response1disk,,6,-3.989624023,-10.04345703,1,0,0,rectangle,-3.989624023,-10.04345703,1,0,0,-3.989624023,-10.04345703,1,0,0,0,2,2,90,1,,,,,,,,
,,,,,,,,,,,,,FF,,,,,,,,1.3994,,,,,,,,,,,,,,,,,,,,,,610361af7915c5f2c51a4983,61036bc50932c682af6e03c5,2021-07-29_22h09.12.519,Simcolourproject_2stim_asymm_v5,2020.2.10,MacIntel,60,61025ae37ef11b136ea224fe,,,,,,,,,1008,83.04388428,50.65682983,1,0,0,response1disk,,6,2.252319336,2.064025879,1,0,0,rectangle,2.252319336,2.064025879,1,0,0,2.252319336,2.064025879,1,0,0,0,3,3,45,1,,,,,,,,
,,,,,,,,,,,,,FF,,,,,,,,2.2016,,,,,,,,,,,,,,,,,,,,,,610361af7915c5f2c51a4983,61036bc50932c682af6e03c5,2021-07-29_22h09.12.519,Simcolourproject_2stim_asymm_v5,2020.2.10,MacIntel,60,61025ae37ef11b136ea224fe,,,,,,,,,489,32.13391113,-66.81518555,1,0,0,response3disk,,4,-7.332214355,-0.786132813,1,0,0,rectangle,-39.78997803,87.11279297,1,0,0,-3.321655273,6.21472168,1,0,0,0,4,4,8,1,,response7disk_3,TRUE,0,0,"[297,237,116,308,111,150,123,155,99,5,146,307,231,237,5,24,212,322,58,18]",2.1662,rectangle
,,,,,,,,,,,,,FF,,,,,,,,2.134,,,,,,,,,,,,,,,,,,,,,,610361af7915c5f2c51a4983,61036bc50932c682af6e03c5,2021-07-29_22h09.12.519,Simcolourproject_2stim_asymm_v5,2020.2.10,MacIntel,60,61025ae37ef11b136ea224fe,,,,,,,,,596,49.93157959,77.53515625,1,0,0,response1disk,,7,-3.574035645,15.19390869,1,0,0,rectangle,-3.574035645,15.19390869,1,0,0,-3.574035645,15.19390869,1,0,0,0,5,5,46,1,,,,,,,,
,,,,,,,,,,,,,FF,,,,,,,,1.8852,,,,,,,,,,,,,,,,,,,,,,610361af7915c5f2c51a4983,61036bc50932c682af6e03c5,2021-07-29_22h09.12.519,Simcolourproject_2stim_asymm_v5,2020.2.10,MacIntel,60,61025ae37ef11b136ea224fe,,,,,,,,,2565,62.24145508,115.472229,1,0,0,response1disk,,7,-16.77947998,7.052246094,1,0,0,rectangle,-16.77947998,7.052246094,1,0,0,-16.77947998,7.052246094,1,0,0,0,6,6,88,1,,,,,,,,
,,,,,,,,,,,,,FF,,,,,,,,1.8831,,,,,,,,,,,,,,,,,,,,,,610361af7915c5f2c51a4983,61036bc50932c682af6e03c5,2021-07-29_22h09.12.519,Simcolourproject_2stim_asymm_v5,2020.2.10,MacIntel,60,61025ae37ef11b136ea224fe,,,,,,,,,1209,30.67681885,77.56509399,1,0,0,response1disk,,7,-17.21551514,15.93127441,1,0,0,rectangle,-17.21551514,15.93127441,1,0,0,-17.21551514,15.93127441,1,0,0,0,7,7,75,1,,,,,,,,
,,,,,,,,,,,,,FF,,,,,,,,0.9498,,,,,,,,,,,,,,,,,,,,,,610361af7915c5f2c51a4983,61036bc50932c682af6e03c5,2021-07-29_22h09.12.519,Simcolourproject_2stim_asymm_v5,2020.2.10,MacIntel,60,61025ae37ef11b136ea224fe,,,,,,,,,77,-40.06231689,59.93145752,1,0,0,response7disk,,0,-0.649475098,2.072814941,1,0,0,rectangle,-0.649475098,2.072814941,1,0,0,-0.649475098,2.072814941,1,0,0,0,8,8,123,1,,,,,,,,
,,,,,,,,,,,,,FF,,,,,,,,1.9182,,,,,,,,,,,,,,,,,,,,,,610361af7915c5f2c51a4983,61036bc50932c682af6e03c5,2021-07-29_22h09.12.519,Simcolourproject_2stim_asymm_v5,2020.2.10,MacIntel,60,61025ae37ef11b136ea224fe,,,,,,,,,1273,26.82061768,-93.35400391,1,0,0,response3disk,,4,-2.422729492,-11.4352417,1,0,0,rectangle,-2.422729492,-11.4352417,1,0,0,-2.422729492,-11.4352417,1,0,0,0,9,9,86,1,,,,,,,,
,,,,,,,,,,,,,FF,,,,,,,,1.1979,,,,,,,,,,,,,,,,,,,,,,610361af7915c5f2c51a4983,61036bc50932c682af6e03c5,2021-07-29_22h09.12.519,Simcolourproject_2stim_asymm_v5,2020.2.10,MacIntel,60,61025ae37ef11b136ea224fe,,,,,,,,,1585,37.21746826,-67.51397705,1,0,0,response3disk,,4,-1.53692627,2.645080566,1,0,0,rectangle,-1.53692627,2.645080566,1,0,0,-1.53692627,2.645080566,1,0,0,0,10,10,79,1,,,,,,,,
,,,,,,,,,,,,,FF,,,,,,,,2.9167,,,,,,,,,,,,,,,,,,,,,,610361af7915c5f2c51a4983,61036bc50932c682af6e03c5,2021-07-29_22h09.12.519,Simcolourproject_2stim_asymm_v5,2020.2.10,MacIntel,60,61025ae37ef11b136ea224fe,,,,,,,,,3734,-32.23101807,-49.33047485,1,0,0,response5disk,,3,-11.89361572,-11.70593262,1,0,0,rectangle,-11.89361572,-11.70593262,1,0,0,-11.89361572,-11.70593262,1,0,0,0,11,11,50,1,,,,,,,,
,,,,,,,,,,,,,FF,,,,,,,,1.2979,,,,,,,,,,,,,,,,,,,,,,610361af7915c5f2c51a4983,61036bc50932c682af6e03c5,2021-07-29_22h09.12.519,Simcolourproject_2stim_asymm_v5,2020.2.10,MacIntel,60,61025ae37ef11b136ea224fe,,,,,,,,,3744,-77.5657959,41.09191895,1,0,0,response7disk,,1,12.72216797,-3.529296875,1,0,0,rectangle,12.72216797,-3.529296875,1,0,0,12.72216797,-3.529296875,1,0,0,0,12,12,157,1,,,,,,,,
,,,,,,,,,,,,,FF,,,,,,,,1.1996,,,,,,,,,,,,,,,,,,,,,,610361af7915c5f2c51a4983,61036bc50932c682af6e03c5,2021-07-29_22h09.12.519,Simcolourproject_2stim_asymm_v5,2020.2.10,MacIntel,60,61025ae37ef11b136ea224fe,,,,,,,,,1059,-73.68365479,-30.80545044,1,0,0,response5disk,,2,-22.56280518,2.212921143,1,0,0,rectangle,-22.56280518,2.212921143,1,0,0,-22.56280518,2.212921143,1,0,0,0,13,13,110,1,,,,,,,,
,,,,,,,,,,,,,FF,,,,,,,,1.0333,,,,,,,,,,,,,,,,,,,,,,610361af7915c5f2c51a4983,61036bc50932c682af6e03c5,2021-07-29_22h09.12.519,Simcolourproject_2stim_asymm_v5,2020.2.10,MacIntel,60,61025ae37ef11b136ea224fe,,,,,,,,,3751,-74.63653564,30.96911621,1,0,0,response7disk,,1,12.2052002,-0.234863281,1,0,0,rectangle,12.2052002,-0.234863281,1,0,0,12.2052002,-0.234863281,1,0,0,0,14,14,7,1,,,,,,,,
,,,,,,,,,,,,,FF,,,,,,,,1.9309,,,,,,,,,,,,,,,,,,,,,,610361af7915c5f2c51a4983,61036bc50932c682af6e03c5,2021-07-29_22h09.12.519,Simcolourproject_2stim_asymm_v5,2020.2.10,MacIntel,60,61025ae37ef11b136ea224fe,,,,,,,,,2889,-85.09631348,50.9715271,1,0,0,response7disk,,1,3.656860352,-8.240661621,1,0,0,rectangle,3.656860352,-8.240661621,1,0,0,3.656860352,-8.240661621,1,0,0,0,15,15,39,1,,,,,,,,
,,,,,,,,,,,,,FF,,,,,,,,1.8828,,,,,,,,,,,,,,,,,,,,,,610361af7915c5f2c51a4983,61036bc50932c682af6e03c5,2021-07-29_22h09.12.519,Simcolourproject_2stim_asymm_v5,2020.2.10,MacIntel,60,61025ae37ef11b136ea224fe,,,,,,,,,299,38.89477539,-80.40875244,1,0,0,response3disk,,4,9.452331543,-10.52932739,1,0,0,rectangle,9.452331543,-10.52932739,1,0,0,9.452331543,-10.52932739,1,0,0,0,16,16,69,1,,,,,,,,
,,,,,,,,,,,,,FF,,,,,,,,1.1997,,,,,,,,,,,,,,,,,,,,,,610361af7915c5f2c51a4983,61036bc50932c682af6e03c5,2021-07-29_22h09.12.519,Simcolourproject_2stim_asymm_v5,2020.2.10,MacIntel,60,61025ae37ef11b136ea224fe,,,,,,,,,637,-73.49676514,-31.25848389,1,0,0,response5disk,,2,-17.43139648,3.449462891,1,0,0,rectangle,38.44195557,-65.98266602,1,0,0,-13.19580078,0.196044922,1,0,0,0,17,17,80,1,,response3disk_3,TRUE,4,4,"[297,237,116,308,111,150,123,155,99,5,146,307,231,237,5,24,212,322,58,18]",2.4676,rectangle
,,,,,,,,,,,,,FF,,,,,,,,1.9834,,,,,,,,,,,,,,,,,,,,,,610361af7915c5f2c51a4983,61036bc50932c682af6e03c5,2021-07-29_22h09.12.519,Simcolourproject_2stim_asymm_v5,2020.2.10,MacIntel,60,61025ae37ef11b136ea224fe,,,,,,,,,3997,-95.04315186,-39.95404053,1,0,0,response5disk,,2,-25.93151855,1.285705566,1,0,0,rectangle,-25.93151855,1.285705566,1,0,0,-25.93151855,1.285705566,1,0,0,0,18,18,125,1,,,,,,,,
,,,,,,,,,,,,,FF,,,,,,,,1.2654,,,,,,,,,,,,,,,,,,,,,,610361af7915c5f2c51a4983,61036bc50932c682af6e03c5,2021-07-29_22h09.12.519,Simcolourproject_2stim_asymm_v5,2020.2.10,MacIntel,60,61025ae37ef11b136ea224fe,,,,,,,,,2367,-57.1809082,-30.73522949,1,0,0,response5disk,,2,2.184082031,-10.78747559,1,0,0,rectangle,2.184082031,-10.78747559,1,0,0,2.184082031,-10.78747559,1,0,0,0,19,19,142,1,,,,,,,,
,,,,,,,,,,,,,FF,,,,,,,,1.8314,,,,,,,,,,,,,,,,,,,,,,610361af7915c5f2c51a4983,61036bc50932c682af6e03c5,2021-07-29_22h09.12.519,Simcolourproject_2stim_asymm_v5,2020.2.10,MacIntel,60,61025ae37ef11b136ea224fe,,,,,,,,,3724,66.62261963,-26.43560791,1,0,0,response3disk,,5,-14.51196289,2.144836426,1,0,0,rectangle,-14.51196289,2.144836426,1,0,0,-14.51196289,2.144836426,1,0,0,0,20,20,61,1,,,,,,,,
,,,,,,,,,,,,,FF,,,,,,,,1.3807,,,,,,,,,,,,,,,,,,,,,,610361af7915c5f2c51a4983,61036bc50932c682af6e03c5,2021-07-29_22h09.12.519,Simcolourproject_2stim_asymm_v5,2020.2.10,MacIntel,60,61025ae37ef11b136ea224fe,,,,,,,,,3456,57.99554443,-38.8949585,1,0,0,response3disk,,5,16.98419189,7.977844238,1,0,0,rectangle,16.98419189,7.977844238,1,0,0,16.98419189,7.977844238,1,0,0,0,21,21,63,1,,,,,,,,
,,,,,,,,,,,,,FF,,,,,,,,2.2512,,,,,,,,,,,,,,,,,,,,,,610361af7915c5f2c51a4983,61036bc50932c682af6e03c5,2021-07-29_22h09.12.519,Simcolourproject_2stim_asymm_v5,2020.2.10,MacIntel,60,61025ae37ef11b136ea224fe,,,,,,,,,2331,64.12750244,52.10980225,1,0,0,response1disk,,6,6.622924805,-0.706665039,1,0,0,rectangle,6.622924805,-0.706665039,1,0,0,6.622924805,-0.706665039,1,0,0,0,22,22,29,1,,,,,,,,
,,,,,,,,,,,,,FF,,,,,,,,1.3484,,,,,,,,,,,,,,,,,,,,,,610361af7915c5f2c51a4983,61036bc50932c682af6e03c5,2021-07-29_22h09.12.519,Simcolourproject_2stim_asymm_v5,2020.2.10,MacIntel,60,61025ae37ef11b136ea224fe,,,,,,,,,2342,53.49163818,34.36230469,1,0,0,response1disk,,6,4.083618164,4.959228516,1,0,0,rectangle,24.9854126,-57.58798218,1,0,0,24.21112061,-6.920440674,1,0,0,0,23,23,4,1,,response3disk_3,TRUE,4,4,"[297,237,116,308,111,150,123,155,99,5,146,307,231,237,5,24,212,322,58,18]",2.4534,rectangle
,,,,,,,,,,,,,FF,,,,,,,,1.3165,,,,,,,,,,,,,,,,,,,,,,610361af7915c5f2c51a4983,61036bc50932c682af6e03c5,2021-07-29_22h09.12.519,Simcolourproject_2stim_asymm_v5,2020.2.10,MacIntel,60,61025ae37ef11b136ea224fe,,,,,,,,,4154,64.95880127,-27.09777832,1,0,0,response3disk,,5,22.76879883,-17.32907104,1,0,0,rectangle,22.76879883,-17.32907104,1,0,0,22.76879883,-17.32907104,1,0,0,0,24,24,19,1,,,,,,,,
,,,,,,,,,,,,,FF,,,,,,,,1.2363,,,,,,,,,,,,,,,,,,,,,,610361af7915c5f2c51a4983,61036bc50932c682af6e03c5,2021-07-29_22h09.12.519,Simcolourproject_2stim_asymm_v5,2020.2.10,MacIntel,60,61025ae37ef11b136ea224fe,,,,,,,,,4098,-79.10455322,-33.605896,1,0,0,response5disk,,2,-18.58929443,6.943145752,1,0,0,rectangle,-18.58929443,6.943145752,1,0,0,-18.58929443,6.943145752,1,0,0,0,25,25,30,1,,,,,,,,
,,,,,,,,,,,,,FF,,,,,,,,1.3324,,,,,,,,,,,,,,,,,,,,,,610361af7915c5f2c51a4983,61036bc50932c682af6e03c5,2021-07-29_22h09.12.519,Simcolourproject_2stim_asymm_v5,2020.2.10,MacIntel,60,61025ae37ef11b136ea224fe,,,,,,,,,411,109.4970703,-29.37084961,1,0,0,response3disk,,5,10.90582275,-0.39050293,1,0,0,rectangle,10.90582275,-0.39050293,1,0,0,10.90582275,-0.39050293,1,0,0,0,26,26,100,1,,,,,,,,
,,,,,,,,,,,,,FF,,,,,,,,2.8171,,,,,,,,,,,,,,,,,,,,,,610361af7915c5f2c51a4983,61036bc50932c682af6e03c5,2021-07-29_22h09.12.519,Simcolourproject_2stim_asymm_v5,2020.2.10,MacIntel,60,61025ae37ef11b136ea224fe,,,,,,,,,3667,29.54180908,-86.41345215,1,0,0,response3disk,,4,5.524658203,-4.094970703,1,0,0,rectangle,5.524658203,-4.094970703,1,0,0,5.524658203,-4.094970703,1,0,0,0,27,27,143,1,,,,,,,,
,,,,,,,,,,,,,FF,,,,,,,,0.9338,,,,,,,,,,,,,,,,,,,,,,610361af7915c5f2c51a4983,61036bc50932c682af6e03c5,2021-07-29_22h09.12.519,Simcolourproject_2stim_asymm_v5,2020.2.10,MacIntel,60,61025ae37ef11b136ea224fe,,,,,,,,,3458,43.73614502,-29.70404053,1,0,0,response3disk,,5,-20.27313232,1.565948486,1,0,0,rectangle,-20.27313232,1.565948486,1,0,0,-20.27313232,1.565948486,1,0,0,0,28,28,1,1,,,,,,,,
,,,,,,,,,,,,,FF,,,,,,,,1.0828,,,,,,,,,,,,,,,,,,,,,,610361af7915c5f2c51a4983,61036bc50932c682af6e03c5,2021-07-29_22h09.12.519,Simcolourproject_2stim_asymm_v5,2020.2.10,MacIntel,60,61025ae37ef11b136ea224fe,,,,,,,,,3420,-68.08374023,-34.79956055,1,0,0,response5disk,,2,-17.1685791,-6.591308594,1,0,0,rectangle,-17.1685791,-6.591308594,1,0,0,-17.1685791,-6.591308594,1,0,0,0,29,29,49,1,,,,,,,,
,,,,,,,,,,,,,FF,,,,,,,,1.7164,,,,,,,,,,,,,,,,,,,,,,610361af7915c5f2c51a4983,61036bc50932c682af6e03c5,2021-07-29_22h09.12.519,Simcolourproject_2stim_asymm_v5,2020.2.10,MacIntel,60,61025ae37ef11b136ea224fe,,,,,,,,,597,49.94891357,-70.77050781,1,0,0,response3disk,,4,8.618041992,6.425048828,1,0,0,rectangle,8.618041992,6.425048828,1,0,0,8.618041992,6.425048828,1,0,0,0,30,30,135,1,,,,,,,,
,,,,,,,,,,,,,FF,,,,,,,,1.0152,,,,,,,,,,,,,,,,,,,,,,610361af7915c5f2c51a4983,61036bc50932c682af6e03c5,2021-07-29_22h09.12.519,Simcolourproject_2stim_asymm_v5,2020.2.10,MacIntel,60,61025ae37ef11b136ea224fe,,,,,,,,,2541,-31.90551758,82.18661499,1,0,0,response7disk,,0,-2.392578125,-3.65625,1,0,0,rectangle,-2.392578125,-3.65625,1,0,0,-2.392578125,-3.65625,1,0,0,0,31,31,43,1,,,,,,,,
,,,,,,,,,,,,,FF,,,,,,,,1.3658,,,,,,,,,,,,,,,,,,,,,,610361af7915c5f2c51a4983,61036bc50932c682af6e03c5,2021-07-29_22h09.12.519,Simcolourproject_2stim_asymm_v5,2020.2.10,MacIntel,60,61025ae37ef11b136ea224fe,,,,,,,,,3975,-33.56884766,-69.84228516,1,0,0,response5disk,,3,-13.20178223,-16.38769531,1,0,0,rectangle,-13.20178223,-16.38769531,1,0,0,-13.20178223,-16.38769531,1,0,0,0,32,32,129,1,,,,,,,,
,,,,,,,,,,,,,FF,,,,,,,,1.5011,,,,,,,,,,,,,,,,,,,,,,610361af7915c5f2c51a4983,61036bc50932c682af6e03c5,2021-07-29_22h09.12.519,Simcolourproject_2stim_asymm_v5,2020.2.10,MacIntel,60,61025ae37ef11b136ea224fe,,,,,,,,,1406,71.04473877,56.16473389,1,0,0,response1disk,,6,-11.85308838,1.459594727,1,0,0,rectangle,-11.85308838,1.459594727,1,0,0,-11.85308838,1.459594727,1,0,0,0,33,33,56,1,,,,,,,,
,,,,,,,,,,,,,FF,,,,,,,,1.0508,,,,,,,,,,,,,,,,,,,,,,610361af7915c5f2c51a4983,61036bc50932c682af6e03c5,2021-07-29_22h09.12.519,Simcolourproject_2stim_asymm_v5,2020.2.10,MacIntel,60,61025ae37ef11b136ea224fe,,,,,,,,,3695,45.26727295,75.80123901,1,0,0,response1disk,,7,4.640380859,4.249603271,1,0,0,rectangle,4.640380859,4.249603271,1,0,0,4.640380859,4.249603271,1,0,0,0,34,34,9,1,,,,,,,,
,,,,,,,,,,,,,FF,,,,,,,,1.4997,,,,,,,,,,,,,,,,,,,,,,610361af7915c5f2c51a4983,61036bc50932c682af6e03c5,2021-07-29_22h09.12.519,Simcolourproject_2stim_asymm_v5,2020.2.10,MacIntel,60,61025ae37ef11b136ea224fe,,,,,,,,,3756,25.7265625,-88.64916992,1,0,0,response3disk,,4,11.25079346,-2.378967285,1,0,0,rectangle,11.25079346,-2.378967285,1,0,0,11.25079346,-2.378967285,1,0,0,0,35,35,66,1,,,,,,,,
,,,,,,,,,,,,,FF,,,,,,,,1.5031,,,,,,,,,,,,,,,,,,,,,,610361af7915c5f2c51a4983,61036bc50932c682af6e03c5,2021-07-29_22h09.12.519,Simcolourproject_2stim_asymm_v5,2020.2.10,MacIntel,60,61025ae37ef11b136ea224fe,,,,,,,,,4013,86.57727051,26.73254395,1,0,0,response1disk,,6,13.24377441,-5.001068115,1,0,0,rectangle,13.24377441,-5.001068115,1,0,0,13.24377441,-5.001068115,1,0,0,0,36,36,116,1,,,,,,,,
,,,,,,,,,,,,,FF,,,,,,,,1.0501,,,,,,,,,,,,,,,,,,,,,,610361af7915c5f2c51a4983,61036bc50932c682af6e03c5,2021-07-29_22h09.12.519,Simcolourproject_2stim_asymm_v5,2020.2.10,MacIntel,60,61025ae37ef11b136ea224fe,,,,,,,,,4326,-34.2722168,89.23571777,1,0,0,response7disk,,0,0.126586914,1.636779785,1,0,0,rectangle,0.126586914,1.636779785,1,0,0,0.126586914,1.636779785,1,0,0,0,37,37,93,1,,,,,,,,
,,,,,,,,,,,,,FF,,,,,,,,1.033,,,,,,,,,,,,,,,,,,,,,,610361af7915c5f2c51a4983,61036bc50932c682af6e03c5,2021-07-29_22h09.12.519,Simcolourproject_2stim_asymm_v5,2020.2.10,MacIntel,60,61025ae37ef11b136ea224fe,,,,,,,,,1025,65.52618408,-22.96173096,1,0,0,response3disk,,5,13.72839355,3.025970459,1,0,0,rectangle,13.72839355,3.025970459,1,0,0,13.72839355,3.025970459,1,0,0,0,38,38,159,1,,,,,,,,
,,,,,,,,,,,,,FF,,,,,,,,1.0161,,,,,,,,,,,,,,,,,,,,,,610361af7915c5f2c51a4983,61036bc50932c682af6e03c5,2021-07-29_22h09.12.519,Simcolourproject_2stim_asymm_v5,2020.2.10,MacIntel,60,61025ae37ef11b136ea224fe,,,,,,,,,3055,-45.73059082,-22.59603882,1,0,0,response5disk,,2,-7.778015137,7.839599609,1,0,0,rectangle,-7.778015137,7.839599609,1,0,0,-7.778015137,7.839599609,1,0,0,0,39,39,62,1,,,,,,,,
,,,,,,,,,,,,,FF,,,,,,,,1.3832,,,,,,,,,,,,,,,,,,,,,,610361af7915c5f2c51a4983,61036bc50932c682af6e03c5,2021-07-29_22h09.12.519,Simcolourproject_2stim_asymm_v5,2020.2.10,MacIntel,60,61025ae37ef11b136ea224fe,,,,,,,,,21,43.6539917,-58.36407471,1,0,0,response3disk,,4,14.64379883,11.40838623,1,0,0,rectangle,14.64379883,11.40838623,1,0,0,14.64379883,11.40838623,1,0,0,0,40,40,51,1,,,,,,,,
,,,,,,,,,,,,,FF,,,,,,,,1.9155,,,,,,,,,,,,,,,,,,,,,,610361af7915c5f2c51a4983,61036bc50932c682af6e03c5,2021-07-29_22h09.12.519,Simcolourproject_2stim_asymm_v5,2020.2.10,MacIntel,60,61025ae37ef11b136ea224fe,,,,,,,,,1761,-32.87109375,-58.82800293,1,0,0,response5disk,,3,-8.281494141,7.143432617,1,0,0,rectangle,-8.281494141,7.143432617,1,0,0,-8.281494141,7.143432617,1,0,0,0,41,41,126,1,,,,,,,,
,,,,,,,,,,,,,FF,,,,,,,,1.7999,,,,,,,,,,,,,,,,,,,,,,610361af7915c5f2c51a4983,61036bc50932c682af6e03c5,2021-07-29_22h09.12.519,Simcolourproject_2stim_asymm_v5,2020.2.10,MacIntel,60,61025ae37ef11b136ea224fe,,,,,,,,,1347,41.84594727,-110.7358398,1,0,0,response3disk,,4,13.08050537,7.712524414,1,0,0,rectangle,13.08050537,7.712524414,1,0,0,13.08050537,7.712524414,1,0,0,0,42,42,134,1,,,,,,,,
,,,,,,,,,,,,,FF,,,,,,,,1.0335,,,,,,,,,,,,,,,,,,,,,,610361af7915c5f2c51a4983,61036bc50932c682af6e03c5,2021-07-29_22h09.12.519,Simcolourproject_2stim_asymm_v5,2020.2.10,MacIntel,60,61025ae37ef11b136ea224fe,,,,,,,,,3800,63.45959473,36.64727783,1,0,0,response1disk,,6,-0.397766113,5.136901855,1,0,0,rectangle,-0.397766113,5.136901855,1,0,0,-0.397766113,5.136901855,1,0,0,0,43,43,27,1,,,,,,,,
,,,,,,,,,,,,,FF,,,,,,,,1.8512,,,,,,,,,,,,,,,,,,,,,,610361af7915c5f2c51a4983,61036bc50932c682af6e03c5,2021-07-29_22h09.12.519,Simcolourproject_2stim_asymm_v5,2020.2.10,MacIntel,60,61025ae37ef11b136ea224fe,,,,,,,,,1476,39.41967773,-77.89556885,1,0,0,response3disk,,4,-7.37878418,-4.241638184,1,0,0,rectangle,-7.37878418,-4.241638184,1,0,0,-7.37878418,-4.241638184,1,0,0,0,44,44,44,1,,,,,,,,
,,,,,,,,,,,,,FF,,,,,,,,1.1666,,,,,,,,,,,,,,,,,,,,,,610361af7915c5f2c51a4983,61036bc50932c682af6e03c5,2021-07-29_22h09.12.519,Simcolourproject_2stim_asymm_v5,2020.2.10,MacIntel,60,61025ae37ef11b136ea224fe,,,,,,,,,1183,63.03625488,38.86730957,1,0,0,response1disk,,6,-2.196472168,3.916137695,1,0,0,rectangle,-2.196472168,3.916137695,1,0,0,-2.196472168,3.916137695,1,0,0,0,45,45,107,1,,,,,,,,
,,,,,,,,,,,,,FF,,,,,,,,2.1496,,,,,,,,,,,,,,,,,,,,,,610361af7915c5f2c51a4983,61036bc50932c682af6e03c5,2021-07-29_22h09.12.519,Simcolourproject_2stim_asymm_v5,2020.2.10,MacIntel,60,61025ae37ef11b136ea224fe,,,,,,,,,1977,-21.42883301,-69.34960938,1,0,0,response5disk,,3,-26.21044922,1.107940674,1,0,0,rectangle,-26.21044922,1.107940674,1,0,0,-26.21044922,1.107940674,1,0,0,0,46,46,127,1,,,,,,,,
,,,,,,,,,,,,,FF,,,,,,,,2.0494,,,,,,,,,,,,,,,,,,,,,,610361af7915c5f2c51a4983,61036bc50932c682af6e03c5,2021-07-29_22h09.12.519,Simcolourproject_2stim_asymm_v5,2020.2.10,MacIntel,60,61025ae37ef11b136ea224fe,,,,,,,,,3270,27.00311279,-84.65563965,1,0,0,response3disk,,4,14.42303467,-9.058410645,1,0,0,rectangle,14.42303467,-9.058410645,1,0,0,14.42303467,-9.058410645,1,0,0,0,47,47,52,1,,,,,,,,
,,,,,,,,,,,,,FF,,,,,,,,1.1337,,,,,,,,,,,,,,,,,,,,,,610361af7915c5f2c51a4983,61036bc50932c682af6e03c5,2021-07-29_22h09.12.519,Simcolourproject_2stim_asymm_v5,2020.2.10,MacIntel,60,61025ae37ef11b136ea224fe,,,,,,,,,3341,-91.4473877,22.19451904,1,0,0,response7disk,,1,-16.76885986,-4.858917236,1,0,0,rectangle,-16.76885986,-4.858917236,1,0,0,-16.76885986,-4.858917236,1,0,0,0,48,48,122,1,,,,,,,,
,,,,,,,,,,,,,FF,,,,,,,,1.9497,,,,,,,,,,,,,,,,,,,,,,610361af7915c5f2c51a4983,61036bc50932c682af6e03c5,2021-07-29_22h09.12.519,Simcolourproject_2stim_asymm_v5,2020.2.10,MacIntel,60,61025ae37ef11b136ea224fe,,,,,,,,,1029,-39.32702637,-85.50531006,1,0,0,response5disk,,3,-13.59680176,1.173034668,1,0,0,rectangle,-13.59680176,1.173034668,1,0,0,-13.59680176,1.173034668,1,0,0,0,49,49,68,1,,,,,,,,
,,,,,,,,,,,,,FF,,,,,,,,1.0509,,,,,,,,,,,,,,,,,,,,,,610361af7915c5f2c51a4983,61036bc50932c682af6e03c5,2021-07-29_22h09.12.519,Simcolourproject_2stim_asymm_v5,2020.2.10,MacIntel,60,61025ae37ef11b136ea224fe,,,,,,,,,644,-66.50811768,-28.28955078,1,0,0,response5disk,,2,-9.747253418,-3.084991455,1,0,0,rectangle,-9.747253418,-3.084991455,1,0,0,-9.747253418,-3.084991455,1,0,0,0,50,50,23,1,,,,,,,,
,,,,,,,,,,,,,FF,,,,,,,,2.5329,,,,,,,,,,,,,,,,,,,,,,610361af7915c5f2c51a4983,61036bc50932c682af6e03c5,2021-07-29_22h09.12.519,Simcolourproject_2stim_asymm_v5,2020.2.10,MacIntel,60,61025ae37ef11b136ea224fe,,,,,,,,,2430,-29.22296143,-76.02636719,1,0,0,response5disk,,3,10.05456543,1.565368652,1,0,0,rectangle,10.05456543,1.565368652,1,0,0,10.05456543,1.565368652,1,0,0,0,51,51,103,1,,,,,,,,
,,,,,,,,,,,,,FF,,,,,,,,0.9506,,,,,,,,,,,,,,,,,,,,,,610361af7915c5f2c51a4983,61036bc50932c682af6e03c5,2021-07-29_22h09.12.519,Simcolourproject_2stim_asymm_v5,2020.2.10,MacIntel,60,61025ae37ef11b136ea224fe,,,,,,,,,2458,75.80023193,-37.94622803,1,0,0,response3disk,,5,-17.1026001,-3.975708008,1,0,0,rectangle,-17.1026001,-3.975708008,1,0,0,-17.1026001,-3.975708008,1,0,0,0,52,52,82,1,,,,,,,,
,,,,,,,,,,,,,FF,,,,,,,,1.7327,,,,,,,,,,,,,,,,,,,,,,610361af7915c5f2c51a4983,61036bc50932c682af6e03c5,2021-07-29_22h09.12.519,Simcolourproject_2stim_asymm_v5,2020.2.10,MacIntel,60,61025ae37ef11b136ea224fe,,,,,,,,,4364,-88.65869141,-39.55221558,1,0,0,response5disk,,2,-4.735168457,15.74822998,1,0,0,rectangle,-4.735168457,15.74822998,1,0,0,-4.735168457,15.74822998,1,0,0,0,53,53,14,1,,,,,,,,
,,,,,,,,,,,,,FF,,,,,,,,0.9332,,,,,,,,,,,,,,,,,,,,,,610361af7915c5f2c51a4983,61036bc50932c682af6e03c5,2021-07-29_22h09.12.519,Simcolourproject_2stim_asymm_v5,2020.2.10,MacIntel,60,61025ae37ef11b136ea224fe,,,,,,,,,2137,22.92950439,-60.78637695,1,0,0,response3disk,,4,-6.365783691,7.143066406,1,0,0,rectangle,-6.365783691,7.143066406,1,0,0,-6.365783691,7.143066406,1,0,0,0,54,54,95,1,,,,,,,,
,,,,,,,,,,,,,FF,,,,,,,,1.3676,,,,,,,,,,,,,,,,,,,,,,610361af7915c5f2c51a4983,61036bc50932c682af6e03c5,2021-07-29_22h09.12.519,Simcolourproject_2stim_asymm_v5,2020.2.10,MacIntel,60,61025ae37ef11b136ea224fe,,,,,,,,,2017,-41.71618652,-88.246521,1,0,0,response5disk,,3,-15.2956543,0.188354492,1,0,0,rectangle,-15.2956543,0.188354492,1,0,0,-15.2956543,0.188354492,1,0,0,0,55,55,106,1,,,,,,,,
,,,,,,,,,,,,,FF,,,,,,,,0.9511,,,,,,,,,,,,,,,,,,,,,,610361af7915c5f2c51a4983,61036bc50932c682af6e03c5,2021-07-29_22h09.12.519,Simcolourproject_2stim_asymm_v5,2020.2.10,MacIntel,60,61025ae37ef11b136ea224fe,,,,,,,,,3367,36.53735352,-68.26983643,1,0,0,response3disk,,4,-16.79150391,-11.04595947,1,0,0,rectangle,-16.79150391,-11.04595947,1,0,0,-16.79150391,-11.04595947,1,0,0,0,56,56,97,1,,,,,,,,
,,,,,,,,,,,,,FF,,,,,,,,1.7316,,,,,,,,,,,,,,,,,,,,,,610361af7915c5f2c51a4983,61036bc50932c682af6e03c5,2021-07-29_22h09.12.519,Simcolourproject_2stim_asymm_v5,2020.2.10,MacIntel,60,61025ae37ef11b136ea224fe,,,,,,,,,1267,-72.38946533,-52.00714111,1,0,0,response5disk,,2,-29.90203857,-7.588989258,1,0,0,rectangle,-45.51940918,-72.078125,1,0,0,17.03106689,4.146240234,1,0,0,0,57,57,41,1,,response5disk_3,TRUE,3,3,"[297,237,116,308,111,150,123,155,99,5,146,307,231,237,5,24,212,322,58,18]",1.9004,rectangle
,,,,,,,,,,,,,FF,,,,,,,,7.517,,,,,,,,,,,,,,,,,,,,,,610361af7915c5f2c51a4983,61036bc50932c682af6e03c5,2021-07-29_22h09.12.519,Simcolourproject_2stim_asymm_v5,2020.2.10,MacIntel,60,61025ae37ef11b136ea224fe,,,,,,,,,1093,90.37023926,-33.55828857,1,0,0,response3disk,,5,-18.47265625,13.53692627,1,0,0,rectangle,-18.47265625,13.53692627,1,0,0,-18.47265625,13.53692627,1,0,0,0,58,58,121,1,,,,,,,,
,,,,,,,,,,,,,FF,,,,,,,,2.4487,,,,,,,,,,,,,,,,,,,,,,610361af7915c5f2c51a4983,61036bc50932c682af6e03c5,2021-07-29_22h09.12.519,Simcolourproject_2stim_asymm_v5,2020.2.10,MacIntel,60,61025ae37ef11b136ea224fe,,,,,,,,,3513,-51.46838379,-33.07373047,1,0,0,response5disk,,2,2.323730469,-9.935424805,1,0,0,rectangle,2.323730469,-9.935424805,1,0,0,2.323730469,-9.935424805,1,0,0,0,59,59,120,1,,,,,,,,
,,,,,,,,,,,,,FF,,,,,,,,1.5495,,,,,,,,,,,,,,,,,,,,,,610361af7915c5f2c51a4983,61036bc50932c682af6e03c5,2021-07-29_22h09.12.519,Simcolourproject_2stim_asymm_v5,2020.2.10,MacIntel,60,61025ae37ef11b136ea224fe,,,,,,,,,2236,-71.89428711,-53.82528687,1,0,0,response5disk,,2,13.80462646,-3.105499268,1,0,0,rectangle,13.80462646,-3.105499268,1,0,0,13.80462646,-3.105499268,1,0,0,0,60,60,133,1,,,,,,,,
,,,,,,,,,,,,,FF,,,,,,,,0.9508,,,,,,,,,,,,,,,,,,,,,,610361af7915c5f2c51a4983,61036bc50932c682af6e03c5,2021-07-29_22h09.12.519,Simcolourproject_2stim_asymm_v5,2020.2.10,MacIntel,60,61025ae37ef11b136ea224fe,,,,,,,,,2616,-29.22821045,-70.84313965,1,0,0,response5disk,,3,5.754089355,-2.081237793,1,0,0,rectangle,5.754089355,-2.081237793,1,0,0,5.754089355,-2.081237793,1,0,0,0,61,61,91,1,,,,,,,,
,,,,,,,,,,,,,FF,,,,,,,,0.9821,,,,,,,,,,,,,,,,,,,,,,610361af7915c5f2c51a4983,61036bc50932c682af6e03c5,2021-07-29_22h09.12.519,Simcolourproject_2stim_asymm_v5,2020.2.10,MacIntel,60,61025ae37ef11b136ea224fe,,,,,,,,,1452,-31.0814209,-62.51074219,1,0,0,response5disk,,3,-0.297973633,-7.075164795,1,0,0,rectangle,-0.297973633,-7.075164795,1,0,0,-0.297973633,-7.075164795,1,0,0,0,62,62,74,1,,,,,,,,
,,,,,,,,,,,,,FF,,,,,,,,1.0993,,,,,,,,,,,,,,,,,,,,,,610361af7915c5f2c51a4983,61036bc50932c682af6e03c5,2021-07-29_22h09.12.519,Simcolourproject_2stim_asymm_v5,2020.2.10,MacIntel,60,61025ae37ef11b136ea224fe,,,,,,,,,2573,83.17333984,30.35671997,1,0,0,response1disk,,6,24.33215332,0.792907715,1,0,0,rectangle,24.33215332,0.792907715,1,0,0,24.33215332,0.792907715,1,0,0,0,63,63,59,1,,,,,,,,
,,,,,,,,,,,,,FF,,,,,,,,0.8175,,,,,,,,,,,,,,,,,,,,,,610361af7915c5f2c51a4983,61036bc50932c682af6e03c5,2021-07-29_22h09.12.519,Simcolourproject_2stim_asymm_v5,2020.2.10,MacIntel,60,61025ae37ef11b136ea224fe,,,,,,,,,2437,57.84936523,-25.15435791,1,0,0,response3disk,,5,13.9387207,0.381469727,1,0,0,rectangle,13.9387207,0.381469727,1,0,0,13.9387207,0.381469727,1,0,0,0,64,64,42,1,,,,,,,,
,,,,,,,,,,,,,FF,,,,,,,,0.8012,,,,,,,,,,,,,,,,,,,,,,610361af7915c5f2c51a4983,61036bc50932c682af6e03c5,2021-07-29_22h09.12.519,Simcolourproject_2stim_asymm_v5,2020.2.10,MacIntel,60,61025ae37ef11b136ea224fe,,,,,,,,,2874,52.88635254,-25.54815674,1,0,0,response3disk,,5,7.461975098,-3.772857666,1,0,0,rectangle,7.461975098,-3.772857666,1,0,0,7.461975098,-3.772857666,1,0,0,0,65,65,84,1,,,,,,,,
,,,,,,,,,,,,,FF,,,,,,,,1.0185,,,,,,,,,,,,,,,,,,,,,,610361af7915c5f2c51a4983,61036bc50932c682af6e03c5,2021-07-29_22h09.12.519,Simcolourproject_2stim_asymm_v5,2020.2.10,MacIntel,60,61025ae37ef11b136ea224fe,,,,,,,,,2510,64.64630127,-29.42468262,1,0,0,response3disk,,5,24.53277588,-17.61425781,1,0,0,rectangle,24.53277588,-17.61425781,1,0,0,24.53277588,-17.61425781,1,0,0,0,66,66,5,1,,,,,,,,
,,,,,,,,,,,,,FF,,,,,,,,3.5701,,,,,,,,,,,,,,,,,,,,,,610361af7915c5f2c51a4983,61036bc50932c682af6e03c5,2021-07-29_22h09.12.519,Simcolourproject_2stim_asymm_v5,2020.2.10,MacIntel,60,61025ae37ef11b136ea224fe,,,,,,,,,1132,16.93389893,-58.71566772,1,0,0,response3disk,,4,17.13220215,-4.415100098,1,0,0,rectangle,17.13220215,-4.415100098,1,0,0,17.13220215,-4.415100098,1,0,0,0,67,67,141,1,,,,,,,,
,,,,,,,,,,,,,FF,,,,,,,,1.5486,,,,,,,,,,,,,,,,,,,,,,610361af7915c5f2c51a4983,61036bc50932c682af6e03c5,2021-07-29_22h09.12.519,Simcolourproject_2stim_asymm_v5,2020.2.10,MacIntel,60,61025ae37ef11b136ea224fe,,,,,,,,,2039,-34.59515381,-52.10018921,1,0,0,response5disk,,3,4.459228516,3.279724121,1,0,0,rectangle,4.459228516,3.279724121,1,0,0,4.459228516,3.279724121,1,0,0,0,68,68,99,1,,,,,,,,
,,,,,,,,,,,,,FF,,,,,,,,1.9004,,,,,,,,,,,,,,,,,,,,,,610361af7915c5f2c51a4983,61036bc50932c682af6e03c5,2021-07-29_22h09.12.519,Simcolourproject_2stim_asymm_v5,2020.2.10,MacIntel,60,61025ae37ef11b136ea224fe,,,,,,,,,4070,76.88238525,34.28930664,1,0,0,response1disk,,6,7.482543945,-0.96673584,1,0,0,rectangle,7.482543945,-0.96673584,1,0,0,7.482543945,-0.96673584,1,0,0,0,69,69,130,1,,,,,,,,
,,,,,,,,,,,,,FF,,,,,,,,1.1489,,,,,,,,,,,,,,,,,,,,,,610361af7915c5f2c51a4983,61036bc50932c682af6e03c5,2021-07-29_22h09.12.519,Simcolourproject_2stim_asymm_v5,2020.2.10,MacIntel,60,61025ae37ef11b136ea224fe,,,,,,,,,586,60.74438477,-22.02493286,1,0,0,response3disk,,5,8.858215332,10.26971436,1,0,0,rectangle,8.858215332,10.26971436,1,0,0,8.858215332,10.26971436,1,0,0,0,70,70,37,1,,,,,,,,
,,,,,,,,,,,,,FF,,,,,,,,1.0836,,,,,,,,,,,,,,,,,,,,,,610361af7915c5f2c51a4983,61036bc50932c682af6e03c5,2021-07-29_22h09.12.519,Simcolourproject_2stim_asymm_v5,2020.2.10,MacIntel,60,61025ae37ef11b136ea224fe,,,,,,,,,200,-29.71600342,-53.64581299,1,0,0,response5disk,,3,-4.277038574,-2.786865234,1,0,0,rectangle,-4.277038574,-2.786865234,1,0,0,-4.277038574,-2.786865234,1,0,0,0,71,71,153,1,,,,,,,,
,,,,,,,,,,,,,FF,,,,,,,,1.0992,,,,,,,,,,,,,,,,,,,,,,610361af7915c5f2c51a4983,61036bc50932c682af6e03c5,2021-07-29_22h09.12.519,Simcolourproject_2stim_asymm_v5,2020.2.10,MacIntel,60,61025ae37ef11b136ea224fe,,,,,,,,,386,-35.55187988,-54.02523804,1,0,0,response5disk,,3,-6.249206543,-14.91467285,1,0,0,rectangle,-6.249206543,-14.91467285,1,0,0,-6.249206543,-14.91467285,1,0,0,0,72,72,73,1,,,,,,,,
,,,,,,,,,,,,,FF,,,,,,,,2.1492,,,,,,,,,,,,,,,,,,,,,,610361af7915c5f2c51a4983,61036bc50932c682af6e03c5,2021-07-29_22h09.12.519,Simcolourproject_2stim_asymm_v5,2020.2.10,MacIntel,60,61025ae37ef11b136ea224fe,,,,,,,,,273,42.70098877,-76.3135376,1,0,0,response3disk,,4,25.18884277,-3.307830811,1,0,0,rectangle,25.18884277,-3.307830811,1,0,0,25.18884277,-3.307830811,1,0,0,0,73,73,47,1,,,,,,,,
,,,,,,,,,,,,,FF,,,,,,,,1.7847,,,,,,,,,,,,,,,,,,,,,,610361af7915c5f2c51a4983,61036bc50932c682af6e03c5,2021-07-29_22h09.12.519,Simcolourproject_2stim_asymm_v5,2020.2.10,MacIntel,60,61025ae37ef11b136ea224fe,,,,,,,,,3718,44.01202393,-22.47631836,1,0,0,response3disk,,5,19.32214355,-0.455932617,1,0,0,rectangle,19.32214355,-0.455932617,1,0,0,19.32214355,-0.455932617,1,0,0,0,74,74,12,1,,,,,,,,
,,,,,,,,,,,,,FF,,,,,,,,1.0491,,,,,,,,,,,,,,,,,,,,,,610361af7915c5f2c51a4983,61036bc50932c682af6e03c5,2021-07-29_22h09.12.519,Simcolourproject_2stim_asymm_v5,2020.2.10,MacIntel,60,61025ae37ef11b136ea224fe,,,,,,,,,1149,23.51049805,-58.31155396,1,0,0,response3disk,,4,19.68273926,-15.22595215,1,0,0,rectangle,19.68273926,-15.22595215,1,0,0,19.68273926,-15.22595215,1,0,0,0,75,75,109,1,,,,,,,,
,,,,,,,,,,,,,FF,,,,,,,,2.6152,,,,,,,,,,,,,,,,,,,,,,610361af7915c5f2c51a4983,61036bc50932c682af6e03c5,2021-07-29_22h09.12.519,Simcolourproject_2stim_asymm_v5,2020.2.10,MacIntel,60,61025ae37ef11b136ea224fe,,,,,,,,,85,43.43280029,91.33642578,1,0,0,response1disk,,7,-15.5894165,1.51965332,1,0,0,rectangle,-15.5894165,1.51965332,1,0,0,-15.5894165,1.51965332,1,0,0,0,76,76,146,1,,,,,,,,
,,,,,,,,,,,,,FF,,,,,,,,2.4847,,,,,,,,,,,,,,,,,,,,,,610361af7915c5f2c51a4983,61036bc50932c682af6e03c5,2021-07-29_22h09.12.519,Simcolourproject_2stim_asymm_v5,2020.2.10,MacIntel,60,61025ae37ef11b136ea224fe,,,,,,,,,3148,59.59637451,25.50567627,1,0,0,response1disk,,6,18.52990723,-3.473571777,1,0,0,rectangle,18.52990723,-3.473571777,1,0,0,18.52990723,-3.473571777,1,0,0,0,77,77,38,1,,,,,,,,
,,,,,,,,,,,,,FF,,,,,,,,0.9833,,,,,,,,,,,,,,,,,,,,,,610361af7915c5f2c51a4983,61036bc50932c682af6e03c5,2021-07-29_22h09.12.519,Simcolourproject_2stim_asymm_v5,2020.2.10,MacIntel,60,61025ae37ef11b136ea224fe,,,,,,,,,3464,46.39630127,-35.92977905,1,0,0,response3disk,,5,-23.75463867,9.431518555,1,0,0,rectangle,-23.75463867,9.431518555,1,0,0,-23.75463867,9.431518555,1,0,0,0,78,78,65,1,,,,,,,,
,,,,,,,,,,,,,FF,,,,,,,,0.9327,,,,,,,,,,,,,,,,,,,,,,610361af7915c5f2c51a4983,61036bc50932c682af6e03c5,2021-07-29_22h09.12.519,Simcolourproject_2stim_asymm_v5,2020.2.10,MacIntel,60,61025ae37ef11b136ea224fe,,,,,,,,,4194,33.96655273,-103.6760864,1,0,0,response3disk,,4,3.864624023,-3.858612061,1,0,0,rectangle,3.864624023,-3.858612061,1,0,0,3.864624023,-3.858612061,1,0,0,0,79,79,105,1,,,,,,,,
,,,,,,,,,,,,,FF,,,,,,,,0.8144,,,,,,,,,,,,,,,,,,,,,,610361af7915c5f2c51a4983,61036bc50932c682af6e03c5,2021-07-29_22h09.12.519,Simcolourproject_2stim_asymm_v5,2020.2.10,MacIntel,60,61025ae37ef11b136ea224fe,,,,,,,,,0,-33.78015137,125.7443848,1,0,0,response7disk,,0,-3.865356445,-4.121826172,1,0,0,rectangle,-3.865356445,-4.121826172,1,0,0,-3.865356445,-4.121826172,1,0,0,0,80,80,115,1,,,,,,,,
,,,,,,,,,,,,,FF,,,,,,,,1.7677,,,,,,,,,,,,,,,,,,,,,,610361af7915c5f2c51a4983,61036bc50932c682af6e03c5,2021-07-29_22h09.12.519,Simcolourproject_2stim_asymm_v5,2020.2.10,MacIntel,60,61025ae37ef11b136ea224fe,,,,,,,,,3126,32.4230957,-34.64282227,1,0,0,response3disk,,4,25.12408447,-2.965026855,1,0,0,rectangle,25.12408447,-2.965026855,1,0,0,25.12408447,-2.965026855,1,0,0,0,81,81,158,1,,,,,,,,
,,,,,,,,,,,,,FF,,,,,,,,2.9188,,,,,,,,,,,,,,,,,,,,,,610361af7915c5f2c51a4983,61036bc50932c682af6e03c5,2021-07-29_22h09.12.519,Simcolourproject_2stim_asymm_v5,2020.2.10,MacIntel,60,61025ae37ef11b136ea224fe,,,,,,,,,1748,27.5402832,-59.70993042,1,0,0,response3disk,,4,16.66345215,-11.96734619,1,0,0,rectangle,16.66345215,-11.96734619,1,0,0,16.66345215,-11.96734619,1,0,0,0,82,82,102,1,,,,,,,,
,,,,,,,,,,,,,FF,,,,,,,,2.4151,,,,,,,,,,,,,,,,,,,,,,610361af7915c5f2c51a4983,61036bc50932c682af6e03c5,2021-07-29_22h09.12.519,Simcolourproject_2stim_asymm_v5,2020.2.10,MacIntel,60,61025ae37ef11b136ea224fe,,,,,,,,,2241,-38.19586182,-64.44519043,1,0,0,response5disk,,3,-2.732910156,4.368041992,1,0,0,rectangle,-2.732910156,4.368041992,1,0,0,-2.732910156,4.368041992,1,0,0,0,83,83,78,1,,,,,,,,
,,,,,,,,,,,,,FF,,,,,,,,2.9006,,,,,,,,,,,,,,,,,,,,,,610361af7915c5f2c51a4983,61036bc50932c682af6e03c5,2021-07-29_22h09.12.519,Simcolourproject_2stim_asymm_v5,2020.2.10,MacIntel,60,61025ae37ef11b136ea224fe,,,,,,,,,2140,84.8571167,-56.84396362,1,0,0,response3disk,,5,-14.68719482,5.733764648,1,0,0,rectangle,-14.68719482,5.733764648,1,0,0,-14.68719482,5.733764648,1,0,0,0,84,84,147,1,,,,,,,,
,,,,,,,,,,,,,FF,,,,,,,,1.8491,,,,,,,,,,,,,,,,,,,,,,610361af7915c5f2c51a4983,61036bc50932c682af6e03c5,2021-07-29_22h09.12.519,Simcolourproject_2stim_asymm_v5,2020.2.10,MacIntel,60,61025ae37ef11b136ea224fe,,,,,,,,,354,-78.20751953,29.51766968,1,0,0,response7disk,,1,0.465820313,-0.801147461,1,0,0,rectangle,0.465820313,-0.801147461,1,0,0,0.465820313,-0.801147461,1,0,0,0,85,85,114,1,,,,,,,,
,,,,,,,,,,,,,FF,,,,,,,,1.7474,,,,,,,,,,,,,,,,,,,,,,610361af7915c5f2c51a4983,61036bc50932c682af6e03c5,2021-07-29_22h09.12.519,Simcolourproject_2stim_asymm_v5,2020.2.10,MacIntel,60,61025ae37ef11b136ea224fe,,,,,,,,,1270,91.56793213,-48.88729858,1,0,0,response3disk,,5,26.22290039,-0.876617432,1,0,0,rectangle,26.22290039,-0.876617432,1,0,0,26.22290039,-0.876617432,1,0,0,0,86,86,148,1,,,,,,,,
,,,,,,,,,,,,,FF,,,,,,,,0.7364,,,,,,,,,,,,,,,,,,,,,,610361af7915c5f2c51a4983,61036bc50932c682af6e03c5,2021-07-29_22h09.12.519,Simcolourproject_2stim_asymm_v5,2020.2.10,MacIntel,60,61025ae37ef11b136ea224fe,,,,,,,,,3078,80.20373535,-43.37890625,1,0,0,response3disk,,5,5.665466309,5.364562988,1,0,0,rectangle,5.665466309,5.364562988,1,0,0,5.665466309,5.364562988,1,0,0,0,87,87,138,1,,,,,,,,
,,,,,,,,,,,,,FF,,,,,,,,0.9167,,,,,,,,,,,,,,,,,,,,,,610361af7915c5f2c51a4983,61036bc50932c682af6e03c5,2021-07-29_22h09.12.519,Simcolourproject_2stim_asymm_v5,2020.2.10,MacIntel,60,61025ae37ef11b136ea224fe,,,,,,,,,456,-63.65606689,31.23651123,1,0,0,response7disk,,1,-15.56915283,-3.624816895,1,0,0,rectangle,-15.56915283,-3.624816895,1,0,0,-15.56915283,-3.624816895,1,0,0,0,88,88,76,1,,,,,,,,
,,,,,,,,,,,,,FF,,,,,,,,1.6161,,,,,,,,,,,,,,,,,,,,,,610361af7915c5f2c51a4983,61036bc50932c682af6e03c5,2021-07-29_22h09.12.519,Simcolourproject_2stim_asymm_v5,2020.2.10,MacIntel,60,61025ae37ef11b136ea224fe,,,,,,,,,3962,54.03692627,78.69799805,1,0,0,response1disk,,7,19.45831299,-4.010070801,1,0,0,rectangle,19.45831299,-4.010070801,1,0,0,19.45831299,-4.010070801,1,0,0,0,89,89,20,1,,,,,,,,
,,,,,,,,,,,,,FF,,,,,,,,2.7174,,,,,,,,,,,,,,,,,,,,,,610361af7915c5f2c51a4983,61036bc50932c682af6e03c5,2021-07-29_22h09.12.519,Simcolourproject_2stim_asymm_v5,2020.2.10,MacIntel,60,61025ae37ef11b136ea224fe,,,,,,,,,3897,56.37207031,-92.57165527,1,0,0,response3disk,,4,26.25024414,-0.03112793,1,0,0,rectangle,26.25024414,-0.03112793,1,0,0,26.25024414,-0.03112793,1,0,0,0,90,90,118,1,,,,,,,,
,,,,,,,,,,,,,FF,,,,,,,,3.1521,,,,,,,,,,,,,,,,,,,,,,610361af7915c5f2c51a4983,61036bc50932c682af6e03c5,2021-07-29_22h09.12.519,Simcolourproject_2stim_asymm_v5,2020.2.10,MacIntel,60,61025ae37ef11b136ea224fe,,,,,,,,,840,42.92370605,-52.49279785,1,0,0,response3disk,,4,15.77502441,-15.96582031,1,0,0,rectangle,15.77502441,-15.96582031,1,0,0,15.77502441,-15.96582031,1,0,0,0,91,91,3,1,,,,,,,,
,,,,,,,,,,,,,FF,,,,,,,,1.6682,,,,,,,,,,,,,,,,,,,,,,610361af7915c5f2c51a4983,61036bc50932c682af6e03c5,2021-07-29_22h09.12.519,Simcolourproject_2stim_asymm_v5,2020.2.10,MacIntel,60,61025ae37ef11b136ea224fe,,,,,,,,,1090,55.28344727,43.39645386,1,0,0,response1disk,,6,-24.81225586,-15.0760498,1,0,0,rectangle,-24.81225586,-15.0760498,1,0,0,-24.81225586,-15.0760498,1,0,0,0,92,92,11,1,,,,,,,,
,,,,,,,,,,,,,FF,,,,,,,,1.1837,,,,,,,,,,,,,,,,,,,,,,610361af7915c5f2c51a4983,61036bc50932c682af6e03c5,2021-07-29_22h09.12.519,Simcolourproject_2stim_asymm_v5,2020.2.10,MacIntel,60,61025ae37ef11b136ea224fe,,,,,,,,,4017,64.61029053,39.015625,1,0,0,response1disk,,6,18.34796143,2.564758301,1,0,0,rectangle,18.34796143,2.564758301,1,0,0,18.34796143,2.564758301,1,0,0,0,93,93,113,1,,,,,,,,
,,,,,,,,,,,,,FF,,,,,,,,1.6159,,,,,,,,,,,,,,,,,,,,,,610361af7915c5f2c51a4983,61036bc50932c682af6e03c5,2021-07-29_22h09.12.519,Simcolourproject_2stim_asymm_v5,2020.2.10,MacIntel,60,61025ae37ef11b136ea224fe,,,,,,,,,2363,-69.91516113,47.62149048,1,0,0,response7disk,,1,4.090820313,5.294128418,1,0,0,rectangle,4.090820313,5.294128418,1,0,0,4.090820313,5.294128418,1,0,0,0,94,94,112,1,,,,,,,,
,,,,,,,,,,,,,FF,,,,,,,,2.3491,,,,,,,,,,,,,,,,,,,,,,610361af7915c5f2c51a4983,61036bc50932c682af6e03c5,2021-07-29_22h09.12.519,Simcolourproject_2stim_asymm_v5,2020.2.10,MacIntel,60,61025ae37ef11b136ea224fe,,,,,,,,,37,28.1907959,-45.89178467,1,0,0,response3disk,,4,12.07098389,6.948364258,1,0,0,rectangle,12.07098389,6.948364258,1,0,0,12.07098389,6.948364258,1,0,0,0,95,95,119,1,,,,,,,,
,,,,,,,,,,,,,FF,,,,,,,,1.266,,,,,,,,,,,,,,,,,,,,,,610361af7915c5f2c51a4983,61036bc50932c682af6e03c5,2021-07-29_22h09.12.519,Simcolourproject_2stim_asymm_v5,2020.2.10,MacIntel,60,61025ae37ef11b136ea224fe,,,,,,,,,539,40.48632813,64.38891602,1,0,0,response1disk,,7,2.523498535,-2.332580566,1,0,0,rectangle,2.523498535,-2.332580566,1,0,0,2.523498535,-2.332580566,1,0,0,0,96,96,31,1,,,,,,,,
,,,,,,,,,,,,,FF,,,,,,,,4.668,,,,,,,,,,,,,,,,,,,,,,610361af7915c5f2c51a4983,61036bc50932c682af6e03c5,2021-07-29_22h09.12.519,Simcolourproject_2stim_asymm_v5,2020.2.10,MacIntel,60,61025ae37ef11b136ea224fe,,,,,,,,,2009,92.05480957,-48.24862671,1,0,0,response3disk,,5,1.082580566,-8.620178223,1,0,0,rectangle,1.082580566,-8.620178223,1,0,0,1.082580566,-8.620178223,1,0,0,0,97,97,21,1,,,,,,,,
,,,,,,,,,,,,,FF,,,,,,,,1.1157,,,,,,,,,,,,,,,,,,,,,,610361af7915c5f2c51a4983,61036bc50932c682af6e03c5,2021-07-29_22h09.12.519,Simcolourproject_2stim_asymm_v5,2020.2.10,MacIntel,60,61025ae37ef11b136ea224fe,,,,,,,,,3964,113.4848022,50.76739502,1,0,0,response1disk,,6,8.588012695,-5.29296875,1,0,0,rectangle,-112.3500366,-34.01004028,1,0,0,0.642272949,-1.159240723,1,0,0,0,98,98,13,1,,response5disk_3,TRUE,2,2,"[297,237,116,308,111,150,123,155,99,5,146,307,231,237,5,24,212,322,58,18]",2.6345,rectangle
,,,,,,,,,,,,,FF,,,,,,,,1.2659,,,,,,,,,,,,,,,,,,,,,,610361af7915c5f2c51a4983,61036bc50932c682af6e03c5,2021-07-29_22h09.12.519,Simcolourproject_2stim_asymm_v5,2020.2.10,MacIntel,60,61025ae37ef11b136ea224fe,,,,,,,,,3304,-21.49255371,-61.70721436,1,0,0,response5disk,,3,-10.18438721,-10.05181885,1,0,0,rectangle,-10.18438721,-10.05181885,1,0,0,-10.18438721,-10.05181885,1,0,0,0,99,99,72,1,,,,,,,,
,,,,,,,,,,,,,FF,,,,,,,,8.6498,,,,,,,,,,,,,,,,,,,,,,610361af7915c5f2c51a4983,61036bc50932c682af6e03c5,2021-07-29_22h09.12.519,Simcolourproject_2stim_asymm_v5,2020.2.10,MacIntel,60,61025ae37ef11b136ea224fe,,,,,,,,,3808,106.9657593,-42.2802124,1,0,0,response3disk,,5,-4.755432129,-4.713806152,1,0,0,rectangle,-4.755432129,-4.713806152,1,0,0,-4.755432129,-4.713806152,1,0,0,0,100,100,132,1,,,,,,,,
,,,,,,,,,,,,,FF,,,,,,,,1.651,,,,,,,,,,,,,,,,,,,,,,610361af7915c5f2c51a4983,61036bc50932c682af6e03c5,2021-07-29_22h09.12.519,Simcolourproject_2stim_asymm_v5,2020.2.10,MacIntel,60,61025ae37ef11b136ea224fe,,,,,,,,,3906,-37.32470703,-60.44104004,1,0,0,response5disk,,3,4.642333984,6.139587402,1,0,0,rectangle,4.642333984,6.139587402,1,0,0,4.642333984,6.139587402,1,0,0,0,101,101,144,1,,,,,,,,
,,,,,,,,,,,,,FF,,,,,,,,3.8831,,,,,,,,,,,,,,,,,,,,,,610361af7915c5f2c51a4983,61036bc50932c682af6e03c5,2021-07-29_22h09.12.519,Simcolourproject_2stim_asymm_v5,2020.2.10,MacIntel,60,61025ae37ef11b136ea224fe,,,,,,,,,1691,24.99542236,-86.55023193,1,0,0,response3disk,,4,3.234985352,4.602661133,1,0,0,rectangle,3.234985352,4.602661133,1,0,0,3.234985352,4.602661133,1,0,0,0,102,102,145,1,,,,,,,,
,,,,,,,,,,,,,FF,,,,,,,,0.9664,,,,,,,,,,,,,,,,,,,,,,610361af7915c5f2c51a4983,61036bc50932c682af6e03c5,2021-07-29_22h09.12.519,Simcolourproject_2stim_asymm_v5,2020.2.10,MacIntel,60,61025ae37ef11b136ea224fe,,,,,,,,,3321,65.76708984,-42.98193359,1,0,0,response3disk,,5,-9.187927246,4.860046387,1,0,0,rectangle,-9.187927246,4.860046387,1,0,0,-9.187927246,4.860046387,1,0,0,0,103,103,140,1,,,,,,,,
,,,,,,,,,,,,,FF,,,,,,,,1.0333,,,,,,,,,,,,,,,,,,,,,,610361af7915c5f2c51a4983,61036bc50932c682af6e03c5,2021-07-29_22h09.12.519,Simcolourproject_2stim_asymm_v5,2020.2.10,MacIntel,60,61025ae37ef11b136ea224fe,,,,,,,,,1780,33.1036377,-67.42980957,1,0,0,response3disk,,4,10.07684326,-11.94567871,1,0,0,rectangle,10.07684326,-11.94567871,1,0,0,10.07684326,-11.94567871,1,0,0,0,104,104,136,1,,,,,,,,
,,,,,,,,,,,,,FF,,,,,,,,1.2203,,,,,,,,,,,,,,,,,,,,,,610361af7915c5f2c51a4983,61036bc50932c682af6e03c5,2021-07-29_22h09.12.519,Simcolourproject_2stim_asymm_v5,2020.2.10,MacIntel,60,61025ae37ef11b136ea224fe,,,,,,,,,4256,-53.21679688,-63.96789551,1,0,0,response5disk,,3,-19.85345459,-11.69177246,1,0,0,rectangle,-19.85345459,-11.69177246,1,0,0,-19.85345459,-11.69177246,1,0,0,0,105,105,32,1,,,,,,,,
,,,,,,,,,,,,,FF,,,,,,,,2.0005,,,,,,,,,,,,,,,,,,,,,,610361af7915c5f2c51a4983,61036bc50932c682af6e03c5,2021-07-29_22h09.12.519,Simcolourproject_2stim_asymm_v5,2020.2.10,MacIntel,60,61025ae37ef11b136ea224fe,,,,,,,,,3901,-21.24456787,-69.34844971,1,0,0,response5disk,,3,17.25061035,-4.854553223,1,0,0,rectangle,17.25061035,-4.854553223,1,0,0,17.25061035,-4.854553223,1,0,0,0,106,106,101,1,,,,,,,,
,,,,,,,,,,,,,FF,,,,,,,,1.0334,,,,,,,,,,,,,,,,,,,,,,610361af7915c5f2c51a4983,61036bc50932c682af6e03c5,2021-07-29_22h09.12.519,Simcolourproject_2stim_asymm_v5,2020.2.10,MacIntel,60,61025ae37ef11b136ea224fe,,,,,,,,,843,62.16394043,-38.4543457,1,0,0,response3disk,,5,21.19439697,-5.182220459,1,0,0,rectangle,21.19439697,-5.182220459,1,0,0,21.19439697,-5.182220459,1,0,0,0,107,107,58,1,,,,,,,,
,,,,,,,,,,,,,FF,,,,,,,,1.2147,,,,,,,,,,,,,,,,,,,,,,610361af7915c5f2c51a4983,61036bc50932c682af6e03c5,2021-07-29_22h09.12.519,Simcolourproject_2stim_asymm_v5,2020.2.10,MacIntel,60,61025ae37ef11b136ea224fe,,,,,,,,,1732,52.0057373,-36.06097412,1,0,0,response3disk,,5,14.02624512,-6.326171875,1,0,0,rectangle,14.02624512,-6.326171875,1,0,0,14.02624512,-6.326171875,1,0,0,0,108,108,48,1,,,,,,,,
,,,,,,,,,,,,,FF,,,,,,,,1.4834,,,,,,,,,,,,,,,,,,,,,,610361af7915c5f2c51a4983,61036bc50932c682af6e03c5,2021-07-29_22h09.12.519,Simcolourproject_2stim_asymm_v5,2020.2.10,MacIntel,60,61025ae37ef11b136ea224fe,,,,,,,,,2867,62.00372314,37.74819946,1,0,0,response1disk,,6,5.856750488,0.054992676,1,0,0,rectangle,5.856750488,0.054992676,1,0,0,5.856750488,0.054992676,1,0,0,0,109,109,2,1,,,,,,,,
,,,,,,,,,,,,,FF,,,,,,,,0.9164,,,,,,,,,,,,,,,,,,,,,,610361af7915c5f2c51a4983,61036bc50932c682af6e03c5,2021-07-29_22h09.12.519,Simcolourproject_2stim_asymm_v5,2020.2.10,MacIntel,60,61025ae37ef11b136ea224fe,,,,,,,,,3322,36.04388428,53.58084106,1,0,0,response1disk,,7,-0.874633789,-3.853485107,1,0,0,rectangle,-89.55065918,31.77954102,1,0,0,4.608215332,1.614898682,1,0,0,0,110,110,111,1,,response7disk_3,TRUE,1,1,"[297,237,116,308,111,150,123,155,99,5,146,307,231,237,5,24,212,322,58,18]",2.0669,rectangle
,,,,,,,,,,,,,FF,,,,,,,,3.0153,,,,,,,,,,,,,,,,,,,,,,610361af7915c5f2c51a4983,61036bc50932c682af6e03c5,2021-07-29_22h09.12.519,Simcolourproject_2stim_asymm_v5,2020.2.10,MacIntel,60,61025ae37ef11b136ea224fe,,,,,,,,,2421,-56.05529785,33.42791748,1,0,0,response7disk,,1,-8.49005127,2.602661133,1,0,0,rectangle,-8.49005127,2.602661133,1,0,0,-8.49005127,2.602661133,1,0,0,0,111,111,57,1,,,,,,,,
,,,,,,,,,,,,,FF,,,,,,,,0.7683,,,,,,,,,,,,,,,,,,,,,,610361af7915c5f2c51a4983,61036bc50932c682af6e03c5,2021-07-29_22h09.12.519,Simcolourproject_2stim_asymm_v5,2020.2.10,MacIntel,60,61025ae37ef11b136ea224fe,,,,,,,,,3743,-74.59222412,31.99017334,1,0,0,response7disk,,1,-9.514892578,-7.292419434,1,0,0,rectangle,-9.514892578,-7.292419434,1,0,0,-9.514892578,-7.292419434,1,0,0,0,112,112,0,1,,,,,,,,
,,,,,,,,,,,,,FF,,,,,,,,0.8669,,,,,,,,,,,,,,,,,,,,,,610361af7915c5f2c51a4983,61036bc50932c682af6e03c5,2021-07-29_22h09.12.519,Simcolourproject_2stim_asymm_v5,2020.2.10,MacIntel,60,61025ae37ef11b136ea224fe,,,,,,,,,2587,64.19042969,-45.28106689,1,0,0,response3disk,,5,9.761779785,-7.899780273,1,0,0,rectangle,9.761779785,-7.899780273,1,0,0,9.761779785,-7.899780273,1,0,0,0,113,113,117,1,,,,,,,,
,,,,,,,,,,,,,FF,,,,,,,,1.4335,,,,,,,,,,,,,,,,,,,,,,610361af7915c5f2c51a4983,61036bc50932c682af6e03c5,2021-07-29_22h09.12.519,Simcolourproject_2stim_asymm_v5,2020.2.10,MacIntel,60,61025ae37ef11b136ea224fe,,,,,,,,,555,-77.37091064,-41.06317139,1,0,0,response5disk,,2,-5.748352051,-8.14440918,1,0,0,rectangle,-5.748352051,-8.14440918,1,0,0,-5.748352051,-8.14440918,1,0,0,0,114,114,108,1,,,,,,,,
,,,,,,,,,,,,,FF,,,,,,,,63.8181,,,,,,,,,,,,,,,,,,,,,,610361af7915c5f2c51a4983,61036bc50932c682af6e03c5,2021-07-29_22h09.12.519,Simcolourproject_2stim_asymm_v5,2020.2.10,MacIntel,60,61025ae37ef11b136ea224fe,,,,,,,,,507,65.72491455,-30.7166748,1,0,0,response3disk,,5,19.93377686,-1.602416992,1,0,0,rectangle,-21.73620605,-77.9309082,1,0,0,-1.120300293,0.035949707,1,0,0,0,115,115,81,1,,response5disk_3,TRUE,3,3,"[297,237,116,308,111,150,123,155,99,5,146,307,231,237,5,24,212,322,58,18]",1.8345,rectangle
,,,,,,,,,,,,,FF,,,,,,,,1.5192,,,,,,,,,,,,,,,,,,,,,,610361af7915c5f2c51a4983,61036bc50932c682af6e03c5,2021-07-29_22h09.12.519,Simcolourproject_2stim_asymm_v5,2020.2.10,MacIntel,60,61025ae37ef11b136ea224fe,,,,,,,,,981,-38.99298096,-56.9354248,1,0,0,response5disk,,3,-4.848022461,-10.53994751,1,0,0,rectangle,-4.848022461,-10.53994751,1,0,0,-4.848022461,-10.53994751,1,0,0,0,116,116,15,1,,,,,,,,
,,,,,,,,,,,,,FF,,,,,,,,1.0491,,,,,,,,,,,,,,,,,,,,,,610361af7915c5f2c51a4983,61036bc50932c682af6e03c5,2021-07-29_22h09.12.519,Simcolourproject_2stim_asymm_v5,2020.2.10,MacIntel,60,61025ae37ef11b136ea224fe,,,,,,,,,333,40.36425781,-64.76800537,1,0,0,response3disk,,4,13.38641357,-6.987640381,1,0,0,rectangle,13.38641357,-6.987640381,1,0,0,13.38641357,-6.987640381,1,0,0,0,117,117,54,1,,,,,,,,
,,,,,,,,,,,,,FF,,,,,,,,0.9646,,,,,,,,,,,,,,,,,,,,,,610361af7915c5f2c51a4983,61036bc50932c682af6e03c5,2021-07-29_22h09.12.519,Simcolourproject_2stim_asymm_v5,2020.2.10,MacIntel,60,61025ae37ef11b136ea224fe,,,,,,,,,557,-65.86273193,-30.60870361,1,0,0,response5disk,,2,-10.46459961,-2.277160645,1,0,0,rectangle,-10.46459961,-2.277160645,1,0,0,-10.46459961,-2.277160645,1,0,0,0,118,118,10,1,,,,,,,,
,,,,,,,,,,,,,FF,,,,,,,,1.2167,,,,,,,,,,,,,,,,,,,,,,610361af7915c5f2c51a4983,61036bc50932c682af6e03c5,2021-07-29_22h09.12.519,Simcolourproject_2stim_asymm_v5,2020.2.10,MacIntel,60,61025ae37ef11b136ea224fe,,,,,,,,,3985,69.9083252,-38.31112671,1,0,0,response3disk,,5,7.472412109,-4.80847168,1,0,0,rectangle,7.472412109,-4.80847168,1,0,0,7.472412109,-4.80847168,1,0,0,0,119,119,6,1,,,,,,,,
,,,,,,,,,,,,,FF,,,,,,,,0.8202,,,,,,,,,,,,,,,,,,,,,,610361af7915c5f2c51a4983,61036bc50932c682af6e03c5,2021-07-29_22h09.12.519,Simcolourproject_2stim_asymm_v5,2020.2.10,MacIntel,60,61025ae37ef11b136ea224fe,,,,,,,,,728,33.99859619,-73.14587402,1,0,0,response3disk,,4,1.935424805,-11.5869751,1,0,0,rectangle,1.935424805,-11.5869751,1,0,0,1.935424805,-11.5869751,1,0,0,0,120,120,28,1,,,,,,,,
,,,,,,,,,,,,,FF,,,,,,,,1.3651,,,,,,,,,,,,,,,,,,,,,,610361af7915c5f2c51a4983,61036bc50932c682af6e03c5,2021-07-29_22h09.12.519,Simcolourproject_2stim_asymm_v5,2020.2.10,MacIntel,60,61025ae37ef11b136ea224fe,,,,,,,,,3584,-68.60015869,26.5958252,1,0,0,response7disk,,1,-24.34118652,0.332489014,1,0,0,rectangle,-24.34118652,0.332489014,1,0,0,-24.34118652,0.332489014,1,0,0,0,121,121,131,1,,,,,,,,
,,,,,,,,,,,,,FF,,,,,,,,0.7159,,,,,,,,,,,,,,,,,,,,,,610361af7915c5f2c51a4983,61036bc50932c682af6e03c5,2021-07-29_22h09.12.519,Simcolourproject_2stim_asymm_v5,2020.2.10,MacIntel,60,61025ae37ef11b136ea224fe,,,,,,,,,3908,-69.46002197,35.31500244,1,0,0,response7disk,,1,-10.95440674,2.563995361,1,0,0,rectangle,-20.35321045,-57.39318848,1,0,0,0.620300293,-4.198547363,1,0,0,0,122,122,22,1,,response5disk_3,TRUE,3,1,"[297,237,116,308,111,150,123,155,99,5,146,307,231,237,5,24,212,322,58,18]",2.0168,rectangle
,,,,,,,,,,,,,FF,,,,,,,,0.8981,,,,,,,,,,,,,,,,,,,,,,610361af7915c5f2c51a4983,61036bc50932c682af6e03c5,2021-07-29_22h09.12.519,Simcolourproject_2stim_asymm_v5,2020.2.10,MacIntel,60,61025ae37ef11b136ea224fe,,,,,,,,,3328,-80.51324463,-32.78546143,1,0,0,response5disk,,2,-16.20166016,-6.543151855,1,0,0,rectangle,-16.20166016,-6.543151855,1,0,0,-16.20166016,-6.543151855,1,0,0,0,123,123,33,1,,,,,,,,
,,,,,,,,,,,,,FF,,,,,,,,1.6642,,,,,,,,,,,,,,,,,,,,,,610361af7915c5f2c51a4983,61036bc50932c682af6e03c5,2021-07-29_22h09.12.519,Simcolourproject_2stim_asymm_v5,2020.2.10,MacIntel,60,61025ae37ef11b136ea224fe,,,,,,,,,1667,46.63262939,-21.26416016,1,0,0,response3disk,,5,22.0211792,17.20690918,1,0,0,rectangle,22.0211792,17.20690918,1,0,0,22.0211792,17.20690918,1,0,0,0,124,124,24,1,,,,,,,,
,,,,,,,,,,,,,FF,,,,,,,,1.0501,,,,,,,,,,,,,,,,,,,,,,610361af7915c5f2c51a4983,61036bc50932c682af6e03c5,2021-07-29_22h09.12.519,Simcolourproject_2stim_asymm_v5,2020.2.10,MacIntel,60,61025ae37ef11b136ea224fe,,,,,,,,,1924,-41.66809082,-67.10681152,1,0,0,response5disk,,3,-15.21466064,-3.62600708,1,0,0,rectangle,-15.21466064,-3.62600708,1,0,0,-15.21466064,-3.62600708,1,0,0,0,125,125,85,1,,,,,,,,
,,,,,,,,,,,,,FF,,,,,,,,0.9326,,,,,,,,,,,,,,,,,,,,,,610361af7915c5f2c51a4983,61036bc50932c682af6e03c5,2021-07-29_22h09.12.519,Simcolourproject_2stim_asymm_v5,2020.2.10,MacIntel,60,61025ae37ef11b136ea224fe,,,,,,,,,4007,-27.53088379,-58.46795654,1,0,0,response5disk,,3,-6.363891602,-1.419189453,1,0,0,rectangle,-6.363891602,-1.419189453,1,0,0,-6.363891602,-1.419189453,1,0,0,0,126,126,94,1,,,,,,,,
,,,,,,,,,,,,,FF,,,,,,,,1.6676,,,,,,,,,,,,,,,,,,,,,,610361af7915c5f2c51a4983,61036bc50932c682af6e03c5,2021-07-29_22h09.12.519,Simcolourproject_2stim_asymm_v5,2020.2.10,MacIntel,60,61025ae37ef11b136ea224fe,,,,,,,,,1241,34.9899292,-75.00274658,1,0,0,response3disk,,4,20.38250732,-8.955657959,1,0,0,rectangle,20.38250732,-8.955657959,1,0,0,20.38250732,-8.955657959,1,0,0,0,127,127,36,1,,,,,,,,
,,,,,,,,,,,,,FF,,,,,,,,0.718,,,,,,,,,,,,,,,,,,,,,,610361af7915c5f2c51a4983,61036bc50932c682af6e03c5,2021-07-29_22h09.12.519,Simcolourproject_2stim_asymm_v5,2020.2.10,MacIntel,60,61025ae37ef11b136ea224fe,,,,,,,,,705,-31.01196289,-57.45574951,1,0,0,response5disk,,3,-6.001159668,1.04309082,1,0,0,rectangle,-6.001159668,1.04309082,1,0,0,-6.001159668,1.04309082,1,0,0,0,128,128,77,1,,,,,,,,
,,,,,,,,,,,,,FF,,,,,,,,0.8505,,,,,,,,,,,,,,,,,,,,,,610361af7915c5f2c51a4983,61036bc50932c682af6e03c5,2021-07-29_22h09.12.519,Simcolourproject_2stim_asymm_v5,2020.2.10,MacIntel,60,61025ae37ef11b136ea224fe,,,,,,,,,962,48.80517578,-74.89605713,1,0,0,response3disk,,4,14.5581665,-12.27886963,1,0,0,rectangle,14.5581665,-12.27886963,1,0,0,14.5581665,-12.27886963,1,0,0,0,129,129,60,1,,,,,,,,
,,,,,,,,,,,,,FF,,,,,,,,3.6826,,,,,,,,,,,,,,,,,,,,,,610361af7915c5f2c51a4983,61036bc50932c682af6e03c5,2021-07-29_22h09.12.519,Simcolourproject_2stim_asymm_v5,2020.2.10,MacIntel,60,61025ae37ef11b136ea224fe,,,,,,,,,1703,29.9006958,-69.42022705,1,0,0,response3disk,,4,18.91296387,-16.32363892,1,0,0,rectangle,18.91296387,-16.32363892,1,0,0,18.91296387,-16.32363892,1,0,0,0,130,130,34,1,,,,,,,,
,,,,,,,,,,,,,FF,,,,,,,,1.133,,,,,,,,,,,,,,,,,,,,,,610361af7915c5f2c51a4983,61036bc50932c682af6e03c5,2021-07-29_22h09.12.519,Simcolourproject_2stim_asymm_v5,2020.2.10,MacIntel,60,61025ae37ef11b136ea224fe,,,,,,,,,1038,-44.35479736,-52.73706055,1,0,0,response5disk,,3,-11.44018555,-5.025695801,1,0,0,rectangle,-11.44018555,-5.025695801,1,0,0,-11.44018555,-5.025695801,1,0,0,0,131,131,151,1,,,,,,,,
,,,,,,,,,,,,,FF,,,,,,,,3.7318,,,,,,,,,,,,,,,,,,,,,,610361af7915c5f2c51a4983,61036bc50932c682af6e03c5,2021-07-29_22h09.12.519,Simcolourproject_2stim_asymm_v5,2020.2.10,MacIntel,60,61025ae37ef11b136ea224fe,,,,,,,,,943,61.74261475,-85.93554688,1,0,0,response3disk,,4,10.77642822,1.604705811,1,0,0,rectangle,10.77642822,1.604705811,1,0,0,10.77642822,1.604705811,1,0,0,0,132,132,89,1,,,,,,,,
,,,,,,,,,,,,,FF,,,,,,,,0.8167,,,,,,,,,,,,,,,,,,,,,,610361af7915c5f2c51a4983,61036bc50932c682af6e03c5,2021-07-29_22h09.12.519,Simcolourproject_2stim_asymm_v5,2020.2.10,MacIntel,60,61025ae37ef11b136ea224fe,,,,,,,,,3565,-43.38146973,-50.06967163,1,0,0,response5disk,,3,-9.053161621,1.983947754,1,0,0,rectangle,-9.053161621,1.983947754,1,0,0,-9.053161621,1.983947754,1,0,0,0,133,133,17,1,,,,,,,,
,,,,,,,,,,,,,FF,,,,,,,,0.6822,,,,,,,,,,,,,,,,,,,,,,610361af7915c5f2c51a4983,61036bc50932c682af6e03c5,2021-07-29_22h09.12.519,Simcolourproject_2stim_asymm_v5,2020.2.10,MacIntel,60,61025ae37ef11b136ea224fe,,,,,,,,,3370,79.9307251,-43.83532715,1,0,0,response3disk,,5,12.54528809,3.60748291,1,0,0,rectangle,12.54528809,3.60748291,1,0,0,12.54528809,3.60748291,1,0,0,0,134,134,156,1,,,,,,,,
,,,,,,,,,,,,,FF,,,,,,,,0.7024,,,,,,,,,,,,,,,,,,,,,,610361af7915c5f2c51a4983,61036bc50932c682af6e03c5,2021-07-29_22h09.12.519,Simcolourproject_2stim_asymm_v5,2020.2.10,MacIntel,60,61025ae37ef11b136ea224fe,,,,,,,,,504,74.97546387,-48.97964478,1,0,0,response3disk,,5,-3.105895996,-2.080322266,1,0,0,rectangle,-3.105895996,-2.080322266,1,0,0,-3.105895996,-2.080322266,1,0,0,0,135,135,87,1,,,,,,,,
,,,,,,,,,,,,,FF,,,,,,,,0.8373,,,,,,,,,,,,,,,,,,,,,,610361af7915c5f2c51a4983,61036bc50932c682af6e03c5,2021-07-29_22h09.12.519,Simcolourproject_2stim_asymm_v5,2020.2.10,MacIntel,60,61025ae37ef11b136ea224fe,,,,,,,,,2235,-63.22845459,32.40255737,1,0,0,response7disk,,1,-27.58880615,-7.199859619,1,0,0,rectangle,-27.58880615,-7.199859619,1,0,0,-27.58880615,-7.199859619,1,0,0,0,136,136,137,1,,,,,,,,
,,,,,,,,,,,,,FF,,,,,,,,1.5481,,,,,,,,,,,,,,,,,,,,,,610361af7915c5f2c51a4983,61036bc50932c682af6e03c5,2021-07-29_22h09.12.519,Simcolourproject_2stim_asymm_v5,2020.2.10,MacIntel,60,61025ae37ef11b136ea224fe,,,,,,,,,156,52.02197266,-82.14978027,1,0,0,response3disk,,4,1.049865723,7.197113037,1,0,0,rectangle,1.049865723,7.197113037,1,0,0,1.049865723,7.197113037,1,0,0,0,137,137,67,1,,,,,,,,
,,,,,,,,,,,,,FF,,,,,,,,0.7002,,,,,,,,,,,,,,,,,,,,,,610361af7915c5f2c51a4983,61036bc50932c682af6e03c5,2021-07-29_22h09.12.519,Simcolourproject_2stim_asymm_v5,2020.2.10,MacIntel,60,61025ae37ef11b136ea224fe,,,,,,,,,2130,83.8862915,-46.30441284,1,0,0,response3disk,,5,3.120056152,-5.810913086,1,0,0,rectangle,3.120056152,-5.810913086,1,0,0,3.120056152,-5.810913086,1,0,0,0,138,138,35,1,,,,,,,,
,,,,,,,,,,,,,FF,,,,,,,,1.1502,,,,,,,,,,,,,,,,,,,,,,610361af7915c5f2c51a4983,61036bc50932c682af6e03c5,2021-07-29_22h09.12.519,Simcolourproject_2stim_asymm_v5,2020.2.10,MacIntel,60,61025ae37ef11b136ea224fe,,,,,,,,,4270,-77.1003418,-51.09616089,1,0,0,response5disk,,2,-7.891296387,-5.424316406,1,0,0,rectangle,-7.891296387,-5.424316406,1,0,0,-7.891296387,-5.424316406,1,0,0,0,139,139,70,1,,,,,,,,
,,,,,,,,,,,,,FF,,,,,,,,0.8316,,,,,,,,,,,,,,,,,,,,,,610361af7915c5f2c51a4983,61036bc50932c682af6e03c5,2021-07-29_22h09.12.519,Simcolourproject_2stim_asymm_v5,2020.2.10,MacIntel,60,61025ae37ef11b136ea224fe,,,,,,,,,2072,31.04730225,-55.13140869,1,0,0,response3disk,,4,14.52337646,13.62347412,1,0,0,rectangle,14.52337646,13.62347412,1,0,0,14.52337646,13.62347412,1,0,0,0,140,140,124,1,,,,,,,,
,,,,,,,,,,,,,FF,,,,,,,,0.8478,,,,,,,,,,,,,,,,,,,,,,610361af7915c5f2c51a4983,61036bc50932c682af6e03c5,2021-07-29_22h09.12.519,Simcolourproject_2stim_asymm_v5,2020.2.10,MacIntel,60,61025ae37ef11b136ea224fe,,,,,,,,,144,83.60314941,-44.06442261,1,0,0,response3disk,,5,20.74481201,-13.2723999,1,0,0,rectangle,20.74481201,-13.2723999,1,0,0,20.74481201,-13.2723999,1,0,0,0,141,141,55,1,,,,,,,,
,,,,,,,,,,,,,FF,,,,,,,,0.7504,,,,,,,,,,,,,,,,,,,,,,610361af7915c5f2c51a4983,61036bc50932c682af6e03c5,2021-07-29_22h09.12.519,Simcolourproject_2stim_asymm_v5,2020.2.10,MacIntel,60,61025ae37ef11b136ea224fe,,,,,,,,,2414,-71.07946777,-29.76687622,1,0,0,response5disk,,2,-11.32769775,-1.086608887,1,0,0,rectangle,-11.32769775,-1.086608887,1,0,0,-11.32769775,-1.086608887,1,0,0,0,142,142,150,1,,,,,,,,
,,,,,,,,,,,,,FF,,,,,,,,0.7313,,,,,,,,,,,,,,,,,,,,,,610361af7915c5f2c51a4983,61036bc50932c682af6e03c5,2021-07-29_22h09.12.519,Simcolourproject_2stim_asymm_v5,2020.2.10,MacIntel,60,61025ae37ef11b136ea224fe,,,,,,,,,2940,-22.29290771,85.44836426,1,0,0,response7disk,,0,-0.980407715,-5.275268555,1,0,0,rectangle,-0.980407715,-5.275268555,1,0,0,-0.980407715,-5.275268555,1,0,0,0,143,143,149,1,,,,,,,,
,,,,,,,,,,,,,FF,,,,,,,,0.7349,,,,,,,,,,,,,,,,,,,,,,610361af7915c5f2c51a4983,61036bc50932c682af6e03c5,2021-07-29_22h09.12.519,Simcolourproject_2stim_asymm_v5,2020.2.10,MacIntel,60,61025ae37ef11b136ea224fe,,,,,,,,,2737,-66.03369141,-40.85412598,1,0,0,response5disk,,2,-10.60638428,4.781768799,1,0,0,rectangle,-10.60638428,4.781768799,1,0,0,-10.60638428,4.781768799,1,0,0,0,144,144,128,1,,,,,,,,
,,,,,,,,,,,,,FF,,,,,,,,0.704,,,,,,,,,,,,,,,,,,,,,,610361af7915c5f2c51a4983,61036bc50932c682af6e03c5,2021-07-29_22h09.12.519,Simcolourproject_2stim_asymm_v5,2020.2.10,MacIntel,60,61025ae37ef11b136ea224fe,,,,,,,,,4343,-39.11865234,85.4119873,1,0,0,response7disk,,0,-28.42437744,-8.410339355,1,0,0,rectangle,-58.59881592,38.77062988,1,0,0,0.63458252,0.755310059,1,0,0,0,145,145,18,1,,response7disk_3,TRUE,1,1,"[297,237,116,308,111,150,123,155,99,5,146,307,231,237,5,24,212,322,58,18]",1.6499,rectangle
,,,,,,,,,,,,,FF,,,,,,,,1.1821,,,,,,,,,,,,,,,,,,,,,,610361af7915c5f2c51a4983,61036bc50932c682af6e03c5,2021-07-29_22h09.12.519,Simcolourproject_2stim_asymm_v5,2020.2.10,MacIntel,60,61025ae37ef11b136ea224fe,,,,,,,,,2624,78.56530762,44.76812744,1,0,0,response1disk,,6,9.883361816,14.95404053,1,0,0,rectangle,9.883361816,14.95404053,1,0,0,9.883361816,14.95404053,1,0,0,0,146,146,26,1,,,,,,,,
,,,,,,,,,,,,,FF,,,,,,,,1.1311,,,,,,,,,,,,,,,,,,,,,,610361af7915c5f2c51a4983,61036bc50932c682af6e03c5,2021-07-29_22h09.12.519,Simcolourproject_2stim_asymm_v5,2020.2.10,MacIntel,60,61025ae37ef11b136ea224fe,,,,,,,,,1486,30.78363037,53.65283203,1,0,0,response1disk,,7,0.023132324,-2.67956543,1,0,0,rectangle,0.023132324,-2.67956543,1,0,0,0.023132324,-2.67956543,1,0,0,0,147,147,92,1,,,,,,,,
,,,,,,,,,,,,,FF,,,,,,,,0.9343,,,,,,,,,,,,,,,,,,,,,,610361af7915c5f2c51a4983,61036bc50932c682af6e03c5,2021-07-29_22h09.12.519,Simcolourproject_2stim_asymm_v5,2020.2.10,MacIntel,60,61025ae37ef11b136ea224fe,,,,,,,,,1319,53.62542725,20.46868896,1,0,0,response1disk,,6,8.028869629,-1.338165283,1,0,0,rectangle,8.028869629,-1.338165283,1,0,0,8.028869629,-1.338165283,1,0,0,0,148,148,98,1,,,,,,,,
,,,,,,,,,,,,,FF,,,,,,,,1.2166,,,,,,,,,,,,,,,,,,,,,,610361af7915c5f2c51a4983,61036bc50932c682af6e03c5,2021-07-29_22h09.12.519,Simcolourproject_2stim_asymm_v5,2020.2.10,MacIntel,60,61025ae37ef11b136ea224fe,,,,,,,,,2675,-45.16693115,-101.9457397,1,0,0,response5disk,,3,-3.44128418,-6.856231689,1,0,0,rectangle,47.71276855,-106.8735352,1,0,0,-9.604370117,-3.095275879,1,0,0,0,149,149,96,1,,response3disk_3,TRUE,4,4,"[297,237,116,308,111,150,123,155,99,5,146,307,231,237,5,24,212,322,58,18]",1.4494,rectangle
,,,,,,,,,,,,,FF,,,,,,,,1.5831,,,,,,,,,,,,,,,,,,,,,,610361af7915c5f2c51a4983,61036bc50932c682af6e03c5,2021-07-29_22h09.12.519,Simcolourproject_2stim_asymm_v5,2020.2.10,MacIntel,60,61025ae37ef11b136ea224fe,,,,,,,,,3400,40.4508667,-82.5012207,1,0,0,response3disk,,4,23.69537354,-5.964019775,1,0,0,rectangle,23.69537354,-5.964019775,1,0,0,23.69537354,-5.964019775,1,0,0,0,150,150,53,1,,,,,,,,
,,,,,,,,,,,,,FF,,,,,,,,0.8488,,,,,,,,,,,,,,,,,,,,,,610361af7915c5f2c51a4983,61036bc50932c682af6e03c5,2021-07-29_22h09.12.519,Simcolourproject_2stim_asymm_v5,2020.2.10,MacIntel,60,61025ae37ef11b136ea224fe,,,,,,,,,2870,46.8182373,-33.01525879,1,0,0,response3disk,,5,12.75506592,-0.618103027,1,0,0,rectangle,12.75506592,-0.618103027,1,0,0,12.75506592,-0.618103027,1,0,0,0,151,151,25,1,,,,,,,,
,,,,,,,,,,,,,FF,,,,,,,,2.298,,,,,,,,,,,,,,,,,,,,,,610361af7915c5f2c51a4983,61036bc50932c682af6e03c5,2021-07-29_22h09.12.519,Simcolourproject_2stim_asymm_v5,2020.2.10,MacIntel,60,61025ae37ef11b136ea224fe,,,,,,,,,3289,24.0032959,-65.03259277,1,0,0,response3disk,,4,19.44696045,-2.75994873,1,0,0,rectangle,19.44696045,-2.75994873,1,0,0,19.44696045,-2.75994873,1,0,0,0,152,152,154,1,,,,,,,,
,,,,,,,,,,,,,FF,,,,,,,,1.2683,,,,,,,,,,,,,,,,,,,,,,610361af7915c5f2c51a4983,61036bc50932c682af6e03c5,2021-07-29_22h09.12.519,Simcolourproject_2stim_asymm_v5,2020.2.10,MacIntel,60,61025ae37ef11b136ea224fe,,,,,,,,,2211,78.88970947,52.24859619,1,0,0,response1disk,,6,7.268005371,10.04394531,1,0,0,rectangle,7.268005371,10.04394531,1,0,0,7.268005371,10.04394531,1,0,0,0,153,153,152,1,,,,,,,,
,,,,,,,,,,,,,FF,,,,,,,,1.7659,,,,,,,,,,,,,,,,,,,,,,610361af7915c5f2c51a4983,61036bc50932c682af6e03c5,2021-07-29_22h09.12.519,Simcolourproject_2stim_asymm_v5,2020.2.10,MacIntel,60,61025ae37ef11b136ea224fe,,,,,,,,,3020,65.03137207,-47.55163574,1,0,0,response3disk,,5,23.71673584,3.485778809,1,0,0,rectangle,84.34820557,24.27420044,1,0,0,13.5736084,-3.466796875,1,0,0,0,154,154,16,1,,response1disk_3,TRUE,6,6,"[297,237,116,308,111,150,123,155,99,5,146,307,231,237,5,24,212,322,58,18]",1.8993,rectangle
,,,,,,,,,,,,,FF,,,,,,,,1.1499,,,,,,,,,,,,,,,,,,,,,,610361af7915c5f2c51a4983,61036bc50932c682af6e03c5,2021-07-29_22h09.12.519,Simcolourproject_2stim_asymm_v5,2020.2.10,MacIntel,60,61025ae37ef11b136ea224fe,,,,,,,,,969,-62.0647583,37.97052002,1,0,0,response7disk,,1,-11.97033691,-8.713775635,1,0,0,rectangle,-11.97033691,-8.713775635,1,0,0,-11.97033691,-8.713775635,1,0,0,0,155,155,71,1,,,,,,,,
,,,,,,,,,,,,,FF,,,,,,,,0.9862,,,,,,,,,,,,,,,,,,,,,,610361af7915c5f2c51a4983,61036bc50932c682af6e03c5,2021-07-29_22h09.12.519,Simcolourproject_2stim_asymm_v5,2020.2.10,MacIntel,60,61025ae37ef11b136ea224fe,,,,,,,,,4345,-68.99987793,21.28405762,1,0,0,response7disk,,1,-16.34094238,-0.951049805,1,0,0,rectangle,-16.34094238,-0.951049805,1,0,0,-16.34094238,-0.951049805,1,0,0,0,156,156,155,1,,,,,,,,
,,,,,,,,,,,,,FF,,,,,,,,1.0668,,,,,,,,,,,,,,,,,,,,,,610361af7915c5f2c51a4983,61036bc50932c682af6e03c5,2021-07-29_22h09.12.519,Simcolourproject_2stim_asymm_v5,2020.2.10,MacIntel,60,61025ae37ef11b136ea224fe,,,,,,,,,1841,-30.27764893,-57.79077148,1,0,0,response5disk,,3,-3.882507324,-6.351409912,1,0,0,rectangle,-3.882507324,-6.351409912,1,0,0,-3.882507324,-6.351409912,1,0,0,0,157,157,40,1,,,,,,,,
,,,,,,,,,,,,,FF,,,,,,,,0.8493,,,,,,,,,,,,,,,,,,,,,,610361af7915c5f2c51a4983,61036bc50932c682af6e03c5,2021-07-29_22h09.12.519,Simcolourproject_2stim_asymm_v5,2020.2.10,MacIntel,60,61025ae37ef11b136ea224fe,,,,,,,,,832,19.01727295,-54.55444336,1,0,0,response3disk,,4,6.780639648,-7.598632813,1,0,0,rectangle,6.780639648,-7.598632813,1,0,0,6.780639648,-7.598632813,1,0,0,0,158,158,83,1,,,,,,,,
,,,,,,,,,,,,,FF,,,,,,,,1.6019,,,,,,,,,,,,,,,,,,,,,,610361af7915c5f2c51a4983,61036bc50932c682af6e03c5,2021-07-29_22h09.12.519,Simcolourproject_2stim_asymm_v5,2020.2.10,MacIntel,60,61025ae37ef11b136ea224fe,,,,,,,,,3070,99.14385986,37.27557373,1,0,0,response1disk,,6,4.378234863,14.1472168,1,0,0,rectangle,4.378234863,14.1472168,1,0,0,4.378234863,14.1472168,1,0,0,0,159,159,139,1,,,,,,,,
,,,,,,,,,,,,,FF,,,,,,,,0.9998,,,,,,,,,,,,,,,,,,,,,,610361af7915c5f2c51a4983,61036bc50932c682af6e03c5,2021-07-29_22h09.12.519,Simcolourproject_2stim_asymm_v5,2020.2.10,MacIntel,60,61025ae37ef11b136ea224fe,,,,,,,,,561,63.97961426,-45.21401978,1,0,0,response3disk,,5,11.05651855,-11.84490967,1,0,0,rectangle,11.05651855,-11.84490967,1,0,0,11.05651855,-11.84490967,1,0,0,1,0,160,109,1,,,,,,,,
,,,,,,,,,,,,,FF,,,,,,,,0.717,,,,,,,,,,,,,,,,,,,,,,610361af7915c5f2c51a4983,61036bc50932c682af6e03c5,2021-07-29_22h09.12.519,Simcolourproject_2stim_asymm_v5,2020.2.10,MacIntel,60,61025ae37ef11b136ea224fe,,,,,,,,,3425,-26.34655762,71.91220093,1,0,0,response7disk,,0,5.297790527,0.167999268,1,0,0,rectangle,5.297790527,0.167999268,1,0,0,5.297790527,0.167999268,1,0,0,1,1,161,36,1,,,,,,,,
,,,,,,,,,,,,,FF,,,,,,,,1.4669,,,,,,,,,,,,,,,,,,,,,,610361af7915c5f2c51a4983,61036bc50932c682af6e03c5,2021-07-29_22h09.12.519,Simcolourproject_2stim_asymm_v5,2020.2.10,MacIntel,60,61025ae37ef11b136ea224fe,,,,,,,,,1171,54.83465576,-25.08209229,1,0,0,response3disk,,5,29.21588135,-4.369049072,1,0,0,rectangle,29.21588135,-4.369049072,1,0,0,29.21588135,-4.369049072,1,0,0,1,2,162,152,1,,,,,,,,
,,,,,,,,,,,,,FF,,,,,,,,0.633,,,,,,,,,,,,,,,,,,,,,,610361af7915c5f2c51a4983,61036bc50932c682af6e03c5,2021-07-29_22h09.12.519,Simcolourproject_2stim_asymm_v5,2020.2.10,MacIntel,60,61025ae37ef11b136ea224fe,,,,,,,,,1008,56.05859375,-29.30136108,1,0,0,response3disk,,5,11.90948486,-0.176696777,1,0,0,rectangle,11.90948486,-0.176696777,1,0,0,11.90948486,-0.176696777,1,0,0,1,3,163,3,1,,,,,,,,
,,,,,,,,,,,,,FF,,,,,,,,0.9013,,,,,,,,,,,,,,,,,,,,,,610361af7915c5f2c51a4983,61036bc50932c682af6e03c5,2021-07-29_22h09.12.519,Simcolourproject_2stim_asymm_v5,2020.2.10,MacIntel,60,61025ae37ef11b136ea224fe,,,,,,,,,489,34.91906738,-28.49942017,1,0,0,response3disk,,5,1.285705566,2.375915527,1,0,0,rectangle,1.285705566,2.375915527,1,0,0,1.285705566,2.375915527,1,0,0,1,4,164,0,1,,,,,,,,
,,,,,,,,,,,,,FF,,,,,,,,1.5663,,,,,,,,,,,,,,,,,,,,,,610361af7915c5f2c51a4983,61036bc50932c682af6e03c5,2021-07-29_22h09.12.519,Simcolourproject_2stim_asymm_v5,2020.2.10,MacIntel,60,61025ae37ef11b136ea224fe,,,,,,,,,596,82.01568604,40.65786743,1,0,0,response1disk,,6,19.9631958,4.401672363,1,0,0,rectangle,19.9631958,4.401672363,1,0,0,19.9631958,4.401672363,1,0,0,1,5,165,68,1,,,,,,,,
,,,,,,,,,,,,,FF,,,,,,,,1.6843,,,,,,,,,,,,,,,,,,,,,,610361af7915c5f2c51a4983,61036bc50932c682af6e03c5,2021-07-29_22h09.12.519,Simcolourproject_2stim_asymm_v5,2020.2.10,MacIntel,60,61025ae37ef11b136ea224fe,,,,,,,,,2565,23.79760742,-58.62121582,1,0,0,response3disk,,4,-0.956787109,-1.977935791,1,0,0,rectangle,-0.956787109,-1.977935791,1,0,0,-0.956787109,-1.977935791,1,0,0,1,6,166,77,1,,,,,,,,
,,,,,,,,,,,,,FF,,,,,,,,1.6825,,,,,,,,,,,,,,,,,,,,,,610361af7915c5f2c51a4983,61036bc50932c682af6e03c5,2021-07-29_22h09.12.519,Simcolourproject_2stim_asymm_v5,2020.2.10,MacIntel,60,61025ae37ef11b136ea224fe,,,,,,,,,1209,33.05273438,112.625061,1,0,0,response1disk,,7,7.401855469,10.41705322,1,0,0,rectangle,7.401855469,10.41705322,1,0,0,7.401855469,10.41705322,1,0,0,1,7,167,89,1,,,,,,,,
,,,,,,,,,,,,,FF,,,,,,,,0.7845,,,,,,,,,,,,,,,,,,,,,,610361af7915c5f2c51a4983,61036bc50932c682af6e03c5,2021-07-29_22h09.12.519,Simcolourproject_2stim_asymm_v5,2020.2.10,MacIntel,60,61025ae37ef11b136ea224fe,,,,,,,,,77,-15.15472412,60.39471436,1,0,0,response7disk,,0,2.53338623,-2.843353271,1,0,0,rectangle,2.53338623,-2.843353271,1,0,0,2.53338623,-2.843353271,1,0,0,1,8,168,7,1,,,,,,,,
,,,,,,,,,,,,,FF,,,,,,,,1.1012,,,,,,,,,,,,,,,,,,,,,,610361af7915c5f2c51a4983,61036bc50932c682af6e03c5,2021-07-29_22h09.12.519,Simcolourproject_2stim_asymm_v5,2020.2.10,MacIntel,60,61025ae37ef11b136ea224fe,,,,,,,,,1273,-40.56829834,-59.51293945,1,0,0,response5disk,,3,-2.759216309,-11.81689453,1,0,0,rectangle,-2.759216309,-11.81689453,1,0,0,-2.759216309,-11.81689453,1,0,0,1,9,169,61,1,,,,,,,,
,,,,,,,,,,,,,FF,,,,,,,,0.8492,,,,,,,,,,,,,,,,,,,,,,610361af7915c5f2c51a4983,61036bc50932c682af6e03c5,2021-07-29_22h09.12.519,Simcolourproject_2stim_asymm_v5,2020.2.10,MacIntel,60,61025ae37ef11b136ea224fe,,,,,,,,,1585,-36.1373291,-58.7989502,1,0,0,response5disk,,3,-0.430236816,-1.618347168,1,0,0,rectangle,-0.430236816,-1.618347168,1,0,0,-0.430236816,-1.618347168,1,0,0,1,10,170,87,1,,,,,,,,
,,,,,,,,,,,,,FF,,,,,,,,2.1667,,,,,,,,,,,,,,,,,,,,,,610361af7915c5f2c51a4983,61036bc50932c682af6e03c5,2021-07-29_22h09.12.519,Simcolourproject_2stim_asymm_v5,2020.2.10,MacIntel,60,61025ae37ef11b136ea224fe,,,,,,,,,3734,-34.46710205,-54.65710449,1,0,0,response5disk,,3,-16.8135376,-12.49023438,1,0,0,rectangle,-16.8135376,-12.49023438,1,0,0,-16.8135376,-12.49023438,1,0,0,1,11,171,58,1,,,,,,,,
,,,,,,,,,,,,,FF,,,,,,,,1.1498,,,,,,,,,,,,,,,,,,,,,,610361af7915c5f2c51a4983,61036bc50932c682af6e03c5,2021-07-29_22h09.12.519,Simcolourproject_2stim_asymm_v5,2020.2.10,MacIntel,60,61025ae37ef11b136ea224fe,,,,,,,,,3744,-61.39453125,38.86865234,1,0,0,response7disk,,1,-34.69586182,-3.69128418,1,0,0,rectangle,-34.69586182,-3.69128418,1,0,0,-34.69586182,-3.69128418,1,0,0,1,12,172,82,1,,,,,,,,
,,,,,,,,,,,,,FF,,,,,,,,0.782,,,,,,,,,,,,,,,,,,,,,,610361af7915c5f2c51a4983,61036bc50932c682af6e03c5,2021-07-29_22h09.12.519,Simcolourproject_2stim_asymm_v5,2020.2.10,MacIntel,60,61025ae37ef11b136ea224fe,,,,,,,,,1059,-74.16760254,-33.34216309,1,0,0,response5disk,,2,-0.987670898,3.204345703,1,0,0,rectangle,-0.987670898,3.204345703,1,0,0,-0.987670898,3.204345703,1,0,0,1,13,173,113,1,,,,,,,,
,,,,,,,,,,,,,FF,,,,,,,,1.0002,,,,,,,,,,,,,,,,,,,,,,610361af7915c5f2c51a4983,61036bc50932c682af6e03c5,2021-07-29_22h09.12.519,Simcolourproject_2stim_asymm_v5,2020.2.10,MacIntel,60,61025ae37ef11b136ea224fe,,,,,,,,,3751,-76.70440674,-38.51663208,1,0,0,response5disk,,2,2.088012695,-9.236877441,1,0,0,rectangle,2.088012695,-9.236877441,1,0,0,2.088012695,-9.236877441,1,0,0,1,14,174,91,1,,,,,,,,
,,,,,,,,,,,,,FF,,,,,,,,1.6339,,,,,,,,,,,,,,,,,,,,,,610361af7915c5f2c51a4983,61036bc50932c682af6e03c5,2021-07-29_22h09.12.519,Simcolourproject_2stim_asymm_v5,2020.2.10,MacIntel,60,61025ae37ef11b136ea224fe,,,,,,,,,2889,-62.24914551,-28.22509766,1,0,0,response5disk,,2,-15.39019775,-6.285003662,1,0,0,rectangle,-15.39019775,-6.285003662,1,0,0,-15.39019775,-6.285003662,1,0,0,1,15,175,42,1,,,,,,,,
,,,,,,,,,,,,,FF,,,,,,,,0.8833,,,,,,,,,,,,,,,,,,,,,,610361af7915c5f2c51a4983,61036bc50932c682af6e03c5,2021-07-29_22h09.12.519,Simcolourproject_2stim_asymm_v5,2020.2.10,MacIntel,60,61025ae37ef11b136ea224fe,,,,,,,,,299,41.1550293,-69.90673828,1,0,0,response3disk,,4,14.23834229,-6.35723877,1,0,0,rectangle,14.23834229,-6.35723877,1,0,0,14.23834229,-6.35723877,1,0,0,1,16,176,119,1,,,,,,,,
,,,,,,,,,,,,,FF,,,,,,,,0.9838,,,,,,,,,,,,,,,,,,,,,,610361af7915c5f2c51a4983,61036bc50932c682af6e03c5,2021-07-29_22h09.12.519,Simcolourproject_2stim_asymm_v5,2020.2.10,MacIntel,60,61025ae37ef11b136ea224fe,,,,,,,,,637,-39.03125,-61.40423584,1,0,0,response5disk,,3,-17.89996338,4.527679443,1,0,0,rectangle,-17.89996338,4.527679443,1,0,0,-17.89996338,4.527679443,1,0,0,1,17,177,151,1,,,,,,,,
,,,,,,,,,,,,,FF,,,,,,,,1.0343,,,,,,,,,,,,,,,,,,,,,,610361af7915c5f2c51a4983,61036bc50932c682af6e03c5,2021-07-29_22h09.12.519,Simcolourproject_2stim_asymm_v5,2020.2.10,MacIntel,60,61025ae37ef11b136ea224fe,,,,,,,,,3997,-41.27600098,-70.33654785,1,0,0,response5disk,,3,0.575683594,1.662414551,1,0,0,rectangle,0.575683594,1.662414551,1,0,0,0.575683594,1.662414551,1,0,0,1,18,178,69,1,,,,,,,,
,,,,,,,,,,,,,FF,,,,,,,,0.9495,,,,,,,,,,,,,,,,,,,,,,610361af7915c5f2c51a4983,61036bc50932c682af6e03c5,2021-07-29_22h09.12.519,Simcolourproject_2stim_asymm_v5,2020.2.10,MacIntel,60,61025ae37ef11b136ea224fe,,,,,,,,,2367,-35.87408447,-64.37445068,1,0,0,response5disk,,3,3.098632813,9.727783203,1,0,0,rectangle,3.098632813,9.727783203,1,0,0,3.098632813,9.727783203,1,0,0,1,19,179,123,1,,,,,,,,
,,,,,,,,,,,,,FF,,,,,,,,0.7509,,,,,,,,,,,,,,,,,,,,,,610361af7915c5f2c51a4983,61036bc50932c682af6e03c5,2021-07-29_22h09.12.519,Simcolourproject_2stim_asymm_v5,2020.2.10,MacIntel,60,61025ae37ef11b136ea224fe,,,,,,,,,3724,73.20294189,-35.07751465,1,0,0,response3disk,,5,33.56555176,3.537536621,1,0,0,rectangle,33.56555176,3.537536621,1,0,0,33.56555176,3.537536621,1,0,0,1,20,180,34,1,,,,,,,,
,,,,,,,,,,,,,FF,,,,,,,,1.8666,,,,,,,,,,,,,,,,,,,,,,610361af7915c5f2c51a4983,61036bc50932c682af6e03c5,2021-07-29_22h09.12.519,Simcolourproject_2stim_asymm_v5,2020.2.10,MacIntel,60,61025ae37ef11b136ea224fe,,,,,,,,,3456,71.3737793,-40.95715332,1,0,0,response3disk,,5,6.154052734,-11.3215332,1,0,0,rectangle,6.154052734,-11.3215332,1,0,0,6.154052734,-11.3215332,1,0,0,1,21,181,92,1,,,,,,,,
,,,,,,,,,,,,,FF,,,,,,,,1.2663,,,,,,,,,,,,,,,,,,,,,,610361af7915c5f2c51a4983,61036bc50932c682af6e03c5,2021-07-29_22h09.12.519,Simcolourproject_2stim_asymm_v5,2020.2.10,MacIntel,60,61025ae37ef11b136ea224fe,,,,,,,,,2331,53.27142334,87.11672974,1,0,0,response1disk,,7,1.50982666,-0.785217285,1,0,0,rectangle,1.50982666,-0.785217285,1,0,0,1.50982666,-0.785217285,1,0,0,1,22,182,118,1,,,,,,,,
,,,,,,,,,,,,,FF,,,,,,,,0.8497,,,,,,,,,,,,,,,,,,,,,,610361af7915c5f2c51a4983,61036bc50932c682af6e03c5,2021-07-29_22h09.12.519,Simcolourproject_2stim_asymm_v5,2020.2.10,MacIntel,60,61025ae37ef11b136ea224fe,,,,,,,,,2342,73.68243408,37.47344971,1,0,0,response1disk,,6,-2.181152344,3.78704834,1,0,0,rectangle,-2.181152344,3.78704834,1,0,0,-2.181152344,3.78704834,1,0,0,1,23,183,21,1,,,,,,,,
,,,,,,,,,,,,,FF,,,,,,,,2.3828,,,,,,,,,,,,,,,,,,,,,,610361af7915c5f2c51a4983,61036bc50932c682af6e03c5,2021-07-29_22h09.12.519,Simcolourproject_2stim_asymm_v5,2020.2.10,MacIntel,60,61025ae37ef11b136ea224fe,,,,,,,,,4154,95.76593018,-55.87963867,1,0,0,response3disk,,5,14.35333252,4.273254395,1,0,0,rectangle,14.35333252,4.273254395,1,0,0,14.35333252,4.273254395,1,0,0,1,24,184,53,1,,,,,,,,
,,,,,,,,,,,,,FF,,,,,,,,0.8842,,,,,,,,,,,,,,,,,,,,,,610361af7915c5f2c51a4983,61036bc50932c682af6e03c5,2021-07-29_22h09.12.519,Simcolourproject_2stim_asymm_v5,2020.2.10,MacIntel,60,61025ae37ef11b136ea224fe,,,,,,,,,4098,-35.32849121,-73.06481934,1,0,0,response5disk,,3,3.66583252,1.675567627,1,0,0,rectangle,3.66583252,1.675567627,1,0,0,3.66583252,1.675567627,1,0,0,1,25,185,19,1,,,,,,,,
,,,,,,,,,,,,,FF,,,,,,,,0.8834,,,,,,,,,,,,,,,,,,,,,,610361af7915c5f2c51a4983,61036bc50932c682af6e03c5,2021-07-29_22h09.12.519,Simcolourproject_2stim_asymm_v5,2020.2.10,MacIntel,60,61025ae37ef11b136ea224fe,,,,,,,,,411,107.9602051,-63.5390625,1,0,0,response3disk,,5,-6.240783691,-1.861968994,1,0,0,rectangle,-6.240783691,-1.861968994,1,0,0,-6.240783691,-1.861968994,1,0,0,1,26,186,20,1,,,,,,,,
,,,,,,,,,,,,,FF,,,,,,,,0.8337,,,,,,,,,,,,,,,,,,,,,,610361af7915c5f2c51a4983,61036bc50932c682af6e03c5,2021-07-29_22h09.12.519,Simcolourproject_2stim_asymm_v5,2020.2.10,MacIntel,60,61025ae37ef11b136ea224fe,,,,,,,,,3667,33.67712402,74.68121338,1,0,0,response1disk,,7,-7.735656738,0.138366699,1,0,0,rectangle,-7.735656738,0.138366699,1,0,0,-7.735656738,0.138366699,1,0,0,1,27,187,150,1,,,,,,,,
,,,,,,,,,,,,,FF,,,,,,,,2.1498,,,,,,,,,,,,,,,,,,,,,,610361af7915c5f2c51a4983,61036bc50932c682af6e03c5,2021-07-29_22h09.12.519,Simcolourproject_2stim_asymm_v5,2020.2.10,MacIntel,60,61025ae37ef11b136ea224fe,,,,,,,,,3458,69.41314697,57.85784912,1,0,0,response1disk,,6,-3.257202148,15.68469238,1,0,0,rectangle,-3.257202148,15.68469238,1,0,0,-3.257202148,15.68469238,1,0,0,1,28,188,75,1,,,,,,,,
,,,,,,,,,,,,,FF,,,,,,,,0.8824,,,,,,,,,,,,,,,,,,,,,,610361af7915c5f2c51a4983,61036bc50932c682af6e03c5,2021-07-29_22h09.12.519,Simcolourproject_2stim_asymm_v5,2020.2.10,MacIntel,60,61025ae37ef11b136ea224fe,,,,,,,,,3420,-65.93902588,37.37060547,1,0,0,response7disk,,1,-9.810974121,8.395568848,1,0,0,rectangle,-9.810974121,8.395568848,1,0,0,-9.810974121,8.395568848,1,0,0,1,29,189,84,1,,,,,,,,
,,,,,,,,,,,,,FF,,,,,,,,2.0503,,,,,,,,,,,,,,,,,,,,,,610361af7915c5f2c51a4983,61036bc50932c682af6e03c5,2021-07-29_22h09.12.519,Simcolourproject_2stim_asymm_v5,2020.2.10,MacIntel,60,61025ae37ef11b136ea224fe,,,,,,,,,597,34.71374512,-52.17333984,1,0,0,response3disk,,4,13.13098145,-8.342346191,1,0,0,rectangle,13.13098145,-8.342346191,1,0,0,13.13098145,-8.342346191,1,0,0,1,30,190,11,1,,,,,,,,
,,,,,,,,,,,,,FF,,,,,,,,0.8168,,,,,,,,,,,,,,,,,,,,,,610361af7915c5f2c51a4983,61036bc50932c682af6e03c5,2021-07-29_22h09.12.519,Simcolourproject_2stim_asymm_v5,2020.2.10,MacIntel,60,61025ae37ef11b136ea224fe,,,,,,,,,2541,-20.98217773,65.33685303,1,0,0,response7disk,,0,4.590393066,6.038146973,1,0,0,rectangle,4.590393066,6.038146973,1,0,0,4.590393066,6.038146973,1,0,0,1,31,191,38,1,,,,,,,,
,,,,,,,,,,,,,FF,,,,,,,,1.2672,,,,,,,,,,,,,,,,,,,,,,610361af7915c5f2c51a4983,61036bc50932c682af6e03c5,2021-07-29_22h09.12.519,Simcolourproject_2stim_asymm_v5,2020.2.10,MacIntel,60,61025ae37ef11b136ea224fe,,,,,,,,,3975,-41.22784424,-87.78491211,1,0,0,response5disk,,3,2.866577148,8.342407227,1,0,0,rectangle,2.866577148,8.342407227,1,0,0,2.866577148,8.342407227,1,0,0,1,32,192,145,1,,,,,,,,
,,,,,,,,,,,,,FF,,,,,,,,0.9169,,,,,,,,,,,,,,,,,,,,,,610361af7915c5f2c51a4983,61036bc50932c682af6e03c5,2021-07-29_22h09.12.519,Simcolourproject_2stim_asymm_v5,2020.2.10,MacIntel,60,61025ae37ef11b136ea224fe,,,,,,,,,1406,63.78015137,-25.08422852,1,0,0,response3disk,,5,7.092407227,7.1222229,1,0,0,rectangle,7.092407227,7.1222229,1,0,0,7.092407227,7.1222229,1,0,0,1,33,193,6,1,,,,,,,,
,,,,,,,,,,,,,FF,,,,,,,,0.851,,,,,,,,,,,,,,,,,,,,,,610361af7915c5f2c51a4983,61036bc50932c682af6e03c5,2021-07-29_22h09.12.519,Simcolourproject_2stim_asymm_v5,2020.2.10,MacIntel,60,61025ae37ef11b136ea224fe,,,,,,,,,3695,64.55761719,41.64770508,1,0,0,response1disk,,6,1.903015137,7.483703613,1,0,0,rectangle,1.903015137,7.483703613,1,0,0,1.903015137,7.483703613,1,0,0,1,34,194,149,1,,,,,,,,
,,,,,,,,,,,,,FF,,,,,,,,0.9171,,,,,,,,,,,,,,,,,,,,,,610361af7915c5f2c51a4983,61036bc50932c682af6e03c5,2021-07-29_22h09.12.519,Simcolourproject_2stim_asymm_v5,2020.2.10,MacIntel,60,61025ae37ef11b136ea224fe,,,,,,,,,3756,42.66918945,77.54238892,1,0,0,response1disk,,7,-3.720031738,4.329071045,1,0,0,rectangle,-3.720031738,4.329071045,1,0,0,-3.720031738,4.329071045,1,0,0,1,35,195,48,1,,,,,,,,
,,,,,,,,,,,,,FF,,,,,,,,1.2156,,,,,,,,,,,,,,,,,,,,,,610361af7915c5f2c51a4983,61036bc50932c682af6e03c5,2021-07-29_22h09.12.519,Simcolourproject_2stim_asymm_v5,2020.2.10,MacIntel,60,61025ae37ef11b136ea224fe,,,,,,,,,4013,70.19348145,-42.15231323,1,0,0,response3disk,,5,6.046630859,2.292358398,1,0,0,rectangle,6.046630859,2.292358398,1,0,0,6.046630859,2.292358398,1,0,0,1,36,196,74,1,,,,,,,,
,,,,,,,,,,,,,FF,,,,,,,,0.7495,,,,,,,,,,,,,,,,,,,,,,610361af7915c5f2c51a4983,61036bc50932c682af6e03c5,2021-07-29_22h09.12.519,Simcolourproject_2stim_asymm_v5,2020.2.10,MacIntel,60,61025ae37ef11b136ea224fe,,,,,,,,,4326,-30.62628174,87.38375854,1,0,0,response7disk,,0,-2.304077148,7.330627441,1,0,0,rectangle,-2.304077148,7.330627441,1,0,0,-2.304077148,7.330627441,1,0,0,1,37,197,67,1,,,,,,,,
,,,,,,,,,,,,,FF,,,,,,,,1.1497,,,,,,,,,,,,,,,,,,,,,,610361af7915c5f2c51a4983,61036bc50932c682af6e03c5,2021-07-29_22h09.12.519,Simcolourproject_2stim_asymm_v5,2020.2.10,MacIntel,60,61025ae37ef11b136ea224fe,,,,,,,,,1025,31.47900391,-53.70880127,1,0,0,response3disk,,4,15.12200928,-8.630004883,1,0,0,rectangle,15.12200928,-8.630004883,1,0,0,15.12200928,-8.630004883,1,0,0,1,38,198,80,1,,,,,,,,
,,,,,,,,,,,,,FF,,,,,,,,1.9846,,,,,,,,,,,,,,,,,,,,,,610361af7915c5f2c51a4983,61036bc50932c682af6e03c5,2021-07-29_22h09.12.519,Simcolourproject_2stim_asymm_v5,2020.2.10,MacIntel,60,61025ae37ef11b136ea224fe,,,,,,,,,3055,-44.77081299,-79.03997803,1,0,0,response5disk,,3,-17.71099854,-1.116210938,1,0,0,rectangle,-17.71099854,-1.116210938,1,0,0,-17.71099854,-1.116210938,1,0,0,1,39,199,131,1,,,,,,,,
,,,,,,,,,,,,,FF,,,,,,,,1.1669,,,,,,,,,,,,,,,,,,,,,,610361af7915c5f2c51a4983,61036bc50932c682af6e03c5,2021-07-29_22h09.12.519,Simcolourproject_2stim_asymm_v5,2020.2.10,MacIntel,60,61025ae37ef11b136ea224fe,,,,,,,,,21,-28.04846191,-50.40533447,1,0,0,response5disk,,3,3.972229004,8.8855896,1,0,0,rectangle,3.972229004,8.8855896,1,0,0,3.972229004,8.8855896,1,0,0,1,40,200,81,1,,,,,,,,
,,,,,,,,,,,,,FF,,,,,,,,0.9333,,,,,,,,,,,,,,,,,,,,,,610361af7915c5f2c51a4983,61036bc50932c682af6e03c5,2021-07-29_22h09.12.519,Simcolourproject_2stim_asymm_v5,2020.2.10,MacIntel,60,61025ae37ef11b136ea224fe,,,,,,,,,1761,-29.88983154,-58.7019043,1,0,0,response5disk,,3,6.128601074,-9.218994141,1,0,0,rectangle,6.128601074,-9.218994141,1,0,0,6.128601074,-9.218994141,1,0,0,1,41,201,99,1,,,,,,,,
,,,,,,,,,,,,,FF,,,,,,,,1.7006,,,,,,,,,,,,,,,,,,,,,,610361af7915c5f2c51a4983,61036bc50932c682af6e03c5,2021-07-29_22h09.12.519,Simcolourproject_2stim_asymm_v5,2020.2.10,MacIntel,60,61025ae37ef11b136ea224fe,,,,,,,,,1347,44.12371826,-81.02227783,1,0,0,response3disk,,4,0.604370117,10.77444458,1,0,0,rectangle,0.604370117,10.77444458,1,0,0,0.604370117,10.77444458,1,0,0,1,42,202,96,1,,,,,,,,
,,,,,,,,,,,,,FF,,,,,,,,0.9004,,,,,,,,,,,,,,,,,,,,,,610361af7915c5f2c51a4983,61036bc50932c682af6e03c5,2021-07-29_22h09.12.519,Simcolourproject_2stim_asymm_v5,2020.2.10,MacIntel,60,61025ae37ef11b136ea224fe,,,,,,,,,3800,107.0053711,46.49121094,1,0,0,response1disk,,6,1.559753418,4.388885498,1,0,0,rectangle,1.559753418,4.388885498,1,0,0,1.559753418,4.388885498,1,0,0,1,43,203,138,1,,,,,,,,
,,,,,,,,,,,,,FF,,,,,,,,1.1483,,,,,,,,,,,,,,,,,,,,,,610361af7915c5f2c51a4983,61036bc50932c682af6e03c5,2021-07-29_22h09.12.519,Simcolourproject_2stim_asymm_v5,2020.2.10,MacIntel,60,61025ae37ef11b136ea224fe,,,,,,,,,1476,77.6763916,-44.89105225,1,0,0,response3disk,,5,27.01531982,-13.71749878,1,0,0,rectangle,27.01531982,-13.71749878,1,0,0,27.01531982,-13.71749878,1,0,0,1,44,204,41,1,,,,,,,,
,,,,,,,,,,,,,FF,,,,,,,,1.3505,,,,,,,,,,,,,,,,,,,,,,610361af7915c5f2c51a4983,61036bc50932c682af6e03c5,2021-07-29_22h09.12.519,Simcolourproject_2stim_asymm_v5,2020.2.10,MacIntel,60,61025ae37ef11b136ea224fe,,,,,,,,,1183,48.33435059,34.1217041,1,0,0,response1disk,,6,1.212280273,3.876342773,1,0,0,rectangle,1.212280273,3.876342773,1,0,0,1.212280273,3.876342773,1,0,0,1,45,205,124,1,,,,,,,,
,,,,,,,,,,,,,FF,,,,,,,,2.2154,,,,,,,,,,,,,,,,,,,,,,610361af7915c5f2c51a4983,61036bc50932c682af6e03c5,2021-07-29_22h09.12.519,Simcolourproject_2stim_asymm_v5,2020.2.10,MacIntel,60,61025ae37ef11b136ea224fe,,,,,,,,,1977,58.35223389,-66.1427002,1,0,0,response3disk,,4,22.21020508,-6.600524902,1,0,0,rectangle,22.21020508,-6.600524902,1,0,0,22.21020508,-6.600524902,1,0,0,1,46,206,104,1,,,,,,,,
,,,,,,,,,,,,,FF,,,,,,,,0.9844,,,,,,,,,,,,,,,,,,,,,,610361af7915c5f2c51a4983,61036bc50932c682af6e03c5,2021-07-29_22h09.12.519,Simcolourproject_2stim_asymm_v5,2020.2.10,MacIntel,60,61025ae37ef11b136ea224fe,,,,,,,,,3270,92.20898438,-48.81787109,1,0,0,response3disk,,5,18.52154541,5.501037598,1,0,0,rectangle,18.52154541,5.501037598,1,0,0,18.52154541,5.501037598,1,0,0,1,47,207,135,1,,,,,,,,
,,,,,,,,,,,,,FF,,,,,,,,1.0172,,,,,,,,,,,,,,,,,,,,,,610361af7915c5f2c51a4983,61036bc50932c682af6e03c5,2021-07-29_22h09.12.519,Simcolourproject_2stim_asymm_v5,2020.2.10,MacIntel,60,61025ae37ef11b136ea224fe,,,,,,,,,3341,-71.43615723,-46.57620239,1,0,0,response5disk,,2,2.700012207,-13.46047974,1,0,0,rectangle,2.700012207,-13.46047974,1,0,0,2.700012207,-13.46047974,1,0,0,1,48,208,132,1,,,,,,,,
,,,,,,,,,,,,,FF,,,,,,,,0.8003,,,,,,,,,,,,,,,,,,,,,,610361af7915c5f2c51a4983,61036bc50932c682af6e03c5,2021-07-29_22h09.12.519,Simcolourproject_2stim_asymm_v5,2020.2.10,MacIntel,60,61025ae37ef11b136ea224fe,,,,,,,,,1029,-28.52185059,-68.57891846,1,0,0,response5disk,,3,13.88525391,-6.23840332,1,0,0,rectangle,13.88525391,-6.23840332,1,0,0,13.88525391,-6.23840332,1,0,0,1,49,209,31,1,,,,,,,,
,,,,,,,,,,,,,FF,,,,,,,,1.0663,,,,,,,,,,,,,,,,,,,,,,610361af7915c5f2c51a4983,61036bc50932c682af6e03c5,2021-07-29_22h09.12.519,Simcolourproject_2stim_asymm_v5,2020.2.10,MacIntel,60,61025ae37ef11b136ea224fe,,,,,,,,,644,-60.54412842,-48.7253418,1,0,0,response5disk,,2,-1.000915527,5.392272949,1,0,0,rectangle,-1.000915527,5.392272949,1,0,0,-1.000915527,5.392272949,1,0,0,1,50,210,86,1,,,,,,,,
,,,,,,,,,,,,,FF,,,,,,,,1.0842,,,,,,,,,,,,,,,,,,,,,,610361af7915c5f2c51a4983,61036bc50932c682af6e03c5,2021-07-29_22h09.12.519,Simcolourproject_2stim_asymm_v5,2020.2.10,MacIntel,60,61025ae37ef11b136ea224fe,,,,,,,,,2430,45.61761475,-65.19628906,1,0,0,response3disk,,4,11.81115723,4.419952393,1,0,0,rectangle,93.23309326,34.60540771,1,0,0,16.63000488,7.223327637,1,0,0,1,51,211,1,1,,response1disk_3,TRUE,6,6,"[297,237,116,308,111,150,123,155,99,5,146,307,231,237,5,24,212,322,58,18]",2.4508,rectangle
,,,,,,,,,,,,,FF,,,,,,,,1.9663,,,,,,,,,,,,,,,,,,,,,,610361af7915c5f2c51a4983,61036bc50932c682af6e03c5,2021-07-29_22h09.12.519,Simcolourproject_2stim_asymm_v5,2020.2.10,MacIntel,60,61025ae37ef11b136ea224fe,,,,,,,,,2458,82.38079834,40.78265381,1,0,0,response1disk,,6,2.270385742,-2.898620605,1,0,0,rectangle,2.270385742,-2.898620605,1,0,0,2.270385742,-2.898620605,1,0,0,1,52,212,4,1,,,,,,,,
,,,,,,,,,,,,,FF,,,,,,,,1.0835,,,,,,,,,,,,,,,,,,,,,,610361af7915c5f2c51a4983,61036bc50932c682af6e03c5,2021-07-29_22h09.12.519,Simcolourproject_2stim_asymm_v5,2020.2.10,MacIntel,60,61025ae37ef11b136ea224fe,,,,,,,,,4364,-82.74407959,17.35479736,1,0,0,response7disk,,1,-6.038696289,-2.898864746,1,0,0,rectangle,-6.038696289,-2.898864746,1,0,0,-6.038696289,-2.898864746,1,0,0,1,53,213,126,1,,,,,,,,
,,,,,,,,,,,,,FF,,,,,,,,1.3007,,,,,,,,,,,,,,,,,,,,,,610361af7915c5f2c51a4983,61036bc50932c682af6e03c5,2021-07-29_22h09.12.519,Simcolourproject_2stim_asymm_v5,2020.2.10,MacIntel,60,61025ae37ef11b136ea224fe,,,,,,,,,2137,103.7530518,-30.10284424,1,0,0,response3disk,,5,15.34136963,4.691101074,1,0,0,rectangle,15.34136963,4.691101074,1,0,0,15.34136963,4.691101074,1,0,0,1,54,214,128,1,,,,,,,,
,,,,,,,,,,,,,FF,,,,,,,,2.1651,,,,,,,,,,,,,,,,,,,,,,610361af7915c5f2c51a4983,61036bc50932c682af6e03c5,2021-07-29_22h09.12.519,Simcolourproject_2stim_asymm_v5,2020.2.10,MacIntel,60,61025ae37ef11b136ea224fe,,,,,,,,,2017,95.92828369,36.77706909,1,0,0,response1disk,,6,11.45269775,2.523803711,1,0,0,rectangle,11.45269775,2.523803711,1,0,0,11.45269775,2.523803711,1,0,0,1,55,215,78,1,,,,,,,,
,,,,,,,,,,,,,FF,,,,,,,,1.5344,,,,,,,,,,,,,,,,,,,,,,610361af7915c5f2c51a4983,61036bc50932c682af6e03c5,2021-07-29_22h09.12.519,Simcolourproject_2stim_asymm_v5,2020.2.10,MacIntel,60,61025ae37ef11b136ea224fe,,,,,,,,,3367,74.92089844,-36.65551758,1,0,0,response3disk,,5,1.094543457,-9.551635742,1,0,0,rectangle,1.094543457,-9.551635742,1,0,0,1.094543457,-9.551635742,1,0,0,1,56,216,5,1,,,,,,,,
,,,,,,,,,,,,,FF,,,,,,,,1.033,,,,,,,,,,,,,,,,,,,,,,610361af7915c5f2c51a4983,61036bc50932c682af6e03c5,2021-07-29_22h09.12.519,Simcolourproject_2stim_asymm_v5,2020.2.10,MacIntel,60,61025ae37ef11b136ea224fe,,,,,,,,,1267,-40.14868164,-56.73660278,1,0,0,response5disk,,3,-5.386169434,-5.207580566,1,0,0,rectangle,-5.386169434,-5.207580566,1,0,0,-5.386169434,-5.207580566,1,0,0,1,57,217,56,1,,,,,,,,
,,,,,,,,,,,,,FF,,,,,,,,0.8833,,,,,,,,,,,,,,,,,,,,,,610361af7915c5f2c51a4983,61036bc50932c682af6e03c5,2021-07-29_22h09.12.519,Simcolourproject_2stim_asymm_v5,2020.2.10,MacIntel,60,61025ae37ef11b136ea224fe,,,,,,,,,1093,62.24664307,-40.45126343,1,0,0,response3disk,,5,9.317993164,-6.86328125,1,0,0,rectangle,9.317993164,-6.86328125,1,0,0,9.317993164,-6.86328125,1,0,0,1,58,218,102,1,,,,,,,,
,,,,,,,,,,,,,FF,,,,,,,,1.6333,,,,,,,,,,,,,,,,,,,,,,610361af7915c5f2c51a4983,61036bc50932c682af6e03c5,2021-07-29_22h09.12.519,Simcolourproject_2stim_asymm_v5,2020.2.10,MacIntel,60,61025ae37ef11b136ea224fe,,,,,,,,,3513,-71.11590576,-26.28192139,1,0,0,response5disk,,2,-24.44195557,-9.801147461,1,0,0,rectangle,-24.44195557,-9.801147461,1,0,0,-24.44195557,-9.801147461,1,0,0,1,59,219,17,1,,,,,,,,
,,,,,,,,,,,,,FF,,,,,,,,2.4012,,,,,,,,,,,,,,,,,,,,,,610361af7915c5f2c51a4983,61036bc50932c682af6e03c5,2021-07-29_22h09.12.519,Simcolourproject_2stim_asymm_v5,2020.2.10,MacIntel,60,61025ae37ef11b136ea224fe,,,,,,,,,2236,22.1663208,-59.43637085,1,0,0,response3disk,,4,4.741516113,-13.92687988,1,0,0,rectangle,4.741516113,-13.92687988,1,0,0,4.741516113,-13.92687988,1,0,0,1,60,220,45,1,,,,,,,,
,,,,,,,,,,,,,FF,,,,,,,,0.9838,,,,,,,,,,,,,,,,,,,,,,610361af7915c5f2c51a4983,61036bc50932c682af6e03c5,2021-07-29_22h09.12.519,Simcolourproject_2stim_asymm_v5,2020.2.10,MacIntel,60,61025ae37ef11b136ea224fe,,,,,,,,,2616,-34.76635742,-68.49688721,1,0,0,response5disk,,3,18.04748535,0.635681152,1,0,0,rectangle,18.04748535,0.635681152,1,0,0,18.04748535,0.635681152,1,0,0,1,61,221,154,1,,,,,,,,
,,,,,,,,,,,,,FF,,,,,,,,1.5001,,,,,,,,,,,,,,,,,,,,,,610361af7915c5f2c51a4983,61036bc50932c682af6e03c5,2021-07-29_22h09.12.519,Simcolourproject_2stim_asymm_v5,2020.2.10,MacIntel,60,61025ae37ef11b136ea224fe,,,,,,,,,1452,-79.14111328,-23.01971436,1,0,0,response5disk,,2,-11.92376709,11.17028809,1,0,0,rectangle,-11.92376709,11.17028809,1,0,0,-11.92376709,11.17028809,1,0,0,1,62,222,65,1,,,,,,,,
,,,,,,,,,,,,,FF,,,,,,,,1.0498,,,,,,,,,,,,,,,,,,,,,,610361af7915c5f2c51a4983,61036bc50932c682af6e03c5,2021-07-29_22h09.12.519,Simcolourproject_2stim_asymm_v5,2020.2.10,MacIntel,60,61025ae37ef11b136ea224fe,,,,,,,,,2573,59.17401123,-21.60577393,1,0,0,response3disk,,5,21.95202637,-5.264953613,1,0,0,rectangle,21.95202637,-5.264953613,1,0,0,21.95202637,-5.264953613,1,0,0,1,63,223,117,1,,,,,,,,
,,,,,,,,,,,,,FF,,,,,,,,0.8337,,,,,,,,,,,,,,,,,,,,,,610361af7915c5f2c51a4983,61036bc50932c682af6e03c5,2021-07-29_22h09.12.519,Simcolourproject_2stim_asymm_v5,2020.2.10,MacIntel,60,61025ae37ef11b136ea224fe,,,,,,,,,2437,51.78759766,-72.33764648,1,0,0,response3disk,,4,20.99121094,1.530212402,1,0,0,rectangle,20.99121094,1.530212402,1,0,0,20.99121094,1.530212402,1,0,0,1,64,224,122,1,,,,,,,,
,,,,,,,,,,,,,FF,,,,,,,,1.2505,,,,,,,,,,,,,,,,,,,,,,610361af7915c5f2c51a4983,61036bc50932c682af6e03c5,2021-07-29_22h09.12.519,Simcolourproject_2stim_asymm_v5,2020.2.10,MacIntel,60,61025ae37ef11b136ea224fe,,,,,,,,,2874,34.61517334,-59.51690674,1,0,0,response3disk,,4,8.408874512,-1.256835938,1,0,0,rectangle,8.408874512,-1.256835938,1,0,0,8.408874512,-1.256835938,1,0,0,1,65,225,136,1,,,,,,,,
,,,,,,,,,,,,,FF,,,,,,,,1.1657,,,,,,,,,,,,,,,,,,,,,,610361af7915c5f2c51a4983,61036bc50932c682af6e03c5,2021-07-29_22h09.12.519,Simcolourproject_2stim_asymm_v5,2020.2.10,MacIntel,60,61025ae37ef11b136ea224fe,,,,,,,,,2510,60.38287354,-32.05358887,1,0,0,response3disk,,5,14.58032227,-2.393280029,1,0,0,rectangle,14.58032227,-2.393280029,1,0,0,14.58032227,-2.393280029,1,0,0,1,66,226,112,1,,,,,,,,
,,,,,,,,,,,,,FF,,,,,,,,1.017,,,,,,,,,,,,,,,,,,,,,,610361af7915c5f2c51a4983,61036bc50932c682af6e03c5,2021-07-29_22h09.12.519,Simcolourproject_2stim_asymm_v5,2020.2.10,MacIntel,60,61025ae37ef11b136ea224fe,,,,,,,,,1132,-72.91876221,-24.71975708,1,0,0,response5disk,,2,-7.12121582,-6.090606689,1,0,0,rectangle,-7.12121582,-6.090606689,1,0,0,-7.12121582,-6.090606689,1,0,0,1,67,227,139,1,,,,,,,,
,,,,,,,,,,,,,FF,,,,,,,,0.768,,,,,,,,,,,,,,,,,,,,,,610361af7915c5f2c51a4983,61036bc50932c682af6e03c5,2021-07-29_22h09.12.519,Simcolourproject_2stim_asymm_v5,2020.2.10,MacIntel,60,61025ae37ef11b136ea224fe,,,,,,,,,2039,-57.72113037,-23.2109375,1,0,0,response5disk,,2,-8.621154785,-10.2713623,1,0,0,rectangle,-8.621154785,-10.2713623,1,0,0,-8.621154785,-10.2713623,1,0,0,1,68,228,72,1,,,,,,,,
,,,,,,,,,,,,,FF,,,,,,,,1.7823,,,,,,,,,,,,,,,,,,,,,,610361af7915c5f2c51a4983,61036bc50932c682af6e03c5,2021-07-29_22h09.12.519,Simcolourproject_2stim_asymm_v5,2020.2.10,MacIntel,60,61025ae37ef11b136ea224fe,,,,,,,,,4070,82.09100342,44.74227905,1,0,0,response1disk,,6,22.56225586,-6.958251953,1,0,0,rectangle,22.56225586,-6.958251953,1,0,0,22.56225586,-6.958251953,1,0,0,1,69,229,111,1,,,,,,,,
,,,,,,,,,,,,,FF,,,,,,,,1.5172,,,,,,,,,,,,,,,,,,,,,,610361af7915c5f2c51a4983,61036bc50932c682af6e03c5,2021-07-29_22h09.12.519,Simcolourproject_2stim_asymm_v5,2020.2.10,MacIntel,60,61025ae37ef11b136ea224fe,,,,,,,,,586,96.47528076,54.690979,1,0,0,response1disk,,6,9.636169434,12.30780029,1,0,0,rectangle,-88.62145996,42.1338501,1,0,0,6.402404785,16.21606445,1,0,0,1,70,230,18,1,,response7disk_3,TRUE,1,1,"[297,237,116,308,111,150,123,155,99,5,146,307,231,237,5,24,212,322,58,18]",1.6337,rectangle
,,,,,,,,,,,,,FF,,,,,,,,1.0166,,,,,,,,,,,,,,,,,,,,,,610361af7915c5f2c51a4983,61036bc50932c682af6e03c5,2021-07-29_22h09.12.519,Simcolourproject_2stim_asymm_v5,2020.2.10,MacIntel,60,61025ae37ef11b136ea224fe,,,,,,,,,200,-24.60601807,-41.10424805,1,0,0,response5disk,,3,3.570678711,3.402526855,1,0,0,rectangle,3.570678711,3.402526855,1,0,0,3.570678711,3.402526855,1,0,0,1,71,231,32,1,,,,,,,,
,,,,,,,,,,,,,FF,,,,,,,,1.3499,,,,,,,,,,,,,,,,,,,,,,610361af7915c5f2c51a4983,61036bc50932c682af6e03c5,2021-07-29_22h09.12.519,Simcolourproject_2stim_asymm_v5,2020.2.10,MacIntel,60,61025ae37ef11b136ea224fe,,,,,,,,,386,34.18798828,-59.41125488,1,0,0,response3disk,,4,2.618347168,-5.939025879,1,0,0,rectangle,2.618347168,-5.939025879,1,0,0,2.618347168,-5.939025879,1,0,0,1,72,232,140,1,,,,,,,,
,,,,,,,,,,,,,FF,,,,,,,,1.7875,,,,,,,,,,,,,,,,,,,,,,610361af7915c5f2c51a4983,61036bc50932c682af6e03c5,2021-07-29_22h09.12.519,Simcolourproject_2stim_asymm_v5,2020.2.10,MacIntel,60,61025ae37ef11b136ea224fe,,,,,,,,,273,31.11010742,-59.96453857,1,0,0,response3disk,,4,14.38336182,-14.40240479,1,0,0,rectangle,14.38336182,-14.40240479,1,0,0,14.38336182,-14.40240479,1,0,0,1,73,233,103,1,,,,,,,,
,,,,,,,,,,,,,FF,,,,,,,,0.8666,,,,,,,,,,,,,,,,,,,,,,610361af7915c5f2c51a4983,61036bc50932c682af6e03c5,2021-07-29_22h09.12.519,Simcolourproject_2stim_asymm_v5,2020.2.10,MacIntel,60,61025ae37ef11b136ea224fe,,,,,,,,,3718,61.64117432,-30.00543213,1,0,0,response3disk,,5,8.451782227,13.27075195,1,0,0,rectangle,8.451782227,13.27075195,1,0,0,8.451782227,13.27075195,1,0,0,1,74,234,83,1,,,,,,,,
,,,,,,,,,,,,,FF,,,,,,,,0.9999,,,,,,,,,,,,,,,,,,,,,,610361af7915c5f2c51a4983,61036bc50932c682af6e03c5,2021-07-29_22h09.12.519,Simcolourproject_2stim_asymm_v5,2020.2.10,MacIntel,60,61025ae37ef11b136ea224fe,,,,,,,,,1149,28.71697998,-61.22686768,1,0,0,response3disk,,4,16.48687744,-3.482177734,1,0,0,rectangle,16.48687744,-3.482177734,1,0,0,16.48687744,-3.482177734,1,0,0,1,75,235,28,1,,,,,,,,
,,,,,,,,,,,,,FF,,,,,,,,0.9165,,,,,,,,,,,,,,,,,,,,,,610361af7915c5f2c51a4983,61036bc50932c682af6e03c5,2021-07-29_22h09.12.519,Simcolourproject_2stim_asymm_v5,2020.2.10,MacIntel,60,61025ae37ef11b136ea224fe,,,,,,,,,85,38.05358887,44.347229,1,0,0,response1disk,,7,-1.501159668,-11.84268188,1,0,0,rectangle,-92.13183594,34.49502563,1,0,0,1.489868164,6.900390625,1,0,0,1,76,236,49,1,,response7disk_3,TRUE,1,1,"[297,237,116,308,111,150,123,155,99,5,146,307,231,237,5,24,212,322,58,18]",1.5162,rectangle
,,,,,,,,,,,,,FF,,,,,,,,0.8843,,,,,,,,,,,,,,,,,,,,,,610361af7915c5f2c51a4983,61036bc50932c682af6e03c5,2021-07-29_22h09.12.519,Simcolourproject_2stim_asymm_v5,2020.2.10,MacIntel,60,61025ae37ef11b136ea224fe,,,,,,,,,3148,-59.71893311,28.73864746,1,0,0,response7disk,,1,-6.476745605,-0.631469727,1,0,0,rectangle,-6.476745605,-0.631469727,1,0,0,-6.476745605,-0.631469727,1,0,0,1,77,237,12,1,,,,,,,,
,,,,,,,,,,,,,FF,,,,,,,,1.9655,,,,,,,,,,,,,,,,,,,,,,610361af7915c5f2c51a4983,61036bc50932c682af6e03c5,2021-07-29_22h09.12.519,Simcolourproject_2stim_asymm_v5,2020.2.10,MacIntel,60,61025ae37ef11b136ea224fe,,,,,,,,,3464,79.22814941,-58.19805908,1,0,0,response3disk,,5,11.68682861,-4.387969971,1,0,0,rectangle,11.68682861,-4.387969971,1,0,0,11.68682861,-4.387969971,1,0,0,1,78,238,40,1,,,,,,,,
,,,,,,,,,,,,,FF,,,,,,,,1.5987,,,,,,,,,,,,,,,,,,,,,,610361af7915c5f2c51a4983,61036bc50932c682af6e03c5,2021-07-29_22h09.12.519,Simcolourproject_2stim_asymm_v5,2020.2.10,MacIntel,60,61025ae37ef11b136ea224fe,,,,,,,,,4194,46.77392578,-79.96099854,1,0,0,response3disk,,4,16.91046143,-5.215515137,1,0,0,rectangle,16.91046143,-5.215515137,1,0,0,16.91046143,-5.215515137,1,0,0,1,79,239,25,1,,,,,,,,
,,,,,,,,,,,,,FF,,,,,,,,0.8826,,,,,,,,,,,,,,,,,,,,,,610361af7915c5f2c51a4983,61036bc50932c682af6e03c5,2021-07-29_22h09.12.519,Simcolourproject_2stim_asymm_v5,2020.2.10,MacIntel,60,61025ae37ef11b136ea224fe,,,,,,,,,0,-26.605896,61.13995361,1,0,0,response7disk,,0,3.209716797,8.491455078,1,0,0,rectangle,3.209716797,8.491455078,1,0,0,3.209716797,8.491455078,1,0,0,1,80,240,27,1,,,,,,,,
