key_resp.keys,key_resp.rt,key_resp_14.keys,key_resp_14.rt,key_resp_15.keys,key_resp_15.rt,key_resp_17.keys,key_resp_17.rt,key_resp_9.keys,key_resp_9.rt,key_resp_10.keys,key_resp_10.rt,practice_comparison,Ecc,mouse_5.x,mouse_5.y,mouse_5.leftButton,mouse_5.midButton,mouse_5.rightButton,mouse_5.clicked_name,pracsimilarity,response_time,mouse_10.x,mouse_10.y,mouse_10.leftButton,mouse_10.midButton,mouse_10.rightButton,mouse_10.clicked_name,mouse_7.x,mouse_7.y,mouse_7.leftButton,mouse_7.midButton,mouse_7.rightButton,mouse_6.x,mouse_6.y,mouse_6.leftButton,mouse_6.midButton,mouse_6.rightButton,duringprac.thisRepN,duringprac.thisTrialN,duringprac.thisN,duringprac.thisIndex,duringprac.ran,participant,session,date,expName,psychopyVersion,OS,frameRate,study_id,mouse_7.clicked_name,catchpracsimilarity,catch_response_time,catchnumberprac,catchtrialorderprac,mouse_6.clicked_name,key_resp_22.keys,key_resp_22.rt,realcomparison,mouse.x,mouse.y,mouse.leftButton,mouse.midButton,mouse.rightButton,mouse.clicked_name,Colour2,similarity,mouse_2.x,mouse_2.y,mouse_2.leftButton,mouse_2.midButton,mouse_2.rightButton,mouse_2.clicked_name,mouse_3.x,mouse_3.y,mouse_3.leftButton,mouse_3.midButton,mouse_3.rightButton,mouse_11.x,mouse_11.y,mouse_11.leftButton,mouse_11.midButton,mouse_11.rightButton,trials_2.thisRepN,trials_2.thisTrialN,trials_2.thisN,trials_2.thisIndex,trials_2.ran,Colour1,mouse_3.clicked_name,catchornah,catchsimilarity,catchnumber,catchtrialorder,catchRT,mouse_11.clicked_name
space,2.4106,space,13.6688,space,20.0823,space,6.6383,space,1.373,space,2.9921,112,PF,-75.12744141,31.20220947,1,0,0,response7disk_5,1,2.3665,-2.030395508,0.917144775,1,0,0,rectangle_8,-2.030395508,0.917144775,1,0,0,-2.030395508,0.917144775,1,0,0,0,0,0,1,1,61035ae4030737a3d2a51a11,610365a85fddf2037cc5c2ca,2021-07-29_21h37.05.265,Simcolourproject_2stim_asymm_v5,2020.2.10,MacIntel,60,61025ae37ef11b136ea224fe,,,,,,,,,,,,,,,,,,,,,,,,,,,,,,,,,,,,,,,,,,,,,,
,,,,,,,,,,,,125,PF,-27.77026367,-74.43359375,1,0,0,response5disk_5,3,2.1181,2.114135742,0.295654297,1,0,0,rectangle_8,-74.48950195,-29.95822144,1,0,0,0.771240234,5.509155273,1,0,0,0,1,1,2,1,61035ae4030737a3d2a51a11,610365a85fddf2037cc5c2ca,2021-07-29_21h37.05.265,Simcolourproject_2stim_asymm_v5,2020.2.10,MacIntel,60,61025ae37ef11b136ea224fe,response5disk_7,2,2.9841,2,"[2,5]",rectangle_4,,,,,,,,,,,,,,,,,,,,,,,,,,,,,,,,,,,,,,,,
,,,,,,,,,,,,41,PF,33.77252197,-56.34765625,1,0,0,response3disk_5,4,3.051,-3.338134766,-0.780700684,1,0,0,rectangle_8,-3.338134766,-0.780700684,1,0,0,-3.338134766,-0.780700684,1,0,0,0,2,2,6,1,61035ae4030737a3d2a51a11,610365a85fddf2037cc5c2ca,2021-07-29_21h37.05.265,Simcolourproject_2stim_asymm_v5,2020.2.10,MacIntel,60,61025ae37ef11b136ea224fe,,,,,,,,,,,,,,,,,,,,,,,,,,,,,,,,,,,,,,,,,,,,,,
,,,,,,,,,,,,138,PF,-79.29675293,-23.31085205,1,0,0,response5disk_5,2,2.5855,-2.198608398,2.53894043,1,0,0,rectangle_8,-2.198608398,2.53894043,1,0,0,-2.198608398,2.53894043,1,0,0,0,3,3,4,1,61035ae4030737a3d2a51a11,610365a85fddf2037cc5c2ca,2021-07-29_21h37.05.265,Simcolourproject_2stim_asymm_v5,2020.2.10,MacIntel,60,61025ae37ef11b136ea224fe,,,,,,,,,,,,,,,,,,,,,,,,,,,,,,,,,,,,,,,,,,,,,,
,,,,,,,,,,,,48,FF,24.68664551,-44.4901123,1,0,0,response3disk_5,4,1.6497,2.607055664,-4.169067383,1,0,0,rectangle_8,-83.34594727,-48.86395264,1,0,0,-7.722045898,-0.271057129,1,0,0,0,4,4,0,1,61035ae4030737a3d2a51a11,610365a85fddf2037cc5c2ca,2021-07-29_21h37.05.265,Simcolourproject_2stim_asymm_v5,2020.2.10,MacIntel,60,61025ae37ef11b136ea224fe,response5disk_7,2,1.8158,2,"[2,5]",rectangle_4,,,,,,,,,,,,,,,,,,,,,,,,,,,,,,,,,,,,,,,,
,,,,,,,,,,,,142,FF,-26.27197266,-58.05957031,1,0,0,response5disk_5,3,1.6338,0.919494629,-5.140808105,1,0,0,rectangle_8,0.919494629,-5.140808105,1,0,0,0.919494629,-5.140808105,1,0,0,0,5,5,5,1,61035ae4030737a3d2a51a11,610365a85fddf2037cc5c2ca,2021-07-29_21h37.05.265,Simcolourproject_2stim_asymm_v5,2020.2.10,MacIntel,60,61025ae37ef11b136ea224fe,,,,,,,,,,,,,,,,,,,,,,,,,,,,,,,,,,,,,,,,,,,,,,
,,,,,,,,,,,,126,FF,-45.64831543,-54.31231689,1,0,0,response5disk_5,3,1.7212,-7.833740234,8.528076172,1,0,0,rectangle_8,-7.833740234,8.528076172,1,0,0,-7.833740234,8.528076172,1,0,0,0,6,6,3,1,61035ae4030737a3d2a51a11,610365a85fddf2037cc5c2ca,2021-07-29_21h37.05.265,Simcolourproject_2stim_asymm_v5,2020.2.10,MacIntel,60,61025ae37ef11b136ea224fe,,,,,,,,,,,,,,,,,,,,,,,,,,,,,,,,,,,,,,,,,,,,,,
,,,,,,,,,,,,,FF,,,,,,,,1.8995,,,,,,,,,,,,,,,,,,,,,,61035ae4030737a3d2a51a11,610365a85fddf2037cc5c2ca,2021-07-29_21h37.05.265,Simcolourproject_2stim_asymm_v5,2020.2.10,MacIntel,60,61025ae37ef11b136ea224fe,,,,,,,space,2.7883,2519,32.99450684,52.29840088,1,0,0,response1disk,,7,3.247070313,-1.540588379,1,0,0,rectangle,3.247070313,-1.540588379,1,0,0,3.247070313,-1.540588379,1,0,0,0,0,0,46,1,,,,,,,,
,,,,,,,,,,,,,FF,,,,,,,,1.1478,,,,,,,,,,,,,,,,,,,,,,61035ae4030737a3d2a51a11,610365a85fddf2037cc5c2ca,2021-07-29_21h37.05.265,Simcolourproject_2stim_asymm_v5,2020.2.10,MacIntel,60,61025ae37ef11b136ea224fe,,,,,,,,,1368,-70.35473633,22.92248535,1,0,0,response7disk,,1,-0.915222168,-2.680786133,1,0,0,rectangle,-0.915222168,-2.680786133,1,0,0,-0.915222168,-2.680786133,1,0,0,0,1,1,11,1,,,,,,,,
,,,,,,,,,,,,,FF,,,,,,,,1.0845,,,,,,,,,,,,,,,,,,,,,,61035ae4030737a3d2a51a11,610365a85fddf2037cc5c2ca,2021-07-29_21h37.05.265,Simcolourproject_2stim_asymm_v5,2020.2.10,MacIntel,60,61025ae37ef11b136ea224fe,,,,,,,,,1342,41.08544922,-26.03118896,1,0,0,response3disk,,5,-8.70513916,8.905670166,1,0,0,rectangle,-8.70513916,8.905670166,1,0,0,-8.70513916,8.905670166,1,0,0,0,2,2,150,1,,,,,,,,
,,,,,,,,,,,,,FF,,,,,,,,1.7647,,,,,,,,,,,,,,,,,,,,,,61035ae4030737a3d2a51a11,610365a85fddf2037cc5c2ca,2021-07-29_21h37.05.265,Simcolourproject_2stim_asymm_v5,2020.2.10,MacIntel,60,61025ae37ef11b136ea224fe,,,,,,,,,2413,31.76489258,-63.05511475,1,0,0,response3disk,,4,-3.389221191,0.003265381,1,0,0,rectangle,-3.389221191,0.003265381,1,0,0,-3.389221191,0.003265381,1,0,0,0,3,3,62,1,,,,,,,,
,,,,,,,,,,,,,FF,,,,,,,,0.8673,,,,,,,,,,,,,,,,,,,,,,61035ae4030737a3d2a51a11,610365a85fddf2037cc5c2ca,2021-07-29_21h37.05.265,Simcolourproject_2stim_asymm_v5,2020.2.10,MacIntel,60,61025ae37ef11b136ea224fe,,,,,,,,,2743,21.18096924,-53.16595459,1,0,0,response3disk,,4,5.809326172,-5.652069092,1,0,0,rectangle,5.809326172,-5.652069092,1,0,0,5.809326172,-5.652069092,1,0,0,0,4,4,74,1,,,,,,,,
,,,,,,,,,,,,,FF,,,,,,,,2.4677,,,,,,,,,,,,,,,,,,,,,,61035ae4030737a3d2a51a11,610365a85fddf2037cc5c2ca,2021-07-29_21h37.05.265,Simcolourproject_2stim_asymm_v5,2020.2.10,MacIntel,60,61025ae37ef11b136ea224fe,,,,,,,,,3825,59.08398438,21.04437256,1,0,0,response1disk,,6,6.912719727,-8.808227539,1,0,0,rectangle,6.912719727,-8.808227539,1,0,0,6.912719727,-8.808227539,1,0,0,0,5,5,15,1,,,,,,,,
,,,,,,,,,,,,,FF,,,,,,,,1.4846,,,,,,,,,,,,,,,,,,,,,,61035ae4030737a3d2a51a11,610365a85fddf2037cc5c2ca,2021-07-29_21h37.05.265,Simcolourproject_2stim_asymm_v5,2020.2.10,MacIntel,60,61025ae37ef11b136ea224fe,,,,,,,,,2083,26.80480957,-41.36773682,1,0,0,response3disk,,4,6.639099121,-6.910339355,1,0,0,rectangle,6.639099121,-6.910339355,1,0,0,6.639099121,-6.910339355,1,0,0,0,6,6,43,1,,,,,,,,
,,,,,,,,,,,,,FF,,,,,,,,2.0998,,,,,,,,,,,,,,,,,,,,,,61035ae4030737a3d2a51a11,610365a85fddf2037cc5c2ca,2021-07-29_21h37.05.265,Simcolourproject_2stim_asymm_v5,2020.2.10,MacIntel,60,61025ae37ef11b136ea224fe,,,,,,,,,2051,79.27246094,-37.32086182,1,0,0,response3disk,,5,2.431762695,-6.232666016,1,0,0,rectangle,2.431762695,-6.232666016,1,0,0,2.431762695,-6.232666016,1,0,0,0,7,7,65,1,,,,,,,,
,,,,,,,,,,,,,FF,,,,,,,,1.5352,,,,,,,,,,,,,,,,,,,,,,61035ae4030737a3d2a51a11,610365a85fddf2037cc5c2ca,2021-07-29_21h37.05.265,Simcolourproject_2stim_asymm_v5,2020.2.10,MacIntel,60,61025ae37ef11b136ea224fe,,,,,,,,,3028,104.1896973,34.31427002,1,0,0,response1disk,,6,12.22747803,7.710174561,1,0,0,rectangle,12.22747803,7.710174561,1,0,0,12.22747803,7.710174561,1,0,0,0,8,8,58,1,,,,,,,,
,,,,,,,,,,,,,FF,,,,,,,,1.2852,,,,,,,,,,,,,,,,,,,,,,61035ae4030737a3d2a51a11,610365a85fddf2037cc5c2ca,2021-07-29_21h37.05.265,Simcolourproject_2stim_asymm_v5,2020.2.10,MacIntel,60,61025ae37ef11b136ea224fe,,,,,,,,,3813,-32.34698486,-62.13824463,1,0,0,response5disk,,3,-8.085144043,-11.87597656,1,0,0,rectangle,-8.085144043,-11.87597656,1,0,0,-8.085144043,-11.87597656,1,0,0,0,9,9,123,1,,,,,,,,
,,,,,,,,,,,,,FF,,,,,,,,1.1007,,,,,,,,,,,,,,,,,,,,,,61035ae4030737a3d2a51a11,610365a85fddf2037cc5c2ca,2021-07-29_21h37.05.265,Simcolourproject_2stim_asymm_v5,2020.2.10,MacIntel,60,61025ae37ef11b136ea224fe,,,,,,,,,878,30.25012207,48.21881104,1,0,0,response1disk,,7,2.71862793,-4.637084961,1,0,0,rectangle,2.71862793,-4.637084961,1,0,0,2.71862793,-4.637084961,1,0,0,0,10,10,37,1,,,,,,,,
,,,,,,,,,,,,,FF,,,,,,,,1.1835,,,,,,,,,,,,,,,,,,,,,,61035ae4030737a3d2a51a11,610365a85fddf2037cc5c2ca,2021-07-29_21h37.05.265,Simcolourproject_2stim_asymm_v5,2020.2.10,MacIntel,60,61025ae37ef11b136ea224fe,,,,,,,,,3454,58.78344727,21.67364502,1,0,0,response1disk,,6,1.605102539,-1.432952881,1,0,0,rectangle,1.605102539,-1.432952881,1,0,0,1.605102539,-1.432952881,1,0,0,0,11,11,27,1,,,,,,,,
,,,,,,,,,,,,,FF,,,,,,,,1.4671,,,,,,,,,,,,,,,,,,,,,,61035ae4030737a3d2a51a11,610365a85fddf2037cc5c2ca,2021-07-29_21h37.05.265,Simcolourproject_2stim_asymm_v5,2020.2.10,MacIntel,60,61025ae37ef11b136ea224fe,,,,,,,,,34,18.68994141,50.87069702,1,0,0,response1disk,,7,3.880371094,6.427734375,1,0,0,rectangle,3.880371094,6.427734375,1,0,0,3.880371094,6.427734375,1,0,0,0,12,12,55,1,,,,,,,,
,,,,,,,,,,,,,FF,,,,,,,,1.1014,,,,,,,,,,,,,,,,,,,,,,61035ae4030737a3d2a51a11,610365a85fddf2037cc5c2ca,2021-07-29_21h37.05.265,Simcolourproject_2stim_asymm_v5,2020.2.10,MacIntel,60,61025ae37ef11b136ea224fe,,,,,,,,,1964,-22.74841309,-42.70330811,1,0,0,response5disk,,3,-7.229858398,-5.358947754,1,0,0,rectangle,-7.229858398,-5.358947754,1,0,0,-7.229858398,-5.358947754,1,0,0,0,13,13,12,1,,,,,,,,
,,,,,,,,,,,,,FF,,,,,,,,1.0169,,,,,,,,,,,,,,,,,,,,,,61035ae4030737a3d2a51a11,610365a85fddf2037cc5c2ca,2021-07-29_21h37.05.265,Simcolourproject_2stim_asymm_v5,2020.2.10,MacIntel,60,61025ae37ef11b136ea224fe,,,,,,,,,257,27.42919922,-47.88378906,1,0,0,response3disk,,4,11.09161377,-7.186035156,1,0,0,rectangle,11.09161377,-7.186035156,1,0,0,11.09161377,-7.186035156,1,0,0,0,14,14,9,1,,,,,,,,
,,,,,,,,,,,,,FF,,,,,,,,1.0343,,,,,,,,,,,,,,,,,,,,,,61035ae4030737a3d2a51a11,610365a85fddf2037cc5c2ca,2021-07-29_21h37.05.265,Simcolourproject_2stim_asymm_v5,2020.2.10,MacIntel,60,61025ae37ef11b136ea224fe,,,,,,,,,1312,89.11175537,44.62945557,1,0,0,response1disk,,6,13.2689209,-2.44909668,1,0,0,rectangle,-61.93823242,32.10232544,1,0,0,-6.397827148,-0.595825195,1,0,0,0,15,15,41,1,,response7disk_3,TRUE,1,1,"[210,30,62,217,102,237,145,292,119,0,91,52,46,27,35,127,16,99,52,45]",2.8848,rectangle
,,,,,,,,,,,,,FF,,,,,,,,4.633,,,,,,,,,,,,,,,,,,,,,,61035ae4030737a3d2a51a11,610365a85fddf2037cc5c2ca,2021-07-29_21h37.05.265,Simcolourproject_2stim_asymm_v5,2020.2.10,MacIntel,60,61025ae37ef11b136ea224fe,,,,,,,,,2284,-29.46643066,-61.01745605,1,0,0,response5disk,,3,13.03198242,5.42678833,1,0,0,rectangle,13.03198242,5.42678833,1,0,0,13.03198242,5.42678833,1,0,0,0,16,16,159,1,,,,,,,,
,,,,,,,,,,,,,FF,,,,,,,,0.869,,,,,,,,,,,,,,,,,,,,,,61035ae4030737a3d2a51a11,610365a85fddf2037cc5c2ca,2021-07-29_21h37.05.265,Simcolourproject_2stim_asymm_v5,2020.2.10,MacIntel,60,61025ae37ef11b136ea224fe,,,,,,,,,3388,-34.36755371,74.4777832,1,0,0,response7disk,,0,-5.981567383,-0.663909912,1,0,0,rectangle,-5.981567383,-0.663909912,1,0,0,-5.981567383,-0.663909912,1,0,0,0,17,17,94,1,,,,,,,,
,,,,,,,,,,,,,FF,,,,,,,,1.0367,,,,,,,,,,,,,,,,,,,,,,61035ae4030737a3d2a51a11,610365a85fddf2037cc5c2ca,2021-07-29_21h37.05.265,Simcolourproject_2stim_asymm_v5,2020.2.10,MacIntel,60,61025ae37ef11b136ea224fe,,,,,,,,,4129,-52.18774414,-23.6217041,1,0,0,response5disk,,2,3.16619873,9.144714355,1,0,0,rectangle,3.16619873,9.144714355,1,0,0,3.16619873,9.144714355,1,0,0,0,18,18,138,1,,,,,,,,
,,,,,,,,,,,,,FF,,,,,,,,1.222,,,,,,,,,,,,,,,,,,,,,,61035ae4030737a3d2a51a11,610365a85fddf2037cc5c2ca,2021-07-29_21h37.05.265,Simcolourproject_2stim_asymm_v5,2020.2.10,MacIntel,60,61025ae37ef11b136ea224fe,,,,,,,,,3672,-18.74279785,-39.20037842,1,0,0,response5disk,,3,-6.20880127,1.562255859,1,0,0,rectangle,-6.20880127,1.562255859,1,0,0,-6.20880127,1.562255859,1,0,0,0,19,19,143,1,,,,,,,,
,,,,,,,,,,,,,FF,,,,,,,,1.1661,,,,,,,,,,,,,,,,,,,,,,61035ae4030737a3d2a51a11,610365a85fddf2037cc5c2ca,2021-07-29_21h37.05.265,Simcolourproject_2stim_asymm_v5,2020.2.10,MacIntel,60,61025ae37ef11b136ea224fe,,,,,,,,,3872,81.30822754,32.33605957,1,0,0,response1disk,,6,29.30987549,5.979064941,1,0,0,rectangle,29.30987549,5.979064941,1,0,0,29.30987549,5.979064941,1,0,0,0,20,20,110,1,,,,,,,,
,,,,,,,,,,,,,FF,,,,,,,,1.5991,,,,,,,,,,,,,,,,,,,,,,61035ae4030737a3d2a51a11,610365a85fddf2037cc5c2ca,2021-07-29_21h37.05.265,Simcolourproject_2stim_asymm_v5,2020.2.10,MacIntel,60,61025ae37ef11b136ea224fe,,,,,,,,,638,-47.94824219,28.7822876,1,0,0,response7disk,,1,10.0300293,7.395050049,1,0,0,rectangle,10.0300293,7.395050049,1,0,0,10.0300293,7.395050049,1,0,0,0,21,21,96,1,,,,,,,,
,,,,,,,,,,,,,FF,,,,,,,,1.0495,,,,,,,,,,,,,,,,,,,,,,61035ae4030737a3d2a51a11,610365a85fddf2037cc5c2ca,2021-07-29_21h37.05.265,Simcolourproject_2stim_asymm_v5,2020.2.10,MacIntel,60,61025ae37ef11b136ea224fe,,,,,,,,,1130,34.50775146,72.63729858,1,0,0,response1disk,,7,-2.015869141,-0.742553711,1,0,0,rectangle,-2.015869141,-0.742553711,1,0,0,-2.015869141,-0.742553711,1,0,0,0,22,22,151,1,,,,,,,,
,,,,,,,,,,,,,FF,,,,,,,,0.7655,,,,,,,,,,,,,,,,,,,,,,61035ae4030737a3d2a51a11,610365a85fddf2037cc5c2ca,2021-07-29_21h37.05.265,Simcolourproject_2stim_asymm_v5,2020.2.10,MacIntel,60,61025ae37ef11b136ea224fe,,,,,,,,,4284,34.16070557,78.97155762,1,0,0,response1disk,,7,9.172973633,-3.506866455,1,0,0,rectangle,9.172973633,-3.506866455,1,0,0,9.172973633,-3.506866455,1,0,0,0,23,23,61,1,,,,,,,,
,,,,,,,,,,,,,FF,,,,,,,,1.4837,,,,,,,,,,,,,,,,,,,,,,61035ae4030737a3d2a51a11,610365a85fddf2037cc5c2ca,2021-07-29_21h37.05.265,Simcolourproject_2stim_asymm_v5,2020.2.10,MacIntel,60,61025ae37ef11b136ea224fe,,,,,,,,,3521,52.13354492,29.32452393,1,0,0,response1disk,,6,16.49389648,-6.299377441,1,0,0,rectangle,16.49389648,-6.299377441,1,0,0,16.49389648,-6.299377441,1,0,0,0,24,24,50,1,,,,,,,,
,,,,,,,,,,,,,FF,,,,,,,,1.0826,,,,,,,,,,,,,,,,,,,,,,61035ae4030737a3d2a51a11,610365a85fddf2037cc5c2ca,2021-07-29_21h37.05.265,Simcolourproject_2stim_asymm_v5,2020.2.10,MacIntel,60,61025ae37ef11b136ea224fe,,,,,,,,,635,-23.50463867,-69.56939697,1,0,0,response5disk,,3,4.05279541,-3.012054443,1,0,0,rectangle,4.05279541,-3.012054443,1,0,0,4.05279541,-3.012054443,1,0,0,0,25,25,53,1,,,,,,,,
,,,,,,,,,,,,,FF,,,,,,,,0.8494,,,,,,,,,,,,,,,,,,,,,,61035ae4030737a3d2a51a11,610365a85fddf2037cc5c2ca,2021-07-29_21h37.05.265,Simcolourproject_2stim_asymm_v5,2020.2.10,MacIntel,60,61025ae37ef11b136ea224fe,,,,,,,,,3631,27.23712158,-34.77294922,1,0,0,response3disk,,4,6.309936523,9.240509033,1,0,0,rectangle,-84.51330566,35.93200684,1,0,0,-8.216125488,2.526916504,1,0,0,0,26,26,156,1,,response7disk_3,TRUE,1,1,"[210,30,62,217,102,237,145,292,119,0,91,52,46,27,35,127,16,99,52,45]",1.4015,rectangle
,,,,,,,,,,,,,FF,,,,,,,,1.1161,,,,,,,,,,,,,,,,,,,,,,61035ae4030737a3d2a51a11,610365a85fddf2037cc5c2ca,2021-07-29_21h37.05.265,Simcolourproject_2stim_asymm_v5,2020.2.10,MacIntel,60,61025ae37ef11b136ea224fe,,,,,,,,,670,61.11633301,46.64318848,1,0,0,response1disk,,6,12.29608154,12.82266235,1,0,0,rectangle,12.29608154,12.82266235,1,0,0,12.29608154,12.82266235,1,0,0,0,27,27,38,1,,,,,,,,
,,,,,,,,,,,,,FF,,,,,,,,2.1029,,,,,,,,,,,,,,,,,,,,,,61035ae4030737a3d2a51a11,610365a85fddf2037cc5c2ca,2021-07-29_21h37.05.265,Simcolourproject_2stim_asymm_v5,2020.2.10,MacIntel,60,61025ae37ef11b136ea224fe,,,,,,,,,4010,76.20550537,-29.70767212,1,0,0,response3disk,,5,13.10687256,-9.434509277,1,0,0,rectangle,13.10687256,-9.434509277,1,0,0,13.10687256,-9.434509277,1,0,0,0,28,28,89,1,,,,,,,,
,,,,,,,,,,,,,FF,,,,,,,,0.8154,,,,,,,,,,,,,,,,,,,,,,61035ae4030737a3d2a51a11,610365a85fddf2037cc5c2ca,2021-07-29_21h37.05.265,Simcolourproject_2stim_asymm_v5,2020.2.10,MacIntel,60,61025ae37ef11b136ea224fe,,,,,,,,,264,-34.35083008,-69.31573486,1,0,0,response5disk,,3,0.864746094,0.583740234,1,0,0,rectangle,-43.08343506,57.36743164,1,0,0,10.82012939,5.403564453,1,0,0,0,29,29,84,1,,response7disk_3,TRUE,0,0,"[210,30,62,217,102,237,145,292,119,0,91,52,46,27,35,127,16,99,52,45]",2.1339,rectangle
,,,,,,,,,,,,,FF,,,,,,,,1.5695,,,,,,,,,,,,,,,,,,,,,,61035ae4030737a3d2a51a11,610365a85fddf2037cc5c2ca,2021-07-29_21h37.05.265,Simcolourproject_2stim_asymm_v5,2020.2.10,MacIntel,60,61025ae37ef11b136ea224fe,,,,,,,,,399,84.75695801,33.71960449,1,0,0,response1disk,,6,23.47338867,6.079650879,1,0,0,rectangle,23.47338867,6.079650879,1,0,0,23.47338867,6.079650879,1,0,0,0,30,30,99,1,,,,,,,,
,,,,,,,,,,,,,FF,,,,,,,,0.8163,,,,,,,,,,,,,,,,,,,,,,61035ae4030737a3d2a51a11,610365a85fddf2037cc5c2ca,2021-07-29_21h37.05.265,Simcolourproject_2stim_asymm_v5,2020.2.10,MacIntel,60,61025ae37ef11b136ea224fe,,,,,,,,,3224,27.93878174,64.84506226,1,0,0,response1disk,,7,4.016662598,-1.735015869,1,0,0,rectangle,4.016662598,-1.735015869,1,0,0,4.016662598,-1.735015869,1,0,0,0,31,31,113,1,,,,,,,,
,,,,,,,,,,,,,FF,,,,,,,,1.1165,,,,,,,,,,,,,,,,,,,,,,61035ae4030737a3d2a51a11,610365a85fddf2037cc5c2ca,2021-07-29_21h37.05.265,Simcolourproject_2stim_asymm_v5,2020.2.10,MacIntel,60,61025ae37ef11b136ea224fe,,,,,,,,,1443,43.3392334,-25.41888428,1,0,0,response3disk,,5,13.4621582,-11.03656006,1,0,0,rectangle,13.4621582,-11.03656006,1,0,0,13.4621582,-11.03656006,1,0,0,0,32,32,21,1,,,,,,,,
,,,,,,,,,,,,,FF,,,,,,,,0.7867,,,,,,,,,,,,,,,,,,,,,,61035ae4030737a3d2a51a11,610365a85fddf2037cc5c2ca,2021-07-29_21h37.05.265,Simcolourproject_2stim_asymm_v5,2020.2.10,MacIntel,60,61025ae37ef11b136ea224fe,,,,,,,,,1331,41.14379883,-17.20495605,1,0,0,response3disk,,5,14.71582031,0.350128174,1,0,0,rectangle,14.71582031,0.350128174,1,0,0,14.71582031,0.350128174,1,0,0,0,33,33,31,1,,,,,,,,
,,,,,,,,,,,,,FF,,,,,,,,0.9003,,,,,,,,,,,,,,,,,,,,,,61035ae4030737a3d2a51a11,610365a85fddf2037cc5c2ca,2021-07-29_21h37.05.265,Simcolourproject_2stim_asymm_v5,2020.2.10,MacIntel,60,61025ae37ef11b136ea224fe,,,,,,,,,517,67.15234375,51.33105469,1,0,0,response1disk,,6,21.84375,10.93380737,1,0,0,rectangle,-49.56182861,-73.99462891,1,0,0,-4.149536133,-0.352966309,1,0,0,0,34,34,131,1,,response5disk_3,TRUE,3,3,"[210,30,62,217,102,237,145,292,119,0,91,52,46,27,35,127,16,99,52,45]",1.634,rectangle
,,,,,,,,,,,,,FF,,,,,,,,0.8497,,,,,,,,,,,,,,,,,,,,,,61035ae4030737a3d2a51a11,610365a85fddf2037cc5c2ca,2021-07-29_21h37.05.265,Simcolourproject_2stim_asymm_v5,2020.2.10,MacIntel,60,61025ae37ef11b136ea224fe,,,,,,,,,477,26.96923828,-63.95007324,1,0,0,response3disk,,4,18.91094971,-9.010528564,1,0,0,rectangle,18.91094971,-9.010528564,1,0,0,18.91094971,-9.010528564,1,0,0,0,35,35,100,1,,,,,,,,
,,,,,,,,,,,,,FF,,,,,,,,0.8836,,,,,,,,,,,,,,,,,,,,,,61035ae4030737a3d2a51a11,610365a85fddf2037cc5c2ca,2021-07-29_21h37.05.265,Simcolourproject_2stim_asymm_v5,2020.2.10,MacIntel,60,61025ae37ef11b136ea224fe,,,,,,,,,4310,52.34387207,-29.75109863,1,0,0,response3disk,,5,27.85223389,8.321685791,1,0,0,rectangle,27.85223389,8.321685791,1,0,0,27.85223389,8.321685791,1,0,0,0,36,36,134,1,,,,,,,,
,,,,,,,,,,,,,FF,,,,,,,,0.9501,,,,,,,,,,,,,,,,,,,,,,61035ae4030737a3d2a51a11,610365a85fddf2037cc5c2ca,2021-07-29_21h37.05.265,Simcolourproject_2stim_asymm_v5,2020.2.10,MacIntel,60,61025ae37ef11b136ea224fe,,,,,,,,,1374,58.9597168,36.22424316,1,0,0,response1disk,,6,21.05609131,12.39440918,1,0,0,rectangle,21.05609131,12.39440918,1,0,0,21.05609131,12.39440918,1,0,0,0,37,37,81,1,,,,,,,,
,,,,,,,,,,,,,FF,,,,,,,,1.0186,,,,,,,,,,,,,,,,,,,,,,61035ae4030737a3d2a51a11,610365a85fddf2037cc5c2ca,2021-07-29_21h37.05.265,Simcolourproject_2stim_asymm_v5,2020.2.10,MacIntel,60,61025ae37ef11b136ea224fe,,,,,,,,,4219,25.76574707,-34.35162354,1,0,0,response3disk,,4,12.746521,-7.373901367,1,0,0,rectangle,12.746521,-7.373901367,1,0,0,12.746521,-7.373901367,1,0,0,0,38,38,36,1,,,,,,,,
,,,,,,,,,,,,,FF,,,,,,,,2.0028,,,,,,,,,,,,,,,,,,,,,,61035ae4030737a3d2a51a11,610365a85fddf2037cc5c2ca,2021-07-29_21h37.05.265,Simcolourproject_2stim_asymm_v5,2020.2.10,MacIntel,60,61025ae37ef11b136ea224fe,,,,,,,,,1317,45.80822754,79.53253174,1,0,0,response1disk,,7,-15.76245117,-7.583007813,1,0,0,rectangle,-15.76245117,-7.583007813,1,0,0,-15.76245117,-7.583007813,1,0,0,0,39,39,111,1,,,,,,,,
,,,,,,,,,,,,,FF,,,,,,,,1.1805,,,,,,,,,,,,,,,,,,,,,,61035ae4030737a3d2a51a11,610365a85fddf2037cc5c2ca,2021-07-29_21h37.05.265,Simcolourproject_2stim_asymm_v5,2020.2.10,MacIntel,60,61025ae37ef11b136ea224fe,,,,,,,,,713,22.82617188,50.44396973,1,0,0,response1disk,,7,-3.722961426,-7.995239258,1,0,0,rectangle,-3.722961426,-7.995239258,1,0,0,-3.722961426,-7.995239258,1,0,0,0,40,40,28,1,,,,,,,,
,,,,,,,,,,,,,FF,,,,,,,,0.8869,,,,,,,,,,,,,,,,,,,,,,61035ae4030737a3d2a51a11,610365a85fddf2037cc5c2ca,2021-07-29_21h37.05.265,Simcolourproject_2stim_asymm_v5,2020.2.10,MacIntel,60,61025ae37ef11b136ea224fe,,,,,,,,,1922,61.93432617,24.46011353,1,0,0,response1disk,,6,8.048706055,5.256896973,1,0,0,rectangle,8.048706055,5.256896973,1,0,0,8.048706055,5.256896973,1,0,0,0,41,41,76,1,,,,,,,,
,,,,,,,,,,,,,FF,,,,,,,,0.8676,,,,,,,,,,,,,,,,,,,,,,61035ae4030737a3d2a51a11,610365a85fddf2037cc5c2ca,2021-07-29_21h37.05.265,Simcolourproject_2stim_asymm_v5,2020.2.10,MacIntel,60,61025ae37ef11b136ea224fe,,,,,,,,,2539,31.3815918,53.75891113,1,0,0,response1disk,,7,-0.924743652,-1.884460449,1,0,0,rectangle,-0.924743652,-1.884460449,1,0,0,-0.924743652,-1.884460449,1,0,0,0,42,42,52,1,,,,,,,,
,,,,,,,,,,,,,FF,,,,,,,,0.8998,,,,,,,,,,,,,,,,,,,,,,61035ae4030737a3d2a51a11,610365a85fddf2037cc5c2ca,2021-07-29_21h37.05.265,Simcolourproject_2stim_asymm_v5,2020.2.10,MacIntel,60,61025ae37ef11b136ea224fe,,,,,,,,,2342,52.45367432,-27.37121582,1,0,0,response3disk,,5,25.27844238,-1.32623291,1,0,0,rectangle,25.27844238,-1.32623291,1,0,0,25.27844238,-1.32623291,1,0,0,0,43,43,133,1,,,,,,,,
,,,,,,,,,,,,,FF,,,,,,,,0.9868,,,,,,,,,,,,,,,,,,,,,,61035ae4030737a3d2a51a11,610365a85fddf2037cc5c2ca,2021-07-29_21h37.05.265,Simcolourproject_2stim_asymm_v5,2020.2.10,MacIntel,60,61025ae37ef11b136ea224fe,,,,,,,,,278,-23.25415039,-62.54638672,1,0,0,response5disk,,3,-6.766296387,-12.1293335,1,0,0,rectangle,-30.22503662,-55.85339355,1,0,0,-3.681762695,-7.300964355,1,0,0,0,44,44,93,1,,response5disk_3,TRUE,3,3,"[210,30,62,217,102,237,145,292,119,0,91,52,46,27,35,127,16,99,52,45]",1.3817,rectangle
,,,,,,,,,,,,,FF,,,,,,,,1.3831,,,,,,,,,,,,,,,,,,,,,,61035ae4030737a3d2a51a11,610365a85fddf2037cc5c2ca,2021-07-29_21h37.05.265,Simcolourproject_2stim_asymm_v5,2020.2.10,MacIntel,60,61025ae37ef11b136ea224fe,,,,,,,,,747,53.62585449,74.95935059,1,0,0,response1disk,,7,19.20721436,11.84094238,1,0,0,rectangle,72.02368164,46.03973389,1,0,0,-11.11889648,10.38208008,1,0,0,0,45,45,122,1,,response1disk_3,TRUE,6,6,"[210,30,62,217,102,237,145,292,119,0,91,52,46,27,35,127,16,99,52,45]",1.8002,rectangle
,,,,,,,,,,,,,FF,,,,,,,,1.6892,,,,,,,,,,,,,,,,,,,,,,61035ae4030737a3d2a51a11,610365a85fddf2037cc5c2ca,2021-07-29_21h37.05.265,Simcolourproject_2stim_asymm_v5,2020.2.10,MacIntel,60,61025ae37ef11b136ea224fe,,,,,,,,,3713,27.77148438,-53.05847168,1,0,0,response3disk,,4,-7.263122559,-6.305603027,1,0,0,rectangle,-7.263122559,-6.305603027,1,0,0,-7.263122559,-6.305603027,1,0,0,0,46,46,132,1,,,,,,,,
,,,,,,,,,,,,,FF,,,,,,,,1.5786,,,,,,,,,,,,,,,,,,,,,,61035ae4030737a3d2a51a11,610365a85fddf2037cc5c2ca,2021-07-29_21h37.05.265,Simcolourproject_2stim_asymm_v5,2020.2.10,MacIntel,60,61025ae37ef11b136ea224fe,,,,,,,,,551,-28.88317871,-70.62542725,1,0,0,response5disk,,3,2.81036377,-3.13269043,1,0,0,rectangle,2.81036377,-3.13269043,1,0,0,2.81036377,-3.13269043,1,0,0,0,47,47,57,1,,,,,,,,
,,,,,,,,,,,,,FF,,,,,,,,1.0005,,,,,,,,,,,,,,,,,,,,,,61035ae4030737a3d2a51a11,610365a85fddf2037cc5c2ca,2021-07-29_21h37.05.265,Simcolourproject_2stim_asymm_v5,2020.2.10,MacIntel,60,61025ae37ef11b136ea224fe,,,,,,,,,3480,78.01843262,-37.08483887,1,0,0,response3disk,,5,21.54449463,0.93927002,1,0,0,rectangle,21.54449463,0.93927002,1,0,0,21.54449463,0.93927002,1,0,0,0,48,48,68,1,,,,,,,,
,,,,,,,,,,,,,FF,,,,,,,,0.7159,,,,,,,,,,,,,,,,,,,,,,61035ae4030737a3d2a51a11,610365a85fddf2037cc5c2ca,2021-07-29_21h37.05.265,Simcolourproject_2stim_asymm_v5,2020.2.10,MacIntel,60,61025ae37ef11b136ea224fe,,,,,,,,,4326,-38.4161377,72.47140503,1,0,0,response7disk,,0,-5.534240723,10.82336426,1,0,0,rectangle,-5.534240723,10.82336426,1,0,0,-5.534240723,10.82336426,1,0,0,0,49,49,101,1,,,,,,,,
,,,,,,,,,,,,,FF,,,,,,,,1.4003,,,,,,,,,,,,,,,,,,,,,,61035ae4030737a3d2a51a11,610365a85fddf2037cc5c2ca,2021-07-29_21h37.05.265,Simcolourproject_2stim_asymm_v5,2020.2.10,MacIntel,60,61025ae37ef11b136ea224fe,,,,,,,,,3699,63.03057861,-36.88241577,1,0,0,response3disk,,5,15.03851318,-13.53271484,1,0,0,rectangle,15.03851318,-13.53271484,1,0,0,15.03851318,-13.53271484,1,0,0,0,50,50,141,1,,,,,,,,
,,,,,,,,,,,,,FF,,,,,,,,1.3682,,,,,,,,,,,,,,,,,,,,,,61035ae4030737a3d2a51a11,610365a85fddf2037cc5c2ca,2021-07-29_21h37.05.265,Simcolourproject_2stim_asymm_v5,2020.2.10,MacIntel,60,61025ae37ef11b136ea224fe,,,,,,,,,959,-19.63702393,-58.56604004,1,0,0,response5disk,,3,6.567321777,-7.261474609,1,0,0,rectangle,27.48016357,-61.83258057,1,0,0,7.700439453,-3.578582764,1,0,0,0,51,51,139,1,,response3disk_3,TRUE,4,4,"[210,30,62,217,102,237,145,292,119,0,91,52,46,27,35,127,16,99,52,45]",1.2667,rectangle
,,,,,,,,,,,,,FF,,,,,,,,0.8011,,,,,,,,,,,,,,,,,,,,,,61035ae4030737a3d2a51a11,610365a85fddf2037cc5c2ca,2021-07-29_21h37.05.265,Simcolourproject_2stim_asymm_v5,2020.2.10,MacIntel,60,61025ae37ef11b136ea224fe,,,,,,,,,2582,50.21856689,-24.47650146,1,0,0,response3disk,,5,12.39361572,0.456298828,1,0,0,rectangle,12.39361572,0.456298828,1,0,0,12.39361572,0.456298828,1,0,0,0,52,52,119,1,,,,,,,,
,,,,,,,,,,,,,FF,,,,,,,,0.8048,,,,,,,,,,,,,,,,,,,,,,61035ae4030737a3d2a51a11,610365a85fddf2037cc5c2ca,2021-07-29_21h37.05.265,Simcolourproject_2stim_asymm_v5,2020.2.10,MacIntel,60,61025ae37ef11b136ea224fe,,,,,,,,,3177,52.72265625,-19.4286499,1,0,0,response3disk,,5,23.00848389,-4.946533203,1,0,0,rectangle,23.00848389,-4.946533203,1,0,0,23.00848389,-4.946533203,1,0,0,0,53,53,128,1,,,,,,,,
,,,,,,,,,,,,,FF,,,,,,,,0.9332,,,,,,,,,,,,,,,,,,,,,,61035ae4030737a3d2a51a11,610365a85fddf2037cc5c2ca,2021-07-29_21h37.05.265,Simcolourproject_2stim_asymm_v5,2020.2.10,MacIntel,60,61025ae37ef11b136ea224fe,,,,,,,,,4229,64.82592773,32.12164307,1,0,0,response1disk,,6,15.93652344,0.056945801,1,0,0,rectangle,15.93652344,0.056945801,1,0,0,15.93652344,0.056945801,1,0,0,0,54,54,25,1,,,,,,,,
,,,,,,,,,,,,,FF,,,,,,,,1.0828,,,,,,,,,,,,,,,,,,,,,,61035ae4030737a3d2a51a11,610365a85fddf2037cc5c2ca,2021-07-29_21h37.05.265,Simcolourproject_2stim_asymm_v5,2020.2.10,MacIntel,60,61025ae37ef11b136ea224fe,,,,,,,,,1170,32.19812012,53.63922119,1,0,0,response1disk,,7,18.29571533,2.432739258,1,0,0,rectangle,18.29571533,2.432739258,1,0,0,18.29571533,2.432739258,1,0,0,0,55,55,144,1,,,,,,,,
,,,,,,,,,,,,,FF,,,,,,,,1.8833,,,,,,,,,,,,,,,,,,,,,,61035ae4030737a3d2a51a11,610365a85fddf2037cc5c2ca,2021-07-29_21h37.05.265,Simcolourproject_2stim_asymm_v5,2020.2.10,MacIntel,60,61025ae37ef11b136ea224fe,,,,,,,,,3461,-34.29589844,-69.31347656,1,0,0,response5disk,,3,3.098388672,7.364074707,1,0,0,rectangle,3.098388672,7.364074707,1,0,0,3.098388672,7.364074707,1,0,0,0,56,56,108,1,,,,,,,,
,,,,,,,,,,,,,FF,,,,,,,,0.9502,,,,,,,,,,,,,,,,,,,,,,61035ae4030737a3d2a51a11,610365a85fddf2037cc5c2ca,2021-07-29_21h37.05.265,Simcolourproject_2stim_asymm_v5,2020.2.10,MacIntel,60,61025ae37ef11b136ea224fe,,,,,,,,,3068,56.14770508,53.56481934,1,0,0,response1disk,,6,15.15991211,2.108093262,1,0,0,rectangle,15.15991211,2.108093262,1,0,0,15.15991211,2.108093262,1,0,0,0,57,57,72,1,,,,,,,,
,,,,,,,,,,,,,FF,,,,,,,,0.9169,,,,,,,,,,,,,,,,,,,,,,61035ae4030737a3d2a51a11,610365a85fddf2037cc5c2ca,2021-07-29_21h37.05.265,Simcolourproject_2stim_asymm_v5,2020.2.10,MacIntel,60,61025ae37ef11b136ea224fe,,,,,,,,,3817,-23.66442871,-46.49987793,1,0,0,response5disk,,3,0.352539063,-0.648254395,1,0,0,rectangle,0.352539063,-0.648254395,1,0,0,0.352539063,-0.648254395,1,0,0,0,58,58,142,1,,,,,,,,
,,,,,,,,,,,,,FF,,,,,,,,0.7334,,,,,,,,,,,,,,,,,,,,,,61035ae4030737a3d2a51a11,610365a85fddf2037cc5c2ca,2021-07-29_21h37.05.265,Simcolourproject_2stim_asymm_v5,2020.2.10,MacIntel,60,61025ae37ef11b136ea224fe,,,,,,,,,1783,52.32891846,-32.99505615,1,0,0,response3disk,,5,20.30224609,-6.393981934,1,0,0,rectangle,20.30224609,-6.393981934,1,0,0,20.30224609,-6.393981934,1,0,0,0,59,59,14,1,,,,,,,,
,,,,,,,,,,,,,FF,,,,,,,,0.9844,,,,,,,,,,,,,,,,,,,,,,61035ae4030737a3d2a51a11,610365a85fddf2037cc5c2ca,2021-07-29_21h37.05.265,Simcolourproject_2stim_asymm_v5,2020.2.10,MacIntel,60,61025ae37ef11b136ea224fe,,,,,,,,,2651,-68.46069336,-43.62316895,1,0,0,response5disk,,2,-10.49645996,-7.537719727,1,0,0,rectangle,-10.49645996,-7.537719727,1,0,0,-10.49645996,-7.537719727,1,0,0,0,60,60,146,1,,,,,,,,
,,,,,,,,,,,,,FF,,,,,,,,1.8514,,,,,,,,,,,,,,,,,,,,,,61035ae4030737a3d2a51a11,610365a85fddf2037cc5c2ca,2021-07-29_21h37.05.265,Simcolourproject_2stim_asymm_v5,2020.2.10,MacIntel,60,61025ae37ef11b136ea224fe,,,,,,,,,2548,-78.50909424,-35.7232666,1,0,0,response5disk,,2,-14.73504639,-10.92041016,1,0,0,rectangle,-78.27844238,32.80462646,1,0,0,7.837646484,7.835510254,1,0,0,0,61,61,102,1,,response7disk_3,TRUE,1,1,"[210,30,62,217,102,237,145,292,119,0,91,52,46,27,35,127,16,99,52,45]",1.4055,rectangle
,,,,,,,,,,,,,FF,,,,,,,,1.6665,,,,,,,,,,,,,,,,,,,,,,61035ae4030737a3d2a51a11,610365a85fddf2037cc5c2ca,2021-07-29_21h37.05.265,Simcolourproject_2stim_asymm_v5,2020.2.10,MacIntel,60,61025ae37ef11b136ea224fe,,,,,,,,,359,39.39672852,30.49734497,1,0,0,response1disk,,6,-0.524780273,6.678405762,1,0,0,rectangle,-0.524780273,6.678405762,1,0,0,-0.524780273,6.678405762,1,0,0,0,62,62,118,1,,,,,,,,
,,,,,,,,,,,,,FF,,,,,,,,0.9367,,,,,,,,,,,,,,,,,,,,,,61035ae4030737a3d2a51a11,610365a85fddf2037cc5c2ca,2021-07-29_21h37.05.265,Simcolourproject_2stim_asymm_v5,2020.2.10,MacIntel,60,61025ae37ef11b136ea224fe,,,,,,,,,3657,53.80126953,27.0178833,1,0,0,response1disk,,6,18.98754883,3.598632813,1,0,0,rectangle,18.98754883,3.598632813,1,0,0,18.98754883,3.598632813,1,0,0,0,63,63,120,1,,,,,,,,
,,,,,,,,,,,,,FF,,,,,,,,1.017,,,,,,,,,,,,,,,,,,,,,,61035ae4030737a3d2a51a11,610365a85fddf2037cc5c2ca,2021-07-29_21h37.05.265,Simcolourproject_2stim_asymm_v5,2020.2.10,MacIntel,60,61025ae37ef11b136ea224fe,,,,,,,,,522,28.55810547,-61.71984863,1,0,0,response3disk,,4,10.09588623,0.352111816,1,0,0,rectangle,10.09588623,0.352111816,1,0,0,10.09588623,0.352111816,1,0,0,0,64,64,80,1,,,,,,,,
,,,,,,,,,,,,,FF,,,,,,,,0.9154,,,,,,,,,,,,,,,,,,,,,,61035ae4030737a3d2a51a11,610365a85fddf2037cc5c2ca,2021-07-29_21h37.05.265,Simcolourproject_2stim_asymm_v5,2020.2.10,MacIntel,60,61025ae37ef11b136ea224fe,,,,,,,,,3100,-45.3416748,-77.46746826,1,0,0,response5disk,,3,-4.176330566,-1.849182129,1,0,0,rectangle,-4.176330566,-1.849182129,1,0,0,-4.176330566,-1.849182129,1,0,0,0,65,65,16,1,,,,,,,,
,,,,,,,,,,,,,FF,,,,,,,,0.7185,,,,,,,,,,,,,,,,,,,,,,61035ae4030737a3d2a51a11,610365a85fddf2037cc5c2ca,2021-07-29_21h37.05.265,Simcolourproject_2stim_asymm_v5,2020.2.10,MacIntel,60,61025ae37ef11b136ea224fe,,,,,,,,,3393,-37.64074707,-77.20544434,1,0,0,response5disk,,3,-10.30133057,-10.66259766,1,0,0,rectangle,-10.30133057,-10.66259766,1,0,0,-10.30133057,-10.66259766,1,0,0,0,66,66,104,1,,,,,,,,
,,,,,,,,,,,,,FF,,,,,,,,0.784,,,,,,,,,,,,,,,,,,,,,,61035ae4030737a3d2a51a11,610365a85fddf2037cc5c2ca,2021-07-29_21h37.05.265,Simcolourproject_2stim_asymm_v5,2020.2.10,MacIntel,60,61025ae37ef11b136ea224fe,,,,,,,,,1956,-37.89538574,58.00524902,1,0,0,response7disk,,0,-8.783447266,6.998718262,1,0,0,rectangle,-8.783447266,6.998718262,1,0,0,-8.783447266,6.998718262,1,0,0,0,67,67,157,1,,,,,,,,
,,,,,,,,,,,,,FF,,,,,,,,0.8016,,,,,,,,,,,,,,,,,,,,,,61035ae4030737a3d2a51a11,610365a85fddf2037cc5c2ca,2021-07-29_21h37.05.265,Simcolourproject_2stim_asymm_v5,2020.2.10,MacIntel,60,61025ae37ef11b136ea224fe,,,,,,,,,169,-74.70294189,17.35818481,1,0,0,response7disk,,1,-16.08752441,-0.303894043,1,0,0,rectangle,-16.08752441,-0.303894043,1,0,0,-16.08752441,-0.303894043,1,0,0,0,68,68,121,1,,,,,,,,
,,,,,,,,,,,,,FF,,,,,,,,0.8345,,,,,,,,,,,,,,,,,,,,,,61035ae4030737a3d2a51a11,610365a85fddf2037cc5c2ca,2021-07-29_21h37.05.265,Simcolourproject_2stim_asymm_v5,2020.2.10,MacIntel,60,61025ae37ef11b136ea224fe,,,,,,,,,2887,-69.3605957,16.19250488,1,0,0,response7disk,,1,-14.4362793,-0.53717041,1,0,0,rectangle,-14.4362793,-0.53717041,1,0,0,-14.4362793,-0.53717041,1,0,0,0,69,69,18,1,,,,,,,,
,,,,,,,,,,,,,FF,,,,,,,,1.5512,,,,,,,,,,,,,,,,,,,,,,61035ae4030737a3d2a51a11,610365a85fddf2037cc5c2ca,2021-07-29_21h37.05.265,Simcolourproject_2stim_asymm_v5,2020.2.10,MacIntel,60,61025ae37ef11b136ea224fe,,,,,,,,,115,75.94696045,-38.18457031,1,0,0,response3disk,,5,20.44799805,-2.445922852,1,0,0,rectangle,20.44799805,-2.445922852,1,0,0,20.44799805,-2.445922852,1,0,0,0,70,70,112,1,,,,,,,,
,,,,,,,,,,,,,FF,,,,,,,,0.8994,,,,,,,,,,,,,,,,,,,,,,61035ae4030737a3d2a51a11,610365a85fddf2037cc5c2ca,2021-07-29_21h37.05.265,Simcolourproject_2stim_asymm_v5,2020.2.10,MacIntel,60,61025ae37ef11b136ea224fe,,,,,,,,,834,83.21539307,55.77481079,1,0,0,response1disk,,6,25.83569336,2.362365723,1,0,0,rectangle,25.83569336,2.362365723,1,0,0,25.83569336,2.362365723,1,0,0,0,71,71,152,1,,,,,,,,
,,,,,,,,,,,,,FF,,,,,,,,0.8346,,,,,,,,,,,,,,,,,,,,,,61035ae4030737a3d2a51a11,610365a85fddf2037cc5c2ca,2021-07-29_21h37.05.265,Simcolourproject_2stim_asymm_v5,2020.2.10,MacIntel,60,61025ae37ef11b136ea224fe,,,,,,,,,2318,28.00085449,72.67926025,1,0,0,response1disk,,7,2.000854492,7.552642822,1,0,0,rectangle,2.000854492,7.552642822,1,0,0,2.000854492,7.552642822,1,0,0,0,72,72,69,1,,,,,,,,
,,,,,,,,,,,,,FF,,,,,,,,1.1005,,,,,,,,,,,,,,,,,,,,,,61035ae4030737a3d2a51a11,610365a85fddf2037cc5c2ca,2021-07-29_21h37.05.265,Simcolourproject_2stim_asymm_v5,2020.2.10,MacIntel,60,61025ae37ef11b136ea224fe,,,,,,,,,584,55.76477051,-27.8973999,1,0,0,response3disk,,5,14.15631104,-5.842651367,1,0,0,rectangle,14.15631104,-5.842651367,1,0,0,14.15631104,-5.842651367,1,0,0,0,73,73,91,1,,,,,,,,
,,,,,,,,,,,,,FF,,,,,,,,0.8182,,,,,,,,,,,,,,,,,,,,,,61035ae4030737a3d2a51a11,610365a85fddf2037cc5c2ca,2021-07-29_21h37.05.265,Simcolourproject_2stim_asymm_v5,2020.2.10,MacIntel,60,61025ae37ef11b136ea224fe,,,,,,,,,699,63.29229736,40.50244141,1,0,0,response1disk,,6,31.12976074,10.17272949,1,0,0,rectangle,31.12976074,10.17272949,1,0,0,31.12976074,10.17272949,1,0,0,0,74,74,125,1,,,,,,,,
,,,,,,,,,,,,,FF,,,,,,,,0.6996,,,,,,,,,,,,,,,,,,,,,,61035ae4030737a3d2a51a11,610365a85fddf2037cc5c2ca,2021-07-29_21h37.05.265,Simcolourproject_2stim_asymm_v5,2020.2.10,MacIntel,60,61025ae37ef11b136ea224fe,,,,,,,,,748,64.00268555,44.38479614,1,0,0,response1disk,,6,27.08148193,9.547729492,1,0,0,rectangle,27.08148193,9.547729492,1,0,0,27.08148193,9.547729492,1,0,0,0,75,75,0,1,,,,,,,,
,,,,,,,,,,,,,FF,,,,,,,,0.8508,,,,,,,,,,,,,,,,,,,,,,61035ae4030737a3d2a51a11,610365a85fddf2037cc5c2ca,2021-07-29_21h37.05.265,Simcolourproject_2stim_asymm_v5,2020.2.10,MacIntel,60,61025ae37ef11b136ea224fe,,,,,,,,,1778,28.6484375,65.59912109,1,0,0,response1disk,,7,11.45526123,9.670654297,1,0,0,rectangle,11.45526123,9.670654297,1,0,0,11.45526123,9.670654297,1,0,0,0,76,76,130,1,,,,,,,,
,,,,,,,,,,,,,FF,,,,,,,,0.9187,,,,,,,,,,,,,,,,,,,,,,61035ae4030737a3d2a51a11,610365a85fddf2037cc5c2ca,2021-07-29_21h37.05.265,Simcolourproject_2stim_asymm_v5,2020.2.10,MacIntel,60,61025ae37ef11b136ea224fe,,,,,,,,,196,-25.94049072,-68.07263184,1,0,0,response5disk,,3,-4.094238281,-6.123352051,1,0,0,rectangle,-4.094238281,-6.123352051,1,0,0,-4.094238281,-6.123352051,1,0,0,0,77,77,79,1,,,,,,,,
,,,,,,,,,,,,,FF,,,,,,,,0.9007,,,,,,,,,,,,,,,,,,,,,,61035ae4030737a3d2a51a11,610365a85fddf2037cc5c2ca,2021-07-29_21h37.05.265,Simcolourproject_2stim_asymm_v5,2020.2.10,MacIntel,60,61025ae37ef11b136ea224fe,,,,,,,,,2635,-44.6427002,-68.42138672,1,0,0,response5disk,,3,2.830566406,-0.345794678,1,0,0,rectangle,2.830566406,-0.345794678,1,0,0,2.830566406,-0.345794678,1,0,0,0,78,78,136,1,,,,,,,,
,,,,,,,,,,,,,FF,,,,,,,,0.7848,,,,,,,,,,,,,,,,,,,,,,61035ae4030737a3d2a51a11,610365a85fddf2037cc5c2ca,2021-07-29_21h37.05.265,Simcolourproject_2stim_asymm_v5,2020.2.10,MacIntel,60,61025ae37ef11b136ea224fe,,,,,,,,,3909,-20.49035645,-50.58081055,1,0,0,response5disk,,3,2.021850586,2.337860107,1,0,0,rectangle,2.021850586,2.337860107,1,0,0,2.021850586,2.337860107,1,0,0,0,79,79,63,1,,,,,,,,
,,,,,,,,,,,,,FF,,,,,,,,1.0163,,,,,,,,,,,,,,,,,,,,,,61035ae4030737a3d2a51a11,610365a85fddf2037cc5c2ca,2021-07-29_21h37.05.265,Simcolourproject_2stim_asymm_v5,2020.2.10,MacIntel,60,61025ae37ef11b136ea224fe,,,,,,,,,900,85.50421143,-32.78845215,1,0,0,response3disk,,5,7.669311523,-1.298858643,1,0,0,rectangle,7.669311523,-1.298858643,1,0,0,7.669311523,-1.298858643,1,0,0,0,80,80,135,1,,,,,,,,
,,,,,,,,,,,,,FF,,,,,,,,0.8686,,,,,,,,,,,,,,,,,,,,,,61035ae4030737a3d2a51a11,610365a85fddf2037cc5c2ca,2021-07-29_21h37.05.265,Simcolourproject_2stim_asymm_v5,2020.2.10,MacIntel,60,61025ae37ef11b136ea224fe,,,,,,,,,1127,70.90026855,26.04745483,1,0,0,response1disk,,6,13.63171387,-0.830810547,1,0,0,rectangle,13.63171387,-0.830810547,1,0,0,13.63171387,-0.830810547,1,0,0,0,81,81,126,1,,,,,,,,
,,,,,,,,,,,,,FF,,,,,,,,0.8189,,,,,,,,,,,,,,,,,,,,,,61035ae4030737a3d2a51a11,610365a85fddf2037cc5c2ca,2021-07-29_21h37.05.265,Simcolourproject_2stim_asymm_v5,2020.2.10,MacIntel,60,61025ae37ef11b136ea224fe,,,,,,,,,3251,-59.35437012,-42.77697754,1,0,0,response5disk,,2,2.222167969,-9.584716797,1,0,0,rectangle,2.222167969,-9.584716797,1,0,0,2.222167969,-9.584716797,1,0,0,0,82,82,114,1,,,,,,,,
,,,,,,,,,,,,,FF,,,,,,,,0.9678,,,,,,,,,,,,,,,,,,,,,,61035ae4030737a3d2a51a11,610365a85fddf2037cc5c2ca,2021-07-29_21h37.05.265,Simcolourproject_2stim_asymm_v5,2020.2.10,MacIntel,60,61025ae37ef11b136ea224fe,,,,,,,,,564,-30.90722656,-51.55926514,1,0,0,response5disk,,3,15.78643799,13.74511719,1,0,0,rectangle,15.78643799,13.74511719,1,0,0,15.78643799,13.74511719,1,0,0,0,83,83,49,1,,,,,,,,
,,,,,,,,,,,,,FF,,,,,,,,0.9673,,,,,,,,,,,,,,,,,,,,,,61035ae4030737a3d2a51a11,610365a85fddf2037cc5c2ca,2021-07-29_21h37.05.265,Simcolourproject_2stim_asymm_v5,2020.2.10,MacIntel,60,61025ae37ef11b136ea224fe,,,,,,,,,4061,77.18164063,-37.85287476,1,0,0,response3disk,,5,16.55828857,-9.789520264,1,0,0,rectangle,16.55828857,-9.789520264,1,0,0,16.55828857,-9.789520264,1,0,0,0,84,84,106,1,,,,,,,,
,,,,,,,,,,,,,FF,,,,,,,,0.882,,,,,,,,,,,,,,,,,,,,,,61035ae4030737a3d2a51a11,610365a85fddf2037cc5c2ca,2021-07-29_21h37.05.265,Simcolourproject_2stim_asymm_v5,2020.2.10,MacIntel,60,61025ae37ef11b136ea224fe,,,,,,,,,3629,22.43432617,61.84249878,1,0,0,response1disk,,7,0.967529297,6.511810303,1,0,0,rectangle,0.967529297,6.511810303,1,0,0,0.967529297,6.511810303,1,0,0,0,85,85,44,1,,,,,,,,
,,,,,,,,,,,,,FF,,,,,,,,0.6672,,,,,,,,,,,,,,,,,,,,,,61035ae4030737a3d2a51a11,610365a85fddf2037cc5c2ca,2021-07-29_21h37.05.265,Simcolourproject_2stim_asymm_v5,2020.2.10,MacIntel,60,61025ae37ef11b136ea224fe,,,,,,,,,2774,33.30377197,68.52337646,1,0,0,response1disk,,7,19.08380127,8.476226807,1,0,0,rectangle,19.08380127,8.476226807,1,0,0,19.08380127,8.476226807,1,0,0,0,86,86,24,1,,,,,,,,
,,,,,,,,,,,,,FF,,,,,,,,0.6995,,,,,,,,,,,,,,,,,,,,,,61035ae4030737a3d2a51a11,610365a85fddf2037cc5c2ca,2021-07-29_21h37.05.265,Simcolourproject_2stim_asymm_v5,2020.2.10,MacIntel,60,61025ae37ef11b136ea224fe,,,,,,,,,3232,61.76477051,37.44061279,1,0,0,response1disk,,6,19.17059326,8.270080566,1,0,0,rectangle,19.17059326,8.270080566,1,0,0,19.17059326,8.270080566,1,0,0,0,87,87,77,1,,,,,,,,
,,,,,,,,,,,,,FF,,,,,,,,0.9339,,,,,,,,,,,,,,,,,,,,,,61035ae4030737a3d2a51a11,610365a85fddf2037cc5c2ca,2021-07-29_21h37.05.265,Simcolourproject_2stim_asymm_v5,2020.2.10,MacIntel,60,61025ae37ef11b136ea224fe,,,,,,,,,1246,72.19348145,38.19619751,1,0,0,response1disk,,6,17.16955566,3.254302979,1,0,0,rectangle,17.16955566,3.254302979,1,0,0,17.16955566,3.254302979,1,0,0,0,88,88,85,1,,,,,,,,
,,,,,,,,,,,,,FF,,,,,,,,3.2179,,,,,,,,,,,,,,,,,,,,,,61035ae4030737a3d2a51a11,610365a85fddf2037cc5c2ca,2021-07-29_21h37.05.265,Simcolourproject_2stim_asymm_v5,2020.2.10,MacIntel,60,61025ae37ef11b136ea224fe,,,,,,,,,1946,23.93273926,66.88586426,1,0,0,response1disk,,7,17.88562012,8.87387085,1,0,0,rectangle,17.88562012,8.87387085,1,0,0,17.88562012,8.87387085,1,0,0,0,89,89,71,1,,,,,,,,
,,,,,,,,,,,,,FF,,,,,,,,1.3327,,,,,,,,,,,,,,,,,,,,,,61035ae4030737a3d2a51a11,610365a85fddf2037cc5c2ca,2021-07-29_21h37.05.265,Simcolourproject_2stim_asymm_v5,2020.2.10,MacIntel,60,61025ae37ef11b136ea224fe,,,,,,,,,2058,74.26733398,43.88345337,1,0,0,response1disk,,6,24.92749023,7.139923096,1,0,0,rectangle,86.80871582,53.69592285,1,0,0,14.30535889,7.621704102,1,0,0,0,90,90,4,1,,response1disk_3,TRUE,6,6,"[210,30,62,217,102,237,145,292,119,0,91,52,46,27,35,127,16,99,52,45]",1.2841,rectangle
,,,,,,,,,,,,,FF,,,,,,,,1.4335,,,,,,,,,,,,,,,,,,,,,,61035ae4030737a3d2a51a11,610365a85fddf2037cc5c2ca,2021-07-29_21h37.05.265,Simcolourproject_2stim_asymm_v5,2020.2.10,MacIntel,60,61025ae37ef11b136ea224fe,,,,,,,,,1794,30.17687988,-65.87097168,1,0,0,response3disk,,4,13.93457031,-10.60852051,1,0,0,rectangle,13.93457031,-10.60852051,1,0,0,13.93457031,-10.60852051,1,0,0,0,91,91,33,1,,,,,,,,
,,,,,,,,,,,,,FF,,,,,,,,0.8506,,,,,,,,,,,,,,,,,,,,,,61035ae4030737a3d2a51a11,610365a85fddf2037cc5c2ca,2021-07-29_21h37.05.265,Simcolourproject_2stim_asymm_v5,2020.2.10,MacIntel,60,61025ae37ef11b136ea224fe,,,,,,,,,3322,42.93304443,-64.47546387,1,0,0,response3disk,,4,20.8717041,-5.340942383,1,0,0,rectangle,20.8717041,-5.340942383,1,0,0,20.8717041,-5.340942383,1,0,0,0,92,92,117,1,,,,,,,,
,,,,,,,,,,,,,FF,,,,,,,,0.751,,,,,,,,,,,,,,,,,,,,,,61035ae4030737a3d2a51a11,610365a85fddf2037cc5c2ca,2021-07-29_21h37.05.265,Simcolourproject_2stim_asymm_v5,2020.2.10,MacIntel,60,61025ae37ef11b136ea224fe,,,,,,,,,451,58.26861572,32.9276123,1,0,0,response1disk,,6,10.63848877,-3.810668945,1,0,0,rectangle,10.63848877,-3.810668945,1,0,0,10.63848877,-3.810668945,1,0,0,0,93,93,3,1,,,,,,,,
,,,,,,,,,,,,,FF,,,,,,,,0.8683,,,,,,,,,,,,,,,,,,,,,,61035ae4030737a3d2a51a11,610365a85fddf2037cc5c2ca,2021-07-29_21h37.05.265,Simcolourproject_2stim_asymm_v5,2020.2.10,MacIntel,60,61025ae37ef11b136ea224fe,,,,,,,,,1453,-27.08099365,-65.62524414,1,0,0,response5disk,,3,2.59185791,-12.78448486,1,0,0,rectangle,2.59185791,-12.78448486,1,0,0,2.59185791,-12.78448486,1,0,0,0,94,94,95,1,,,,,,,,
,,,,,,,,,,,,,FF,,,,,,,,0.7338,,,,,,,,,,,,,,,,,,,,,,61035ae4030737a3d2a51a11,610365a85fddf2037cc5c2ca,2021-07-29_21h37.05.265,Simcolourproject_2stim_asymm_v5,2020.2.10,MacIntel,60,61025ae37ef11b136ea224fe,,,,,,,,,421,77.81628418,-28.8067627,1,0,0,response3disk,,5,28.34515381,-5.869934082,1,0,0,rectangle,28.34515381,-5.869934082,1,0,0,28.34515381,-5.869934082,1,0,0,0,95,95,87,1,,,,,,,,
,,,,,,,,,,,,,FF,,,,,,,,0.8342,,,,,,,,,,,,,,,,,,,,,,61035ae4030737a3d2a51a11,610365a85fddf2037cc5c2ca,2021-07-29_21h37.05.265,Simcolourproject_2stim_asymm_v5,2020.2.10,MacIntel,60,61025ae37ef11b136ea224fe,,,,,,,,,1291,-73.75531006,-39.28991699,1,0,0,response5disk,,2,-10.48034668,-5.000549316,1,0,0,rectangle,-10.48034668,-5.000549316,1,0,0,-10.48034668,-5.000549316,1,0,0,0,96,96,90,1,,,,,,,,
,,,,,,,,,,,,,FF,,,,,,,,0.6346,,,,,,,,,,,,,,,,,,,,,,61035ae4030737a3d2a51a11,610365a85fddf2037cc5c2ca,2021-07-29_21h37.05.265,Simcolourproject_2stim_asymm_v5,2020.2.10,MacIntel,60,61025ae37ef11b136ea224fe,,,,,,,,,952,29.37854004,-60.46112061,1,0,0,response3disk,,4,16.3270874,-13.08093262,1,0,0,rectangle,16.3270874,-13.08093262,1,0,0,16.3270874,-13.08093262,1,0,0,0,97,97,67,1,,,,,,,,
,,,,,,,,,,,,,FF,,,,,,,,0.7497,,,,,,,,,,,,,,,,,,,,,,61035ae4030737a3d2a51a11,610365a85fddf2037cc5c2ca,2021-07-29_21h37.05.265,Simcolourproject_2stim_asymm_v5,2020.2.10,MacIntel,60,61025ae37ef11b136ea224fe,,,,,,,,,2320,-35.50469971,-88.30834961,1,0,0,response5disk,,3,6.067077637,5.171630859,1,0,0,rectangle,-63.82714844,34.69140625,1,0,0,-6.105957031,12.21368408,1,0,0,0,98,98,82,1,,response7disk_3,TRUE,1,1,"[210,30,62,217,102,237,145,292,119,0,91,52,46,27,35,127,16,99,52,45]",1.233,rectangle
,,,,,,,,,,,,,FF,,,,,,,,0.8031,,,,,,,,,,,,,,,,,,,,,,61035ae4030737a3d2a51a11,610365a85fddf2037cc5c2ca,2021-07-29_21h37.05.265,Simcolourproject_2stim_asymm_v5,2020.2.10,MacIntel,60,61025ae37ef11b136ea224fe,,,,,,,,,1271,59.34912109,19.73077393,1,0,0,response1disk,,6,5.046630859,-0.095245361,1,0,0,rectangle,5.046630859,-0.095245361,1,0,0,5.046630859,-0.095245361,1,0,0,0,99,99,17,1,,,,,,,,
,,,,,,,,,,,,,FF,,,,,,,,1.032,,,,,,,,,,,,,,,,,,,,,,61035ae4030737a3d2a51a11,610365a85fddf2037cc5c2ca,2021-07-29_21h37.05.265,Simcolourproject_2stim_asymm_v5,2020.2.10,MacIntel,60,61025ae37ef11b136ea224fe,,,,,,,,,1928,36.10742188,-62.51977539,1,0,0,response3disk,,4,20.07794189,0.965942383,1,0,0,rectangle,20.07794189,0.965942383,1,0,0,20.07794189,0.965942383,1,0,0,0,100,100,127,1,,,,,,,,
,,,,,,,,,,,,,FF,,,,,,,,1.0182,,,,,,,,,,,,,,,,,,,,,,61035ae4030737a3d2a51a11,610365a85fddf2037cc5c2ca,2021-07-29_21h37.05.265,Simcolourproject_2stim_asymm_v5,2020.2.10,MacIntel,60,61025ae37ef11b136ea224fe,,,,,,,,,3486,63.20324707,-28.02862549,1,0,0,response3disk,,5,-2.92980957,3.961151123,1,0,0,rectangle,-36.8760376,-81.31103516,1,0,0,5.618835449,8.558166504,1,0,0,0,101,101,45,1,,response5disk_3,TRUE,3,3,"[210,30,62,217,102,237,145,292,119,0,91,52,46,27,35,127,16,99,52,45]",1.6835,rectangle
,,,,,,,,,,,,,FF,,,,,,,,2.1335,,,,,,,,,,,,,,,,,,,,,,61035ae4030737a3d2a51a11,610365a85fddf2037cc5c2ca,2021-07-29_21h37.05.265,Simcolourproject_2stim_asymm_v5,2020.2.10,MacIntel,60,61025ae37ef11b136ea224fe,,,,,,,,,2113,65.83734131,-30.00292969,1,0,0,response3disk,,5,22.14758301,13.43478394,1,0,0,rectangle,22.14758301,13.43478394,1,0,0,22.14758301,13.43478394,1,0,0,0,102,102,42,1,,,,,,,,
,,,,,,,,,,,,,FF,,,,,,,,0.7197,,,,,,,,,,,,,,,,,,,,,,61035ae4030737a3d2a51a11,610365a85fddf2037cc5c2ca,2021-07-29_21h37.05.265,Simcolourproject_2stim_asymm_v5,2020.2.10,MacIntel,60,61025ae37ef11b136ea224fe,,,,,,,,,504,34.6262207,-77.23681641,1,0,0,response3disk,,4,28.12524414,-1.887939453,1,0,0,rectangle,28.12524414,-1.887939453,1,0,0,28.12524414,-1.887939453,1,0,0,0,103,103,158,1,,,,,,,,
,,,,,,,,,,,,,FF,,,,,,,,0.9667,,,,,,,,,,,,,,,,,,,,,,61035ae4030737a3d2a51a11,610365a85fddf2037cc5c2ca,2021-07-29_21h37.05.265,Simcolourproject_2stim_asymm_v5,2020.2.10,MacIntel,60,61025ae37ef11b136ea224fe,,,,,,,,,1474,33.65075684,-64.22729492,1,0,0,response3disk,,4,23.08251953,11.4800415,1,0,0,rectangle,23.08251953,11.4800415,1,0,0,23.08251953,11.4800415,1,0,0,0,104,104,5,1,,,,,,,,
,,,,,,,,,,,,,FF,,,,,,,,0.8519,,,,,,,,,,,,,,,,,,,,,,61035ae4030737a3d2a51a11,610365a85fddf2037cc5c2ca,2021-07-29_21h37.05.265,Simcolourproject_2stim_asymm_v5,2020.2.10,MacIntel,60,61025ae37ef11b136ea224fe,,,,,,,,,1627,90.02130127,49.77709961,1,0,0,response1disk,,6,14.6652832,7.191162109,1,0,0,rectangle,14.6652832,7.191162109,1,0,0,14.6652832,7.191162109,1,0,0,0,105,105,92,1,,,,,,,,
,,,,,,,,,,,,,FF,,,,,,,,1.4162,,,,,,,,,,,,,,,,,,,,,,61035ae4030737a3d2a51a11,610365a85fddf2037cc5c2ca,2021-07-29_21h37.05.265,Simcolourproject_2stim_asymm_v5,2020.2.10,MacIntel,60,61025ae37ef11b136ea224fe,,,,,,,,,4109,18.20599365,77.20080566,1,0,0,response1disk,,7,9.736206055,0.807403564,1,0,0,rectangle,9.736206055,0.807403564,1,0,0,9.736206055,0.807403564,1,0,0,0,106,106,48,1,,,,,,,,
,,,,,,,,,,,,,FF,,,,,,,,0.8506,,,,,,,,,,,,,,,,,,,,,,61035ae4030737a3d2a51a11,610365a85fddf2037cc5c2ca,2021-07-29_21h37.05.265,Simcolourproject_2stim_asymm_v5,2020.2.10,MacIntel,60,61025ae37ef11b136ea224fe,,,,,,,,,475,99.95123291,33.72171021,1,0,0,response1disk,,6,26.58532715,4.406707764,1,0,0,rectangle,26.58532715,4.406707764,1,0,0,26.58532715,4.406707764,1,0,0,0,107,107,137,1,,,,,,,,
,,,,,,,,,,,,,FF,,,,,,,,1.4332,,,,,,,,,,,,,,,,,,,,,,61035ae4030737a3d2a51a11,610365a85fddf2037cc5c2ca,2021-07-29_21h37.05.265,Simcolourproject_2stim_asymm_v5,2020.2.10,MacIntel,60,61025ae37ef11b136ea224fe,,,,,,,,,1838,61.20697021,41.39611816,1,0,0,response1disk,,6,18.72045898,7.06262207,1,0,0,rectangle,18.72045898,7.06262207,1,0,0,18.72045898,7.06262207,1,0,0,0,108,108,64,1,,,,,,,,
,,,,,,,,,,,,,FF,,,,,,,,0.6489,,,,,,,,,,,,,,,,,,,,,,61035ae4030737a3d2a51a11,610365a85fddf2037cc5c2ca,2021-07-29_21h37.05.265,Simcolourproject_2stim_asymm_v5,2020.2.10,MacIntel,60,61025ae37ef11b136ea224fe,,,,,,,,,941,63.15771484,35.85302734,1,0,0,response1disk,,6,31.45471191,7.731628418,1,0,0,rectangle,31.45471191,7.731628418,1,0,0,31.45471191,7.731628418,1,0,0,0,109,109,10,1,,,,,,,,
,,,,,,,,,,,,,FF,,,,,,,,1.0009,,,,,,,,,,,,,,,,,,,,,,61035ae4030737a3d2a51a11,610365a85fddf2037cc5c2ca,2021-07-29_21h37.05.265,Simcolourproject_2stim_asymm_v5,2020.2.10,MacIntel,60,61025ae37ef11b136ea224fe,,,,,,,,,2363,23.01757813,-67.68457031,1,0,0,response3disk,,4,2.835327148,-11.24099731,1,0,0,rectangle,2.835327148,-11.24099731,1,0,0,2.835327148,-11.24099731,1,0,0,0,110,110,1,1,,,,,,,,
,,,,,,,,,,,,,FF,,,,,,,,0.8165,,,,,,,,,,,,,,,,,,,,,,61035ae4030737a3d2a51a11,610365a85fddf2037cc5c2ca,2021-07-29_21h37.05.265,Simcolourproject_2stim_asymm_v5,2020.2.10,MacIntel,60,61025ae37ef11b136ea224fe,,,,,,,,,2679,59.84033203,-25.09182739,1,0,0,response3disk,,5,16.4395752,4.85345459,1,0,0,rectangle,16.4395752,4.85345459,1,0,0,16.4395752,4.85345459,1,0,0,0,111,111,88,1,,,,,,,,
,,,,,,,,,,,,,FF,,,,,,,,0.7015,,,,,,,,,,,,,,,,,,,,,,61035ae4030737a3d2a51a11,610365a85fddf2037cc5c2ca,2021-07-29_21h37.05.265,Simcolourproject_2stim_asymm_v5,2020.2.10,MacIntel,60,61025ae37ef11b136ea224fe,,,,,,,,,2970,67.79833984,-24.77752686,1,0,0,response3disk,,5,19.0032959,9.641296387,1,0,0,rectangle,19.0032959,9.641296387,1,0,0,19.0032959,9.641296387,1,0,0,0,112,112,107,1,,,,,,,,
,,,,,,,,,,,,,FF,,,,,,,,0.7488,,,,,,,,,,,,,,,,,,,,,,61035ae4030737a3d2a51a11,610365a85fddf2037cc5c2ca,2021-07-29_21h37.05.265,Simcolourproject_2stim_asymm_v5,2020.2.10,MacIntel,60,61025ae37ef11b136ea224fe,,,,,,,,,3595,46.87969971,28.74002075,1,0,0,response1disk,,6,7.833740234,12.24139404,1,0,0,rectangle,7.833740234,12.24139404,1,0,0,7.833740234,12.24139404,1,0,0,0,113,113,13,1,,,,,,,,
,,,,,,,,,,,,,FF,,,,,,,,0.6673,,,,,,,,,,,,,,,,,,,,,,61035ae4030737a3d2a51a11,610365a85fddf2037cc5c2ca,2021-07-29_21h37.05.265,Simcolourproject_2stim_asymm_v5,2020.2.10,MacIntel,60,61025ae37ef11b136ea224fe,,,,,,,,,776,43.67315674,35.4387207,1,0,0,response1disk,,6,6.207885742,-6.53717041,1,0,0,rectangle,6.207885742,-6.53717041,1,0,0,6.207885742,-6.53717041,1,0,0,0,114,114,124,1,,,,,,,,
,,,,,,,,,,,,,FF,,,,,,,,1.3687,,,,,,,,,,,,,,,,,,,,,,61035ae4030737a3d2a51a11,610365a85fddf2037cc5c2ca,2021-07-29_21h37.05.265,Simcolourproject_2stim_asymm_v5,2020.2.10,MacIntel,60,61025ae37ef11b136ea224fe,,,,,,,,,3950,46.06628418,-28.51733398,1,0,0,response3disk,,5,18.87347412,-2.182922363,1,0,0,rectangle,18.87347412,-2.182922363,1,0,0,18.87347412,-2.182922363,1,0,0,0,115,115,83,1,,,,,,,,
,,,,,,,,,,,,,FF,,,,,,,,1.8683,,,,,,,,,,,,,,,,,,,,,,61035ae4030737a3d2a51a11,610365a85fddf2037cc5c2ca,2021-07-29_21h37.05.265,Simcolourproject_2stim_asymm_v5,2020.2.10,MacIntel,60,61025ae37ef11b136ea224fe,,,,,,,,,3541,73.61187744,44.00665283,1,0,0,response1disk,,6,-2.769042969,-2.375671387,1,0,0,rectangle,-2.769042969,-2.375671387,1,0,0,-2.769042969,-2.375671387,1,0,0,0,116,116,86,1,,,,,,,,
,,,,,,,,,,,,,FF,,,,,,,,0.7856,,,,,,,,,,,,,,,,,,,,,,61035ae4030737a3d2a51a11,610365a85fddf2037cc5c2ca,2021-07-29_21h37.05.265,Simcolourproject_2stim_asymm_v5,2020.2.10,MacIntel,60,61025ae37ef11b136ea224fe,,,,,,,,,643,45.99713135,81.97186279,1,0,0,response1disk,,7,14.00256348,7.113891602,1,0,0,rectangle,14.00256348,7.113891602,1,0,0,14.00256348,7.113891602,1,0,0,0,117,117,98,1,,,,,,,,
,,,,,,,,,,,,,FF,,,,,,,,1.3338,,,,,,,,,,,,,,,,,,,,,,61035ae4030737a3d2a51a11,610365a85fddf2037cc5c2ca,2021-07-29_21h37.05.265,Simcolourproject_2stim_asymm_v5,2020.2.10,MacIntel,60,61025ae37ef11b136ea224fe,,,,,,,,,1220,50.27850342,35.56918335,1,0,0,response1disk,,6,0.853149414,3.962188721,1,0,0,rectangle,-69.53112793,42.6947937,1,0,0,15.84729004,1.834350586,1,0,0,0,118,118,66,1,,response7disk_3,TRUE,1,1,"[210,30,62,217,102,237,145,292,119,0,91,52,46,27,35,127,16,99,52,45]",1.2173,rectangle
,,,,,,,,,,,,,FF,,,,,,,,0.7522,,,,,,,,,,,,,,,,,,,,,,61035ae4030737a3d2a51a11,610365a85fddf2037cc5c2ca,2021-07-29_21h37.05.265,Simcolourproject_2stim_asymm_v5,2020.2.10,MacIntel,60,61025ae37ef11b136ea224fe,,,,,,,,,3114,49.52301025,-29.73327637,1,0,0,response3disk,,5,22.40063477,-5.121307373,1,0,0,rectangle,22.40063477,-5.121307373,1,0,0,22.40063477,-5.121307373,1,0,0,0,119,119,97,1,,,,,,,,
,,,,,,,,,,,,,FF,,,,,,,,0.7657,,,,,,,,,,,,,,,,,,,,,,61035ae4030737a3d2a51a11,610365a85fddf2037cc5c2ca,2021-07-29_21h37.05.265,Simcolourproject_2stim_asymm_v5,2020.2.10,MacIntel,60,61025ae37ef11b136ea224fe,,,,,,,,,2104,47.54754639,-34.52844238,1,0,0,response3disk,,5,18.76904297,-5.816833496,1,0,0,rectangle,18.76904297,-5.816833496,1,0,0,18.76904297,-5.816833496,1,0,0,0,120,120,116,1,,,,,,,,
,,,,,,,,,,,,,FF,,,,,,,,1.3006,,,,,,,,,,,,,,,,,,,,,,61035ae4030737a3d2a51a11,610365a85fddf2037cc5c2ca,2021-07-29_21h37.05.265,Simcolourproject_2stim_asymm_v5,2020.2.10,MacIntel,60,61025ae37ef11b136ea224fe,,,,,,,,,3694,42.03393555,75.60949707,1,0,0,response1disk,,7,5.146484375,-2.719085693,1,0,0,rectangle,5.146484375,-2.719085693,1,0,0,5.146484375,-2.719085693,1,0,0,0,121,121,154,1,,,,,,,,
,,,,,,,,,,,,,FF,,,,,,,,0.7359,,,,,,,,,,,,,,,,,,,,,,61035ae4030737a3d2a51a11,610365a85fddf2037cc5c2ca,2021-07-29_21h37.05.265,Simcolourproject_2stim_asymm_v5,2020.2.10,MacIntel,60,61025ae37ef11b136ea224fe,,,,,,,,,4068,43.93011475,15.74542236,1,0,0,response1disk,,6,8.646606445,6.164367676,1,0,0,rectangle,8.646606445,6.164367676,1,0,0,8.646606445,6.164367676,1,0,0,0,122,122,8,1,,,,,,,,
,,,,,,,,,,,,,FF,,,,,,,,0.8361,,,,,,,,,,,,,,,,,,,,,,61035ae4030737a3d2a51a11,610365a85fddf2037cc5c2ca,2021-07-29_21h37.05.265,Simcolourproject_2stim_asymm_v5,2020.2.10,MacIntel,60,61025ae37ef11b136ea224fe,,,,,,,,,1916,49.86242676,-29.90771484,1,0,0,response3disk,,5,10.4196167,0.01260376,1,0,0,rectangle,10.4196167,0.01260376,1,0,0,10.4196167,0.01260376,1,0,0,0,123,123,60,1,,,,,,,,
,,,,,,,,,,,,,FF,,,,,,,,0.8183,,,,,,,,,,,,,,,,,,,,,,61035ae4030737a3d2a51a11,610365a85fddf2037cc5c2ca,2021-07-29_21h37.05.265,Simcolourproject_2stim_asymm_v5,2020.2.10,MacIntel,60,61025ae37ef11b136ea224fe,,,,,,,,,988,23.09893799,-58.34936523,1,0,0,response3disk,,4,10.66040039,-0.336181641,1,0,0,rectangle,10.66040039,-0.336181641,1,0,0,10.66040039,-0.336181641,1,0,0,0,124,124,73,1,,,,,,,,
,,,,,,,,,,,,,FF,,,,,,,,0.7489,,,,,,,,,,,,,,,,,,,,,,61035ae4030737a3d2a51a11,610365a85fddf2037cc5c2ca,2021-07-29_21h37.05.265,Simcolourproject_2stim_asymm_v5,2020.2.10,MacIntel,60,61025ae37ef11b136ea224fe,,,,,,,,,606,59.62963867,-33.34411621,1,0,0,response3disk,,5,30.15673828,-8.544677734,1,0,0,rectangle,30.15673828,-8.544677734,1,0,0,30.15673828,-8.544677734,1,0,0,0,125,125,70,1,,,,,,,,
,,,,,,,,,,,,,FF,,,,,,,,1.049,,,,,,,,,,,,,,,,,,,,,,61035ae4030737a3d2a51a11,610365a85fddf2037cc5c2ca,2021-07-29_21h37.05.265,Simcolourproject_2stim_asymm_v5,2020.2.10,MacIntel,60,61025ae37ef11b136ea224fe,,,,,,,,,1967,-35.94726563,-74.13220215,1,0,0,response5disk,,3,-1.097412109,-1.986358643,1,0,0,rectangle,80.29400635,36.9664917,1,0,0,6.741455078,7.315826416,1,0,0,0,126,126,51,1,,response1disk_3,TRUE,6,6,"[210,30,62,217,102,237,145,292,119,0,91,52,46,27,35,127,16,99,52,45]",1.2502,rectangle
,,,,,,,,,,,,,FF,,,,,,,,0.7849,,,,,,,,,,,,,,,,,,,,,,61035ae4030737a3d2a51a11,610365a85fddf2037cc5c2ca,2021-07-29_21h37.05.265,Simcolourproject_2stim_asymm_v5,2020.2.10,MacIntel,60,61025ae37ef11b136ea224fe,,,,,,,,,675,38.42480469,-25.168396,1,0,0,response3disk,,5,14.12750244,-5.209594727,1,0,0,rectangle,14.12750244,-5.209594727,1,0,0,14.12750244,-5.209594727,1,0,0,0,127,127,19,1,,,,,,,,
,,,,,,,,,,,,,FF,,,,,,,,0.8669,,,,,,,,,,,,,,,,,,,,,,61035ae4030737a3d2a51a11,610365a85fddf2037cc5c2ca,2021-07-29_21h37.05.265,Simcolourproject_2stim_asymm_v5,2020.2.10,MacIntel,60,61025ae37ef11b136ea224fe,,,,,,,,,1572,24.37719727,-23.56347656,1,0,0,response3disk,,5,7.863220215,-2.973449707,1,0,0,rectangle,7.863220215,-2.973449707,1,0,0,7.863220215,-2.973449707,1,0,0,0,128,128,155,1,,,,,,,,
,,,,,,,,,,,,,FF,,,,,,,,1.7347,,,,,,,,,,,,,,,,,,,,,,61035ae4030737a3d2a51a11,610365a85fddf2037cc5c2ca,2021-07-29_21h37.05.265,Simcolourproject_2stim_asymm_v5,2020.2.10,MacIntel,60,61025ae37ef11b136ea224fe,,,,,,,,,869,35.12133789,-30.10400391,1,0,0,response3disk,,5,5.354187012,-11.6456604,1,0,0,rectangle,5.354187012,-11.6456604,1,0,0,5.354187012,-11.6456604,1,0,0,0,129,129,145,1,,,,,,,,
,,,,,,,,,,,,,FF,,,,,,,,1.4012,,,,,,,,,,,,,,,,,,,,,,61035ae4030737a3d2a51a11,610365a85fddf2037cc5c2ca,2021-07-29_21h37.05.265,Simcolourproject_2stim_asymm_v5,2020.2.10,MacIntel,60,61025ae37ef11b136ea224fe,,,,,,,,,276,-56.68817139,42.68603516,1,0,0,response7disk,,1,13.55432129,9.97454834,1,0,0,rectangle,13.55432129,9.97454834,1,0,0,13.55432129,9.97454834,1,0,0,0,130,130,47,1,,,,,,,,
,,,,,,,,,,,,,FF,,,,,,,,1.0165,,,,,,,,,,,,,,,,,,,,,,61035ae4030737a3d2a51a11,610365a85fddf2037cc5c2ca,2021-07-29_21h37.05.265,Simcolourproject_2stim_asymm_v5,2020.2.10,MacIntel,60,61025ae37ef11b136ea224fe,,,,,,,,,557,-33.62963867,-68.75787354,1,0,0,response5disk,,3,-13.47460938,-2.870422363,1,0,0,rectangle,-13.47460938,-2.870422363,1,0,0,-13.47460938,-2.870422363,1,0,0,0,131,131,35,1,,,,,,,,
,,,,,,,,,,,,,FF,,,,,,,,1.6511,,,,,,,,,,,,,,,,,,,,,,61035ae4030737a3d2a51a11,610365a85fddf2037cc5c2ca,2021-07-29_21h37.05.265,Simcolourproject_2stim_asymm_v5,2020.2.10,MacIntel,60,61025ae37ef11b136ea224fe,,,,,,,,,2091,89.2276001,54.77563477,1,0,0,response1disk,,6,28.25042725,8.804321289,1,0,0,rectangle,28.25042725,8.804321289,1,0,0,28.25042725,8.804321289,1,0,0,0,132,132,32,1,,,,,,,,
,,,,,,,,,,,,,FF,,,,,,,,0.8872,,,,,,,,,,,,,,,,,,,,,,61035ae4030737a3d2a51a11,610365a85fddf2037cc5c2ca,2021-07-29_21h37.05.265,Simcolourproject_2stim_asymm_v5,2020.2.10,MacIntel,60,61025ae37ef11b136ea224fe,,,,,,,,,1924,52.09143066,-30.8684082,1,0,0,response3disk,,5,18.69116211,-5.607574463,1,0,0,rectangle,18.69116211,-5.607574463,1,0,0,18.69116211,-5.607574463,1,0,0,0,133,133,109,1,,,,,,,,
,,,,,,,,,,,,,FF,,,,,,,,0.7201,,,,,,,,,,,,,,,,,,,,,,61035ae4030737a3d2a51a11,610365a85fddf2037cc5c2ca,2021-07-29_21h37.05.265,Simcolourproject_2stim_asymm_v5,2020.2.10,MacIntel,60,61025ae37ef11b136ea224fe,,,,,,,,,385,49.26977539,-29.91534424,1,0,0,response3disk,,5,21.79522705,-9.290283203,1,0,0,rectangle,21.79522705,-9.290283203,1,0,0,21.79522705,-9.290283203,1,0,0,0,134,134,140,1,,,,,,,,
,,,,,,,,,,,,,FF,,,,,,,,0.8153,,,,,,,,,,,,,,,,,,,,,,61035ae4030737a3d2a51a11,610365a85fddf2037cc5c2ca,2021-07-29_21h37.05.265,Simcolourproject_2stim_asymm_v5,2020.2.10,MacIntel,60,61025ae37ef11b136ea224fe,,,,,,,,,3291,-38.96569824,-81.38452148,1,0,0,response5disk,,3,2.714233398,-1.612915039,1,0,0,rectangle,2.714233398,-1.612915039,1,0,0,2.714233398,-1.612915039,1,0,0,0,135,135,39,1,,,,,,,,
,,,,,,,,,,,,,FF,,,,,,,,0.8838,,,,,,,,,,,,,,,,,,,,,,61035ae4030737a3d2a51a11,610365a85fddf2037cc5c2ca,2021-07-29_21h37.05.265,Simcolourproject_2stim_asymm_v5,2020.2.10,MacIntel,60,61025ae37ef11b136ea224fe,,,,,,,,,804,-36.5612793,-71.19647217,1,0,0,response5disk,,3,-14.93267822,-4.204345703,1,0,0,rectangle,-14.93267822,-4.204345703,1,0,0,-14.93267822,-4.204345703,1,0,0,0,136,136,23,1,,,,,,,,
,,,,,,,,,,,,,FF,,,,,,,,1.7496,,,,,,,,,,,,,,,,,,,,,,61035ae4030737a3d2a51a11,610365a85fddf2037cc5c2ca,2021-07-29_21h37.05.265,Simcolourproject_2stim_asymm_v5,2020.2.10,MacIntel,60,61025ae37ef11b136ea224fe,,,,,,,,,2529,16.26947021,-75.83795166,1,0,0,response3disk,,4,-1.07208252,2.174804688,1,0,0,rectangle,-1.07208252,2.174804688,1,0,0,-1.07208252,2.174804688,1,0,0,0,137,137,129,1,,,,,,,,
,,,,,,,,,,,,,FF,,,,,,,,0.9321,,,,,,,,,,,,,,,,,,,,,,61035ae4030737a3d2a51a11,610365a85fddf2037cc5c2ca,2021-07-29_21h37.05.265,Simcolourproject_2stim_asymm_v5,2020.2.10,MacIntel,60,61025ae37ef11b136ea224fe,,,,,,,,,1684,-87.00415039,-43.94940186,1,0,0,response5disk,,2,-4.376098633,1.000366211,1,0,0,rectangle,-4.376098633,1.000366211,1,0,0,-4.376098633,1.000366211,1,0,0,0,138,138,20,1,,,,,,,,
,,,,,,,,,,,,,FF,,,,,,,,0.7008,,,,,,,,,,,,,,,,,,,,,,61035ae4030737a3d2a51a11,610365a85fddf2037cc5c2ca,2021-07-29_21h37.05.265,Simcolourproject_2stim_asymm_v5,2020.2.10,MacIntel,60,61025ae37ef11b136ea224fe,,,,,,,,,2094,-80.55090332,-34.73455811,1,0,0,response5disk,,2,-8.631469727,-4.358764648,1,0,0,rectangle,-8.631469727,-4.358764648,1,0,0,-8.631469727,-4.358764648,1,0,0,0,139,139,148,1,,,,,,,,
,,,,,,,,,,,,,FF,,,,,,,,0.699,,,,,,,,,,,,,,,,,,,,,,61035ae4030737a3d2a51a11,610365a85fddf2037cc5c2ca,2021-07-29_21h37.05.265,Simcolourproject_2stim_asymm_v5,2020.2.10,MacIntel,60,61025ae37ef11b136ea224fe,,,,,,,,,294,77.6583252,36.56582642,1,0,0,response1disk,,6,20.71453857,4.334259033,1,0,0,rectangle,20.71453857,4.334259033,1,0,0,20.71453857,4.334259033,1,0,0,0,140,140,30,1,,,,,,,,
,,,,,,,,,,,,,FF,,,,,,,,0.568,,,,,,,,,,,,,,,,,,,,,,61035ae4030737a3d2a51a11,610365a85fddf2037cc5c2ca,2021-07-29_21h37.05.265,Simcolourproject_2stim_asymm_v5,2020.2.10,MacIntel,60,61025ae37ef11b136ea224fe,,,,,,,,,3770,55.87969971,-27.10592651,1,0,0,response3disk,,5,24.74499512,-0.512817383,1,0,0,rectangle,24.74499512,-0.512817383,1,0,0,24.74499512,-0.512817383,1,0,0,0,141,141,54,1,,,,,,,,
,,,,,,,,,,,,,FF,,,,,,,,0.7339,,,,,,,,,,,,,,,,,,,,,,61035ae4030737a3d2a51a11,610365a85fddf2037cc5c2ca,2021-07-29_21h37.05.265,Simcolourproject_2stim_asymm_v5,2020.2.10,MacIntel,60,61025ae37ef11b136ea224fe,,,,,,,,,3677,55.87402344,-37.28540039,1,0,0,response3disk,,5,13.05993652,-4.680664063,1,0,0,rectangle,13.05993652,-4.680664063,1,0,0,13.05993652,-4.680664063,1,0,0,0,142,142,34,1,,,,,,,,
,,,,,,,,,,,,,FF,,,,,,,,0.6847,,,,,,,,,,,,,,,,,,,,,,61035ae4030737a3d2a51a11,610365a85fddf2037cc5c2ca,2021-07-29_21h37.05.265,Simcolourproject_2stim_asymm_v5,2020.2.10,MacIntel,60,61025ae37ef11b136ea224fe,,,,,,,,,147,35.2611084,-62.31976318,1,0,0,response3disk,,4,13.26385498,-5.753936768,1,0,0,rectangle,13.26385498,-5.753936768,1,0,0,13.26385498,-5.753936768,1,0,0,0,143,143,29,1,,,,,,,,
,,,,,,,,,,,,,FF,,,,,,,,0.7323,,,,,,,,,,,,,,,,,,,,,,61035ae4030737a3d2a51a11,610365a85fddf2037cc5c2ca,2021-07-29_21h37.05.265,Simcolourproject_2stim_asymm_v5,2020.2.10,MacIntel,60,61025ae37ef11b136ea224fe,,,,,,,,,1595,30.01513672,52.59191895,1,0,0,response1disk,,7,-8.420471191,1.164367676,1,0,0,rectangle,74.82427979,30.59680176,1,0,0,12.97766113,3.961486816,1,0,0,0,144,144,75,1,,response1disk_3,TRUE,6,6,"[210,30,62,217,102,237,145,292,119,0,91,52,46,27,35,127,16,99,52,45]",1.5511,rectangle
,,,,,,,,,,,,,FF,,,,,,,,1.0347,,,,,,,,,,,,,,,,,,,,,,61035ae4030737a3d2a51a11,610365a85fddf2037cc5c2ca,2021-07-29_21h37.05.265,Simcolourproject_2stim_asymm_v5,2020.2.10,MacIntel,60,61025ae37ef11b136ea224fe,,,,,,,,,4303,28.84643555,68.16723633,1,0,0,response1disk,,7,18.01940918,1.747619629,1,0,0,rectangle,18.01940918,1.747619629,1,0,0,18.01940918,1.747619629,1,0,0,0,145,145,59,1,,,,,,,,
,,,,,,,,,,,,,FF,,,,,,,,1.2857,,,,,,,,,,,,,,,,,,,,,,61035ae4030737a3d2a51a11,610365a85fddf2037cc5c2ca,2021-07-29_21h37.05.265,Simcolourproject_2stim_asymm_v5,2020.2.10,MacIntel,60,61025ae37ef11b136ea224fe,,,,,,,,,1752,37.32507324,-56.5022583,1,0,0,response3disk,,4,29.70587158,13.69818115,1,0,0,rectangle,29.70587158,13.69818115,1,0,0,29.70587158,13.69818115,1,0,0,0,146,146,78,1,,,,,,,,
,,,,,,,,,,,,,FF,,,,,,,,1.8499,,,,,,,,,,,,,,,,,,,,,,61035ae4030737a3d2a51a11,610365a85fddf2037cc5c2ca,2021-07-29_21h37.05.265,Simcolourproject_2stim_asymm_v5,2020.2.10,MacIntel,60,61025ae37ef11b136ea224fe,,,,,,,,,3567,29.70587158,62.85964966,1,0,0,response1disk,,7,-2.78503418,0.970703125,1,0,0,rectangle,-2.78503418,0.970703125,1,0,0,-2.78503418,0.970703125,1,0,0,0,147,147,115,1,,,,,,,,
,,,,,,,,,,,,,FF,,,,,,,,1.2836,,,,,,,,,,,,,,,,,,,,,,61035ae4030737a3d2a51a11,610365a85fddf2037cc5c2ca,2021-07-29_21h37.05.265,Simcolourproject_2stim_asymm_v5,2020.2.10,MacIntel,60,61025ae37ef11b136ea224fe,,,,,,,,,1722,28.31591797,62.55322266,1,0,0,response1disk,,7,13.03912354,-6.497283936,1,0,0,rectangle,13.03912354,-6.497283936,1,0,0,13.03912354,-6.497283936,1,0,0,0,148,148,56,1,,,,,,,,
,,,,,,,,,,,,,FF,,,,,,,,0.7994,,,,,,,,,,,,,,,,,,,,,,61035ae4030737a3d2a51a11,610365a85fddf2037cc5c2ca,2021-07-29_21h37.05.265,Simcolourproject_2stim_asymm_v5,2020.2.10,MacIntel,60,61025ae37ef11b136ea224fe,,,,,,,,,2299,54.70343018,34.81512451,1,0,0,response1disk,,6,26.62689209,7.849090576,1,0,0,rectangle,26.62689209,7.849090576,1,0,0,26.62689209,7.849090576,1,0,0,0,149,149,40,1,,,,,,,,
,,,,,,,,,,,,,FF,,,,,,,,2.7486,,,,,,,,,,,,,,,,,,,,,,61035ae4030737a3d2a51a11,610365a85fddf2037cc5c2ca,2021-07-29_21h37.05.265,Simcolourproject_2stim_asymm_v5,2020.2.10,MacIntel,60,61025ae37ef11b136ea224fe,,,,,,,,,3422,66.05725098,-28.58581543,1,0,0,response3disk,,5,23.40631104,0.079772949,1,0,0,rectangle,23.40631104,0.079772949,1,0,0,23.40631104,0.079772949,1,0,0,0,150,150,22,1,,,,,,,,
,,,,,,,,,,,,,FF,,,,,,,,1.2677,,,,,,,,,,,,,,,,,,,,,,61035ae4030737a3d2a51a11,610365a85fddf2037cc5c2ca,2021-07-29_21h37.05.265,Simcolourproject_2stim_asymm_v5,2020.2.10,MacIntel,60,61025ae37ef11b136ea224fe,,,,,,,,,2249,69.76690674,30.87469482,1,0,0,response1disk,,6,9.442138672,-1.42779541,1,0,0,rectangle,9.442138672,-1.42779541,1,0,0,9.442138672,-1.42779541,1,0,0,0,151,151,149,1,,,,,,,,
,,,,,,,,,,,,,FF,,,,,,,,1.3673,,,,,,,,,,,,,,,,,,,,,,61035ae4030737a3d2a51a11,610365a85fddf2037cc5c2ca,2021-07-29_21h37.05.265,Simcolourproject_2stim_asymm_v5,2020.2.10,MacIntel,60,61025ae37ef11b136ea224fe,,,,,,,,,2243,36.64245605,68.45849609,1,0,0,response1disk,,7,15.04431152,11.5496521,1,0,0,rectangle,15.04431152,11.5496521,1,0,0,15.04431152,11.5496521,1,0,0,0,152,152,147,1,,,,,,,,
,,,,,,,,,,,,,FF,,,,,,,,1.4013,,,,,,,,,,,,,,,,,,,,,,61035ae4030737a3d2a51a11,610365a85fddf2037cc5c2ca,2021-07-29_21h37.05.265,Simcolourproject_2stim_asymm_v5,2020.2.10,MacIntel,60,61025ae37ef11b136ea224fe,,,,,,,,,614,61.86047363,-28.92745972,1,0,0,response3disk,,5,-3.42980957,7.057769775,1,0,0,rectangle,-3.42980957,7.057769775,1,0,0,-3.42980957,7.057769775,1,0,0,0,153,153,2,1,,,,,,,,
,,,,,,,,,,,,,FF,,,,,,,,1.147,,,,,,,,,,,,,,,,,,,,,,61035ae4030737a3d2a51a11,610365a85fddf2037cc5c2ca,2021-07-29_21h37.05.265,Simcolourproject_2stim_asymm_v5,2020.2.10,MacIntel,60,61025ae37ef11b136ea224fe,,,,,,,,,1658,60.41088867,42.82119751,1,0,0,response1disk,,6,1.550109863,-5.784118652,1,0,0,rectangle,1.550109863,-5.784118652,1,0,0,1.550109863,-5.784118652,1,0,0,0,154,154,103,1,,,,,,,,
,,,,,,,,,,,,,FF,,,,,,,,1.186,,,,,,,,,,,,,,,,,,,,,,61035ae4030737a3d2a51a11,610365a85fddf2037cc5c2ca,2021-07-29_21h37.05.265,Simcolourproject_2stim_asymm_v5,2020.2.10,MacIntel,60,61025ae37ef11b136ea224fe,,,,,,,,,2801,-38.63024902,-57.78466797,1,0,0,response5disk,,3,-10.92651367,3.439758301,1,0,0,rectangle,-10.92651367,3.439758301,1,0,0,-10.92651367,3.439758301,1,0,0,0,155,155,105,1,,,,,,,,
,,,,,,,,,,,,,FF,,,,,,,,0.6717,,,,,,,,,,,,,,,,,,,,,,61035ae4030737a3d2a51a11,610365a85fddf2037cc5c2ca,2021-07-29_21h37.05.265,Simcolourproject_2stim_asymm_v5,2020.2.10,MacIntel,60,61025ae37ef11b136ea224fe,,,,,,,,,2747,-32.19073486,-60.01452637,1,0,0,response5disk,,3,-14.5144043,-8.507019043,1,0,0,rectangle,-14.5144043,-8.507019043,1,0,0,-14.5144043,-8.507019043,1,0,0,0,156,156,153,1,,,,,,,,
,,,,,,,,,,,,,FF,,,,,,,,2.6036,,,,,,,,,,,,,,,,,,,,,,61035ae4030737a3d2a51a11,610365a85fddf2037cc5c2ca,2021-07-29_21h37.05.265,Simcolourproject_2stim_asymm_v5,2020.2.10,MacIntel,60,61025ae37ef11b136ea224fe,,,,,,,,,1497,24.52593994,55.01504517,1,0,0,response1disk,,7,14.26367188,-0.68170166,1,0,0,rectangle,14.26367188,-0.68170166,1,0,0,14.26367188,-0.68170166,1,0,0,0,157,157,7,1,,,,,,,,
,,,,,,,,,,,,,FF,,,,,,,,1.2555,,,,,,,,,,,,,,,,,,,,,,61035ae4030737a3d2a51a11,610365a85fddf2037cc5c2ca,2021-07-29_21h37.05.265,Simcolourproject_2stim_asymm_v5,2020.2.10,MacIntel,60,61025ae37ef11b136ea224fe,,,,,,,,,3179,58.57385254,-26.9630127,1,0,0,response3disk,,5,11.25427246,3.184051514,1,0,0,rectangle,11.25427246,3.184051514,1,0,0,11.25427246,3.184051514,1,0,0,0,158,158,6,1,,,,,,,,
,,,,,,,,,,,,,FF,,,,,,,,1.1018,,,,,,,,,,,,,,,,,,,,,,61035ae4030737a3d2a51a11,610365a85fddf2037cc5c2ca,2021-07-29_21h37.05.265,Simcolourproject_2stim_asymm_v5,2020.2.10,MacIntel,60,61025ae37ef11b136ea224fe,,,,,,,,,3666,58.0982666,31.62081909,1,0,0,response1disk,,6,22.7300415,2.258178711,1,0,0,rectangle,22.7300415,2.258178711,1,0,0,22.7300415,2.258178711,1,0,0,0,159,159,26,1,,,,,,,,
,,,,,,,,,,,,,FF,,,,,,,,1.3986,,,,,,,,,,,,,,,,,,,,,,61035ae4030737a3d2a51a11,610365a85fddf2037cc5c2ca,2021-07-29_21h37.05.265,Simcolourproject_2stim_asymm_v5,2020.2.10,MacIntel,60,61025ae37ef11b136ea224fe,,,,,,,,,2519,35.81396484,66.96221924,1,0,0,response1disk,,7,16.99194336,7.191101074,1,0,0,rectangle,16.99194336,7.191101074,1,0,0,16.99194336,7.191101074,1,0,0,1,0,160,61,1,,,,,,,,
,,,,,,,,,,,,,FF,,,,,,,,0.8864,,,,,,,,,,,,,,,,,,,,,,61035ae4030737a3d2a51a11,610365a85fddf2037cc5c2ca,2021-07-29_21h37.05.265,Simcolourproject_2stim_asymm_v5,2020.2.10,MacIntel,60,61025ae37ef11b136ea224fe,,,,,,,,,1368,-38.93133545,77.69256592,1,0,0,response7disk,,0,1.254882813,3.867919922,1,0,0,rectangle,1.254882813,3.867919922,1,0,0,1.254882813,3.867919922,1,0,0,1,1,161,58,1,,,,,,,,
,,,,,,,,,,,,,FF,,,,,,,,2.3812,,,,,,,,,,,,,,,,,,,,,,61035ae4030737a3d2a51a11,610365a85fddf2037cc5c2ca,2021-07-29_21h37.05.265,Simcolourproject_2stim_asymm_v5,2020.2.10,MacIntel,60,61025ae37ef11b136ea224fe,,,,,,,,,1342,35.85424805,33.49221802,1,0,0,response1disk,,6,1.930297852,-3.908447266,1,0,0,rectangle,1.930297852,-3.908447266,1,0,0,1.930297852,-3.908447266,1,0,0,1,2,162,27,1,,,,,,,,
,,,,,,,,,,,,,FF,,,,,,,,1.2422,,,,,,,,,,,,,,,,,,,,,,61035ae4030737a3d2a51a11,610365a85fddf2037cc5c2ca,2021-07-29_21h37.05.265,Simcolourproject_2stim_asymm_v5,2020.2.10,MacIntel,60,61025ae37ef11b136ea224fe,,,,,,,,,2413,-35.04962158,-56.87536621,1,0,0,response5disk,,3,-9.101196289,4.034179688,1,0,0,rectangle,-9.101196289,4.034179688,1,0,0,-9.101196289,4.034179688,1,0,0,1,3,163,44,1,,,,,,,,
,,,,,,,,,,,,,FF,,,,,,,,1.3005,,,,,,,,,,,,,,,,,,,,,,61035ae4030737a3d2a51a11,610365a85fddf2037cc5c2ca,2021-07-29_21h37.05.265,Simcolourproject_2stim_asymm_v5,2020.2.10,MacIntel,60,61025ae37ef11b136ea224fe,,,,,,,,,2743,30.74389648,66.37042236,1,0,0,response1disk,,7,13.10473633,0.903564453,1,0,0,rectangle,13.10473633,0.903564453,1,0,0,13.10473633,0.903564453,1,0,0,1,4,164,70,1,,,,,,,,
,,,,,,,,,,,,,FF,,,,,,,,0.7835,,,,,,,,,,,,,,,,,,,,,,61035ae4030737a3d2a51a11,610365a85fddf2037cc5c2ca,2021-07-29_21h37.05.265,Simcolourproject_2stim_asymm_v5,2020.2.10,MacIntel,60,61025ae37ef11b136ea224fe,,,,,,,,,3825,25.32568359,56.41174316,1,0,0,response1disk,,7,13.5534668,8.199157715,1,0,0,rectangle,13.5534668,8.199157715,1,0,0,13.5534668,8.199157715,1,0,0,1,5,165,107,1,,,,,,,,
,,,,,,,,,,,,,FF,,,,,,,,1.1893,,,,,,,,,,,,,,,,,,,,,,61035ae4030737a3d2a51a11,610365a85fddf2037cc5c2ca,2021-07-29_21h37.05.265,Simcolourproject_2stim_asymm_v5,2020.2.10,MacIntel,60,61025ae37ef11b136ea224fe,,,,,,,,,2083,51.98162842,-32.14508057,1,0,0,response3disk,,5,30.10949707,-6.030151367,1,0,0,rectangle,30.10949707,-6.030151367,1,0,0,30.10949707,-6.030151367,1,0,0,1,6,166,43,1,,,,,,,,
,,,,,,,,,,,,,FF,,,,,,,,1.1702,,,,,,,,,,,,,,,,,,,,,,61035ae4030737a3d2a51a11,610365a85fddf2037cc5c2ca,2021-07-29_21h37.05.265,Simcolourproject_2stim_asymm_v5,2020.2.10,MacIntel,60,61025ae37ef11b136ea224fe,,,,,,,,,2051,58.4420166,29.34088135,1,0,0,response1disk,,6,19.19055176,9.33972168,1,0,0,rectangle,19.19055176,9.33972168,1,0,0,19.19055176,9.33972168,1,0,0,1,7,167,118,1,,,,,,,,
,,,,,,,,,,,,,FF,,,,,,,,0.8474,,,,,,,,,,,,,,,,,,,,,,61035ae4030737a3d2a51a11,610365a85fddf2037cc5c2ca,2021-07-29_21h37.05.265,Simcolourproject_2stim_asymm_v5,2020.2.10,MacIntel,60,61025ae37ef11b136ea224fe,,,,,,,,,3028,34.75695801,63.49597168,1,0,0,response1disk,,7,21.61456299,-2.014678955,1,0,0,rectangle,21.61456299,-2.014678955,1,0,0,21.61456299,-2.014678955,1,0,0,1,8,168,138,1,,,,,,,,
,,,,,,,,,,,,,FF,,,,,,,,1.0348,,,,,,,,,,,,,,,,,,,,,,61035ae4030737a3d2a51a11,610365a85fddf2037cc5c2ca,2021-07-29_21h37.05.265,Simcolourproject_2stim_asymm_v5,2020.2.10,MacIntel,60,61025ae37ef11b136ea224fe,,,,,,,,,3813,27.93780518,-64.09655762,1,0,0,response3disk,,4,20.6003418,-11.7755127,1,0,0,rectangle,20.6003418,-11.7755127,1,0,0,20.6003418,-11.7755127,1,0,0,1,9,169,4,1,,,,,,,,
,,,,,,,,,,,,,FF,,,,,,,,1.3676,,,,,,,,,,,,,,,,,,,,,,61035ae4030737a3d2a51a11,610365a85fddf2037cc5c2ca,2021-07-29_21h37.05.265,Simcolourproject_2stim_asymm_v5,2020.2.10,MacIntel,60,61025ae37ef11b136ea224fe,,,,,,,,,878,48.40753174,61.44107056,1,0,0,response1disk,,7,11.78216553,-3.682861328,1,0,0,rectangle,11.78216553,-3.682861328,1,0,0,11.78216553,-3.682861328,1,0,0,1,10,170,157,1,,,,,,,,
,,,,,,,,,,,,,FF,,,,,,,,1.4169,,,,,,,,,,,,,,,,,,,,,,61035ae4030737a3d2a51a11,610365a85fddf2037cc5c2ca,2021-07-29_21h37.05.265,Simcolourproject_2stim_asymm_v5,2020.2.10,MacIntel,60,61025ae37ef11b136ea224fe,,,,,,,,,3454,66.77160645,31.12902832,1,0,0,response1disk,,6,12.89434814,2.270690918,1,0,0,rectangle,12.89434814,2.270690918,1,0,0,12.89434814,2.270690918,1,0,0,1,11,171,150,1,,,,,,,,
,,,,,,,,,,,,,FF,,,,,,,,1.1843,,,,,,,,,,,,,,,,,,,,,,61035ae4030737a3d2a51a11,610365a85fddf2037cc5c2ca,2021-07-29_21h37.05.265,Simcolourproject_2stim_asymm_v5,2020.2.10,MacIntel,60,61025ae37ef11b136ea224fe,,,,,,,,,34,34.46246338,69.72769165,1,0,0,response1disk,,7,24.44927979,11.78457642,1,0,0,rectangle,24.44927979,11.78457642,1,0,0,24.44927979,11.78457642,1,0,0,1,12,172,1,1,,,,,,,,
,,,,,,,,,,,,,FF,,,,,,,,2.5834,,,,,,,,,,,,,,,,,,,,,,61035ae4030737a3d2a51a11,610365a85fddf2037cc5c2ca,2021-07-29_21h37.05.265,Simcolourproject_2stim_asymm_v5,2020.2.10,MacIntel,60,61025ae37ef11b136ea224fe,,,,,,,,,1964,47.18847656,-78.14111328,1,0,0,response3disk,,4,14.36212158,2.693481445,1,0,0,rectangle,14.36212158,2.693481445,1,0,0,14.36212158,2.693481445,1,0,0,1,13,173,72,1,,,,,,,,
,,,,,,,,,,,,,FF,,,,,,,,2.1636,,,,,,,,,,,,,,,,,,,,,,61035ae4030737a3d2a51a11,610365a85fddf2037cc5c2ca,2021-07-29_21h37.05.265,Simcolourproject_2stim_asymm_v5,2020.2.10,MacIntel,60,61025ae37ef11b136ea224fe,,,,,,,,,257,36.16723633,-73.43225098,1,0,0,response3disk,,4,9.543945313,2.328460693,1,0,0,rectangle,9.543945313,2.328460693,1,0,0,9.543945313,2.328460693,1,0,0,1,14,174,102,1,,,,,,,,
,,,,,,,,,,,,,FF,,,,,,,,0.7995,,,,,,,,,,,,,,,,,,,,,,61035ae4030737a3d2a51a11,610365a85fddf2037cc5c2ca,2021-07-29_21h37.05.265,Simcolourproject_2stim_asymm_v5,2020.2.10,MacIntel,60,61025ae37ef11b136ea224fe,,,,,,,,,1312,44.86865234,28.42358398,1,0,0,response1disk,,6,13.88873291,-1.465393066,1,0,0,rectangle,13.88873291,-1.465393066,1,0,0,13.88873291,-1.465393066,1,0,0,1,15,175,11,1,,,,,,,,
,,,,,,,,,,,,,FF,,,,,,,,2.2155,,,,,,,,,,,,,,,,,,,,,,61035ae4030737a3d2a51a11,610365a85fddf2037cc5c2ca,2021-07-29_21h37.05.265,Simcolourproject_2stim_asymm_v5,2020.2.10,MacIntel,60,61025ae37ef11b136ea224fe,,,,,,,,,2284,70.97802734,36.97955322,1,0,0,response1disk,,6,20.74047852,2.052856445,1,0,0,rectangle,20.74047852,2.052856445,1,0,0,20.74047852,2.052856445,1,0,0,1,16,176,154,1,,,,,,,,
,,,,,,,,,,,,,FF,,,,,,,,0.7516,,,,,,,,,,,,,,,,,,,,,,61035ae4030737a3d2a51a11,610365a85fddf2037cc5c2ca,2021-07-29_21h37.05.265,Simcolourproject_2stim_asymm_v5,2020.2.10,MacIntel,60,61025ae37ef11b136ea224fe,,,,,,,,,3388,-39.06945801,81.50796509,1,0,0,response7disk,,0,-3.802978516,5.567016602,1,0,0,rectangle,-3.802978516,5.567016602,1,0,0,-3.802978516,5.567016602,1,0,0,1,17,177,3,1,,,,,,,,
,,,,,,,,,,,,,FF,,,,,,,,2.4147,,,,,,,,,,,,,,,,,,,,,,61035ae4030737a3d2a51a11,610365a85fddf2037cc5c2ca,2021-07-29_21h37.05.265,Simcolourproject_2stim_asymm_v5,2020.2.10,MacIntel,60,61025ae37ef11b136ea224fe,,,,,,,,,4129,83.61334229,-23.1416626,1,0,0,response3disk,,5,20.03369141,-1.670471191,1,0,0,rectangle,20.03369141,-1.670471191,1,0,0,20.03369141,-1.670471191,1,0,0,1,18,178,105,1,,,,,,,,
,,,,,,,,,,,,,FF,,,,,,,,1.1491,,,,,,,,,,,,,,,,,,,,,,61035ae4030737a3d2a51a11,610365a85fddf2037cc5c2ca,2021-07-29_21h37.05.265,Simcolourproject_2stim_asymm_v5,2020.2.10,MacIntel,60,61025ae37ef11b136ea224fe,,,,,,,,,3672,-75.40222168,-44.53552246,1,0,0,response5disk,,2,-2.164916992,-3.452087402,1,0,0,rectangle,-2.164916992,-3.452087402,1,0,0,-2.164916992,-3.452087402,1,0,0,1,19,179,25,1,,,,,,,,
,,,,,,,,,,,,,FF,,,,,,,,0.9994,,,,,,,,,,,,,,,,,,,,,,61035ae4030737a3d2a51a11,610365a85fddf2037cc5c2ca,2021-07-29_21h37.05.265,Simcolourproject_2stim_asymm_v5,2020.2.10,MacIntel,60,61025ae37ef11b136ea224fe,,,,,,,,,3872,30.28100586,53.24310303,1,0,0,response1disk,,7,17.68701172,-3.556762695,1,0,0,rectangle,17.68701172,-3.556762695,1,0,0,17.68701172,-3.556762695,1,0,0,1,20,180,33,1,,,,,,,,
,,,,,,,,,,,,,FF,,,,,,,,1.0509,,,,,,,,,,,,,,,,,,,,,,61035ae4030737a3d2a51a11,610365a85fddf2037cc5c2ca,2021-07-29_21h37.05.265,Simcolourproject_2stim_asymm_v5,2020.2.10,MacIntel,60,61025ae37ef11b136ea224fe,,,,,,,,,638,66.5713501,32.47229004,1,0,0,response1disk,,6,25.38226318,0.41418457,1,0,0,rectangle,25.38226318,0.41418457,1,0,0,25.38226318,0.41418457,1,0,0,1,21,181,80,1,,,,,,,,
,,,,,,,,,,,,,FF,,,,,,,,0.8493,,,,,,,,,,,,,,,,,,,,,,61035ae4030737a3d2a51a11,610365a85fddf2037cc5c2ca,2021-07-29_21h37.05.265,Simcolourproject_2stim_asymm_v5,2020.2.10,MacIntel,60,61025ae37ef11b136ea224fe,,,,,,,,,1130,22.22967529,67.27194214,1,0,0,response1disk,,7,-4.052368164,8.32800293,1,0,0,rectangle,-4.052368164,8.32800293,1,0,0,-4.052368164,8.32800293,1,0,0,1,22,182,39,1,,,,,,,,
,,,,,,,,,,,,,FF,,,,,,,,0.7006,,,,,,,,,,,,,,,,,,,,,,61035ae4030737a3d2a51a11,610365a85fddf2037cc5c2ca,2021-07-29_21h37.05.265,Simcolourproject_2stim_asymm_v5,2020.2.10,MacIntel,60,61025ae37ef11b136ea224fe,,,,,,,,,4284,20.81048584,67.1932373,1,0,0,response1disk,,7,2.618164063,-4.067626953,1,0,0,rectangle,2.618164063,-4.067626953,1,0,0,2.618164063,-4.067626953,1,0,0,1,23,183,81,1,,,,,,,,
,,,,,,,,,,,,,FF,,,,,,,,0.799,,,,,,,,,,,,,,,,,,,,,,61035ae4030737a3d2a51a11,610365a85fddf2037cc5c2ca,2021-07-29_21h37.05.265,Simcolourproject_2stim_asymm_v5,2020.2.10,MacIntel,60,61025ae37ef11b136ea224fe,,,,,,,,,3521,43.79962158,-27.07940674,1,0,0,response3disk,,5,19.4342041,-0.623565674,1,0,0,rectangle,19.4342041,-0.623565674,1,0,0,19.4342041,-0.623565674,1,0,0,1,24,184,94,1,,,,,,,,
,,,,,,,,,,,,,FF,,,,,,,,0.785,,,,,,,,,,,,,,,,,,,,,,61035ae4030737a3d2a51a11,610365a85fddf2037cc5c2ca,2021-07-29_21h37.05.265,Simcolourproject_2stim_asymm_v5,2020.2.10,MacIntel,60,61025ae37ef11b136ea224fe,,,,,,,,,635,28.10595703,-64.19470215,1,0,0,response3disk,,4,20.80047607,-10.41845703,1,0,0,rectangle,20.80047607,-10.41845703,1,0,0,20.80047607,-10.41845703,1,0,0,1,25,185,49,1,,,,,,,,
,,,,,,,,,,,,,FF,,,,,,,,11.481,,,,,,,,,,,,,,,,,,,,,,61035ae4030737a3d2a51a11,610365a85fddf2037cc5c2ca,2021-07-29_21h37.05.265,Simcolourproject_2stim_asymm_v5,2020.2.10,MacIntel,60,61025ae37ef11b136ea224fe,,,,,,,,,3631,36.6940918,110.0315552,1,0,0,response1disk,,7,3.992675781,5.020019531,1,0,0,rectangle,3.992675781,5.020019531,1,0,0,3.992675781,5.020019531,1,0,0,1,26,186,86,1,,,,,,,,
,,,,,,,,,,,,,FF,,,,,,,,0.801,,,,,,,,,,,,,,,,,,,,,,61035ae4030737a3d2a51a11,610365a85fddf2037cc5c2ca,2021-07-29_21h37.05.265,Simcolourproject_2stim_asymm_v5,2020.2.10,MacIntel,60,61025ae37ef11b136ea224fe,,,,,,,,,670,46.87481689,88.80462646,1,0,0,response1disk,,7,7.92199707,-1.16583252,1,0,0,rectangle,7.92199707,-1.16583252,1,0,0,7.92199707,-1.16583252,1,0,0,1,27,187,135,1,,,,,,,,
,,,,,,,,,,,,,FF,,,,,,,,0.7693,,,,,,,,,,,,,,,,,,,,,,61035ae4030737a3d2a51a11,610365a85fddf2037cc5c2ca,2021-07-29_21h37.05.265,Simcolourproject_2stim_asymm_v5,2020.2.10,MacIntel,60,61025ae37ef11b136ea224fe,,,,,,,,,4010,49.91772461,77.4197998,1,0,0,response1disk,,7,16.87097168,-3.327880859,1,0,0,rectangle,16.87097168,-3.327880859,1,0,0,16.87097168,-3.327880859,1,0,0,1,28,188,66,1,,,,,,,,
,,,,,,,,,,,,,FF,,,,,,,,0.6387,,,,,,,,,,,,,,,,,,,,,,61035ae4030737a3d2a51a11,610365a85fddf2037cc5c2ca,2021-07-29_21h37.05.265,Simcolourproject_2stim_asymm_v5,2020.2.10,MacIntel,60,61025ae37ef11b136ea224fe,,,,,,,,,264,61.53588867,26.57147217,1,0,0,response1disk,,6,15.99334717,-2.174987793,1,0,0,rectangle,15.99334717,-2.174987793,1,0,0,15.99334717,-2.174987793,1,0,0,1,29,189,132,1,,,,,,,,
,,,,,,,,,,,,,FF,,,,,,,,0.666,,,,,,,,,,,,,,,,,,,,,,61035ae4030737a3d2a51a11,610365a85fddf2037cc5c2ca,2021-07-29_21h37.05.265,Simcolourproject_2stim_asymm_v5,2020.2.10,MacIntel,60,61025ae37ef11b136ea224fe,,,,,,,,,399,37.09020996,66.53186035,1,0,0,response1disk,,7,20.45446777,-0.024169922,1,0,0,rectangle,20.45446777,-0.024169922,1,0,0,20.45446777,-0.024169922,1,0,0,1,30,190,73,1,,,,,,,,
,,,,,,,,,,,,,FF,,,,,,,,1.0978,,,,,,,,,,,,,,,,,,,,,,61035ae4030737a3d2a51a11,610365a85fddf2037cc5c2ca,2021-07-29_21h37.05.265,Simcolourproject_2stim_asymm_v5,2020.2.10,MacIntel,60,61025ae37ef11b136ea224fe,,,,,,,,,3224,26.45013428,73.98959351,1,0,0,response1disk,,7,12.54937744,1.675354004,1,0,0,rectangle,12.54937744,1.675354004,1,0,0,12.54937744,1.675354004,1,0,0,1,31,191,158,1,,,,,,,,
,,,,,,,,,,,,,FF,,,,,,,,0.6065,,,,,,,,,,,,,,,,,,,,,,61035ae4030737a3d2a51a11,610365a85fddf2037cc5c2ca,2021-07-29_21h37.05.265,Simcolourproject_2stim_asymm_v5,2020.2.10,MacIntel,60,61025ae37ef11b136ea224fe,,,,,,,,,1443,35.97888184,65.34106445,1,0,0,response1disk,,7,21.58752441,6.353759766,1,0,0,rectangle,21.58752441,6.353759766,1,0,0,21.58752441,6.353759766,1,0,0,1,32,192,13,1,,,,,,,,
,,,,,,,,,,,,,FF,,,,,,,,1.6331,,,,,,,,,,,,,,,,,,,,,,61035ae4030737a3d2a51a11,610365a85fddf2037cc5c2ca,2021-07-29_21h37.05.265,Simcolourproject_2stim_asymm_v5,2020.2.10,MacIntel,60,61025ae37ef11b136ea224fe,,,,,,,,,1331,38.88952637,65.51132202,1,0,0,response1disk,,7,27.85327148,5.278625488,1,0,0,rectangle,27.85327148,5.278625488,1,0,0,27.85327148,5.278625488,1,0,0,1,33,193,51,1,,,,,,,,
,,,,,,,,,,,,,FF,,,,,,,,1.5332,,,,,,,,,,,,,,,,,,,,,,61035ae4030737a3d2a51a11,610365a85fddf2037cc5c2ca,2021-07-29_21h37.05.265,Simcolourproject_2stim_asymm_v5,2020.2.10,MacIntel,60,61025ae37ef11b136ea224fe,,,,,,,,,517,63.97546387,28.90280151,1,0,0,response1disk,,6,15.27728271,7.798980713,1,0,0,rectangle,15.27728271,7.798980713,1,0,0,15.27728271,7.798980713,1,0,0,1,34,194,29,1,,,,,,,,
,,,,,,,,,,,,,FF,,,,,,,,0.9684,,,,,,,,,,,,,,,,,,,,,,61035ae4030737a3d2a51a11,610365a85fddf2037cc5c2ca,2021-07-29_21h37.05.265,Simcolourproject_2stim_asymm_v5,2020.2.10,MacIntel,60,61025ae37ef11b136ea224fe,,,,,,,,,477,52.81134033,35.5032959,1,0,0,response1disk,,6,6.762390137,7.2734375,1,0,0,rectangle,6.762390137,7.2734375,1,0,0,6.762390137,7.2734375,1,0,0,1,35,195,9,1,,,,,,,,
,,,,,,,,,,,,,FF,,,,,,,,1.1347,,,,,,,,,,,,,,,,,,,,,,61035ae4030737a3d2a51a11,610365a85fddf2037cc5c2ca,2021-07-29_21h37.05.265,Simcolourproject_2stim_asymm_v5,2020.2.10,MacIntel,60,61025ae37ef11b136ea224fe,,,,,,,,,4310,38.19366455,62.58901978,1,0,0,response1disk,,7,23.69946289,4.084381104,1,0,0,rectangle,23.69946289,4.084381104,1,0,0,23.69946289,4.084381104,1,0,0,1,36,196,47,1,,,,,,,,
,,,,,,,,,,,,,FF,,,,,,,,1.0318,,,,,,,,,,,,,,,,,,,,,,61035ae4030737a3d2a51a11,610365a85fddf2037cc5c2ca,2021-07-29_21h37.05.265,Simcolourproject_2stim_asymm_v5,2020.2.10,MacIntel,60,61025ae37ef11b136ea224fe,,,,,,,,,1374,18.15307617,-49.6105957,1,0,0,response3disk,,4,14.24615479,-7.770812988,1,0,0,rectangle,14.24615479,-7.770812988,1,0,0,14.24615479,-7.770812988,1,0,0,1,37,197,69,1,,,,,,,,
,,,,,,,,,,,,,FF,,,,,,,,0.8511,,,,,,,,,,,,,,,,,,,,,,61035ae4030737a3d2a51a11,610365a85fddf2037cc5c2ca,2021-07-29_21h37.05.265,Simcolourproject_2stim_asymm_v5,2020.2.10,MacIntel,60,61025ae37ef11b136ea224fe,,,,,,,,,4219,27.99072266,-28.34075928,1,0,0,response3disk,,4,23.67376709,-3.118408203,1,0,0,rectangle,23.67376709,-3.118408203,1,0,0,23.67376709,-3.118408203,1,0,0,1,38,198,96,1,,,,,,,,
,,,,,,,,,,,,,FF,,,,,,,,0.8189,,,,,,,,,,,,,,,,,,,,,,61035ae4030737a3d2a51a11,610365a85fddf2037cc5c2ca,2021-07-29_21h37.05.265,Simcolourproject_2stim_asymm_v5,2020.2.10,MacIntel,60,61025ae37ef11b136ea224fe,,,,,,,,,1317,44.60229492,-22.50152588,1,0,0,response3disk,,5,35.8192749,-2.991638184,1,0,0,rectangle,35.8192749,-2.991638184,1,0,0,35.8192749,-2.991638184,1,0,0,1,39,199,60,1,,,,,,,,
,,,,,,,,,,,,,FF,,,,,,,,1.0172,,,,,,,,,,,,,,,,,,,,,,61035ae4030737a3d2a51a11,610365a85fddf2037cc5c2ca,2021-07-29_21h37.05.265,Simcolourproject_2stim_asymm_v5,2020.2.10,MacIntel,60,61025ae37ef11b136ea224fe,,,,,,,,,713,37.40264893,67.11553955,1,0,0,response1disk,,7,6.263549805,5.990600586,1,0,0,rectangle,6.263549805,5.990600586,1,0,0,6.263549805,5.990600586,1,0,0,1,40,200,87,1,,,,,,,,
,,,,,,,,,,,,,FF,,,,,,,,1.0552,,,,,,,,,,,,,,,,,,,,,,61035ae4030737a3d2a51a11,610365a85fddf2037cc5c2ca,2021-07-29_21h37.05.265,Simcolourproject_2stim_asymm_v5,2020.2.10,MacIntel,60,61025ae37ef11b136ea224fe,,,,,,,,,1922,30.85125732,58.45037842,1,0,0,response1disk,,7,12.59594727,6.196990967,1,0,0,rectangle,12.59594727,6.196990967,1,0,0,12.59594727,6.196990967,1,0,0,1,41,201,75,1,,,,,,,,
,,,,,,,,,,,,,FF,,,,,,,,0.8337,,,,,,,,,,,,,,,,,,,,,,61035ae4030737a3d2a51a11,610365a85fddf2037cc5c2ca,2021-07-29_21h37.05.265,Simcolourproject_2stim_asymm_v5,2020.2.10,MacIntel,60,61025ae37ef11b136ea224fe,,,,,,,,,2539,24.32171631,60.89416504,1,0,0,response1disk,,7,9.63269043,0.720733643,1,0,0,rectangle,9.63269043,0.720733643,1,0,0,9.63269043,0.720733643,1,0,0,1,42,202,18,1,,,,,,,,
,,,,,,,,,,,,,FF,,,,,,,,0.7831,,,,,,,,,,,,,,,,,,,,,,61035ae4030737a3d2a51a11,610365a85fddf2037cc5c2ca,2021-07-29_21h37.05.265,Simcolourproject_2stim_asymm_v5,2020.2.10,MacIntel,60,61025ae37ef11b136ea224fe,,,,,,,,,2342,50.49072266,18.92199707,1,0,0,response1disk,,6,16.96838379,1.813903809,1,0,0,rectangle,16.96838379,1.813903809,1,0,0,16.96838379,1.813903809,1,0,0,1,43,203,17,1,,,,,,,,
,,,,,,,,,,,,,FF,,,,,,,,0.9177,,,,,,,,,,,,,,,,,,,,,,61035ae4030737a3d2a51a11,610365a85fddf2037cc5c2ca,2021-07-29_21h37.05.265,Simcolourproject_2stim_asymm_v5,2020.2.10,MacIntel,60,61025ae37ef11b136ea224fe,,,,,,,,,278,-27.23413086,-42.17529297,1,0,0,response5disk,,3,-3.91809082,6.405395508,1,0,0,rectangle,-3.91809082,6.405395508,1,0,0,-3.91809082,6.405395508,1,0,0,1,44,204,110,1,,,,,,,,
,,,,,,,,,,,,,FF,,,,,,,,0.9028,,,,,,,,,,,,,,,,,,,,,,61035ae4030737a3d2a51a11,610365a85fddf2037cc5c2ca,2021-07-29_21h37.05.265,Simcolourproject_2stim_asymm_v5,2020.2.10,MacIntel,60,61025ae37ef11b136ea224fe,,,,,,,,,747,45.97729492,-26.90313721,1,0,0,response3disk,,5,22.83728027,-1.832519531,1,0,0,rectangle,22.83728027,-1.832519531,1,0,0,22.83728027,-1.832519531,1,0,0,1,45,205,101,1,,,,,,,,
,,,,,,,,,,,,,FF,,,,,,,,0.7997,,,,,,,,,,,,,,,,,,,,,,61035ae4030737a3d2a51a11,610365a85fddf2037cc5c2ca,2021-07-29_21h37.05.265,Simcolourproject_2stim_asymm_v5,2020.2.10,MacIntel,60,61025ae37ef11b136ea224fe,,,,,,,,,3713,-37.5713501,-79.56256104,1,0,0,response5disk,,3,-3.639282227,-0.294006348,1,0,0,rectangle,-3.639282227,-0.294006348,1,0,0,-3.639282227,-0.294006348,1,0,0,1,46,206,136,1,,,,,,,,
,,,,,,,,,,,,,FF,,,,,,,,0.8163,,,,,,,,,,,,,,,,,,,,,,61035ae4030737a3d2a51a11,610365a85fddf2037cc5c2ca,2021-07-29_21h37.05.265,Simcolourproject_2stim_asymm_v5,2020.2.10,MacIntel,60,61025ae37ef11b136ea224fe,,,,,,,,,551,-33.81903076,-68.26470947,1,0,0,response5disk,,3,-16.74951172,-9.929016113,1,0,0,rectangle,-16.74951172,-9.929016113,1,0,0,-16.74951172,-9.929016113,1,0,0,1,47,207,57,1,,,,,,,,
,,,,,,,,,,,,,FF,,,,,,,,0.7995,,,,,,,,,,,,,,,,,,,,,,61035ae4030737a3d2a51a11,610365a85fddf2037cc5c2ca,2021-07-29_21h37.05.265,Simcolourproject_2stim_asymm_v5,2020.2.10,MacIntel,60,61025ae37ef11b136ea224fe,,,,,,,,,3480,19.77050781,-57.57141113,1,0,0,response3disk,,4,11.04455566,-9.225463867,1,0,0,rectangle,11.04455566,-9.225463867,1,0,0,11.04455566,-9.225463867,1,0,0,1,48,208,93,1,,,,,,,,
,,,,,,,,,,,,,FF,,,,,,,,0.7176,,,,,,,,,,,,,,,,,,,,,,61035ae4030737a3d2a51a11,610365a85fddf2037cc5c2ca,2021-07-29_21h37.05.265,Simcolourproject_2stim_asymm_v5,2020.2.10,MacIntel,60,61025ae37ef11b136ea224fe,,,,,,,,,4326,-36.9395752,51.006073,1,0,0,response7disk,,0,-19.81567383,6.032531738,1,0,0,rectangle,16.33349609,-62.79498291,1,0,0,9.905273438,-5.662994385,1,0,0,1,49,209,126,1,,response3disk_3,TRUE,4,4,"[210,30,62,217,102,237,145,292,119,0,91,52,46,27,35,127,16,99,52,45]",1.8348,rectangle
,,,,,,,,,,,,,FF,,,,,,,,1.2194,,,,,,,,,,,,,,,,,,,,,,61035ae4030737a3d2a51a11,610365a85fddf2037cc5c2ca,2021-07-29_21h37.05.265,Simcolourproject_2stim_asymm_v5,2020.2.10,MacIntel,60,61025ae37ef11b136ea224fe,,,,,,,,,3699,42.84350586,-19.09649658,1,0,0,response3disk,,5,29.02874756,-4.316833496,1,0,0,rectangle,29.02874756,-4.316833496,1,0,0,29.02874756,-4.316833496,1,0,0,1,50,210,79,1,,,,,,,,
,,,,,,,,,,,,,FF,,,,,,,,0.7321,,,,,,,,,,,,,,,,,,,,,,61035ae4030737a3d2a51a11,610365a85fddf2037cc5c2ca,2021-07-29_21h37.05.265,Simcolourproject_2stim_asymm_v5,2020.2.10,MacIntel,60,61025ae37ef11b136ea224fe,,,,,,,,,959,20.44403076,40.37005615,1,0,0,response1disk,,7,7.69934082,1.104248047,1,0,0,rectangle,7.69934082,1.104248047,1,0,0,7.69934082,1.104248047,1,0,0,1,51,211,53,1,,,,,,,,
,,,,,,,,,,,,,FF,,,,,,,,0.9999,,,,,,,,,,,,,,,,,,,,,,61035ae4030737a3d2a51a11,610365a85fddf2037cc5c2ca,2021-07-29_21h37.05.265,Simcolourproject_2stim_asymm_v5,2020.2.10,MacIntel,60,61025ae37ef11b136ea224fe,,,,,,,,,2582,45.20275879,80.46380615,1,0,0,response1disk,,7,2.196105957,1.553405762,1,0,0,rectangle,2.196105957,1.553405762,1,0,0,2.196105957,1.553405762,1,0,0,1,52,212,76,1,,,,,,,,
,,,,,,,,,,,,,FF,,,,,,,,1.219,,,,,,,,,,,,,,,,,,,,,,61035ae4030737a3d2a51a11,610365a85fddf2037cc5c2ca,2021-07-29_21h37.05.265,Simcolourproject_2stim_asymm_v5,2020.2.10,MacIntel,60,61025ae37ef11b136ea224fe,,,,,,,,,3177,73.30371094,-37.57287598,1,0,0,response3disk,,5,26.72137451,-6.511108398,1,0,0,rectangle,26.72137451,-6.511108398,1,0,0,26.72137451,-6.511108398,1,0,0,1,53,213,103,1,,,,,,,,
,,,,,,,,,,,,,FF,,,,,,,,0.868,,,,,,,,,,,,,,,,,,,,,,61035ae4030737a3d2a51a11,610365a85fddf2037cc5c2ca,2021-07-29_21h37.05.265,Simcolourproject_2stim_asymm_v5,2020.2.10,MacIntel,60,61025ae37ef11b136ea224fe,,,,,,,,,4229,51.54882813,-29.86035156,1,0,0,response3disk,,5,32.30456543,-8.889709473,1,0,0,rectangle,32.30456543,-8.889709473,1,0,0,32.30456543,-8.889709473,1,0,0,1,54,214,127,1,,,,,,,,
,,,,,,,,,,,,,FF,,,,,,,,1.3342,,,,,,,,,,,,,,,,,,,,,,61035ae4030737a3d2a51a11,610365a85fddf2037cc5c2ca,2021-07-29_21h37.05.265,Simcolourproject_2stim_asymm_v5,2020.2.10,MacIntel,60,61025ae37ef11b136ea224fe,,,,,,,,,1170,89.34143066,34.14602661,1,0,0,response1disk,,6,32.21160889,12.06143188,1,0,0,rectangle,32.21160889,12.06143188,1,0,0,32.21160889,12.06143188,1,0,0,1,55,215,142,1,,,,,,,,
,,,,,,,,,,,,,FF,,,,,,,,2.0852,,,,,,,,,,,,,,,,,,,,,,61035ae4030737a3d2a51a11,610365a85fddf2037cc5c2ca,2021-07-29_21h37.05.265,Simcolourproject_2stim_asymm_v5,2020.2.10,MacIntel,60,61025ae37ef11b136ea224fe,,,,,,,,,3461,-30.14599609,-76.46142578,1,0,0,response5disk,,3,1.73626709,12.23284912,1,0,0,rectangle,69.17944336,42.37548828,1,0,0,1.231872559,3.092285156,1,0,0,1,56,216,109,1,,response1disk_3,TRUE,6,6,"[210,30,62,217,102,237,145,292,119,0,91,52,46,27,35,127,16,99,52,45]",1.3491,rectangle
,,,,,,,,,,,,,FF,,,,,,,,0.8503,,,,,,,,,,,,,,,,,,,,,,61035ae4030737a3d2a51a11,610365a85fddf2037cc5c2ca,2021-07-29_21h37.05.265,Simcolourproject_2stim_asymm_v5,2020.2.10,MacIntel,60,61025ae37ef11b136ea224fe,,,,,,,,,3068,27.45672607,48.30511475,1,0,0,response1disk,,7,15.32543945,-0.332763672,1,0,0,rectangle,15.32543945,-0.332763672,1,0,0,15.32543945,-0.332763672,1,0,0,1,57,217,90,1,,,,,,,,
,,,,,,,,,,,,,FF,,,,,,,,0.9998,,,,,,,,,,,,,,,,,,,,,,61035ae4030737a3d2a51a11,610365a85fddf2037cc5c2ca,2021-07-29_21h37.05.265,Simcolourproject_2stim_asymm_v5,2020.2.10,MacIntel,60,61025ae37ef11b136ea224fe,,,,,,,,,3817,-34.0255127,-65.55004883,1,0,0,response5disk,,3,-3.665527344,4.714324951,1,0,0,rectangle,-3.665527344,4.714324951,1,0,0,-3.665527344,4.714324951,1,0,0,1,58,218,144,1,,,,,,,,
,,,,,,,,,,,,,FF,,,,,,,,1.0659,,,,,,,,,,,,,,,,,,,,,,61035ae4030737a3d2a51a11,610365a85fddf2037cc5c2ca,2021-07-29_21h37.05.265,Simcolourproject_2stim_asymm_v5,2020.2.10,MacIntel,60,61025ae37ef11b136ea224fe,,,,,,,,,1783,97.40026855,-50.53320313,1,0,0,response3disk,,5,19.89221191,3.194885254,1,0,0,rectangle,19.89221191,3.194885254,1,0,0,19.89221191,3.194885254,1,0,0,1,59,219,106,1,,,,,,,,
,,,,,,,,,,,,,FF,,,,,,,,1.4,,,,,,,,,,,,,,,,,,,,,,61035ae4030737a3d2a51a11,610365a85fddf2037cc5c2ca,2021-07-29_21h37.05.265,Simcolourproject_2stim_asymm_v5,2020.2.10,MacIntel,60,61025ae37ef11b136ea224fe,,,,,,,,,2651,-28.01367188,-87.45440674,1,0,0,response5disk,,3,6.882141113,1.536743164,1,0,0,rectangle,6.882141113,1.536743164,1,0,0,6.882141113,1.536743164,1,0,0,1,60,220,116,1,,,,,,,,
,,,,,,,,,,,,,FF,,,,,,,,0.9873,,,,,,,,,,,,,,,,,,,,,,61035ae4030737a3d2a51a11,610365a85fddf2037cc5c2ca,2021-07-29_21h37.05.265,Simcolourproject_2stim_asymm_v5,2020.2.10,MacIntel,60,61025ae37ef11b136ea224fe,,,,,,,,,2548,-40.16668701,-92.50146484,1,0,0,response5disk,,3,2.928344727,-0.099975586,1,0,0,rectangle,2.928344727,-0.099975586,1,0,0,2.928344727,-0.099975586,1,0,0,1,61,221,134,1,,,,,,,,
,,,,,,,,,,,,,FF,,,,,,,,0.6697,,,,,,,,,,,,,,,,,,,,,,61035ae4030737a3d2a51a11,610365a85fddf2037cc5c2ca,2021-07-29_21h37.05.265,Simcolourproject_2stim_asymm_v5,2020.2.10,MacIntel,60,61025ae37ef11b136ea224fe,,,,,,,,,359,94.74755859,-40.80444336,1,0,0,response3disk,,5,30.32672119,-3.771057129,1,0,0,rectangle,30.32672119,-3.771057129,1,0,0,30.32672119,-3.771057129,1,0,0,1,62,222,28,1,,,,,,,,
,,,,,,,,,,,,,FF,,,,,,,,0.567,,,,,,,,,,,,,,,,,,,,,,61035ae4030737a3d2a51a11,610365a85fddf2037cc5c2ca,2021-07-29_21h37.05.265,Simcolourproject_2stim_asymm_v5,2020.2.10,MacIntel,60,61025ae37ef11b136ea224fe,,,,,,,,,3657,65.11743164,-40.50341797,1,0,0,response3disk,,5,31.60559082,-1.585205078,1,0,0,rectangle,31.60559082,-1.585205078,1,0,0,31.60559082,-1.585205078,1,0,0,1,63,223,50,1,,,,,,,,
,,,,,,,,,,,,,FF,,,,,,,,0.8818,,,,,,,,,,,,,,,,,,,,,,61035ae4030737a3d2a51a11,610365a85fddf2037cc5c2ca,2021-07-29_21h37.05.265,Simcolourproject_2stim_asymm_v5,2020.2.10,MacIntel,60,61025ae37ef11b136ea224fe,,,,,,,,,522,74.06567383,42.63684082,1,0,0,response1disk,,6,21.28729248,1.031616211,1,0,0,rectangle,21.28729248,1.031616211,1,0,0,21.28729248,1.031616211,1,0,0,1,64,224,129,1,,,,,,,,
,,,,,,,,,,,,,FF,,,,,,,,0.8331,,,,,,,,,,,,,,,,,,,,,,61035ae4030737a3d2a51a11,610365a85fddf2037cc5c2ca,2021-07-29_21h37.05.265,Simcolourproject_2stim_asymm_v5,2020.2.10,MacIntel,60,61025ae37ef11b136ea224fe,,,,,,,,,3100,-63.14703369,-50.64080811,1,0,0,response5disk,,2,8.970153809,9.363586426,1,0,0,rectangle,8.970153809,9.363586426,1,0,0,8.970153809,9.363586426,1,0,0,1,65,225,156,1,,,,,,,,
,,,,,,,,,,,,,FF,,,,,,,,0.7183,,,,,,,,,,,,,,,,,,,,,,61035ae4030737a3d2a51a11,610365a85fddf2037cc5c2ca,2021-07-29_21h37.05.265,Simcolourproject_2stim_asymm_v5,2020.2.10,MacIntel,60,61025ae37ef11b136ea224fe,,,,,,,,,3393,-62.59802246,-30.94775391,1,0,0,response5disk,,2,-9.960266113,-1.23059082,1,0,0,rectangle,-9.960266113,-1.23059082,1,0,0,-9.960266113,-1.23059082,1,0,0,1,66,226,108,1,,,,,,,,
,,,,,,,,,,,,,FF,,,,,,,,0.707,,,,,,,,,,,,,,,,,,,,,,61035ae4030737a3d2a51a11,610365a85fddf2037cc5c2ca,2021-07-29_21h37.05.265,Simcolourproject_2stim_asymm_v5,2020.2.10,MacIntel,60,61025ae37ef11b136ea224fe,,,,,,,,,1956,-30.75354004,74.57800293,1,0,0,response7disk,,0,14.50018311,-11.73779297,1,0,0,rectangle,14.50018311,-11.73779297,1,0,0,14.50018311,-11.73779297,1,0,0,1,67,227,34,1,,,,,,,,
,,,,,,,,,,,,,FF,,,,,,,,1.0864,,,,,,,,,,,,,,,,,,,,,,61035ae4030737a3d2a51a11,610365a85fddf2037cc5c2ca,2021-07-29_21h37.05.265,Simcolourproject_2stim_asymm_v5,2020.2.10,MacIntel,60,61025ae37ef11b136ea224fe,,,,,,,,,169,-73.31182861,-27.58886719,1,0,0,response5disk,,2,-20.7220459,-4.11138916,1,0,0,rectangle,-20.7220459,-4.11138916,1,0,0,-20.7220459,-4.11138916,1,0,0,1,68,228,63,1,,,,,,,,
,,,,,,,,,,,,,FF,,,,,,,,0.8013,,,,,,,,,,,,,,,,,,,,,,61035ae4030737a3d2a51a11,610365a85fddf2037cc5c2ca,2021-07-29_21h37.05.265,Simcolourproject_2stim_asymm_v5,2020.2.10,MacIntel,60,61025ae37ef11b136ea224fe,,,,,,,,,2887,-57.42224121,34.05419922,1,0,0,response7disk,,1,-13.29443359,-6.934936523,1,0,0,rectangle,-13.29443359,-6.934936523,1,0,0,-13.29443359,-6.934936523,1,0,0,1,69,229,52,1,,,,,,,,
,,,,,,,,,,,,,FF,,,,,,,,0.8508,,,,,,,,,,,,,,,,,,,,,,61035ae4030737a3d2a51a11,610365a85fddf2037cc5c2ca,2021-07-29_21h37.05.265,Simcolourproject_2stim_asymm_v5,2020.2.10,MacIntel,60,61025ae37ef11b136ea224fe,,,,,,,,,115,60.09765625,-43.63757324,1,0,0,response3disk,,5,14.33422852,-0.952392578,1,0,0,rectangle,14.33422852,-0.952392578,1,0,0,14.33422852,-0.952392578,1,0,0,1,70,230,67,1,,,,,,,,
,,,,,,,,,,,,,FF,,,,,,,,0.9344,,,,,,,,,,,,,,,,,,,,,,61035ae4030737a3d2a51a11,610365a85fddf2037cc5c2ca,2021-07-29_21h37.05.265,Simcolourproject_2stim_asymm_v5,2020.2.10,MacIntel,60,61025ae37ef11b136ea224fe,,,,,,,,,834,92.69995117,47.14923096,1,0,0,response1disk,,6,10.05310059,4.99987793,1,0,0,rectangle,10.05310059,4.99987793,1,0,0,10.05310059,4.99987793,1,0,0,1,71,231,119,1,,,,,,,,
,,,,,,,,,,,,,FF,,,,,,,,0.8309,,,,,,,,,,,,,,,,,,,,,,61035ae4030737a3d2a51a11,610365a85fddf2037cc5c2ca,2021-07-29_21h37.05.265,Simcolourproject_2stim_asymm_v5,2020.2.10,MacIntel,60,61025ae37ef11b136ea224fe,,,,,,,,,2318,39.16149902,75.91156006,1,0,0,response1disk,,7,27.13153076,12.16595459,1,0,0,rectangle,27.13153076,12.16595459,1,0,0,27.13153076,12.16595459,1,0,0,1,72,232,45,1,,,,,,,,
,,,,,,,,,,,,,FF,,,,,,,,0.9065,,,,,,,,,,,,,,,,,,,,,,61035ae4030737a3d2a51a11,610365a85fddf2037cc5c2ca,2021-07-29_21h37.05.265,Simcolourproject_2stim_asymm_v5,2020.2.10,MacIntel,60,61025ae37ef11b136ea224fe,,,,,,,,,584,57.26287842,26.12533569,1,0,0,response1disk,,6,15.27008057,-4.106201172,1,0,0,rectangle,15.27008057,-4.106201172,1,0,0,15.27008057,-4.106201172,1,0,0,1,73,233,152,1,,,,,,,,
,,,,,,,,,,,,,FF,,,,,,,,1.2169,,,,,,,,,,,,,,,,,,,,,,61035ae4030737a3d2a51a11,610365a85fddf2037cc5c2ca,2021-07-29_21h37.05.265,Simcolourproject_2stim_asymm_v5,2020.2.10,MacIntel,60,61025ae37ef11b136ea224fe,,,,,,,,,699,-29.04101563,-66.35583496,1,0,0,response5disk,,3,2.67578125,-7.40637207,1,0,0,rectangle,2.67578125,-7.40637207,1,0,0,2.67578125,-7.40637207,1,0,0,1,74,234,30,1,,,,,,,,
,,,,,,,,,,,,,FF,,,,,,,,1.2665,,,,,,,,,,,,,,,,,,,,,,61035ae4030737a3d2a51a11,610365a85fddf2037cc5c2ca,2021-07-29_21h37.05.265,Simcolourproject_2stim_asymm_v5,2020.2.10,MacIntel,60,61025ae37ef11b136ea224fe,,,,,,,,,748,41.7635498,62.73205566,1,0,0,response1disk,,7,14.98052979,3.255493164,1,0,0,rectangle,14.98052979,3.255493164,1,0,0,14.98052979,3.255493164,1,0,0,1,75,235,15,1,,,,,,,,
,,,,,,,,,,,,,FF,,,,,,,,0.8992,,,,,,,,,,,,,,,,,,,,,,61035ae4030737a3d2a51a11,610365a85fddf2037cc5c2ca,2021-07-29_21h37.05.265,Simcolourproject_2stim_asymm_v5,2020.2.10,MacIntel,60,61025ae37ef11b136ea224fe,,,,,,,,,1778,26.72827148,64.17251587,1,0,0,response1disk,,7,14.65844727,1.000854492,1,0,0,rectangle,37.7833252,78.70452881,1,0,0,8.159301758,-0.139160156,1,0,0,1,76,236,114,1,,response1disk_3,TRUE,7,7,"[210,30,62,217,102,237,145,292,119,0,91,52,46,27,35,127,16,99,52,45]",1.2339,rectangle
,,,,,,,,,,,,,FF,,,,,,,,1.2308,,,,,,,,,,,,,,,,,,,,,,61035ae4030737a3d2a51a11,610365a85fddf2037cc5c2ca,2021-07-29_21h37.05.265,Simcolourproject_2stim_asymm_v5,2020.2.10,MacIntel,60,61025ae37ef11b136ea224fe,,,,,,,,,196,63.68444824,26.80154419,1,0,0,response1disk,,6,21.05297852,-5.229675293,1,0,0,rectangle,21.05297852,-5.229675293,1,0,0,21.05297852,-5.229675293,1,0,0,1,77,237,98,1,,,,,,,,
,,,,,,,,,,,,,FF,,,,,,,,0.7692,,,,,,,,,,,,,,,,,,,,,,61035ae4030737a3d2a51a11,610365a85fddf2037cc5c2ca,2021-07-29_21h37.05.265,Simcolourproject_2stim_asymm_v5,2020.2.10,MacIntel,60,61025ae37ef11b136ea224fe,,,,,,,,,2635,26.44659424,53.78768921,1,0,0,response1disk,,7,1.176147461,-1.540405273,1,0,0,rectangle,1.176147461,-1.540405273,1,0,0,1.176147461,-1.540405273,1,0,0,1,78,238,122,1,,,,,,,,
,,,,,,,,,,,,,FF,,,,,,,,1.0198,,,,,,,,,,,,,,,,,,,,,,61035ae4030737a3d2a51a11,610365a85fddf2037cc5c2ca,2021-07-29_21h37.05.265,Simcolourproject_2stim_asymm_v5,2020.2.10,MacIntel,60,61025ae37ef11b136ea224fe,,,,,,,,,3909,48.75067139,-33.32574463,1,0,0,response3disk,,5,10.52105713,-6.73638916,1,0,0,rectangle,10.52105713,-6.73638916,1,0,0,10.52105713,-6.73638916,1,0,0,1,79,239,147,1,,,,,,,,
,,,,,,,,,,,,,FF,,,,,,,,0.8835,,,,,,,,,,,,,,,,,,,,,,61035ae4030737a3d2a51a11,610365a85fddf2037cc5c2ca,2021-07-29_21h37.05.265,Simcolourproject_2stim_asymm_v5,2020.2.10,MacIntel,60,61025ae37ef11b136ea224fe,,,,,,,,,900,48.21337891,-25.40304565,1,0,0,response3disk,,5,29.51452637,-12.01477051,1,0,0,rectangle,29.51452637,-12.01477051,1,0,0,29.51452637,-12.01477051,1,0,0,1,80,240,123,1,,,,,,,,
,,,,,,,,,,,,,FF,,,,,,,,0.817,,,,,,,,,,,,,,,,,,,,,,61035ae4030737a3d2a51a11,610365a85fddf2037cc5c2ca,2021-07-29_21h37.05.265,Simcolourproject_2stim_asymm_v5,2020.2.10,MacIntel,60,61025ae37ef11b136ea224fe,,,,,,,,,1127,18.26617432,65.72125244,1,0,0,response1disk,,7,7.374328613,4.933227539,1,0,0,rectangle,7.374328613,4.933227539,1,0,0,7.374328613,4.933227539,1,0,0,1,81,241,146,1,,,,,,,,
