key_resp.keys,key_resp.rt,key_resp_14.keys,key_resp_14.rt,key_resp_15.keys,key_resp_15.rt,key_resp_17.keys,key_resp_17.rt,key_resp_9.keys,key_resp_9.rt,key_resp_10.keys,key_resp_10.rt,practice_comparison,Ecc,mouse_5.x,mouse_5.y,mouse_5.leftButton,mouse_5.midButton,mouse_5.rightButton,mouse_5.clicked_name,pracsimilarity,response_time,mouse_10.x,mouse_10.y,mouse_10.leftButton,mouse_10.midButton,mouse_10.rightButton,mouse_10.clicked_name,mouse_7.x,mouse_7.y,mouse_7.leftButton,mouse_7.midButton,mouse_7.rightButton,mouse_6.x,mouse_6.y,mouse_6.leftButton,mouse_6.midButton,mouse_6.rightButton,duringprac.thisRepN,duringprac.thisTrialN,duringprac.thisN,duringprac.thisIndex,duringprac.ran,participant,session,date,expName,psychopyVersion,OS,frameRate,study_id,mouse_7.clicked_name,catchpracsimilarity,catch_response_time,catchnumberprac,catchtrialorderprac,mouse_6.clicked_name,key_resp_22.keys,key_resp_22.rt,realcomparison,mouse.x,mouse.y,mouse.leftButton,mouse.midButton,mouse.rightButton,mouse.clicked_name,Colour2,similarity,mouse_2.x,mouse_2.y,mouse_2.leftButton,mouse_2.midButton,mouse_2.rightButton,mouse_2.clicked_name,mouse_3.x,mouse_3.y,mouse_3.leftButton,mouse_3.midButton,mouse_3.rightButton,mouse_11.x,mouse_11.y,mouse_11.leftButton,mouse_11.midButton,mouse_11.rightButton,trials_2.thisRepN,trials_2.thisTrialN,trials_2.thisN,trials_2.thisIndex,trials_2.ran,Colour1,mouse_3.clicked_name,catchornah,catchsimilarity,catchnumber,catchtrialorder,catchRT,mouse_11.clicked_name
space,1.8567,space,13.3473,space,41.9825,space,11.8014,space,0.3516,space,22.1599,118,PF,-80.05761719,38.78900146,1,0,0,response7disk_5,1,3.3012,-2.485839844,6.69720459,1,0,0,rectangle_8,-2.485839844,6.69720459,1,0,0,-2.485839844,6.69720459,1,0,0,0,0,0,4,1,610367e58b767ec6c3395508,61036c44178ad7abd8d7ae8a,2021-07-29_20h05.18.590,Simcolourproject_2stim_asymm_v5,2020.2.10,MacIntel,60,61025ae37ef11b136ea224fe,,,,,,,,,,,,,,,,,,,,,,,,,,,,,,,,,,,,,,,,,,,,,,
,,,,,,,,,,,,150,PF,-63.84814453,-45.4541626,1,0,0,response5disk_5,2,2.2165,7.514709473,-3.082397461,1,0,0,rectangle_8,-62.98284912,-47.53570557,1,0,0,-7.278991699,9.010131836,1,0,0,0,1,1,6,1,610367e58b767ec6c3395508,61036c44178ad7abd8d7ae8a,2021-07-29_20h05.18.590,Simcolourproject_2stim_asymm_v5,2020.2.10,MacIntel,60,61025ae37ef11b136ea224fe,response5disk_7,2,3.6667,2,"[2,5]",rectangle_4,,,,,,,,,,,,,,,,,,,,,,,,,,,,,,,,,,,,,,,,
,,,,,,,,,,,,37,FF,27.45043945,-55.28198242,1,0,0,response3disk_5,4,2.633,0.39630127,-2.073730469,1,0,0,rectangle_8,0.39630127,-2.073730469,1,0,0,0.39630127,-2.073730469,1,0,0,0,2,2,0,1,610367e58b767ec6c3395508,61036c44178ad7abd8d7ae8a,2021-07-29_20h05.18.590,Simcolourproject_2stim_asymm_v5,2020.2.10,MacIntel,60,61025ae37ef11b136ea224fe,,,,,,,,,,,,,,,,,,,,,,,,,,,,,,,,,,,,,,,,,,,,,,
,,,,,,,,,,,,124,PF,68.0692749,-56.10415649,1,0,0,response3disk_5,5,3.9498,7.437927246,0.064819336,1,0,0,rectangle_8,7.437927246,0.064819336,1,0,0,7.437927246,0.064819336,1,0,0,0,3,3,1,1,610367e58b767ec6c3395508,61036c44178ad7abd8d7ae8a,2021-07-29_20h05.18.590,Simcolourproject_2stim_asymm_v5,2020.2.10,MacIntel,60,61025ae37ef11b136ea224fe,,,,,,,,,,,,,,,,,,,,,,,,,,,,,,,,,,,,,,,,,,,,,,
,,,,,,,,,,,,14,PF,49.60614014,76.93444824,1,0,0,response1disk_5,7,4.4168,0.127685547,16.09072876,1,0,0,rectangle_8,-63.35534668,-40.87432861,1,0,0,6.414916992,-4.015686035,1,0,0,0,4,4,2,1,610367e58b767ec6c3395508,61036c44178ad7abd8d7ae8a,2021-07-29_20h05.18.590,Simcolourproject_2stim_asymm_v5,2020.2.10,MacIntel,60,61025ae37ef11b136ea224fe,response5disk_7,2,2.633,2,"[2,5]",rectangle_4,,,,,,,,,,,,,,,,,,,,,,,,,,,,,,,,,,,,,,,,
,,,,,,,,,,,,51,FF,-59.26531982,-37.24603271,1,0,0,response5disk_5,2,2.1492,6.857788086,0.213592529,1,0,0,rectangle_8,6.857788086,0.213592529,1,0,0,6.857788086,0.213592529,1,0,0,0,5,5,3,1,610367e58b767ec6c3395508,61036c44178ad7abd8d7ae8a,2021-07-29_20h05.18.590,Simcolourproject_2stim_asymm_v5,2020.2.10,MacIntel,60,61025ae37ef11b136ea224fe,,,,,,,,,,,,,,,,,,,,,,,,,,,,,,,,,,,,,,,,,,,,,,
,,,,,,,,,,,,157,FF,54.84906006,69.05450439,1,0,0,response1disk_5,7,1.117,11.04162598,1.680725098,1,0,0,rectangle_8,11.04162598,1.680725098,1,0,0,11.04162598,1.680725098,1,0,0,0,6,6,5,1,610367e58b767ec6c3395508,61036c44178ad7abd8d7ae8a,2021-07-29_20h05.18.590,Simcolourproject_2stim_asymm_v5,2020.2.10,MacIntel,60,61025ae37ef11b136ea224fe,,,,,,,,,,,,,,,,,,,,,,,,,,,,,,,,,,,,,,,,,,,,,,
,,,,,,,,,,,,,FF,,,,,,,,1.8328,,,,,,,,,,,,,,,,,,,,,,610367e58b767ec6c3395508,61036c44178ad7abd8d7ae8a,2021-07-29_20h05.18.590,Simcolourproject_2stim_asymm_v5,2020.2.10,MacIntel,60,61025ae37ef11b136ea224fe,,,,,,,space,3.2926,3818,-39.95568848,-59.53466797,1,0,0,response5disk,,3,-16.6383667,3.924072266,1,0,0,rectangle,-16.6383667,3.924072266,1,0,0,-16.6383667,3.924072266,1,0,0,0,0,0,101,1,,,,,,,,
,,,,,,,,,,,,,FF,,,,,,,,2.0171,,,,,,,,,,,,,,,,,,,,,,610367e58b767ec6c3395508,61036c44178ad7abd8d7ae8a,2021-07-29_20h05.18.590,Simcolourproject_2stim_asymm_v5,2020.2.10,MacIntel,60,61025ae37ef11b136ea224fe,,,,,,,,,3161,72.59460449,-47.43139648,1,0,0,response3disk,,5,14.40100098,-5.510803223,1,0,0,rectangle,14.40100098,-5.510803223,1,0,0,14.40100098,-5.510803223,1,0,0,0,1,1,40,1,,,,,,,,
,,,,,,,,,,,,,FF,,,,,,,,1.466,,,,,,,,,,,,,,,,,,,,,,610367e58b767ec6c3395508,61036c44178ad7abd8d7ae8a,2021-07-29_20h05.18.590,Simcolourproject_2stim_asymm_v5,2020.2.10,MacIntel,60,61025ae37ef11b136ea224fe,,,,,,,,,346,-47.47662354,-64.29974365,1,0,0,response5disk,,3,-9.890441895,-4.667724609,1,0,0,rectangle,-9.890441895,-4.667724609,1,0,0,-9.890441895,-4.667724609,1,0,0,0,2,2,138,1,,,,,,,,
,,,,,,,,,,,,,FF,,,,,,,,1.7322,,,,,,,,,,,,,,,,,,,,,,610367e58b767ec6c3395508,61036c44178ad7abd8d7ae8a,2021-07-29_20h05.18.590,Simcolourproject_2stim_asymm_v5,2020.2.10,MacIntel,60,61025ae37ef11b136ea224fe,,,,,,,,,2665,-43.9397583,-58.22583008,1,0,0,response5disk,,3,2.080810547,8.220489502,1,0,0,rectangle,2.080810547,8.220489502,1,0,0,2.080810547,8.220489502,1,0,0,0,3,3,79,1,,,,,,,,
,,,,,,,,,,,,,FF,,,,,,,,1.419,,,,,,,,,,,,,,,,,,,,,,610367e58b767ec6c3395508,61036c44178ad7abd8d7ae8a,2021-07-29_20h05.18.590,Simcolourproject_2stim_asymm_v5,2020.2.10,MacIntel,60,61025ae37ef11b136ea224fe,,,,,,,,,1125,80.5657959,-30.32781982,1,0,0,response3disk,,5,16.6239624,-9.696502686,1,0,0,rectangle,16.6239624,-9.696502686,1,0,0,16.6239624,-9.696502686,1,0,0,0,4,4,141,1,,,,,,,,
,,,,,,,,,,,,,FF,,,,,,,,1.6498,,,,,,,,,,,,,,,,,,,,,,610367e58b767ec6c3395508,61036c44178ad7abd8d7ae8a,2021-07-29_20h05.18.590,Simcolourproject_2stim_asymm_v5,2020.2.10,MacIntel,60,61025ae37ef11b136ea224fe,,,,,,,,,2324,59.31201172,21.23080444,1,0,0,response1disk,,6,27.1237793,-1.924743652,1,0,0,rectangle,27.1237793,-1.924743652,1,0,0,27.1237793,-1.924743652,1,0,0,0,5,5,82,1,,,,,,,,
,,,,,,,,,,,,,FF,,,,,,,,2.067,,,,,,,,,,,,,,,,,,,,,,610367e58b767ec6c3395508,61036c44178ad7abd8d7ae8a,2021-07-29_20h05.18.590,Simcolourproject_2stim_asymm_v5,2020.2.10,MacIntel,60,61025ae37ef11b136ea224fe,,,,,,,,,438,-69.57666016,-50.31835938,1,0,0,response5disk,,2,10.70782471,1.966003418,1,0,0,rectangle,10.70782471,1.966003418,1,0,0,10.70782471,1.966003418,1,0,0,0,6,6,69,1,,,,,,,,
,,,,,,,,,,,,,FF,,,,,,,,2.731,,,,,,,,,,,,,,,,,,,,,,610367e58b767ec6c3395508,61036c44178ad7abd8d7ae8a,2021-07-29_20h05.18.590,Simcolourproject_2stim_asymm_v5,2020.2.10,MacIntel,60,61025ae37ef11b136ea224fe,,,,,,,,,505,71.90380859,-27.54907227,1,0,0,response3disk,,5,13.10913086,-0.399719238,1,0,0,rectangle,13.10913086,-0.399719238,1,0,0,13.10913086,-0.399719238,1,0,0,0,7,7,131,1,,,,,,,,
,,,,,,,,,,,,,FF,,,,,,,,2.0837,,,,,,,,,,,,,,,,,,,,,,610367e58b767ec6c3395508,61036c44178ad7abd8d7ae8a,2021-07-29_20h05.18.590,Simcolourproject_2stim_asymm_v5,2020.2.10,MacIntel,60,61025ae37ef11b136ea224fe,,,,,,,,,7,39.2824707,-77.44555664,1,0,0,response3disk,,4,-2.91784668,-3.577728271,1,0,0,rectangle,-42.78863525,-89.93927002,1,0,0,4.936645508,-7.260101318,1,0,0,0,8,8,80,1,,response5disk_3,TRUE,3,3,"[82,52,177,21,51,141,262,229,32,275,36,9,176,230,20,25,100,134,191,54]",2.749,rectangle
,,,,,,,,,,,,,FF,,,,,,,,1.7169,,,,,,,,,,,,,,,,,,,,,,610367e58b767ec6c3395508,61036c44178ad7abd8d7ae8a,2021-07-29_20h05.18.590,Simcolourproject_2stim_asymm_v5,2020.2.10,MacIntel,60,61025ae37ef11b136ea224fe,,,,,,,,,1991,32.97137451,-65.28265381,1,0,0,response3disk,,4,-0.711303711,-7.32019043,1,0,0,rectangle,-0.711303711,-7.32019043,1,0,0,-0.711303711,-7.32019043,1,0,0,0,9,9,97,1,,,,,,,,
,,,,,,,,,,,,,FF,,,,,,,,1.0499,,,,,,,,,,,,,,,,,,,,,,610367e58b767ec6c3395508,61036c44178ad7abd8d7ae8a,2021-07-29_20h05.18.590,Simcolourproject_2stim_asymm_v5,2020.2.10,MacIntel,60,61025ae37ef11b136ea224fe,,,,,,,,,801,-67.05755615,87.79104614,1,0,0,response7disk,,0,6.169677734,0.134216309,1,0,0,rectangle,6.169677734,0.134216309,1,0,0,6.169677734,0.134216309,1,0,0,0,10,10,137,1,,,,,,,,
,,,,,,,,,,,,,FF,,,,,,,,1.6997,,,,,,,,,,,,,,,,,,,,,,610367e58b767ec6c3395508,61036c44178ad7abd8d7ae8a,2021-07-29_20h05.18.590,Simcolourproject_2stim_asymm_v5,2020.2.10,MacIntel,60,61025ae37ef11b136ea224fe,,,,,,,,,1911,-37.92303467,-71.93066406,1,0,0,response5disk,,3,0.374511719,0.967987061,1,0,0,rectangle,0.374511719,0.967987061,1,0,0,0.374511719,0.967987061,1,0,0,0,11,11,72,1,,,,,,,,
,,,,,,,,,,,,,FF,,,,,,,,2.2834,,,,,,,,,,,,,,,,,,,,,,610367e58b767ec6c3395508,61036c44178ad7abd8d7ae8a,2021-07-29_20h05.18.590,Simcolourproject_2stim_asymm_v5,2020.2.10,MacIntel,60,61025ae37ef11b136ea224fe,,,,,,,,,3317,88.7008667,-31.80004883,1,0,0,response3disk,,5,9.028076172,-0.564422607,1,0,0,rectangle,9.028076172,-0.564422607,1,0,0,9.028076172,-0.564422607,1,0,0,0,12,12,153,1,,,,,,,,
,,,,,,,,,,,,,FF,,,,,,,,0.8171,,,,,,,,,,,,,,,,,,,,,,610367e58b767ec6c3395508,61036c44178ad7abd8d7ae8a,2021-07-29_20h05.18.590,Simcolourproject_2stim_asymm_v5,2020.2.10,MacIntel,60,61025ae37ef11b136ea224fe,,,,,,,,,2291,-28.82965088,67.60198975,1,0,0,response7disk,,0,-11.62884521,0.294647217,1,0,0,rectangle,-11.62884521,0.294647217,1,0,0,-11.62884521,0.294647217,1,0,0,0,13,13,129,1,,,,,,,,
,,,,,,,,,,,,,FF,,,,,,,,2.3502,,,,,,,,,,,,,,,,,,,,,,610367e58b767ec6c3395508,61036c44178ad7abd8d7ae8a,2021-07-29_20h05.18.590,Simcolourproject_2stim_asymm_v5,2020.2.10,MacIntel,60,61025ae37ef11b136ea224fe,,,,,,,,,4296,42.25396729,83.72991943,1,0,0,response1disk,,7,13.17578125,1.04119873,1,0,0,rectangle,13.17578125,1.04119873,1,0,0,13.17578125,1.04119873,1,0,0,0,14,14,26,1,,,,,,,,
,,,,,,,,,,,,,FF,,,,,,,,2.0679,,,,,,,,,,,,,,,,,,,,,,610367e58b767ec6c3395508,61036c44178ad7abd8d7ae8a,2021-07-29_20h05.18.590,Simcolourproject_2stim_asymm_v5,2020.2.10,MacIntel,60,61025ae37ef11b136ea224fe,,,,,,,,,3435,29.96063232,-96.98168945,1,0,0,response3disk,,4,6.19921875,-6.752990723,1,0,0,rectangle,6.19921875,-6.752990723,1,0,0,6.19921875,-6.752990723,1,0,0,0,15,15,87,1,,,,,,,,
,,,,,,,,,,,,,FF,,,,,,,,2.8666,,,,,,,,,,,,,,,,,,,,,,610367e58b767ec6c3395508,61036c44178ad7abd8d7ae8a,2021-07-29_20h05.18.590,Simcolourproject_2stim_asymm_v5,2020.2.10,MacIntel,60,61025ae37ef11b136ea224fe,,,,,,,,,2561,51.79553223,-72.43408203,1,0,0,response3disk,,4,9.838439941,12.23614502,1,0,0,rectangle,9.838439941,12.23614502,1,0,0,9.838439941,12.23614502,1,0,0,0,16,16,78,1,,,,,,,,
,,,,,,,,,,,,,FF,,,,,,,,2.4334,,,,,,,,,,,,,,,,,,,,,,610367e58b767ec6c3395508,61036c44178ad7abd8d7ae8a,2021-07-29_20h05.18.590,Simcolourproject_2stim_asymm_v5,2020.2.10,MacIntel,60,61025ae37ef11b136ea224fe,,,,,,,,,1060,44.26617432,-85.87463379,1,0,0,response3disk,,4,17.74359131,-9.443359375,1,0,0,rectangle,17.74359131,-9.443359375,1,0,0,17.74359131,-9.443359375,1,0,0,0,17,17,145,1,,,,,,,,
,,,,,,,,,,,,,FF,,,,,,,,0.8844,,,,,,,,,,,,,,,,,,,,,,610367e58b767ec6c3395508,61036c44178ad7abd8d7ae8a,2021-07-29_20h05.18.590,Simcolourproject_2stim_asymm_v5,2020.2.10,MacIntel,60,61025ae37ef11b136ea224fe,,,,,,,,,908,36.44842529,-52.85479736,1,0,0,response3disk,,4,18.09570313,-1.574401855,1,0,0,rectangle,18.09570313,-1.574401855,1,0,0,18.09570313,-1.574401855,1,0,0,0,18,18,20,1,,,,,,,,
,,,,,,,,,,,,,FF,,,,,,,,1.5508,,,,,,,,,,,,,,,,,,,,,,610367e58b767ec6c3395508,61036c44178ad7abd8d7ae8a,2021-07-29_20h05.18.590,Simcolourproject_2stim_asymm_v5,2020.2.10,MacIntel,60,61025ae37ef11b136ea224fe,,,,,,,,,1766,-24.19158936,-67.65802002,1,0,0,response5disk,,3,1.980163574,12.98977661,1,0,0,rectangle,-66.88885498,34.14703369,1,0,0,2.559692383,1.857788086,1,0,0,0,19,19,106,1,,response7disk_3,TRUE,1,1,"[82,52,177,21,51,141,262,229,32,275,36,9,176,230,20,25,100,134,191,54]",1.8665,rectangle
,,,,,,,,,,,,,FF,,,,,,,,1.0839,,,,,,,,,,,,,,,,,,,,,,610367e58b767ec6c3395508,61036c44178ad7abd8d7ae8a,2021-07-29_20h05.18.590,Simcolourproject_2stim_asymm_v5,2020.2.10,MacIntel,60,61025ae37ef11b136ea224fe,,,,,,,,,2272,59.9473877,60.80075073,1,0,0,response1disk,,7,15.02044678,7.604309082,1,0,0,rectangle,-48.3973999,84.66333008,1,0,0,-6.695861816,4.663574219,1,0,0,0,20,20,156,1,,response7disk_3,TRUE,0,0,"[82,52,177,21,51,141,262,229,32,275,36,9,176,230,20,25,100,134,191,54]",2.0989,rectangle
,,,,,,,,,,,,,FF,,,,,,,,1.983,,,,,,,,,,,,,,,,,,,,,,610367e58b767ec6c3395508,61036c44178ad7abd8d7ae8a,2021-07-29_20h05.18.590,Simcolourproject_2stim_asymm_v5,2020.2.10,MacIntel,60,61025ae37ef11b136ea224fe,,,,,,,,,1988,62.73730469,-48.18560791,1,0,0,response3disk,,5,16.59423828,-0.702514648,1,0,0,rectangle,16.59423828,-0.702514648,1,0,0,16.59423828,-0.702514648,1,0,0,0,21,21,65,1,,,,,,,,
,,,,,,,,,,,,,FF,,,,,,,,1.6505,,,,,,,,,,,,,,,,,,,,,,610367e58b767ec6c3395508,61036c44178ad7abd8d7ae8a,2021-07-29_20h05.18.590,Simcolourproject_2stim_asymm_v5,2020.2.10,MacIntel,60,61025ae37ef11b136ea224fe,,,,,,,,,2071,69.4921875,-29.97924805,1,0,0,response3disk,,5,12.69403076,7.694641113,1,0,0,rectangle,12.69403076,7.694641113,1,0,0,12.69403076,7.694641113,1,0,0,0,22,22,60,1,,,,,,,,
,,,,,,,,,,,,,FF,,,,,,,,2.5163,,,,,,,,,,,,,,,,,,,,,,610367e58b767ec6c3395508,61036c44178ad7abd8d7ae8a,2021-07-29_20h05.18.590,Simcolourproject_2stim_asymm_v5,2020.2.10,MacIntel,60,61025ae37ef11b136ea224fe,,,,,,,,,3001,-33.32452393,-80.55187988,1,0,0,response5disk,,3,-13.1786499,9.237182617,1,0,0,rectangle,-13.1786499,9.237182617,1,0,0,-13.1786499,9.237182617,1,0,0,0,23,23,23,1,,,,,,,,
,,,,,,,,,,,,,FF,,,,,,,,0.9338,,,,,,,,,,,,,,,,,,,,,,610367e58b767ec6c3395508,61036c44178ad7abd8d7ae8a,2021-07-29_20h05.18.590,Simcolourproject_2stim_asymm_v5,2020.2.10,MacIntel,60,61025ae37ef11b136ea224fe,,,,,,,,,3997,-53.82287598,-25.1328125,1,0,0,response5disk,,2,-8.2890625,-2.603973389,1,0,0,rectangle,-88.49230957,43.04455566,1,0,0,1.048950195,-8.276824951,1,0,0,0,24,24,66,1,,response7disk_3,TRUE,1,1,"[82,52,177,21,51,141,262,229,32,275,36,9,176,230,20,25,100,134,191,54]",1.75,rectangle
,,,,,,,,,,,,,FF,,,,,,,,0.9167,,,,,,,,,,,,,,,,,,,,,,610367e58b767ec6c3395508,61036c44178ad7abd8d7ae8a,2021-07-29_20h05.18.590,Simcolourproject_2stim_asymm_v5,2020.2.10,MacIntel,60,61025ae37ef11b136ea224fe,,,,,,,,,3571,40.4744873,77.08563232,1,0,0,response1disk,,7,18.06469727,-2.330322266,1,0,0,rectangle,18.06469727,-2.330322266,1,0,0,18.06469727,-2.330322266,1,0,0,0,25,25,24,1,,,,,,,,
,,,,,,,,,,,,,FF,,,,,,,,1.8001,,,,,,,,,,,,,,,,,,,,,,610367e58b767ec6c3395508,61036c44178ad7abd8d7ae8a,2021-07-29_20h05.18.590,Simcolourproject_2stim_asymm_v5,2020.2.10,MacIntel,60,61025ae37ef11b136ea224fe,,,,,,,,,1140,58.74249268,-34.01043701,1,0,0,response3disk,,5,24.58868408,6.845947266,1,0,0,rectangle,24.58868408,6.845947266,1,0,0,24.58868408,6.845947266,1,0,0,0,26,26,157,1,,,,,,,,
,,,,,,,,,,,,,FF,,,,,,,,1.9825,,,,,,,,,,,,,,,,,,,,,,610367e58b767ec6c3395508,61036c44178ad7abd8d7ae8a,2021-07-29_20h05.18.590,Simcolourproject_2stim_asymm_v5,2020.2.10,MacIntel,60,61025ae37ef11b136ea224fe,,,,,,,,,4339,-39.68945313,-74.48699951,1,0,0,response5disk,,3,2.860351563,-3.129547119,1,0,0,rectangle,2.860351563,-3.129547119,1,0,0,2.860351563,-3.129547119,1,0,0,0,27,27,90,1,,,,,,,,
,,,,,,,,,,,,,FF,,,,,,,,2.1336,,,,,,,,,,,,,,,,,,,,,,610367e58b767ec6c3395508,61036c44178ad7abd8d7ae8a,2021-07-29_20h05.18.590,Simcolourproject_2stim_asymm_v5,2020.2.10,MacIntel,60,61025ae37ef11b136ea224fe,,,,,,,,,2110,52.32440186,-60.53094482,1,0,0,response3disk,,4,9.546142578,-3.341308594,1,0,0,rectangle,9.546142578,-3.341308594,1,0,0,9.546142578,-3.341308594,1,0,0,0,28,28,152,1,,,,,,,,
,,,,,,,,,,,,,FF,,,,,,,,2.0676,,,,,,,,,,,,,,,,,,,,,,610367e58b767ec6c3395508,61036c44178ad7abd8d7ae8a,2021-07-29_20h05.18.590,Simcolourproject_2stim_asymm_v5,2020.2.10,MacIntel,60,61025ae37ef11b136ea224fe,,,,,,,,,1840,-29.72344971,-85.81433105,1,0,0,response5disk,,3,3.668640137,1.73425293,1,0,0,rectangle,3.668640137,1.73425293,1,0,0,3.668640137,1.73425293,1,0,0,0,29,29,102,1,,,,,,,,
,,,,,,,,,,,,,FF,,,,,,,,1.234,,,,,,,,,,,,,,,,,,,,,,610367e58b767ec6c3395508,61036c44178ad7abd8d7ae8a,2021-07-29_20h05.18.590,Simcolourproject_2stim_asymm_v5,2020.2.10,MacIntel,60,61025ae37ef11b136ea224fe,,,,,,,,,280,-72.40112305,-39.02218628,1,0,0,response5disk,,2,-4.221252441,9.235473633,1,0,0,rectangle,-4.221252441,9.235473633,1,0,0,-4.221252441,9.235473633,1,0,0,0,30,30,115,1,,,,,,,,
,,,,,,,,,,,,,FF,,,,,,,,1.1008,,,,,,,,,,,,,,,,,,,,,,610367e58b767ec6c3395508,61036c44178ad7abd8d7ae8a,2021-07-29_20h05.18.590,Simcolourproject_2stim_asymm_v5,2020.2.10,MacIntel,60,61025ae37ef11b136ea224fe,,,,,,,,,1194,-54.97247314,-36.15100098,1,0,0,response5disk,,2,16.39794922,-6.22088623,1,0,0,rectangle,77.96624756,-32.09667969,1,0,0,15.55773926,-10.15411377,1,0,0,0,31,31,136,1,,response3disk_3,TRUE,5,5,"[82,52,177,21,51,141,262,229,32,275,36,9,176,230,20,25,100,134,191,54]",1.866,rectangle
,,,,,,,,,,,,,FF,,,,,,,,0.9672,,,,,,,,,,,,,,,,,,,,,,610367e58b767ec6c3395508,61036c44178ad7abd8d7ae8a,2021-07-29_20h05.18.590,Simcolourproject_2stim_asymm_v5,2020.2.10,MacIntel,60,61025ae37ef11b136ea224fe,,,,,,,,,329,36.55566406,70.77813721,1,0,0,response1disk,,7,9.643432617,-0.367980957,1,0,0,rectangle,9.643432617,-0.367980957,1,0,0,9.643432617,-0.367980957,1,0,0,0,32,32,74,1,,,,,,,,
,,,,,,,,,,,,,FF,,,,,,,,1.3831,,,,,,,,,,,,,,,,,,,,,,610367e58b767ec6c3395508,61036c44178ad7abd8d7ae8a,2021-07-29_20h05.18.590,Simcolourproject_2stim_asymm_v5,2020.2.10,MacIntel,60,61025ae37ef11b136ea224fe,,,,,,,,,1266,77.47857666,-52.384552,1,0,0,response3disk,,5,5.384460449,-6.139190674,1,0,0,rectangle,5.384460449,-6.139190674,1,0,0,5.384460449,-6.139190674,1,0,0,0,33,33,158,1,,,,,,,,
,,,,,,,,,,,,,FF,,,,,,,,1.1667,,,,,,,,,,,,,,,,,,,,,,610367e58b767ec6c3395508,61036c44178ad7abd8d7ae8a,2021-07-29_20h05.18.590,Simcolourproject_2stim_asymm_v5,2020.2.10,MacIntel,60,61025ae37ef11b136ea224fe,,,,,,,,,4222,44.50201416,-87.57971191,1,0,0,response3disk,,4,7.916748047,-0.178833008,1,0,0,rectangle,7.916748047,-0.178833008,1,0,0,7.916748047,-0.178833008,1,0,0,0,34,34,11,1,,,,,,,,
,,,,,,,,,,,,,FF,,,,,,,,1.0164,,,,,,,,,,,,,,,,,,,,,,610367e58b767ec6c3395508,61036c44178ad7abd8d7ae8a,2021-07-29_20h05.18.590,Simcolourproject_2stim_asymm_v5,2020.2.10,MacIntel,60,61025ae37ef11b136ea224fe,,,,,,,,,3113,31.07141113,-62.97900391,1,0,0,response3disk,,4,17.06719971,8.378082275,1,0,0,rectangle,90.73858643,36.84716797,1,0,0,-5.771972656,-10.44985962,1,0,0,0,35,35,43,1,,response1disk_3,TRUE,6,6,"[82,52,177,21,51,141,262,229,32,275,36,9,176,230,20,25,100,134,191,54]",2.0339,rectangle
,,,,,,,,,,,,,FF,,,,,,,,1.7007,,,,,,,,,,,,,,,,,,,,,,610367e58b767ec6c3395508,61036c44178ad7abd8d7ae8a,2021-07-29_20h05.18.590,Simcolourproject_2stim_asymm_v5,2020.2.10,MacIntel,60,61025ae37ef11b136ea224fe,,,,,,,,,2059,51.58990479,-63.67431641,1,0,0,response3disk,,4,15.03936768,-13.4677124,1,0,0,rectangle,15.03936768,-13.4677124,1,0,0,15.03936768,-13.4677124,1,0,0,0,36,36,62,1,,,,,,,,
,,,,,,,,,,,,,FF,,,,,,,,1.2497,,,,,,,,,,,,,,,,,,,,,,610367e58b767ec6c3395508,61036c44178ad7abd8d7ae8a,2021-07-29_20h05.18.590,Simcolourproject_2stim_asymm_v5,2020.2.10,MacIntel,60,61025ae37ef11b136ea224fe,,,,,,,,,2027,-76.03491211,-39.2074585,1,0,0,response5disk,,2,-23.79626465,-6.972503662,1,0,0,rectangle,-23.79626465,-6.972503662,1,0,0,-23.79626465,-6.972503662,1,0,0,0,37,37,134,1,,,,,,,,
,,,,,,,,,,,,,FF,,,,,,,,0.7654,,,,,,,,,,,,,,,,,,,,,,610367e58b767ec6c3395508,61036c44178ad7abd8d7ae8a,2021-07-29_20h05.18.590,Simcolourproject_2stim_asymm_v5,2020.2.10,MacIntel,60,61025ae37ef11b136ea224fe,,,,,,,,,2131,49.11279297,86.18798828,1,0,0,response1disk,,7,20.96929932,-0.786499023,1,0,0,rectangle,20.96929932,-0.786499023,1,0,0,20.96929932,-0.786499023,1,0,0,0,38,38,105,1,,,,,,,,
,,,,,,,,,,,,,FF,,,,,,,,1.7342,,,,,,,,,,,,,,,,,,,,,,610367e58b767ec6c3395508,61036c44178ad7abd8d7ae8a,2021-07-29_20h05.18.590,Simcolourproject_2stim_asymm_v5,2020.2.10,MacIntel,60,61025ae37ef11b136ea224fe,,,,,,,,,2348,45.02398682,-64.43493652,1,0,0,response3disk,,4,20.07452393,-7.212463379,1,0,0,rectangle,20.07452393,-7.212463379,1,0,0,20.07452393,-7.212463379,1,0,0,0,39,39,25,1,,,,,,,,
,,,,,,,,,,,,,FF,,,,,,,,1.7164,,,,,,,,,,,,,,,,,,,,,,610367e58b767ec6c3395508,61036c44178ad7abd8d7ae8a,2021-07-29_20h05.18.590,Simcolourproject_2stim_asymm_v5,2020.2.10,MacIntel,60,61025ae37ef11b136ea224fe,,,,,,,,,2417,71.6114502,32.96835327,1,0,0,response1disk,,6,-1.788452148,-1.313964844,1,0,0,rectangle,-1.788452148,-1.313964844,1,0,0,-1.788452148,-1.313964844,1,0,0,0,40,40,139,1,,,,,,,,
,,,,,,,,,,,,,FF,,,,,,,,1.6667,,,,,,,,,,,,,,,,,,,,,,610367e58b767ec6c3395508,61036c44178ad7abd8d7ae8a,2021-07-29_20h05.18.590,Simcolourproject_2stim_asymm_v5,2020.2.10,MacIntel,60,61025ae37ef11b136ea224fe,,,,,,,,,3011,66.090271,31.28448486,1,0,0,response1disk,,6,8.487182617,0.739868164,1,0,0,rectangle,8.487182617,0.739868164,1,0,0,8.487182617,0.739868164,1,0,0,0,41,41,29,1,,,,,,,,
,,,,,,,,,,,,,FF,,,,,,,,1.1326,,,,,,,,,,,,,,,,,,,,,,610367e58b767ec6c3395508,61036c44178ad7abd8d7ae8a,2021-07-29_20h05.18.590,Simcolourproject_2stim_asymm_v5,2020.2.10,MacIntel,60,61025ae37ef11b136ea224fe,,,,,,,,,577,43.0557251,-72.84576416,1,0,0,response3disk,,4,8.713623047,-3.838928223,1,0,0,rectangle,8.713623047,-3.838928223,1,0,0,8.713623047,-3.838928223,1,0,0,0,42,42,140,1,,,,,,,,
,,,,,,,,,,,,,FF,,,,,,,,0.9832,,,,,,,,,,,,,,,,,,,,,,610367e58b767ec6c3395508,61036c44178ad7abd8d7ae8a,2021-07-29_20h05.18.590,Simcolourproject_2stim_asymm_v5,2020.2.10,MacIntel,60,61025ae37ef11b136ea224fe,,,,,,,,,780,97.90472412,-29.58166504,1,0,0,response3disk,,5,13.12689209,8.842010498,1,0,0,rectangle,13.12689209,8.842010498,1,0,0,13.12689209,8.842010498,1,0,0,0,43,43,125,1,,,,,,,,
,,,,,,,,,,,,,FF,,,,,,,,1.0835,,,,,,,,,,,,,,,,,,,,,,610367e58b767ec6c3395508,61036c44178ad7abd8d7ae8a,2021-07-29_20h05.18.590,Simcolourproject_2stim_asymm_v5,2020.2.10,MacIntel,60,61025ae37ef11b136ea224fe,,,,,,,,,3972,-35.14215088,-80.11120605,1,0,0,response5disk,,3,-9.909362793,-8.883789063,1,0,0,rectangle,-9.909362793,-8.883789063,1,0,0,-9.909362793,-8.883789063,1,0,0,0,44,44,59,1,,,,,,,,
,,,,,,,,,,,,,FF,,,,,,,,1.9655,,,,,,,,,,,,,,,,,,,,,,610367e58b767ec6c3395508,61036c44178ad7abd8d7ae8a,2021-07-29_20h05.18.590,Simcolourproject_2stim_asymm_v5,2020.2.10,MacIntel,60,61025ae37ef11b136ea224fe,,,,,,,,,275,74.53076172,-55.59136963,1,0,0,response3disk,,5,2.630004883,-9.529022217,1,0,0,rectangle,2.630004883,-9.529022217,1,0,0,2.630004883,-9.529022217,1,0,0,0,45,45,64,1,,,,,,,,
,,,,,,,,,,,,,FF,,,,,,,,2.3321,,,,,,,,,,,,,,,,,,,,,,610367e58b767ec6c3395508,61036c44178ad7abd8d7ae8a,2021-07-29_20h05.18.590,Simcolourproject_2stim_asymm_v5,2020.2.10,MacIntel,60,61025ae37ef11b136ea224fe,,,,,,,,,3131,62.10327148,-45.6322937,1,0,0,response3disk,,5,13.87145996,-5.232818604,1,0,0,rectangle,13.87145996,-5.232818604,1,0,0,13.87145996,-5.232818604,1,0,0,0,46,46,150,1,,,,,,,,
,,,,,,,,,,,,,FF,,,,,,,,1.0836,,,,,,,,,,,,,,,,,,,,,,610367e58b767ec6c3395508,61036c44178ad7abd8d7ae8a,2021-07-29_20h05.18.590,Simcolourproject_2stim_asymm_v5,2020.2.10,MacIntel,60,61025ae37ef11b136ea224fe,,,,,,,,,2010,40.12457275,-72.24328613,1,0,0,response3disk,,4,10.5526123,-2.734680176,1,0,0,rectangle,10.5526123,-2.734680176,1,0,0,10.5526123,-2.734680176,1,0,0,0,47,47,21,1,,,,,,,,
,,,,,,,,,,,,,FF,,,,,,,,1.1171,,,,,,,,,,,,,,,,,,,,,,610367e58b767ec6c3395508,61036c44178ad7abd8d7ae8a,2021-07-29_20h05.18.590,Simcolourproject_2stim_asymm_v5,2020.2.10,MacIntel,60,61025ae37ef11b136ea224fe,,,,,,,,,1613,-23.8927002,-77.15588379,1,0,0,response5disk,,3,20.27600098,-8.417663574,1,0,0,rectangle,20.27600098,-8.417663574,1,0,0,20.27600098,-8.417663574,1,0,0,0,48,48,47,1,,,,,,,,
,,,,,,,,,,,,,FF,,,,,,,,0.9486,,,,,,,,,,,,,,,,,,,,,,610367e58b767ec6c3395508,61036c44178ad7abd8d7ae8a,2021-07-29_20h05.18.590,Simcolourproject_2stim_asymm_v5,2020.2.10,MacIntel,60,61025ae37ef11b136ea224fe,,,,,,,,,864,-32.71105957,-62.30151367,1,0,0,response5disk,,3,0.984985352,-4.077331543,1,0,0,rectangle,0.984985352,-4.077331543,1,0,0,0.984985352,-4.077331543,1,0,0,0,49,49,154,1,,,,,,,,
,,,,,,,,,,,,,FF,,,,,,,,0.9833,,,,,,,,,,,,,,,,,,,,,,610367e58b767ec6c3395508,61036c44178ad7abd8d7ae8a,2021-07-29_20h05.18.590,Simcolourproject_2stim_asymm_v5,2020.2.10,MacIntel,60,61025ae37ef11b136ea224fe,,,,,,,,,3584,-59.46563721,-34.92871094,1,0,0,response5disk,,2,-12.0289917,4.763671875,1,0,0,rectangle,82.45172119,45.56359863,1,0,0,5.143920898,3.143310547,1,0,0,0,50,50,89,1,,response1disk_3,TRUE,6,6,"[82,52,177,21,51,141,262,229,32,275,36,9,176,230,20,25,100,134,191,54]",1.399,rectangle
,,,,,,,,,,,,,FF,,,,,,,,2.1819,,,,,,,,,,,,,,,,,,,,,,610367e58b767ec6c3395508,61036c44178ad7abd8d7ae8a,2021-07-29_20h05.18.590,Simcolourproject_2stim_asymm_v5,2020.2.10,MacIntel,60,61025ae37ef11b136ea224fe,,,,,,,,,2988,-36.97521973,-78.48815918,1,0,0,response5disk,,3,-18.36169434,-11.79995728,1,0,0,rectangle,-34.80377197,99.44888306,1,0,0,-10.40393066,-9.06439209,1,0,0,0,51,51,95,1,,response7disk_3,TRUE,0,0,"[82,52,177,21,51,141,262,229,32,275,36,9,176,230,20,25,100,134,191,54]",1.3996,rectangle
,,,,,,,,,,,,,FF,,,,,,,,0.9161,,,,,,,,,,,,,,,,,,,,,,610367e58b767ec6c3395508,61036c44178ad7abd8d7ae8a,2021-07-29_20h05.18.590,Simcolourproject_2stim_asymm_v5,2020.2.10,MacIntel,60,61025ae37ef11b136ea224fe,,,,,,,,,1533,32.45593262,-79.06506348,1,0,0,response3disk,,4,3.739196777,-1.560333252,1,0,0,rectangle,3.739196777,-1.560333252,1,0,0,3.739196777,-1.560333252,1,0,0,0,52,52,132,1,,,,,,,,
,,,,,,,,,,,,,FF,,,,,,,,1.1167,,,,,,,,,,,,,,,,,,,,,,610367e58b767ec6c3395508,61036c44178ad7abd8d7ae8a,2021-07-29_20h05.18.590,Simcolourproject_2stim_asymm_v5,2020.2.10,MacIntel,60,61025ae37ef11b136ea224fe,,,,,,,,,526,-22.29016113,-64.80072021,1,0,0,response5disk,,3,2.367431641,7.54309082,1,0,0,rectangle,-104.0186157,25.41876221,1,0,0,-1.421264648,1.569061279,1,0,0,0,53,53,107,1,,response7disk_3,TRUE,1,1,"[82,52,177,21,51,141,262,229,32,275,36,9,176,230,20,25,100,134,191,54]",1.4671,rectangle
,,,,,,,,,,,,,FF,,,,,,,,1.3163,,,,,,,,,,,,,,,,,,,,,,610367e58b767ec6c3395508,61036c44178ad7abd8d7ae8a,2021-07-29_20h05.18.590,Simcolourproject_2stim_asymm_v5,2020.2.10,MacIntel,60,61025ae37ef11b136ea224fe,,,,,,,,,1701,42.4710083,-82.93347168,1,0,0,response3disk,,4,12.20324707,-10.77148438,1,0,0,rectangle,12.20324707,-10.77148438,1,0,0,12.20324707,-10.77148438,1,0,0,0,54,54,92,1,,,,,,,,
,,,,,,,,,,,,,FF,,,,,,,,1.9155,,,,,,,,,,,,,,,,,,,,,,610367e58b767ec6c3395508,61036c44178ad7abd8d7ae8a,2021-07-29_20h05.18.590,Simcolourproject_2stim_asymm_v5,2020.2.10,MacIntel,60,61025ae37ef11b136ea224fe,,,,,,,,,3320,48.98498535,79.51849365,1,0,0,response1disk,,7,14.58062744,8.786193848,1,0,0,rectangle,14.58062744,8.786193848,1,0,0,14.58062744,8.786193848,1,0,0,0,55,55,54,1,,,,,,,,
,,,,,,,,,,,,,FF,,,,,,,,1.0162,,,,,,,,,,,,,,,,,,,,,,610367e58b767ec6c3395508,61036c44178ad7abd8d7ae8a,2021-07-29_20h05.18.590,Simcolourproject_2stim_asymm_v5,2020.2.10,MacIntel,60,61025ae37ef11b136ea224fe,,,,,,,,,1779,32.71514893,63.33868408,1,0,0,response1disk,,7,25.62695313,2.959411621,1,0,0,rectangle,25.62695313,2.959411621,1,0,0,25.62695313,2.959411621,1,0,0,0,56,56,41,1,,,,,,,,
,,,,,,,,,,,,,FF,,,,,,,,1.4826,,,,,,,,,,,,,,,,,,,,,,610367e58b767ec6c3395508,61036c44178ad7abd8d7ae8a,2021-07-29_20h05.18.590,Simcolourproject_2stim_asymm_v5,2020.2.10,MacIntel,60,61025ae37ef11b136ea224fe,,,,,,,,,1490,63.91546631,25.46685791,1,0,0,response1disk,,6,7.004882813,1.571136475,1,0,0,rectangle,7.004882813,1.571136475,1,0,0,7.004882813,1.571136475,1,0,0,0,57,57,52,1,,,,,,,,
,,,,,,,,,,,,,FF,,,,,,,,2.0989,,,,,,,,,,,,,,,,,,,,,,610367e58b767ec6c3395508,61036c44178ad7abd8d7ae8a,2021-07-29_20h05.18.590,Simcolourproject_2stim_asymm_v5,2020.2.10,MacIntel,60,61025ae37ef11b136ea224fe,,,,,,,,,312,68.70324707,15.27233887,1,0,0,response1disk,,6,7.484985352,-8.344482422,1,0,0,rectangle,7.484985352,-8.344482422,1,0,0,7.484985352,-8.344482422,1,0,0,0,58,58,4,1,,,,,,,,
,,,,,,,,,,,,,FF,,,,,,,,1.6679,,,,,,,,,,,,,,,,,,,,,,610367e58b767ec6c3395508,61036c44178ad7abd8d7ae8a,2021-07-29_20h05.18.590,Simcolourproject_2stim_asymm_v5,2020.2.10,MacIntel,60,61025ae37ef11b136ea224fe,,,,,,,,,2337,70.48931885,46.42669678,1,0,0,response1disk,,6,24.01184082,3.559570313,1,0,0,rectangle,24.01184082,3.559570313,1,0,0,24.01184082,3.559570313,1,0,0,0,59,59,28,1,,,,,,,,
,,,,,,,,,,,,,FF,,,,,,,,1.3675,,,,,,,,,,,,,,,,,,,,,,610367e58b767ec6c3395508,61036c44178ad7abd8d7ae8a,2021-07-29_20h05.18.590,Simcolourproject_2stim_asymm_v5,2020.2.10,MacIntel,60,61025ae37ef11b136ea224fe,,,,,,,,,970,-78.59533691,32.93118286,1,0,0,response7disk,,1,-31.10083008,8.165130615,1,0,0,rectangle,-31.10083008,8.165130615,1,0,0,-31.10083008,8.165130615,1,0,0,0,60,60,116,1,,,,,,,,
,,,,,,,,,,,,,FF,,,,,,,,1.5991,,,,,,,,,,,,,,,,,,,,,,610367e58b767ec6c3395508,61036c44178ad7abd8d7ae8a,2021-07-29_20h05.18.590,Simcolourproject_2stim_asymm_v5,2020.2.10,MacIntel,60,61025ae37ef11b136ea224fe,,,,,,,,,3207,23.17663574,-79.48852539,1,0,0,response3disk,,4,-4.65814209,8.823059082,1,0,0,rectangle,-4.65814209,8.823059082,1,0,0,-4.65814209,8.823059082,1,0,0,0,61,61,46,1,,,,,,,,
,,,,,,,,,,,,,FF,,,,,,,,1.2664,,,,,,,,,,,,,,,,,,,,,,610367e58b767ec6c3395508,61036c44178ad7abd8d7ae8a,2021-07-29_20h05.18.590,Simcolourproject_2stim_asymm_v5,2020.2.10,MacIntel,60,61025ae37ef11b136ea224fe,,,,,,,,,2901,-71.96112061,35.58465576,1,0,0,response7disk,,1,-22.80981445,-5.51739502,1,0,0,rectangle,-22.80981445,-5.51739502,1,0,0,-22.80981445,-5.51739502,1,0,0,0,62,62,148,1,,,,,,,,
,,,,,,,,,,,,,FF,,,,,,,,1.2498,,,,,,,,,,,,,,,,,,,,,,610367e58b767ec6c3395508,61036c44178ad7abd8d7ae8a,2021-07-29_20h05.18.590,Simcolourproject_2stim_asymm_v5,2020.2.10,MacIntel,60,61025ae37ef11b136ea224fe,,,,,,,,,4320,62.02697754,-87.21484375,1,0,0,response3disk,,4,27.88891602,-3.690551758,1,0,0,rectangle,27.88891602,-3.690551758,1,0,0,27.88891602,-3.690551758,1,0,0,0,63,63,37,1,,,,,,,,
,,,,,,,,,,,,,FF,,,,,,,,1.3836,,,,,,,,,,,,,,,,,,,,,,610367e58b767ec6c3395508,61036c44178ad7abd8d7ae8a,2021-07-29_20h05.18.590,Simcolourproject_2stim_asymm_v5,2020.2.10,MacIntel,60,61025ae37ef11b136ea224fe,,,,,,,,,1463,-21.68780518,-73.75634766,1,0,0,response5disk,,3,7.837219238,-12.12939453,1,0,0,rectangle,7.837219238,-12.12939453,1,0,0,7.837219238,-12.12939453,1,0,0,0,64,64,85,1,,,,,,,,
,,,,,,,,,,,,,FF,,,,,,,,2.1847,,,,,,,,,,,,,,,,,,,,,,610367e58b767ec6c3395508,61036c44178ad7abd8d7ae8a,2021-07-29_20h05.18.590,Simcolourproject_2stim_asymm_v5,2020.2.10,MacIntel,60,61025ae37ef11b136ea224fe,,,,,,,,,3615,58.35595703,-30.58151245,1,0,0,response3disk,,5,5.564697266,-1.336547852,1,0,0,rectangle,5.564697266,-1.336547852,1,0,0,5.564697266,-1.336547852,1,0,0,0,65,65,36,1,,,,,,,,
,,,,,,,,,,,,,FF,,,,,,,,1.1005,,,,,,,,,,,,,,,,,,,,,,610367e58b767ec6c3395508,61036c44178ad7abd8d7ae8a,2021-07-29_20h05.18.590,Simcolourproject_2stim_asymm_v5,2020.2.10,MacIntel,60,61025ae37ef11b136ea224fe,,,,,,,,,3093,-57.33996582,-25.28240967,1,0,0,response5disk,,2,1.161499023,0.034973145,1,0,0,rectangle,1.161499023,0.034973145,1,0,0,1.161499023,0.034973145,1,0,0,0,66,66,128,1,,,,,,,,
,,,,,,,,,,,,,FF,,,,,,,,1.2166,,,,,,,,,,,,,,,,,,,,,,610367e58b767ec6c3395508,61036c44178ad7abd8d7ae8a,2021-07-29_20h05.18.590,Simcolourproject_2stim_asymm_v5,2020.2.10,MacIntel,60,61025ae37ef11b136ea224fe,,,,,,,,,886,-69.328125,36.01104736,1,0,0,response7disk,,1,-7.280029297,7.046051025,1,0,0,rectangle,-7.280029297,7.046051025,1,0,0,-7.280029297,7.046051025,1,0,0,0,67,67,35,1,,,,,,,,
,,,,,,,,,,,,,FF,,,,,,,,2.8001,,,,,,,,,,,,,,,,,,,,,,610367e58b767ec6c3395508,61036c44178ad7abd8d7ae8a,2021-07-29_20h05.18.590,Simcolourproject_2stim_asymm_v5,2020.2.10,MacIntel,60,61025ae37ef11b136ea224fe,,,,,,,,,820,92.08862305,-41.82376099,1,0,0,response3disk,,5,5.694396973,6.709533691,1,0,0,rectangle,5.694396973,6.709533691,1,0,0,5.694396973,6.709533691,1,0,0,0,68,68,159,1,,,,,,,,
,,,,,,,,,,,,,FF,,,,,,,,1.4991,,,,,,,,,,,,,,,,,,,,,,610367e58b767ec6c3395508,61036c44178ad7abd8d7ae8a,2021-07-29_20h05.18.590,Simcolourproject_2stim_asymm_v5,2020.2.10,MacIntel,60,61025ae37ef11b136ea224fe,,,,,,,,,591,53.99505615,-56.48947144,1,0,0,response3disk,,4,16.37310791,-1.126861572,1,0,0,rectangle,16.37310791,-1.126861572,1,0,0,16.37310791,-1.126861572,1,0,0,0,69,69,96,1,,,,,,,,
,,,,,,,,,,,,,FF,,,,,,,,1.3173,,,,,,,,,,,,,,,,,,,,,,610367e58b767ec6c3395508,61036c44178ad7abd8d7ae8a,2021-07-29_20h05.18.590,Simcolourproject_2stim_asymm_v5,2020.2.10,MacIntel,60,61025ae37ef11b136ea224fe,,,,,,,,,4234,40.04724121,79.23919678,1,0,0,response1disk,,7,14.06292725,17.78723145,1,0,0,rectangle,14.06292725,17.78723145,1,0,0,14.06292725,17.78723145,1,0,0,0,70,70,7,1,,,,,,,,
,,,,,,,,,,,,,FF,,,,,,,,2.5667,,,,,,,,,,,,,,,,,,,,,,610367e58b767ec6c3395508,61036c44178ad7abd8d7ae8a,2021-07-29_20h05.18.590,Simcolourproject_2stim_asymm_v5,2020.2.10,MacIntel,60,61025ae37ef11b136ea224fe,,,,,,,,,3372,-43.87200928,-68.70428467,1,0,0,response5disk,,3,-6.362487793,-8.510437012,1,0,0,rectangle,-6.362487793,-8.510437012,1,0,0,-6.362487793,-8.510437012,1,0,0,0,71,71,57,1,,,,,,,,
,,,,,,,,,,,,,FF,,,,,,,,1.3183,,,,,,,,,,,,,,,,,,,,,,610367e58b767ec6c3395508,61036c44178ad7abd8d7ae8a,2021-07-29_20h05.18.590,Simcolourproject_2stim_asymm_v5,2020.2.10,MacIntel,60,61025ae37ef11b136ea224fe,,,,,,,,,412,94.32000732,46.88348389,1,0,0,response1disk,,6,12.19549561,9.778930664,1,0,0,rectangle,12.19549561,9.778930664,1,0,0,12.19549561,9.778930664,1,0,0,0,72,72,123,1,,,,,,,,
,,,,,,,,,,,,,FF,,,,,,,,1.0331,,,,,,,,,,,,,,,,,,,,,,610367e58b767ec6c3395508,61036c44178ad7abd8d7ae8a,2021-07-29_20h05.18.590,Simcolourproject_2stim_asymm_v5,2020.2.10,MacIntel,60,61025ae37ef11b136ea224fe,,,,,,,,,2026,-62.2947998,-32.15402222,1,0,0,response5disk,,2,-0.46697998,12.71762085,1,0,0,rectangle,-0.46697998,12.71762085,1,0,0,-0.46697998,12.71762085,1,0,0,0,73,73,127,1,,,,,,,,
,,,,,,,,,,,,,FF,,,,,,,,1.7501,,,,,,,,,,,,,,,,,,,,,,610367e58b767ec6c3395508,61036c44178ad7abd8d7ae8a,2021-07-29_20h05.18.590,Simcolourproject_2stim_asymm_v5,2020.2.10,MacIntel,60,61025ae37ef11b136ea224fe,,,,,,,,,2038,-56.26318359,-33.77236938,1,0,0,response5disk,,2,7.66809082,-6.533447266,1,0,0,rectangle,7.66809082,-6.533447266,1,0,0,7.66809082,-6.533447266,1,0,0,0,74,74,68,1,,,,,,,,
,,,,,,,,,,,,,FF,,,,,,,,1.5172,,,,,,,,,,,,,,,,,,,,,,610367e58b767ec6c3395508,61036c44178ad7abd8d7ae8a,2021-07-29_20h05.18.590,Simcolourproject_2stim_asymm_v5,2020.2.10,MacIntel,60,61025ae37ef11b136ea224fe,,,,,,,,,2249,27.89105225,-75.93371582,1,0,0,response3disk,,4,8.065856934,-12.74224854,1,0,0,rectangle,8.065856934,-12.74224854,1,0,0,8.065856934,-12.74224854,1,0,0,0,75,75,126,1,,,,,,,,
,,,,,,,,,,,,,FF,,,,,,,,1.0657,,,,,,,,,,,,,,,,,,,,,,610367e58b767ec6c3395508,61036c44178ad7abd8d7ae8a,2021-07-29_20h05.18.590,Simcolourproject_2stim_asymm_v5,2020.2.10,MacIntel,60,61025ae37ef11b136ea224fe,,,,,,,,,2490,69.78747559,45.17071533,1,0,0,response1disk,,6,7.400756836,0.32598877,1,0,0,rectangle,7.400756836,0.32598877,1,0,0,7.400756836,0.32598877,1,0,0,0,76,76,45,1,,,,,,,,
,,,,,,,,,,,,,FF,,,,,,,,1.518,,,,,,,,,,,,,,,,,,,,,,610367e58b767ec6c3395508,61036c44178ad7abd8d7ae8a,2021-07-29_20h05.18.590,Simcolourproject_2stim_asymm_v5,2020.2.10,MacIntel,60,61025ae37ef11b136ea224fe,,,,,,,,,4125,-27.49047852,-81.95275879,1,0,0,response5disk,,3,15.33703613,-4.02456665,1,0,0,rectangle,15.33703613,-4.02456665,1,0,0,15.33703613,-4.02456665,1,0,0,0,77,77,1,1,,,,,,,,
,,,,,,,,,,,,,FF,,,,,,,,1.7835,,,,,,,,,,,,,,,,,,,,,,610367e58b767ec6c3395508,61036c44178ad7abd8d7ae8a,2021-07-29_20h05.18.590,Simcolourproject_2stim_asymm_v5,2020.2.10,MacIntel,60,61025ae37ef11b136ea224fe,,,,,,,,,2257,42.50323486,85.10491943,1,0,0,response1disk,,7,10.64068604,-2.643371582,1,0,0,rectangle,10.64068604,-2.643371582,1,0,0,10.64068604,-2.643371582,1,0,0,0,78,78,120,1,,,,,,,,
,,,,,,,,,,,,,FF,,,,,,,,1.1007,,,,,,,,,,,,,,,,,,,,,,610367e58b767ec6c3395508,61036c44178ad7abd8d7ae8a,2021-07-29_20h05.18.590,Simcolourproject_2stim_asymm_v5,2020.2.10,MacIntel,60,61025ae37ef11b136ea224fe,,,,,,,,,4181,-44.95495605,93.65081787,1,0,0,response7disk,,0,-8.683837891,-6.817474365,1,0,0,rectangle,-8.683837891,-6.817474365,1,0,0,-8.683837891,-6.817474365,1,0,0,0,79,79,100,1,,,,,,,,
,,,,,,,,,,,,,FF,,,,,,,,2.2501,,,,,,,,,,,,,,,,,,,,,,610367e58b767ec6c3395508,61036c44178ad7abd8d7ae8a,2021-07-29_20h05.18.590,Simcolourproject_2stim_asymm_v5,2020.2.10,MacIntel,60,61025ae37ef11b136ea224fe,,,,,,,,,1968,-85.10644531,-46.09933472,1,0,0,response5disk,,2,-8.695922852,5.054321289,1,0,0,rectangle,-8.695922852,5.054321289,1,0,0,-8.695922852,5.054321289,1,0,0,0,80,80,16,1,,,,,,,,
,,,,,,,,,,,,,FF,,,,,,,,1.7171,,,,,,,,,,,,,,,,,,,,,,610367e58b767ec6c3395508,61036c44178ad7abd8d7ae8a,2021-07-29_20h05.18.590,Simcolourproject_2stim_asymm_v5,2020.2.10,MacIntel,60,61025ae37ef11b136ea224fe,,,,,,,,,1751,-84.07971191,33.6378479,1,0,0,response7disk,,1,5.953063965,-13.78671265,1,0,0,rectangle,-108.5324707,-53.67425537,1,0,0,-4.791564941,1.263031006,1,0,0,0,81,81,50,1,,response5disk_3,TRUE,2,2,"[82,52,177,21,51,141,262,229,32,275,36,9,176,230,20,25,100,134,191,54]",1.9173,rectangle
,,,,,,,,,,,,,FF,,,,,,,,2.1987,,,,,,,,,,,,,,,,,,,,,,610367e58b767ec6c3395508,61036c44178ad7abd8d7ae8a,2021-07-29_20h05.18.590,Simcolourproject_2stim_asymm_v5,2020.2.10,MacIntel,60,61025ae37ef11b136ea224fe,,,,,,,,,2442,71.2208252,-48.78375244,1,0,0,response3disk,,5,-26.09283447,-4.696533203,1,0,0,rectangle,-26.09283447,-4.696533203,1,0,0,-26.09283447,-4.696533203,1,0,0,0,82,82,70,1,,,,,,,,
,,,,,,,,,,,,,FF,,,,,,,,1.6505,,,,,,,,,,,,,,,,,,,,,,610367e58b767ec6c3395508,61036c44178ad7abd8d7ae8a,2021-07-29_20h05.18.590,Simcolourproject_2stim_asymm_v5,2020.2.10,MacIntel,60,61025ae37ef11b136ea224fe,,,,,,,,,3225,53.28826904,70.42510986,1,0,0,response1disk,,7,13.34411621,3.580322266,1,0,0,rectangle,13.34411621,3.580322266,1,0,0,13.34411621,3.580322266,1,0,0,0,83,83,117,1,,,,,,,,
,,,,,,,,,,,,,FF,,,,,,,,1.3334,,,,,,,,,,,,,,,,,,,,,,610367e58b767ec6c3395508,61036c44178ad7abd8d7ae8a,2021-07-29_20h05.18.590,Simcolourproject_2stim_asymm_v5,2020.2.10,MacIntel,60,61025ae37ef11b136ea224fe,,,,,,,,,2838,-58.61694336,-71.63134766,1,0,0,response5disk,,3,-8.049133301,2.386566162,1,0,0,rectangle,-8.049133301,2.386566162,1,0,0,-8.049133301,2.386566162,1,0,0,0,84,84,22,1,,,,,,,,
,,,,,,,,,,,,,FF,,,,,,,,0.9177,,,,,,,,,,,,,,,,,,,,,,610367e58b767ec6c3395508,61036c44178ad7abd8d7ae8a,2021-07-29_20h05.18.590,Simcolourproject_2stim_asymm_v5,2020.2.10,MacIntel,60,61025ae37ef11b136ea224fe,,,,,,,,,3392,-59.5111084,-31.93701172,1,0,0,response5disk,,2,-13.87780762,-12.13983154,1,0,0,rectangle,-13.87780762,-12.13983154,1,0,0,-13.87780762,-12.13983154,1,0,0,0,85,85,42,1,,,,,,,,
,,,,,,,,,,,,,FF,,,,,,,,2.2493,,,,,,,,,,,,,,,,,,,,,,610367e58b767ec6c3395508,61036c44178ad7abd8d7ae8a,2021-07-29_20h05.18.590,Simcolourproject_2stim_asymm_v5,2020.2.10,MacIntel,60,61025ae37ef11b136ea224fe,,,,,,,,,2321,80.56530762,-42.95788574,1,0,0,response3disk,,5,20.27099609,-10.51501465,1,0,0,rectangle,20.27099609,-10.51501465,1,0,0,20.27099609,-10.51501465,1,0,0,0,86,86,63,1,,,,,,,,
,,,,,,,,,,,,,FF,,,,,,,,1.1668,,,,,,,,,,,,,,,,,,,,,,610367e58b767ec6c3395508,61036c44178ad7abd8d7ae8a,2021-07-29_20h05.18.590,Simcolourproject_2stim_asymm_v5,2020.2.10,MacIntel,60,61025ae37ef11b136ea224fe,,,,,,,,,392,-31.61657715,-81.26922607,1,0,0,response5disk,,3,2.891174316,4.647888184,1,0,0,rectangle,2.891174316,4.647888184,1,0,0,2.891174316,4.647888184,1,0,0,0,87,87,81,1,,,,,,,,
,,,,,,,,,,,,,FF,,,,,,,,1.5999,,,,,,,,,,,,,,,,,,,,,,610367e58b767ec6c3395508,61036c44178ad7abd8d7ae8a,2021-07-29_20h05.18.590,Simcolourproject_2stim_asymm_v5,2020.2.10,MacIntel,60,61025ae37ef11b136ea224fe,,,,,,,,,2649,68.39160156,43.67468262,1,0,0,response1disk,,6,21.44641113,8.804443359,1,0,0,rectangle,21.44641113,8.804443359,1,0,0,21.44641113,8.804443359,1,0,0,0,88,88,98,1,,,,,,,,
,,,,,,,,,,,,,FF,,,,,,,,0.8155,,,,,,,,,,,,,,,,,,,,,,610367e58b767ec6c3395508,61036c44178ad7abd8d7ae8a,2021-07-29_20h05.18.590,Simcolourproject_2stim_asymm_v5,2020.2.10,MacIntel,60,61025ae37ef11b136ea224fe,,,,,,,,,2864,86.3458252,30.15203857,1,0,0,response1disk,,6,8.059204102,2.010314941,1,0,0,rectangle,8.059204102,2.010314941,1,0,0,8.059204102,2.010314941,1,0,0,0,89,89,91,1,,,,,,,,
,,,,,,,,,,,,,FF,,,,,,,,1.0676,,,,,,,,,,,,,,,,,,,,,,610367e58b767ec6c3395508,61036c44178ad7abd8d7ae8a,2021-07-29_20h05.18.590,Simcolourproject_2stim_asymm_v5,2020.2.10,MacIntel,60,61025ae37ef11b136ea224fe,,,,,,,,,786,-41.24523926,-83.67681885,1,0,0,response5disk,,3,-3.191467285,-6.546051025,1,0,0,rectangle,-3.191467285,-6.546051025,1,0,0,-3.191467285,-6.546051025,1,0,0,0,90,90,55,1,,,,,,,,
,,,,,,,,,,,,,FF,,,,,,,,2.4338,,,,,,,,,,,,,,,,,,,,,,610367e58b767ec6c3395508,61036c44178ad7abd8d7ae8a,2021-07-29_20h05.18.590,Simcolourproject_2stim_asymm_v5,2020.2.10,MacIntel,60,61025ae37ef11b136ea224fe,,,,,,,,,955,37.27026367,-99.0244751,1,0,0,response3disk,,4,14.19714355,5.611206055,1,0,0,rectangle,14.19714355,5.611206055,1,0,0,14.19714355,5.611206055,1,0,0,0,91,91,103,1,,,,,,,,
,,,,,,,,,,,,,FF,,,,,,,,1.1486,,,,,,,,,,,,,,,,,,,,,,610367e58b767ec6c3395508,61036c44178ad7abd8d7ae8a,2021-07-29_20h05.18.590,Simcolourproject_2stim_asymm_v5,2020.2.10,MacIntel,60,61025ae37ef11b136ea224fe,,,,,,,,,3086,28.74383545,54.94033813,1,0,0,response1disk,,7,-2.600952148,-10.95800781,1,0,0,rectangle,-2.600952148,-10.95800781,1,0,0,-2.600952148,-10.95800781,1,0,0,0,92,92,18,1,,,,,,,,
,,,,,,,,,,,,,FF,,,,,,,,1.1012,,,,,,,,,,,,,,,,,,,,,,610367e58b767ec6c3395508,61036c44178ad7abd8d7ae8a,2021-07-29_20h05.18.590,Simcolourproject_2stim_asymm_v5,2020.2.10,MacIntel,60,61025ae37ef11b136ea224fe,,,,,,,,,933,45.70751953,80.43041992,1,0,0,response1disk,,7,5.653198242,-0.351745605,1,0,0,rectangle,5.653198242,-0.351745605,1,0,0,5.653198242,-0.351745605,1,0,0,0,93,93,112,1,,,,,,,,
,,,,,,,,,,,,,FF,,,,,,,,1.2664,,,,,,,,,,,,,,,,,,,,,,610367e58b767ec6c3395508,61036c44178ad7abd8d7ae8a,2021-07-29_20h05.18.590,Simcolourproject_2stim_asymm_v5,2020.2.10,MacIntel,60,61025ae37ef11b136ea224fe,,,,,,,,,3395,-97.47943115,-49.92529297,1,0,0,response5disk,,2,-18.05639648,8.073699951,1,0,0,rectangle,-18.05639648,8.073699951,1,0,0,-18.05639648,8.073699951,1,0,0,0,94,94,88,1,,,,,,,,
,,,,,,,,,,,,,FF,,,,,,,,1.4837,,,,,,,,,,,,,,,,,,,,,,610367e58b767ec6c3395508,61036c44178ad7abd8d7ae8a,2021-07-29_20h05.18.590,Simcolourproject_2stim_asymm_v5,2020.2.10,MacIntel,60,61025ae37ef11b136ea224fe,,,,,,,,,2244,-41.79443359,-64.3192749,1,0,0,response5disk,,3,-5.91418457,0.242248535,1,0,0,rectangle,-5.91418457,0.242248535,1,0,0,-5.91418457,0.242248535,1,0,0,0,95,95,3,1,,,,,,,,
,,,,,,,,,,,,,FF,,,,,,,,1.2015,,,,,,,,,,,,,,,,,,,,,,610367e58b767ec6c3395508,61036c44178ad7abd8d7ae8a,2021-07-29_20h05.18.590,Simcolourproject_2stim_asymm_v5,2020.2.10,MacIntel,60,61025ae37ef11b136ea224fe,,,,,,,,,653,-33.15362549,-60.14181519,1,0,0,response5disk,,3,-8.970153809,2.709655762,1,0,0,rectangle,-8.970153809,2.709655762,1,0,0,-8.970153809,2.709655762,1,0,0,0,96,96,119,1,,,,,,,,
,,,,,,,,,,,,,FF,,,,,,,,0.9987,,,,,,,,,,,,,,,,,,,,,,610367e58b767ec6c3395508,61036c44178ad7abd8d7ae8a,2021-07-29_20h05.18.590,Simcolourproject_2stim_asymm_v5,2020.2.10,MacIntel,60,61025ae37ef11b136ea224fe,,,,,,,,,3503,-66.38861084,-23.30554199,1,0,0,response5disk,,2,5.871459961,5.140075684,1,0,0,rectangle,5.871459961,5.140075684,1,0,0,5.871459961,5.140075684,1,0,0,0,97,97,93,1,,,,,,,,
,,,,,,,,,,,,,FF,,,,,,,,0.9847,,,,,,,,,,,,,,,,,,,,,,610367e58b767ec6c3395508,61036c44178ad7abd8d7ae8a,2021-07-29_20h05.18.590,Simcolourproject_2stim_asymm_v5,2020.2.10,MacIntel,60,61025ae37ef11b136ea224fe,,,,,,,,,941,95.55865479,-36.03604126,1,0,0,response3disk,,5,22.79095459,-5.530090332,1,0,0,rectangle,22.79095459,-5.530090332,1,0,0,22.79095459,-5.530090332,1,0,0,0,98,98,133,1,,,,,,,,
,,,,,,,,,,,,,FF,,,,,,,,1.067,,,,,,,,,,,,,,,,,,,,,,610367e58b767ec6c3395508,61036c44178ad7abd8d7ae8a,2021-07-29_20h05.18.590,Simcolourproject_2stim_asymm_v5,2020.2.10,MacIntel,60,61025ae37ef11b136ea224fe,,,,,,,,,900,-37.27441406,-77.45513916,1,0,0,response5disk,,3,3.62298584,-10.93548584,1,0,0,rectangle,18.90533447,-110.7564697,1,0,0,-2.043518066,-5.547302246,1,0,0,0,99,99,77,1,,response3disk_3,TRUE,4,4,"[82,52,177,21,51,141,262,229,32,275,36,9,176,230,20,25,100,134,191,54]",1.9678,rectangle
,,,,,,,,,,,,,FF,,,,,,,,1.1497,,,,,,,,,,,,,,,,,,,,,,610367e58b767ec6c3395508,61036c44178ad7abd8d7ae8a,2021-07-29_20h05.18.590,Simcolourproject_2stim_asymm_v5,2020.2.10,MacIntel,60,61025ae37ef11b136ea224fe,,,,,,,,,425,-32.33831787,-89.39056396,1,0,0,response5disk,,3,17.26623535,-1.756072998,1,0,0,rectangle,17.26623535,-1.756072998,1,0,0,17.26623535,-1.756072998,1,0,0,0,100,100,110,1,,,,,,,,
,,,,,,,,,,,,,FF,,,,,,,,3.3,,,,,,,,,,,,,,,,,,,,,,610367e58b767ec6c3395508,61036c44178ad7abd8d7ae8a,2021-07-29_20h05.18.590,Simcolourproject_2stim_asymm_v5,2020.2.10,MacIntel,60,61025ae37ef11b136ea224fe,,,,,,,,,4321,51.92877197,-85.13977051,1,0,0,response3disk,,4,2.944396973,-2.913818359,1,0,0,rectangle,2.944396973,-2.913818359,1,0,0,2.944396973,-2.913818359,1,0,0,0,101,101,34,1,,,,,,,,
,,,,,,,,,,,,,FF,,,,,,,,1.0843,,,,,,,,,,,,,,,,,,,,,,610367e58b767ec6c3395508,61036c44178ad7abd8d7ae8a,2021-07-29_20h05.18.590,Simcolourproject_2stim_asymm_v5,2020.2.10,MacIntel,60,61025ae37ef11b136ea224fe,,,,,,,,,3671,-69.43774414,30.80804443,1,0,0,response7disk,,1,-0.595153809,7.177978516,1,0,0,rectangle,-0.595153809,7.177978516,1,0,0,-0.595153809,7.177978516,1,0,0,0,102,102,118,1,,,,,,,,
,,,,,,,,,,,,,FF,,,,,,,,1.1518,,,,,,,,,,,,,,,,,,,,,,610367e58b767ec6c3395508,61036c44178ad7abd8d7ae8a,2021-07-29_20h05.18.590,Simcolourproject_2stim_asymm_v5,2020.2.10,MacIntel,60,61025ae37ef11b136ea224fe,,,,,,,,,2508,75.85693359,-18.06878662,1,0,0,response3disk,,5,15.90625,-12.10665894,1,0,0,rectangle,15.90625,-12.10665894,1,0,0,15.90625,-12.10665894,1,0,0,0,103,103,5,1,,,,,,,,
,,,,,,,,,,,,,FF,,,,,,,,1.4998,,,,,,,,,,,,,,,,,,,,,,610367e58b767ec6c3395508,61036c44178ad7abd8d7ae8a,2021-07-29_20h05.18.590,Simcolourproject_2stim_asymm_v5,2020.2.10,MacIntel,60,61025ae37ef11b136ea224fe,,,,,,,,,1665,68.15386963,-41.07763672,1,0,0,response3disk,,5,10.37506104,-1.790344238,1,0,0,rectangle,10.37506104,-1.790344238,1,0,0,10.37506104,-1.790344238,1,0,0,0,104,104,56,1,,,,,,,,
,,,,,,,,,,,,,FF,,,,,,,,1.0155,,,,,,,,,,,,,,,,,,,,,,610367e58b767ec6c3395508,61036c44178ad7abd8d7ae8a,2021-07-29_20h05.18.590,Simcolourproject_2stim_asymm_v5,2020.2.10,MacIntel,60,61025ae37ef11b136ea224fe,,,,,,,,,4282,-63.49957275,-48.20080566,1,0,0,response5disk,,2,-5.528198242,-13.16516113,1,0,0,rectangle,-5.528198242,-13.16516113,1,0,0,-5.528198242,-13.16516113,1,0,0,0,105,105,111,1,,,,,,,,
,,,,,,,,,,,,,FF,,,,,,,,1.566,,,,,,,,,,,,,,,,,,,,,,610367e58b767ec6c3395508,61036c44178ad7abd8d7ae8a,2021-07-29_20h05.18.590,Simcolourproject_2stim_asymm_v5,2020.2.10,MacIntel,60,61025ae37ef11b136ea224fe,,,,,,,,,2073,42.78497314,72.52352905,1,0,0,response1disk,,7,10.80047607,-1.918457031,1,0,0,rectangle,10.80047607,-1.918457031,1,0,0,10.80047607,-1.918457031,1,0,0,0,106,106,143,1,,,,,,,,
,,,,,,,,,,,,,FF,,,,,,,,1.2009,,,,,,,,,,,,,,,,,,,,,,610367e58b767ec6c3395508,61036c44178ad7abd8d7ae8a,2021-07-29_20h05.18.590,Simcolourproject_2stim_asymm_v5,2020.2.10,MacIntel,60,61025ae37ef11b136ea224fe,,,,,,,,,4237,-82.31567383,-31.99893188,1,0,0,response5disk,,2,5.487609863,8.104370117,1,0,0,rectangle,5.487609863,8.104370117,1,0,0,5.487609863,8.104370117,1,0,0,0,107,107,39,1,,,,,,,,
,,,,,,,,,,,,,FF,,,,,,,,1.1333,,,,,,,,,,,,,,,,,,,,,,610367e58b767ec6c3395508,61036c44178ad7abd8d7ae8a,2021-07-29_20h05.18.590,Simcolourproject_2stim_asymm_v5,2020.2.10,MacIntel,60,61025ae37ef11b136ea224fe,,,,,,,,,4052,-70.54595947,-39.71743774,1,0,0,response5disk,,2,-0.10736084,-12.80783081,1,0,0,rectangle,-0.10736084,-12.80783081,1,0,0,-0.10736084,-12.80783081,1,0,0,0,108,108,94,1,,,,,,,,
,,,,,,,,,,,,,FF,,,,,,,,1.2837,,,,,,,,,,,,,,,,,,,,,,610367e58b767ec6c3395508,61036c44178ad7abd8d7ae8a,2021-07-29_20h05.18.590,Simcolourproject_2stim_asymm_v5,2020.2.10,MacIntel,60,61025ae37ef11b136ea224fe,,,,,,,,,2386,51.31494141,-83.9420166,1,0,0,response3disk,,4,14.74377441,-6.496673584,1,0,0,rectangle,14.74377441,-6.496673584,1,0,0,14.74377441,-6.496673584,1,0,0,0,109,109,32,1,,,,,,,,
,,,,,,,,,,,,,FF,,,,,,,,1.4502,,,,,,,,,,,,,,,,,,,,,,610367e58b767ec6c3395508,61036c44178ad7abd8d7ae8a,2021-07-29_20h05.18.590,Simcolourproject_2stim_asymm_v5,2020.2.10,MacIntel,60,61025ae37ef11b136ea224fe,,,,,,,,,3148,-79.83563232,-35.84143066,1,0,0,response5disk,,2,-23.69927979,-1.597290039,1,0,0,rectangle,-23.69927979,-1.597290039,1,0,0,-23.69927979,-1.597290039,1,0,0,0,110,110,0,1,,,,,,,,
,,,,,,,,,,,,,FF,,,,,,,,0.8515,,,,,,,,,,,,,,,,,,,,,,610367e58b767ec6c3395508,61036c44178ad7abd8d7ae8a,2021-07-29_20h05.18.590,Simcolourproject_2stim_asymm_v5,2020.2.10,MacIntel,60,61025ae37ef11b136ea224fe,,,,,,,,,4120,-88.72961426,-47.3112793,1,0,0,response5disk,,2,-0.483947754,-3.94342041,1,0,0,rectangle,-0.483947754,-3.94342041,1,0,0,-0.483947754,-3.94342041,1,0,0,0,111,111,10,1,,,,,,,,
,,,,,,,,,,,,,FF,,,,,,,,1.2994,,,,,,,,,,,,,,,,,,,,,,610367e58b767ec6c3395508,61036c44178ad7abd8d7ae8a,2021-07-29_20h05.18.590,Simcolourproject_2stim_asymm_v5,2020.2.10,MacIntel,60,61025ae37ef11b136ea224fe,,,,,,,,,1695,87.43560791,-30.14755249,1,0,0,response3disk,,5,23.70513916,-2.991455078,1,0,0,rectangle,23.70513916,-2.991455078,1,0,0,23.70513916,-2.991455078,1,0,0,0,112,112,142,1,,,,,,,,
,,,,,,,,,,,,,FF,,,,,,,,2.3167,,,,,,,,,,,,,,,,,,,,,,610367e58b767ec6c3395508,61036c44178ad7abd8d7ae8a,2021-07-29_20h05.18.590,Simcolourproject_2stim_asymm_v5,2020.2.10,MacIntel,60,61025ae37ef11b136ea224fe,,,,,,,,,2534,27.53845215,-80.62731934,1,0,0,response3disk,,4,17.52081299,6.676086426,1,0,0,rectangle,17.52081299,6.676086426,1,0,0,17.52081299,6.676086426,1,0,0,0,113,113,114,1,,,,,,,,
,,,,,,,,,,,,,FF,,,,,,,,0.9492,,,,,,,,,,,,,,,,,,,,,,610367e58b767ec6c3395508,61036c44178ad7abd8d7ae8a,2021-07-29_20h05.18.590,Simcolourproject_2stim_asymm_v5,2020.2.10,MacIntel,60,61025ae37ef11b136ea224fe,,,,,,,,,1163,80.77429199,46.86837769,1,0,0,response1disk,,6,9.107910156,-6.821533203,1,0,0,rectangle,9.107910156,-6.821533203,1,0,0,9.107910156,-6.821533203,1,0,0,0,114,114,73,1,,,,,,,,
,,,,,,,,,,,,,FF,,,,,,,,1.8991,,,,,,,,,,,,,,,,,,,,,,610367e58b767ec6c3395508,61036c44178ad7abd8d7ae8a,2021-07-29_20h05.18.590,Simcolourproject_2stim_asymm_v5,2020.2.10,MacIntel,60,61025ae37ef11b136ea224fe,,,,,,,,,958,-28.39819336,-94.14855957,1,0,0,response5disk,,3,8.398681641,-5.851074219,1,0,0,rectangle,8.398681641,-5.851074219,1,0,0,8.398681641,-5.851074219,1,0,0,0,115,115,84,1,,,,,,,,
,,,,,,,,,,,,,FF,,,,,,,,0.9164,,,,,,,,,,,,,,,,,,,,,,610367e58b767ec6c3395508,61036c44178ad7abd8d7ae8a,2021-07-29_20h05.18.590,Simcolourproject_2stim_asymm_v5,2020.2.10,MacIntel,60,61025ae37ef11b136ea224fe,,,,,,,,,1141,-34.59301758,-73.95666504,1,0,0,response5disk,,3,18.16766357,11.78500366,1,0,0,rectangle,18.16766357,11.78500366,1,0,0,18.16766357,11.78500366,1,0,0,0,116,116,108,1,,,,,,,,
,,,,,,,,,,,,,FF,,,,,,,,1.6159,,,,,,,,,,,,,,,,,,,,,,610367e58b767ec6c3395508,61036c44178ad7abd8d7ae8a,2021-07-29_20h05.18.590,Simcolourproject_2stim_asymm_v5,2020.2.10,MacIntel,60,61025ae37ef11b136ea224fe,,,,,,,,,2704,88.22515869,57.36242676,1,0,0,response1disk,,6,22.78192139,3.579162598,1,0,0,rectangle,22.78192139,3.579162598,1,0,0,22.78192139,3.579162598,1,0,0,0,117,117,19,1,,,,,,,,
,,,,,,,,,,,,,FF,,,,,,,,1.8832,,,,,,,,,,,,,,,,,,,,,,610367e58b767ec6c3395508,61036c44178ad7abd8d7ae8a,2021-07-29_20h05.18.590,Simcolourproject_2stim_asymm_v5,2020.2.10,MacIntel,60,61025ae37ef11b136ea224fe,,,,,,,,,2896,49.32830811,-85.3717041,1,0,0,response3disk,,4,-1.71685791,-9.273193359,1,0,0,rectangle,-1.71685791,-9.273193359,1,0,0,-1.71685791,-9.273193359,1,0,0,0,118,118,83,1,,,,,,,,
,,,,,,,,,,,,,FF,,,,,,,,1.7344,,,,,,,,,,,,,,,,,,,,,,610367e58b767ec6c3395508,61036c44178ad7abd8d7ae8a,2021-07-29_20h05.18.590,Simcolourproject_2stim_asymm_v5,2020.2.10,MacIntel,60,61025ae37ef11b136ea224fe,,,,,,,,,2371,43.1751709,-87.60540771,1,0,0,response3disk,,4,6.411743164,-7.952575684,1,0,0,rectangle,6.411743164,-7.952575684,1,0,0,6.411743164,-7.952575684,1,0,0,0,119,119,9,1,,,,,,,,
,,,,,,,,,,,,,FF,,,,,,,,0.9841,,,,,,,,,,,,,,,,,,,,,,610367e58b767ec6c3395508,61036c44178ad7abd8d7ae8a,2021-07-29_20h05.18.590,Simcolourproject_2stim_asymm_v5,2020.2.10,MacIntel,60,61025ae37ef11b136ea224fe,,,,,,,,,2906,39.13586426,70.43218994,1,0,0,response1disk,,7,25.54821777,-2.427734375,1,0,0,rectangle,25.54821777,-2.427734375,1,0,0,25.54821777,-2.427734375,1,0,0,0,120,120,33,1,,,,,,,,
,,,,,,,,,,,,,FF,,,,,,,,1.3844,,,,,,,,,,,,,,,,,,,,,,610367e58b767ec6c3395508,61036c44178ad7abd8d7ae8a,2021-07-29_20h05.18.590,Simcolourproject_2stim_asymm_v5,2020.2.10,MacIntel,60,61025ae37ef11b136ea224fe,,,,,,,,,1858,39.78216553,64.47998047,1,0,0,response1disk,,7,20.47229004,-1.204101563,1,0,0,rectangle,20.47229004,-1.204101563,1,0,0,20.47229004,-1.204101563,1,0,0,0,121,121,76,1,,,,,,,,
,,,,,,,,,,,,,FF,,,,,,,,0.8336,,,,,,,,,,,,,,,,,,,,,,610367e58b767ec6c3395508,61036c44178ad7abd8d7ae8a,2021-07-29_20h05.18.590,Simcolourproject_2stim_asymm_v5,2020.2.10,MacIntel,60,61025ae37ef11b136ea224fe,,,,,,,,,757,41.70471191,64.49145508,1,0,0,response1disk,,7,26.19628906,-3.108825684,1,0,0,rectangle,26.19628906,-3.108825684,1,0,0,26.19628906,-3.108825684,1,0,0,0,122,122,13,1,,,,,,,,
,,,,,,,,,,,,,FF,,,,,,,,1.3341,,,,,,,,,,,,,,,,,,,,,,610367e58b767ec6c3395508,61036c44178ad7abd8d7ae8a,2021-07-29_20h05.18.590,Simcolourproject_2stim_asymm_v5,2020.2.10,MacIntel,60,61025ae37ef11b136ea224fe,,,,,,,,,1483,29.67926025,-90.81860352,1,0,0,response3disk,,4,4.791503906,-4.58972168,1,0,0,rectangle,4.791503906,-4.58972168,1,0,0,4.791503906,-4.58972168,1,0,0,0,123,123,51,1,,,,,,,,
,,,,,,,,,,,,,FF,,,,,,,,1.317,,,,,,,,,,,,,,,,,,,,,,610367e58b767ec6c3395508,61036c44178ad7abd8d7ae8a,2021-07-29_20h05.18.590,Simcolourproject_2stim_asymm_v5,2020.2.10,MacIntel,60,61025ae37ef11b136ea224fe,,,,,,,,,2092,69.61212158,34.44189453,1,0,0,response1disk,,6,25.83477783,-7.156829834,1,0,0,rectangle,25.83477783,-7.156829834,1,0,0,25.83477783,-7.156829834,1,0,0,0,124,124,147,1,,,,,,,,
,,,,,,,,,,,,,FF,,,,,,,,1.417,,,,,,,,,,,,,,,,,,,,,,610367e58b767ec6c3395508,61036c44178ad7abd8d7ae8a,2021-07-29_20h05.18.590,Simcolourproject_2stim_asymm_v5,2020.2.10,MacIntel,60,61025ae37ef11b136ea224fe,,,,,,,,,3576,39.11914063,60.89807129,1,0,0,response1disk,,7,17.22619629,-0.241516113,1,0,0,rectangle,17.22619629,-0.241516113,1,0,0,17.22619629,-0.241516113,1,0,0,0,125,125,14,1,,,,,,,,
,,,,,,,,,,,,,FF,,,,,,,,1.2338,,,,,,,,,,,,,,,,,,,,,,610367e58b767ec6c3395508,61036c44178ad7abd8d7ae8a,2021-07-29_20h05.18.590,Simcolourproject_2stim_asymm_v5,2020.2.10,MacIntel,60,61025ae37ef11b136ea224fe,,,,,,,,,3151,-81.29327393,-42.5123291,1,0,0,response5disk,,2,-22.24768066,6.835113525,1,0,0,rectangle,-22.24768066,6.835113525,1,0,0,-22.24768066,6.835113525,1,0,0,0,126,126,99,1,,,,,,,,
,,,,,,,,,,,,,FF,,,,,,,,0.8177,,,,,,,,,,,,,,,,,,,,,,610367e58b767ec6c3395508,61036c44178ad7abd8d7ae8a,2021-07-29_20h05.18.590,Simcolourproject_2stim_asymm_v5,2020.2.10,MacIntel,60,61025ae37ef11b136ea224fe,,,,,,,,,4315,31.88323975,74.68612671,1,0,0,response1disk,,7,9.115478516,-3.030517578,1,0,0,rectangle,9.115478516,-3.030517578,1,0,0,9.115478516,-3.030517578,1,0,0,0,127,127,15,1,,,,,,,,
,,,,,,,,,,,,,FF,,,,,,,,1.1505,,,,,,,,,,,,,,,,,,,,,,610367e58b767ec6c3395508,61036c44178ad7abd8d7ae8a,2021-07-29_20h05.18.590,Simcolourproject_2stim_asymm_v5,2020.2.10,MacIntel,60,61025ae37ef11b136ea224fe,,,,,,,,,1462,27.57104492,-89.48144531,1,0,0,response3disk,,4,-13.71612549,-4.116516113,1,0,0,rectangle,-13.71612549,-4.116516113,1,0,0,-13.71612549,-4.116516113,1,0,0,0,128,128,121,1,,,,,,,,
,,,,,,,,,,,,,FF,,,,,,,,0.7828,,,,,,,,,,,,,,,,,,,,,,610367e58b767ec6c3395508,61036c44178ad7abd8d7ae8a,2021-07-29_20h05.18.590,Simcolourproject_2stim_asymm_v5,2020.2.10,MacIntel,60,61025ae37ef11b136ea224fe,,,,,,,,,3457,39.25274658,65.05657959,1,0,0,response1disk,,7,17.4119873,2.923339844,1,0,0,rectangle,17.4119873,2.923339844,1,0,0,17.4119873,2.923339844,1,0,0,0,129,129,124,1,,,,,,,,
,,,,,,,,,,,,,FF,,,,,,,,1.3015,,,,,,,,,,,,,,,,,,,,,,610367e58b767ec6c3395508,61036c44178ad7abd8d7ae8a,2021-07-29_20h05.18.590,Simcolourproject_2stim_asymm_v5,2020.2.10,MacIntel,60,61025ae37ef11b136ea224fe,,,,,,,,,1255,73.43762207,33.62780762,1,0,0,response1disk,,6,21.1348877,13.00985718,1,0,0,rectangle,21.1348877,13.00985718,1,0,0,21.1348877,13.00985718,1,0,0,0,130,130,48,1,,,,,,,,
,,,,,,,,,,,,,FF,,,,,,,,1.7999,,,,,,,,,,,,,,,,,,,,,,610367e58b767ec6c3395508,61036c44178ad7abd8d7ae8a,2021-07-29_20h05.18.590,Simcolourproject_2stim_asymm_v5,2020.2.10,MacIntel,60,61025ae37ef11b136ea224fe,,,,,,,,,3504,-34.14465332,-89.63366699,1,0,0,response5disk,,3,7.848266602,-2.622192383,1,0,0,rectangle,7.848266602,-2.622192383,1,0,0,7.848266602,-2.622192383,1,0,0,0,131,131,31,1,,,,,,,,
,,,,,,,,,,,,,FF,,,,,,,,0.8342,,,,,,,,,,,,,,,,,,,,,,610367e58b767ec6c3395508,61036c44178ad7abd8d7ae8a,2021-07-29_20h05.18.590,Simcolourproject_2stim_asymm_v5,2020.2.10,MacIntel,60,61025ae37ef11b136ea224fe,,,,,,,,,2093,-30.99676514,101.7146606,1,0,0,response7disk,,0,-18.09759521,6.561401367,1,0,0,rectangle,-18.09759521,6.561401367,1,0,0,-18.09759521,6.561401367,1,0,0,0,132,132,53,1,,,,,,,,
,,,,,,,,,,,,,FF,,,,,,,,0.8001,,,,,,,,,,,,,,,,,,,,,,610367e58b767ec6c3395508,61036c44178ad7abd8d7ae8a,2021-07-29_20h05.18.590,Simcolourproject_2stim_asymm_v5,2020.2.10,MacIntel,60,61025ae37ef11b136ea224fe,,,,,,,,,3652,45.24029541,74.10906982,1,0,0,response1disk,,7,17.57122803,5.849182129,1,0,0,rectangle,58.40899658,94.4906311,1,0,0,6.202819824,8.295776367,1,0,0,0,133,133,146,1,,response1disk_3,TRUE,7,7,"[82,52,177,21,51,141,262,229,32,275,36,9,176,230,20,25,100,134,191,54]",2.0843,rectangle
,,,,,,,,,,,,,FF,,,,,,,,1.0845,,,,,,,,,,,,,,,,,,,,,,610367e58b767ec6c3395508,61036c44178ad7abd8d7ae8a,2021-07-29_20h05.18.590,Simcolourproject_2stim_asymm_v5,2020.2.10,MacIntel,60,61025ae37ef11b136ea224fe,,,,,,,,,3287,-47.42370605,-81.57897949,1,0,0,response5disk,,3,6.190368652,4.823730469,1,0,0,rectangle,6.190368652,4.823730469,1,0,0,6.190368652,4.823730469,1,0,0,0,134,134,58,1,,,,,,,,
,,,,,,,,,,,,,FF,,,,,,,,2.1677,,,,,,,,,,,,,,,,,,,,,,610367e58b767ec6c3395508,61036c44178ad7abd8d7ae8a,2021-07-29_20h05.18.590,Simcolourproject_2stim_asymm_v5,2020.2.10,MacIntel,60,61025ae37ef11b136ea224fe,,,,,,,,,155,51.2232666,-78.38781738,1,0,0,response3disk,,4,15.72509766,-17.55633545,1,0,0,rectangle,15.72509766,-17.55633545,1,0,0,15.72509766,-17.55633545,1,0,0,0,135,135,44,1,,,,,,,,
,,,,,,,,,,,,,FF,,,,,,,,0.9992,,,,,,,,,,,,,,,,,,,,,,610367e58b767ec6c3395508,61036c44178ad7abd8d7ae8a,2021-07-29_20h05.18.590,Simcolourproject_2stim_asymm_v5,2020.2.10,MacIntel,60,61025ae37ef11b136ea224fe,,,,,,,,,454,32.91741943,61.69616699,1,0,0,response1disk,,7,27.9128418,14.63293457,1,0,0,rectangle,27.9128418,14.63293457,1,0,0,27.9128418,14.63293457,1,0,0,0,136,136,144,1,,,,,,,,
,,,,,,,,,,,,,FF,,,,,,,,2.6007,,,,,,,,,,,,,,,,,,,,,,610367e58b767ec6c3395508,61036c44178ad7abd8d7ae8a,2021-07-29_20h05.18.590,Simcolourproject_2stim_asymm_v5,2020.2.10,MacIntel,60,61025ae37ef11b136ea224fe,,,,,,,,,2479,67.73620605,-29.16601563,1,0,0,response3disk,,5,20.18463135,-11.29199219,1,0,0,rectangle,20.18463135,-11.29199219,1,0,0,20.18463135,-11.29199219,1,0,0,0,137,137,109,1,,,,,,,,
,,,,,,,,,,,,,FF,,,,,,,,0.9495,,,,,,,,,,,,,,,,,,,,,,610367e58b767ec6c3395508,61036c44178ad7abd8d7ae8a,2021-07-29_20h05.18.590,Simcolourproject_2stim_asymm_v5,2020.2.10,MacIntel,60,61025ae37ef11b136ea224fe,,,,,,,,,3390,-57.39868164,-42.16650391,1,0,0,response5disk,,2,-7.912109375,-5.822143555,1,0,0,rectangle,-7.912109375,-5.822143555,1,0,0,-7.912109375,-5.822143555,1,0,0,0,138,138,6,1,,,,,,,,
,,,,,,,,,,,,,FF,,,,,,,,1.0833,,,,,,,,,,,,,,,,,,,,,,610367e58b767ec6c3395508,61036c44178ad7abd8d7ae8a,2021-07-29_20h05.18.590,Simcolourproject_2stim_asymm_v5,2020.2.10,MacIntel,60,61025ae37ef11b136ea224fe,,,,,,,,,740,-34.32104492,-82.21166992,1,0,0,response5disk,,3,-6.304199219,-15.91497803,1,0,0,rectangle,-6.304199219,-15.91497803,1,0,0,-6.304199219,-15.91497803,1,0,0,0,139,139,38,1,,,,,,,,
,,,,,,,,,,,,,FF,,,,,,,,0.8002,,,,,,,,,,,,,,,,,,,,,,610367e58b767ec6c3395508,61036c44178ad7abd8d7ae8a,2021-07-29_20h05.18.590,Simcolourproject_2stim_asymm_v5,2020.2.10,MacIntel,60,61025ae37ef11b136ea224fe,,,,,,,,,3005,20.87200928,-58.04928589,1,0,0,response3disk,,4,-5.41973877,-17.94262695,1,0,0,rectangle,56.0012207,96.9012146,1,0,0,20.4085083,7.137908936,1,0,0,0,140,140,12,1,,response1disk_3,TRUE,7,7,"[82,52,177,21,51,141,262,229,32,275,36,9,176,230,20,25,100,134,191,54]",1.7496,rectangle
,,,,,,,,,,,,,FF,,,,,,,,1.6166,,,,,,,,,,,,,,,,,,,,,,610367e58b767ec6c3395508,61036c44178ad7abd8d7ae8a,2021-07-29_20h05.18.590,Simcolourproject_2stim_asymm_v5,2020.2.10,MacIntel,60,61025ae37ef11b136ea224fe,,,,,,,,,633,-48.24163818,-96.41027832,1,0,0,response5disk,,3,-6.145507813,-3.541259766,1,0,0,rectangle,-6.145507813,-3.541259766,1,0,0,-6.145507813,-3.541259766,1,0,0,0,141,141,86,1,,,,,,,,
,,,,,,,,,,,,,FF,,,,,,,,0.883,,,,,,,,,,,,,,,,,,,,,,610367e58b767ec6c3395508,61036c44178ad7abd8d7ae8a,2021-07-29_20h05.18.590,Simcolourproject_2stim_asymm_v5,2020.2.10,MacIntel,60,61025ae37ef11b136ea224fe,,,,,,,,,3274,37.14685059,62.06820679,1,0,0,response1disk,,7,27.61291504,-1.210754395,1,0,0,rectangle,27.61291504,-1.210754395,1,0,0,27.61291504,-1.210754395,1,0,0,0,142,142,151,1,,,,,,,,
,,,,,,,,,,,,,FF,,,,,,,,1.1496,,,,,,,,,,,,,,,,,,,,,,610367e58b767ec6c3395508,61036c44178ad7abd8d7ae8a,2021-07-29_20h05.18.590,Simcolourproject_2stim_asymm_v5,2020.2.10,MacIntel,60,61025ae37ef11b136ea224fe,,,,,,,,,2998,75.71612549,-35.65307617,1,0,0,response3disk,,5,28.82751465,-3.663726807,1,0,0,rectangle,28.82751465,-3.663726807,1,0,0,28.82751465,-3.663726807,1,0,0,0,143,143,27,1,,,,,,,,
,,,,,,,,,,,,,FF,,,,,,,,0.9506,,,,,,,,,,,,,,,,,,,,,,610367e58b767ec6c3395508,61036c44178ad7abd8d7ae8a,2021-07-29_20h05.18.590,Simcolourproject_2stim_asymm_v5,2020.2.10,MacIntel,60,61025ae37ef11b136ea224fe,,,,,,,,,3186,29.18786621,64.93835449,1,0,0,response1disk,,7,12.30151367,4.79006958,1,0,0,rectangle,12.30151367,4.79006958,1,0,0,12.30151367,4.79006958,1,0,0,0,144,144,122,1,,,,,,,,
,,,,,,,,,,,,,FF,,,,,,,,1.9002,,,,,,,,,,,,,,,,,,,,,,610367e58b767ec6c3395508,61036c44178ad7abd8d7ae8a,2021-07-29_20h05.18.590,Simcolourproject_2stim_asymm_v5,2020.2.10,MacIntel,60,61025ae37ef11b136ea224fe,,,,,,,,,2366,69.79870605,32.68051147,1,0,0,response1disk,,6,17.68560791,7.944091797,1,0,0,rectangle,17.68560791,7.944091797,1,0,0,17.68560791,7.944091797,1,0,0,0,145,145,149,1,,,,,,,,
,,,,,,,,,,,,,FF,,,,,,,,1.1002,,,,,,,,,,,,,,,,,,,,,,610367e58b767ec6c3395508,61036c44178ad7abd8d7ae8a,2021-07-29_20h05.18.590,Simcolourproject_2stim_asymm_v5,2020.2.10,MacIntel,60,61025ae37ef11b136ea224fe,,,,,,,,,3854,65.70574951,26.81878662,1,0,0,response1disk,,6,28.80450439,-6.498809814,1,0,0,rectangle,28.80450439,-6.498809814,1,0,0,28.80450439,-6.498809814,1,0,0,0,146,146,104,1,,,,,,,,
,,,,,,,,,,,,,FF,,,,,,,,0.7839,,,,,,,,,,,,,,,,,,,,,,610367e58b767ec6c3395508,61036c44178ad7abd8d7ae8a,2021-07-29_20h05.18.590,Simcolourproject_2stim_asymm_v5,2020.2.10,MacIntel,60,61025ae37ef11b136ea224fe,,,,,,,,,1023,69.91290283,49.99267578,1,0,0,response1disk,,6,28.34283447,3.656433105,1,0,0,rectangle,28.34283447,3.656433105,1,0,0,28.34283447,3.656433105,1,0,0,0,147,147,8,1,,,,,,,,
,,,,,,,,,,,,,FF,,,,,,,,1,,,,,,,,,,,,,,,,,,,,,,610367e58b767ec6c3395508,61036c44178ad7abd8d7ae8a,2021-07-29_20h05.18.590,Simcolourproject_2stim_asymm_v5,2020.2.10,MacIntel,60,61025ae37ef11b136ea224fe,,,,,,,,,1513,73.48388672,40.59918213,1,0,0,response1disk,,6,16.02185059,-0.862548828,1,0,0,rectangle,16.02185059,-0.862548828,1,0,0,16.02185059,-0.862548828,1,0,0,0,148,148,49,1,,,,,,,,
,,,,,,,,,,,,,FF,,,,,,,,1.7839,,,,,,,,,,,,,,,,,,,,,,610367e58b767ec6c3395508,61036c44178ad7abd8d7ae8a,2021-07-29_20h05.18.590,Simcolourproject_2stim_asymm_v5,2020.2.10,MacIntel,60,61025ae37ef11b136ea224fe,,,,,,,,,1771,74.78283691,64.4052124,1,0,0,response1disk,,6,29.70806885,17.31994629,1,0,0,rectangle,29.70806885,17.31994629,1,0,0,29.70806885,17.31994629,1,0,0,0,149,149,130,1,,,,,,,,
,,,,,,,,,,,,,FF,,,,,,,,1.6338,,,,,,,,,,,,,,,,,,,,,,610367e58b767ec6c3395508,61036c44178ad7abd8d7ae8a,2021-07-29_20h05.18.590,Simcolourproject_2stim_asymm_v5,2020.2.10,MacIntel,60,61025ae37ef11b136ea224fe,,,,,,,,,2097,46.59362793,-78.18145752,1,0,0,response3disk,,4,8.72277832,2.654602051,1,0,0,rectangle,8.72277832,2.654602051,1,0,0,8.72277832,2.654602051,1,0,0,0,150,150,135,1,,,,,,,,
,,,,,,,,,,,,,FF,,,,,,,,1.6339,,,,,,,,,,,,,,,,,,,,,,610367e58b767ec6c3395508,61036c44178ad7abd8d7ae8a,2021-07-29_20h05.18.590,Simcolourproject_2stim_asymm_v5,2020.2.10,MacIntel,60,61025ae37ef11b136ea224fe,,,,,,,,,410,87.05163574,46.52807617,1,0,0,response1disk,,6,26.51483154,4.09954834,1,0,0,rectangle,26.51483154,4.09954834,1,0,0,26.51483154,4.09954834,1,0,0,0,151,151,67,1,,,,,,,,
,,,,,,,,,,,,,FF,,,,,,,,0.7998,,,,,,,,,,,,,,,,,,,,,,610367e58b767ec6c3395508,61036c44178ad7abd8d7ae8a,2021-07-29_20h05.18.590,Simcolourproject_2stim_asymm_v5,2020.2.10,MacIntel,60,61025ae37ef11b136ea224fe,,,,,,,,,1398,97.54333496,53.34527588,1,0,0,response1disk,,6,21.92633057,-7.139160156,1,0,0,rectangle,21.92633057,-7.139160156,1,0,0,21.92633057,-7.139160156,1,0,0,0,152,152,113,1,,,,,,,,
,,,,,,,,,,,,,FF,,,,,,,,0.7999,,,,,,,,,,,,,,,,,,,,,,610367e58b767ec6c3395508,61036c44178ad7abd8d7ae8a,2021-07-29_20h05.18.590,Simcolourproject_2stim_asymm_v5,2020.2.10,MacIntel,60,61025ae37ef11b136ea224fe,,,,,,,,,1391,79.05664063,48.65127563,1,0,0,response1disk,,6,20.09393311,-9.313018799,1,0,0,rectangle,20.09393311,-9.313018799,1,0,0,20.09393311,-9.313018799,1,0,0,0,153,153,17,1,,,,,,,,
,,,,,,,,,,,,,FF,,,,,,,,1.6665,,,,,,,,,,,,,,,,,,,,,,610367e58b767ec6c3395508,61036c44178ad7abd8d7ae8a,2021-07-29_20h05.18.590,Simcolourproject_2stim_asymm_v5,2020.2.10,MacIntel,60,61025ae37ef11b136ea224fe,,,,,,,,,2712,85.64111328,-35.79776001,1,0,0,response3disk,,5,26.13433838,-1.808166504,1,0,0,rectangle,26.13433838,-1.808166504,1,0,0,26.13433838,-1.808166504,1,0,0,0,154,154,2,1,,,,,,,,
,,,,,,,,,,,,,FF,,,,,,,,1.6995,,,,,,,,,,,,,,,,,,,,,,610367e58b767ec6c3395508,61036c44178ad7abd8d7ae8a,2021-07-29_20h05.18.590,Simcolourproject_2stim_asymm_v5,2020.2.10,MacIntel,60,61025ae37ef11b136ea224fe,,,,,,,,,1139,76.24743652,-35.26446533,1,0,0,response3disk,,5,-9.211120605,-2.118225098,1,0,0,rectangle,-9.211120605,-2.118225098,1,0,0,-9.211120605,-2.118225098,1,0,0,0,155,155,71,1,,,,,,,,
,,,,,,,,,,,,,FF,,,,,,,,0.9827,,,,,,,,,,,,,,,,,,,,,,610367e58b767ec6c3395508,61036c44178ad7abd8d7ae8a,2021-07-29_20h05.18.590,Simcolourproject_2stim_asymm_v5,2020.2.10,MacIntel,60,61025ae37ef11b136ea224fe,,,,,,,,,2396,28.08636475,89.88031006,1,0,0,response1disk,,7,14.79815674,3.853729248,1,0,0,rectangle,14.79815674,3.853729248,1,0,0,14.79815674,3.853729248,1,0,0,0,156,156,61,1,,,,,,,,
,,,,,,,,,,,,,FF,,,,,,,,0.7166,,,,,,,,,,,,,,,,,,,,,,610367e58b767ec6c3395508,61036c44178ad7abd8d7ae8a,2021-07-29_20h05.18.590,Simcolourproject_2stim_asymm_v5,2020.2.10,MacIntel,60,61025ae37ef11b136ea224fe,,,,,,,,,927,56.76049805,107.3097534,1,0,0,response1disk,,7,16.23406982,6.414245605,1,0,0,rectangle,16.23406982,6.414245605,1,0,0,16.23406982,6.414245605,1,0,0,0,157,157,155,1,,,,,,,,
,,,,,,,,,,,,,FF,,,,,,,,1.6171,,,,,,,,,,,,,,,,,,,,,,610367e58b767ec6c3395508,61036c44178ad7abd8d7ae8a,2021-07-29_20h05.18.590,Simcolourproject_2stim_asymm_v5,2020.2.10,MacIntel,60,61025ae37ef11b136ea224fe,,,,,,,,,345,-35.00396729,-87.74584961,1,0,0,response5disk,,3,0.450256348,-8.178344727,1,0,0,rectangle,0.450256348,-8.178344727,1,0,0,0.450256348,-8.178344727,1,0,0,0,158,158,30,1,,,,,,,,
,,,,,,,,,,,,,FF,,,,,,,,0.9498,,,,,,,,,,,,,,,,,,,,,,610367e58b767ec6c3395508,61036c44178ad7abd8d7ae8a,2021-07-29_20h05.18.590,Simcolourproject_2stim_asymm_v5,2020.2.10,MacIntel,60,61025ae37ef11b136ea224fe,,,,,,,,,3677,-41.82513428,-85.13586426,1,0,0,response5disk,,3,0.62310791,8.220947266,1,0,0,rectangle,0.62310791,8.220947266,1,0,0,0.62310791,8.220947266,1,0,0,0,159,159,75,1,,,,,,,,
,,,,,,,,,,,,,FF,,,,,,,,0.9162,,,,,,,,,,,,,,,,,,,,,,610367e58b767ec6c3395508,61036c44178ad7abd8d7ae8a,2021-07-29_20h05.18.590,Simcolourproject_2stim_asymm_v5,2020.2.10,MacIntel,60,61025ae37ef11b136ea224fe,,,,,,,,,3818,-79.05944824,-43.50378418,1,0,0,response5disk,,2,4.302307129,9.64630127,1,0,0,rectangle,4.302307129,9.64630127,1,0,0,4.302307129,9.64630127,1,0,0,1,0,160,84,1,,,,,,,,
,,,,,,,,,,,,,FF,,,,,,,,0.9831,,,,,,,,,,,,,,,,,,,,,,610367e58b767ec6c3395508,61036c44178ad7abd8d7ae8a,2021-07-29_20h05.18.590,Simcolourproject_2stim_asymm_v5,2020.2.10,MacIntel,60,61025ae37ef11b136ea224fe,,,,,,,,,3161,56.31268311,88.24737549,1,0,0,response1disk,,7,26.26489258,5.821960449,1,0,0,rectangle,26.26489258,5.821960449,1,0,0,26.26489258,5.821960449,1,0,0,1,1,161,88,1,,,,,,,,
,,,,,,,,,,,,,FF,,,,,,,,1.2003,,,,,,,,,,,,,,,,,,,,,,610367e58b767ec6c3395508,61036c44178ad7abd8d7ae8a,2021-07-29_20h05.18.590,Simcolourproject_2stim_asymm_v5,2020.2.10,MacIntel,60,61025ae37ef11b136ea224fe,,,,,,,,,346,-51.53668213,-77.46118164,1,0,0,response5disk,,3,-21.28747559,-7.303588867,1,0,0,rectangle,-21.28747559,-7.303588867,1,0,0,-21.28747559,-7.303588867,1,0,0,1,2,162,158,1,,,,,,,,
,,,,,,,,,,,,,FF,,,,,,,,0.7667,,,,,,,,,,,,,,,,,,,,,,610367e58b767ec6c3395508,61036c44178ad7abd8d7ae8a,2021-07-29_20h05.18.590,Simcolourproject_2stim_asymm_v5,2020.2.10,MacIntel,60,61025ae37ef11b136ea224fe,,,,,,,,,2665,-36.37213135,-70.71636963,1,0,0,response5disk,,3,-14.05932617,-6.419708252,1,0,0,rectangle,-14.05932617,-6.419708252,1,0,0,-14.05932617,-6.419708252,1,0,0,1,3,163,44,1,,,,,,,,
,,,,,,,,,,,,,FF,,,,,,,,0.8163,,,,,,,,,,,,,,,,,,,,,,610367e58b767ec6c3395508,61036c44178ad7abd8d7ae8a,2021-07-29_20h05.18.590,Simcolourproject_2stim_asymm_v5,2020.2.10,MacIntel,60,61025ae37ef11b136ea224fe,,,,,,,,,1125,41.82489014,72.83306885,1,0,0,response1disk,,7,8.397277832,-2.048828125,1,0,0,rectangle,8.397277832,-2.048828125,1,0,0,8.397277832,-2.048828125,1,0,0,1,4,164,43,1,,,,,,,,
,,,,,,,,,,,,,FF,,,,,,,,0.7832,,,,,,,,,,,,,,,,,,,,,,610367e58b767ec6c3395508,61036c44178ad7abd8d7ae8a,2021-07-29_20h05.18.590,Simcolourproject_2stim_asymm_v5,2020.2.10,MacIntel,60,61025ae37ef11b136ea224fe,,,,,,,,,2324,35.59588623,60.44015503,1,0,0,response1disk,,7,25.84863281,-10.4041748,1,0,0,rectangle,25.84863281,-10.4041748,1,0,0,25.84863281,-10.4041748,1,0,0,1,5,165,51,1,,,,,,,,
,,,,,,,,,,,,,FF,,,,,,,,0.8997,,,,,,,,,,,,,,,,,,,,,,610367e58b767ec6c3395508,61036c44178ad7abd8d7ae8a,2021-07-29_20h05.18.590,Simcolourproject_2stim_asymm_v5,2020.2.10,MacIntel,60,61025ae37ef11b136ea224fe,,,,,,,,,438,-38.30859375,-80.61877441,1,0,0,response5disk,,3,-7.395385742,-5.037841797,1,0,0,rectangle,-7.395385742,-5.037841797,1,0,0,-7.395385742,-5.037841797,1,0,0,1,6,166,129,1,,,,,,,,
,,,,,,,,,,,,,FF,,,,,,,,1.4668,,,,,,,,,,,,,,,,,,,,,,610367e58b767ec6c3395508,61036c44178ad7abd8d7ae8a,2021-07-29_20h05.18.590,Simcolourproject_2stim_asymm_v5,2020.2.10,MacIntel,60,61025ae37ef11b136ea224fe,,,,,,,,,505,32.79528809,91.83877563,1,0,0,response1disk,,7,-10.7746582,10.39154053,1,0,0,rectangle,-10.7746582,10.39154053,1,0,0,-10.7746582,10.39154053,1,0,0,1,7,167,48,1,,,,,,,,
,,,,,,,,,,,,,FF,,,,,,,,0.8005,,,,,,,,,,,,,,,,,,,,,,610367e58b767ec6c3395508,61036c44178ad7abd8d7ae8a,2021-07-29_20h05.18.590,Simcolourproject_2stim_asymm_v5,2020.2.10,MacIntel,60,61025ae37ef11b136ea224fe,,,,,,,,,7,-41.43713379,-61.69238281,1,0,0,response5disk,,3,-20.53887939,11.75927734,1,0,0,rectangle,-20.53887939,11.75927734,1,0,0,-20.53887939,11.75927734,1,0,0,1,8,168,117,1,,,,,,,,
,,,,,,,,,,,,,FF,,,,,,,,1.8008,,,,,,,,,,,,,,,,,,,,,,610367e58b767ec6c3395508,61036c44178ad7abd8d7ae8a,2021-07-29_20h05.18.590,Simcolourproject_2stim_asymm_v5,2020.2.10,MacIntel,60,61025ae37ef11b136ea224fe,,,,,,,,,1991,50.58673096,38.50427246,1,0,0,response1disk,,6,3.499145508,6.21282959,1,0,0,rectangle,3.499145508,6.21282959,1,0,0,3.499145508,6.21282959,1,0,0,1,9,169,6,1,,,,,,,,
,,,,,,,,,,,,,FF,,,,,,,,0.9836,,,,,,,,,,,,,,,,,,,,,,610367e58b767ec6c3395508,61036c44178ad7abd8d7ae8a,2021-07-29_20h05.18.590,Simcolourproject_2stim_asymm_v5,2020.2.10,MacIntel,60,61025ae37ef11b136ea224fe,,,,,,,,,801,-56.51568604,80.45117188,1,0,0,response7disk,,0,-2.341674805,-3.888916016,1,0,0,rectangle,-2.341674805,-3.888916016,1,0,0,-2.341674805,-3.888916016,1,0,0,1,10,170,73,1,,,,,,,,
,,,,,,,,,,,,,FF,,,,,,,,1.2663,,,,,,,,,,,,,,,,,,,,,,610367e58b767ec6c3395508,61036c44178ad7abd8d7ae8a,2021-07-29_20h05.18.590,Simcolourproject_2stim_asymm_v5,2020.2.10,MacIntel,60,61025ae37ef11b136ea224fe,,,,,,,,,1911,74.09558105,-47.98138428,1,0,0,response3disk,,5,1.339111328,8.635528564,1,0,0,rectangle,1.339111328,8.635528564,1,0,0,1.339111328,8.635528564,1,0,0,1,11,171,109,1,,,,,,,,
,,,,,,,,,,,,,FF,,,,,,,,2.3996,,,,,,,,,,,,,,,,,,,,,,610367e58b767ec6c3395508,61036c44178ad7abd8d7ae8a,2021-07-29_20h05.18.590,Simcolourproject_2stim_asymm_v5,2020.2.10,MacIntel,60,61025ae37ef11b136ea224fe,,,,,,,,,3317,42.81170654,-65.85601807,1,0,0,response3disk,,4,22.12805176,-8.666442871,1,0,0,rectangle,22.12805176,-8.666442871,1,0,0,22.12805176,-8.666442871,1,0,0,1,12,172,93,1,,,,,,,,
,,,,,,,,,,,,,FF,,,,,,,,0.7827,,,,,,,,,,,,,,,,,,,,,,610367e58b767ec6c3395508,61036c44178ad7abd8d7ae8a,2021-07-29_20h05.18.590,Simcolourproject_2stim_asymm_v5,2020.2.10,MacIntel,60,61025ae37ef11b136ea224fe,,,,,,,,,2291,-50.28601074,86.18200684,1,0,0,response7disk,,0,-7.551879883,7.30581665,1,0,0,rectangle,-7.551879883,7.30581665,1,0,0,-7.551879883,7.30581665,1,0,0,1,13,173,121,1,,,,,,,,
,,,,,,,,,,,,,FF,,,,,,,,0.7674,,,,,,,,,,,,,,,,,,,,,,610367e58b767ec6c3395508,61036c44178ad7abd8d7ae8a,2021-07-29_20h05.18.590,Simcolourproject_2stim_asymm_v5,2020.2.10,MacIntel,60,61025ae37ef11b136ea224fe,,,,,,,,,4296,40.61932373,105.3151245,1,0,0,response1disk,,7,23.74517822,-8.493652344,1,0,0,rectangle,23.74517822,-8.493652344,1,0,0,23.74517822,-8.493652344,1,0,0,1,14,174,75,1,,,,,,,,
,,,,,,,,,,,,,FF,,,,,,,,1.7506,,,,,,,,,,,,,,,,,,,,,,610367e58b767ec6c3395508,61036c44178ad7abd8d7ae8a,2021-07-29_20h05.18.590,Simcolourproject_2stim_asymm_v5,2020.2.10,MacIntel,60,61025ae37ef11b136ea224fe,,,,,,,,,3435,76.04846191,-35.99957275,1,0,0,response3disk,,5,22.30932617,-8.378936768,1,0,0,rectangle,88.8951416,-45.50668335,1,0,0,-3.586486816,-6.287811279,1,0,0,1,15,175,78,1,,response3disk_3,TRUE,5,5,"[82,52,177,21,51,141,262,229,32,275,36,9,176,230,20,25,100,134,191,54]",2.1833,rectangle
,,,,,,,,,,,,,FF,,,,,,,,1.3836,,,,,,,,,,,,,,,,,,,,,,610367e58b767ec6c3395508,61036c44178ad7abd8d7ae8a,2021-07-29_20h05.18.590,Simcolourproject_2stim_asymm_v5,2020.2.10,MacIntel,60,61025ae37ef11b136ea224fe,,,,,,,,,2561,77.15258789,-29.38568115,1,0,0,response3disk,,5,14.90759277,-9.995117188,1,0,0,rectangle,44.81182861,69.48788452,1,0,0,25.0458374,-11.237854,1,0,0,1,16,176,156,1,,response1disk_3,TRUE,7,7,"[82,52,177,21,51,141,262,229,32,275,36,9,176,230,20,25,100,134,191,54]",1.9996,rectangle
,,,,,,,,,,,,,FF,,,,,,,,1.2988,,,,,,,,,,,,,,,,,,,,,,610367e58b767ec6c3395508,61036c44178ad7abd8d7ae8a,2021-07-29_20h05.18.590,Simcolourproject_2stim_asymm_v5,2020.2.10,MacIntel,60,61025ae37ef11b136ea224fe,,,,,,,,,1060,49.30279541,-80.06512451,1,0,0,response3disk,,4,11.92102051,-1.002319336,1,0,0,rectangle,11.92102051,-1.002319336,1,0,0,11.92102051,-1.002319336,1,0,0,1,17,177,62,1,,,,,,,,
,,,,,,,,,,,,,FF,,,,,,,,0.9499,,,,,,,,,,,,,,,,,,,,,,610367e58b767ec6c3395508,61036c44178ad7abd8d7ae8a,2021-07-29_20h05.18.590,Simcolourproject_2stim_asymm_v5,2020.2.10,MacIntel,60,61025ae37ef11b136ea224fe,,,,,,,,,908,65.8359375,-110.3304443,1,0,0,response3disk,,4,-14.84887695,1.795562744,1,0,0,rectangle,-14.84887695,1.795562744,1,0,0,-14.84887695,1.795562744,1,0,0,1,18,178,16,1,,,,,,,,
,,,,,,,,,,,,,FF,,,,,,,,1.2665,,,,,,,,,,,,,,,,,,,,,,610367e58b767ec6c3395508,61036c44178ad7abd8d7ae8a,2021-07-29_20h05.18.590,Simcolourproject_2stim_asymm_v5,2020.2.10,MacIntel,60,61025ae37ef11b136ea224fe,,,,,,,,,1766,39.71392822,-79.57995605,1,0,0,response3disk,,4,1.051086426,-1.903625488,1,0,0,rectangle,1.051086426,-1.903625488,1,0,0,1.051086426,-1.903625488,1,0,0,1,19,179,114,1,,,,,,,,
,,,,,,,,,,,,,FF,,,,,,,,4.7001,,,,,,,,,,,,,,,,,,,,,,610367e58b767ec6c3395508,61036c44178ad7abd8d7ae8a,2021-07-29_20h05.18.590,Simcolourproject_2stim_asymm_v5,2020.2.10,MacIntel,60,61025ae37ef11b136ea224fe,,,,,,,,,2272,46.1583252,-63.28912354,1,0,0,response3disk,,4,4.139648438,12.2494812,1,0,0,rectangle,4.139648438,12.2494812,1,0,0,4.139648438,12.2494812,1,0,0,1,20,180,3,1,,,,,,,,
,,,,,,,,,,,,,FF,,,,,,,,2.4995,,,,,,,,,,,,,,,,,,,,,,610367e58b767ec6c3395508,61036c44178ad7abd8d7ae8a,2021-07-29_20h05.18.590,Simcolourproject_2stim_asymm_v5,2020.2.10,MacIntel,60,61025ae37ef11b136ea224fe,,,,,,,,,1988,39.1541748,70.43215942,1,0,0,response1disk,,7,2.753356934,2.754089355,1,0,0,rectangle,2.753356934,2.754089355,1,0,0,2.753356934,2.754089355,1,0,0,1,21,181,112,1,,,,,,,,
,,,,,,,,,,,,,FF,,,,,,,,1.2661,,,,,,,,,,,,,,,,,,,,,,610367e58b767ec6c3395508,61036c44178ad7abd8d7ae8a,2021-07-29_20h05.18.590,Simcolourproject_2stim_asymm_v5,2020.2.10,MacIntel,60,61025ae37ef11b136ea224fe,,,,,,,,,2071,94.90454102,45.49072266,1,0,0,response1disk,,6,31.16125488,4.81048584,1,0,0,rectangle,31.16125488,4.81048584,1,0,0,31.16125488,4.81048584,1,0,0,1,22,182,14,1,,,,,,,,
,,,,,,,,,,,,,FF,,,,,,,,0.9001,,,,,,,,,,,,,,,,,,,,,,610367e58b767ec6c3395508,61036c44178ad7abd8d7ae8a,2021-07-29_20h05.18.590,Simcolourproject_2stim_asymm_v5,2020.2.10,MacIntel,60,61025ae37ef11b136ea224fe,,,,,,,,,3001,82.80023193,-39.95184326,1,0,0,response3disk,,5,21.29766846,-2.920928955,1,0,0,rectangle,21.29766846,-2.920928955,1,0,0,21.29766846,-2.920928955,1,0,0,1,23,183,54,1,,,,,,,,
,,,,,,,,,,,,,FF,,,,,,,,0.6998,,,,,,,,,,,,,,,,,,,,,,610367e58b767ec6c3395508,61036c44178ad7abd8d7ae8a,2021-07-29_20h05.18.590,Simcolourproject_2stim_asymm_v5,2020.2.10,MacIntel,60,61025ae37ef11b136ea224fe,,,,,,,,,3997,41.20098877,-88.08666992,1,0,0,response3disk,,4,8.650085449,-1.263183594,1,0,0,rectangle,8.650085449,-1.263183594,1,0,0,8.650085449,-1.263183594,1,0,0,1,24,184,35,1,,,,,,,,
,,,,,,,,,,,,,FF,,,,,,,,1.2663,,,,,,,,,,,,,,,,,,,,,,610367e58b767ec6c3395508,61036c44178ad7abd8d7ae8a,2021-07-29_20h05.18.590,Simcolourproject_2stim_asymm_v5,2020.2.10,MacIntel,60,61025ae37ef11b136ea224fe,,,,,,,,,3571,33.128479,58.4800415,1,0,0,response1disk,,7,25.94696045,8.665222168,1,0,0,rectangle,25.94696045,8.665222168,1,0,0,25.94696045,8.665222168,1,0,0,1,25,185,52,1,,,,,,,,
,,,,,,,,,,,,,FF,,,,,,,,1.0676,,,,,,,,,,,,,,,,,,,,,,610367e58b767ec6c3395508,61036c44178ad7abd8d7ae8a,2021-07-29_20h05.18.590,Simcolourproject_2stim_asymm_v5,2020.2.10,MacIntel,60,61025ae37ef11b136ea224fe,,,,,,,,,1140,94.59832764,-26.62042236,1,0,0,response3disk,,5,19.31176758,-7.970947266,1,0,0,rectangle,19.31176758,-7.970947266,1,0,0,19.31176758,-7.970947266,1,0,0,1,26,186,131,1,,,,,,,,
,,,,,,,,,,,,,FF,,,,,,,,1.4005,,,,,,,,,,,,,,,,,,,,,,610367e58b767ec6c3395508,61036c44178ad7abd8d7ae8a,2021-07-29_20h05.18.590,Simcolourproject_2stim_asymm_v5,2020.2.10,MacIntel,60,61025ae37ef11b136ea224fe,,,,,,,,,4339,49.63684082,-95.89465332,1,0,0,response3disk,,4,0.340270996,-6.202514648,1,0,0,rectangle,0.340270996,-6.202514648,1,0,0,0.340270996,-6.202514648,1,0,0,1,27,187,10,1,,,,,,,,
,,,,,,,,,,,,,FF,,,,,,,,1.8831,,,,,,,,,,,,,,,,,,,,,,610367e58b767ec6c3395508,61036c44178ad7abd8d7ae8a,2021-07-29_20h05.18.590,Simcolourproject_2stim_asymm_v5,2020.2.10,MacIntel,60,61025ae37ef11b136ea224fe,,,,,,,,,2110,77.97399902,-53.42941284,1,0,0,response3disk,,5,10.71520996,-0.634094238,1,0,0,rectangle,10.71520996,-0.634094238,1,0,0,10.71520996,-0.634094238,1,0,0,1,28,188,128,1,,,,,,,,
,,,,,,,,,,,,,FF,,,,,,,,1.0666,,,,,,,,,,,,,,,,,,,,,,610367e58b767ec6c3395508,61036c44178ad7abd8d7ae8a,2021-07-29_20h05.18.590,Simcolourproject_2stim_asymm_v5,2020.2.10,MacIntel,60,61025ae37ef11b136ea224fe,,,,,,,,,1840,75.58624268,-42.2322998,1,0,0,response3disk,,5,18.41461182,12.89630127,1,0,0,rectangle,18.41461182,12.89630127,1,0,0,18.41461182,12.89630127,1,0,0,1,29,189,100,1,,,,,,,,
,,,,,,,,,,,,,FF,,,,,,,,0.8839,,,,,,,,,,,,,,,,,,,,,,610367e58b767ec6c3395508,61036c44178ad7abd8d7ae8a,2021-07-29_20h05.18.590,Simcolourproject_2stim_asymm_v5,2020.2.10,MacIntel,60,61025ae37ef11b136ea224fe,,,,,,,,,280,39.0892334,-61.40710449,1,0,0,response3disk,,4,6.502868652,0.820587158,1,0,0,rectangle,91.80670166,-54.06567383,1,0,0,10.11322021,-3.347961426,1,0,0,1,30,190,36,1,,response3disk_3,TRUE,5,5,"[82,52,177,21,51,141,262,229,32,275,36,9,176,230,20,25,100,134,191,54]",1.4,rectangle
,,,,,,,,,,,,,FF,,,,,,,,1.3003,,,,,,,,,,,,,,,,,,,,,,610367e58b767ec6c3395508,61036c44178ad7abd8d7ae8a,2021-07-29_20h05.18.590,Simcolourproject_2stim_asymm_v5,2020.2.10,MacIntel,60,61025ae37ef11b136ea224fe,,,,,,,,,1194,-41.97674561,-67.03363037,1,0,0,response5disk,,3,-8.712524414,-3.873291016,1,0,0,rectangle,-8.712524414,-3.873291016,1,0,0,-8.712524414,-3.873291016,1,0,0,1,31,191,60,1,,,,,,,,
,,,,,,,,,,,,,FF,,,,,,,,1.2499,,,,,,,,,,,,,,,,,,,,,,610367e58b767ec6c3395508,61036c44178ad7abd8d7ae8a,2021-07-29_20h05.18.590,Simcolourproject_2stim_asymm_v5,2020.2.10,MacIntel,60,61025ae37ef11b136ea224fe,,,,,,,,,329,101.6904297,38.03829956,1,0,0,response1disk,,6,7.303833008,-0.466003418,1,0,0,rectangle,7.303833008,-0.466003418,1,0,0,7.303833008,-0.466003418,1,0,0,1,32,192,118,1,,,,,,,,
,,,,,,,,,,,,,FF,,,,,,,,1.7292,,,,,,,,,,,,,,,,,,,,,,610367e58b767ec6c3395508,61036c44178ad7abd8d7ae8a,2021-07-29_20h05.18.590,Simcolourproject_2stim_asymm_v5,2020.2.10,MacIntel,60,61025ae37ef11b136ea224fe,,,,,,,,,1266,86.75622559,32.74850464,1,0,0,response1disk,,6,-5.211791992,-10.82183838,1,0,0,rectangle,-5.211791992,-10.82183838,1,0,0,-5.211791992,-10.82183838,1,0,0,1,33,193,155,1,,,,,,,,
,,,,,,,,,,,,,FF,,,,,,,,1.5331,,,,,,,,,,,,,,,,,,,,,,610367e58b767ec6c3395508,61036c44178ad7abd8d7ae8a,2021-07-29_20h05.18.590,Simcolourproject_2stim_asymm_v5,2020.2.10,MacIntel,60,61025ae37ef11b136ea224fe,,,,,,,,,4222,45.46746826,-76.47998047,1,0,0,response3disk,,4,10.89880371,7.072387695,1,0,0,rectangle,10.89880371,7.072387695,1,0,0,10.89880371,7.072387695,1,0,0,1,34,194,96,1,,,,,,,,
,,,,,,,,,,,,,FF,,,,,,,,1.1162,,,,,,,,,,,,,,,,,,,,,,610367e58b767ec6c3395508,61036c44178ad7abd8d7ae8a,2021-07-29_20h05.18.590,Simcolourproject_2stim_asymm_v5,2020.2.10,MacIntel,60,61025ae37ef11b136ea224fe,,,,,,,,,3113,-26.58416748,-91.39318848,1,0,0,response5disk,,3,13.824646,-8.60369873,1,0,0,rectangle,13.824646,-8.60369873,1,0,0,13.824646,-8.60369873,1,0,0,1,35,195,70,1,,,,,,,,
,,,,,,,,,,,,,FF,,,,,,,,0.9336,,,,,,,,,,,,,,,,,,,,,,610367e58b767ec6c3395508,61036c44178ad7abd8d7ae8a,2021-07-29_20h05.18.590,Simcolourproject_2stim_asymm_v5,2020.2.10,MacIntel,60,61025ae37ef11b136ea224fe,,,,,,,,,2059,57.20446777,66.82058716,1,0,0,response1disk,,7,19.57763672,-12.62658691,1,0,0,rectangle,19.57763672,-12.62658691,1,0,0,19.57763672,-12.62658691,1,0,0,1,36,196,135,1,,,,,,,,
,,,,,,,,,,,,,FF,,,,,,,,1.2503,,,,,,,,,,,,,,,,,,,,,,610367e58b767ec6c3395508,61036c44178ad7abd8d7ae8a,2021-07-29_20h05.18.590,Simcolourproject_2stim_asymm_v5,2020.2.10,MacIntel,60,61025ae37ef11b136ea224fe,,,,,,,,,2027,-27.40838623,-93.92352295,1,0,0,response5disk,,3,-9.437133789,-9.511322021,1,0,0,rectangle,-9.437133789,-9.511322021,1,0,0,-9.437133789,-9.511322021,1,0,0,1,37,197,83,1,,,,,,,,
,,,,,,,,,,,,,FF,,,,,,,,0.7836,,,,,,,,,,,,,,,,,,,,,,610367e58b767ec6c3395508,61036c44178ad7abd8d7ae8a,2021-07-29_20h05.18.590,Simcolourproject_2stim_asymm_v5,2020.2.10,MacIntel,60,61025ae37ef11b136ea224fe,,,,,,,,,2131,30.29858398,81.38903809,1,0,0,response1disk,,7,-1.618041992,-4.49307251,1,0,0,rectangle,-1.618041992,-4.49307251,1,0,0,-1.618041992,-4.49307251,1,0,0,1,38,198,2,1,,,,,,,,
,,,,,,,,,,,,,FF,,,,,,,,1.25,,,,,,,,,,,,,,,,,,,,,,610367e58b767ec6c3395508,61036c44178ad7abd8d7ae8a,2021-07-29_20h05.18.590,Simcolourproject_2stim_asymm_v5,2020.2.10,MacIntel,60,61025ae37ef11b136ea224fe,,,,,,,,,2348,92.26300049,-30.50311279,1,0,0,response3disk,,5,-12.99053955,-11.32098389,1,0,0,rectangle,-12.99053955,-11.32098389,1,0,0,-12.99053955,-11.32098389,1,0,0,1,39,199,145,1,,,,,,,,
,,,,,,,,,,,,,FF,,,,,,,,1.6335,,,,,,,,,,,,,,,,,,,,,,610367e58b767ec6c3395508,61036c44178ad7abd8d7ae8a,2021-07-29_20h05.18.590,Simcolourproject_2stim_asymm_v5,2020.2.10,MacIntel,60,61025ae37ef11b136ea224fe,,,,,,,,,2417,86.93365479,24.9079895,1,0,0,response1disk,,6,29.86914063,4.830993652,1,0,0,rectangle,29.86914063,4.830993652,1,0,0,29.86914063,4.830993652,1,0,0,1,40,200,147,1,,,,,,,,
,,,,,,,,,,,,,FF,,,,,,,,1.2178,,,,,,,,,,,,,,,,,,,,,,610367e58b767ec6c3395508,61036c44178ad7abd8d7ae8a,2021-07-29_20h05.18.590,Simcolourproject_2stim_asymm_v5,2020.2.10,MacIntel,60,61025ae37ef11b136ea224fe,,,,,,,,,3011,76.35394287,40.67489624,1,0,0,response1disk,,6,25.74401855,8.810516357,1,0,0,rectangle,25.74401855,8.810516357,1,0,0,25.74401855,8.810516357,1,0,0,1,41,201,116,1,,,,,,,,
,,,,,,,,,,,,,FF,,,,,,,,1.4837,,,,,,,,,,,,,,,,,,,,,,610367e58b767ec6c3395508,61036c44178ad7abd8d7ae8a,2021-07-29_20h05.18.590,Simcolourproject_2stim_asymm_v5,2020.2.10,MacIntel,60,61025ae37ef11b136ea224fe,,,,,,,,,577,72.60595703,-39.4463501,1,0,0,response3disk,,5,9.365722656,12.14483643,1,0,0,rectangle,9.365722656,12.14483643,1,0,0,9.365722656,12.14483643,1,0,0,1,42,202,149,1,,,,,,,,
,,,,,,,,,,,,,FF,,,,,,,,1.1323,,,,,,,,,,,,,,,,,,,,,,610367e58b767ec6c3395508,61036c44178ad7abd8d7ae8a,2021-07-29_20h05.18.590,Simcolourproject_2stim_asymm_v5,2020.2.10,MacIntel,60,61025ae37ef11b136ea224fe,,,,,,,,,780,79.32061768,-43.52883911,1,0,0,response3disk,,5,9.829772949,-1.664642334,1,0,0,rectangle,9.829772949,-1.664642334,1,0,0,9.829772949,-1.664642334,1,0,0,1,43,203,68,1,,,,,,,,
,,,,,,,,,,,,,FF,,,,,,,,1.2003,,,,,,,,,,,,,,,,,,,,,,610367e58b767ec6c3395508,61036c44178ad7abd8d7ae8a,2021-07-29_20h05.18.590,Simcolourproject_2stim_asymm_v5,2020.2.10,MacIntel,60,61025ae37ef11b136ea224fe,,,,,,,,,3972,-23.28387451,-88.33233643,1,0,0,response5disk,,3,1.302734375,-3.56060791,1,0,0,rectangle,1.302734375,-3.56060791,1,0,0,1.302734375,-3.56060791,1,0,0,1,44,204,37,1,,,,,,,,
,,,,,,,,,,,,,FF,,,,,,,,1.7164,,,,,,,,,,,,,,,,,,,,,,610367e58b767ec6c3395508,61036c44178ad7abd8d7ae8a,2021-07-29_20h05.18.590,Simcolourproject_2stim_asymm_v5,2020.2.10,MacIntel,60,61025ae37ef11b136ea224fe,,,,,,,,,275,82.3348999,39.4538269,1,0,0,response1disk,,6,0.359863281,4.677032471,1,0,0,rectangle,0.359863281,4.677032471,1,0,0,0.359863281,4.677032471,1,0,0,1,45,205,12,1,,,,,,,,
,,,,,,,,,,,,,FF,,,,,,,,1.4822,,,,,,,,,,,,,,,,,,,,,,610367e58b767ec6c3395508,61036c44178ad7abd8d7ae8a,2021-07-29_20h05.18.590,Simcolourproject_2stim_asymm_v5,2020.2.10,MacIntel,60,61025ae37ef11b136ea224fe,,,,,,,,,3131,73.59210205,36.27862549,1,0,0,response1disk,,6,23.61212158,12.85577393,1,0,0,rectangle,23.61212158,12.85577393,1,0,0,23.61212158,12.85577393,1,0,0,1,46,206,1,1,,,,,,,,
,,,,,,,,,,,,,FF,,,,,,,,0.8496,,,,,,,,,,,,,,,,,,,,,,610367e58b767ec6c3395508,61036c44178ad7abd8d7ae8a,2021-07-29_20h05.18.590,Simcolourproject_2stim_asymm_v5,2020.2.10,MacIntel,60,61025ae37ef11b136ea224fe,,,,,,,,,2010,57.30200195,28.43756104,1,0,0,response1disk,,6,27.99035645,-5.470458984,1,0,0,rectangle,27.99035645,-5.470458984,1,0,0,27.99035645,-5.470458984,1,0,0,1,47,207,9,1,,,,,,,,
,,,,,,,,,,,,,FF,,,,,,,,1.3997,,,,,,,,,,,,,,,,,,,,,,610367e58b767ec6c3395508,61036c44178ad7abd8d7ae8a,2021-07-29_20h05.18.590,Simcolourproject_2stim_asymm_v5,2020.2.10,MacIntel,60,61025ae37ef11b136ea224fe,,,,,,,,,1613,76.50305176,-34.67599487,1,0,0,response3disk,,5,6.495239258,5.567779541,1,0,0,rectangle,6.495239258,5.567779541,1,0,0,6.495239258,5.567779541,1,0,0,1,48,208,42,1,,,,,,,,
,,,,,,,,,,,,,FF,,,,,,,,0.9006,,,,,,,,,,,,,,,,,,,,,,610367e58b767ec6c3395508,61036c44178ad7abd8d7ae8a,2021-07-29_20h05.18.590,Simcolourproject_2stim_asymm_v5,2020.2.10,MacIntel,60,61025ae37ef11b136ea224fe,,,,,,,,,864,36.93988037,-65.29394531,1,0,0,response3disk,,4,12.90618896,11.25390625,1,0,0,rectangle,12.90618896,11.25390625,1,0,0,12.90618896,11.25390625,1,0,0,1,49,209,85,1,,,,,,,,
,,,,,,,,,,,,,FF,,,,,,,,1.4502,,,,,,,,,,,,,,,,,,,,,,610367e58b767ec6c3395508,61036c44178ad7abd8d7ae8a,2021-07-29_20h05.18.590,Simcolourproject_2stim_asymm_v5,2020.2.10,MacIntel,60,61025ae37ef11b136ea224fe,,,,,,,,,3584,46.21893311,-109.5278931,1,0,0,response3disk,,4,6.360290527,-12.16165161,1,0,0,rectangle,6.360290527,-12.16165161,1,0,0,6.360290527,-12.16165161,1,0,0,1,50,210,66,1,,,,,,,,
,,,,,,,,,,,,,FF,,,,,,,,0.8502,,,,,,,,,,,,,,,,,,,,,,610367e58b767ec6c3395508,61036c44178ad7abd8d7ae8a,2021-07-29_20h05.18.590,Simcolourproject_2stim_asymm_v5,2020.2.10,MacIntel,60,61025ae37ef11b136ea224fe,,,,,,,,,2988,-30.3682251,-79.01855469,1,0,0,response5disk,,3,4.762451172,1.101928711,1,0,0,rectangle,4.762451172,1.101928711,1,0,0,4.762451172,1.101928711,1,0,0,1,51,211,113,1,,,,,,,,
,,,,,,,,,,,,,FF,,,,,,,,1.5839,,,,,,,,,,,,,,,,,,,,,,610367e58b767ec6c3395508,61036c44178ad7abd8d7ae8a,2021-07-29_20h05.18.590,Simcolourproject_2stim_asymm_v5,2020.2.10,MacIntel,60,61025ae37ef11b136ea224fe,,,,,,,,,1533,-37.50872803,-74.34368896,1,0,0,response5disk,,3,19.66711426,-5.179504395,1,0,0,rectangle,19.66711426,-5.179504395,1,0,0,19.66711426,-5.179504395,1,0,0,1,52,212,95,1,,,,,,,,
,,,,,,,,,,,,,FF,,,,,,,,1.5348,,,,,,,,,,,,,,,,,,,,,,610367e58b767ec6c3395508,61036c44178ad7abd8d7ae8a,2021-07-29_20h05.18.590,Simcolourproject_2stim_asymm_v5,2020.2.10,MacIntel,60,61025ae37ef11b136ea224fe,,,,,,,,,526,-55.11071777,-80.61791992,1,0,0,response5disk,,3,-2.745727539,-1.243103027,1,0,0,rectangle,-2.745727539,-1.243103027,1,0,0,-2.745727539,-1.243103027,1,0,0,1,53,213,17,1,,,,,,,,
,,,,,,,,,,,,,FF,,,,,,,,1.1001,,,,,,,,,,,,,,,,,,,,,,610367e58b767ec6c3395508,61036c44178ad7abd8d7ae8a,2021-07-29_20h05.18.590,Simcolourproject_2stim_asymm_v5,2020.2.10,MacIntel,60,61025ae37ef11b136ea224fe,,,,,,,,,1701,87.71166992,56.91619873,1,0,0,response1disk,,6,15.50170898,2.510375977,1,0,0,rectangle,15.50170898,2.510375977,1,0,0,15.50170898,2.510375977,1,0,0,1,54,214,40,1,,,,,,,,
,,,,,,,,,,,,,FF,,,,,,,,2.2503,,,,,,,,,,,,,,,,,,,,,,610367e58b767ec6c3395508,61036c44178ad7abd8d7ae8a,2021-07-29_20h05.18.590,Simcolourproject_2stim_asymm_v5,2020.2.10,MacIntel,60,61025ae37ef11b136ea224fe,,,,,,,,,3320,43.64227295,73.18676758,1,0,0,response1disk,,7,11.90765381,10.17150879,1,0,0,rectangle,11.90765381,10.17150879,1,0,0,11.90765381,10.17150879,1,0,0,1,55,215,33,1,,,,,,,,
,,,,,,,,,,,,,FF,,,,,,,,1.4674,,,,,,,,,,,,,,,,,,,,,,610367e58b767ec6c3395508,61036c44178ad7abd8d7ae8a,2021-07-29_20h05.18.590,Simcolourproject_2stim_asymm_v5,2020.2.10,MacIntel,60,61025ae37ef11b136ea224fe,,,,,,,,,1779,79.31750488,-28.93374634,1,0,0,response3disk,,5,20.22692871,1.658691406,1,0,0,rectangle,20.22692871,1.658691406,1,0,0,20.22692871,1.658691406,1,0,0,1,56,216,45,1,,,,,,,,
,,,,,,,,,,,,,FF,,,,,,,,3.6502,,,,,,,,,,,,,,,,,,,,,,610367e58b767ec6c3395508,61036c44178ad7abd8d7ae8a,2021-07-29_20h05.18.590,Simcolourproject_2stim_asymm_v5,2020.2.10,MacIntel,60,61025ae37ef11b136ea224fe,,,,,,,,,1490,98.59155273,-25.99871826,1,0,0,response3disk,,5,17.62213135,5.525238037,1,0,0,rectangle,17.62213135,5.525238037,1,0,0,17.62213135,5.525238037,1,0,0,1,57,217,94,1,,,,,,,,
,,,,,,,,,,,,,FF,,,,,,,,1.2002,,,,,,,,,,,,,,,,,,,,,,610367e58b767ec6c3395508,61036c44178ad7abd8d7ae8a,2021-07-29_20h05.18.590,Simcolourproject_2stim_asymm_v5,2020.2.10,MacIntel,60,61025ae37ef11b136ea224fe,,,,,,,,,312,103.0892944,48.98699951,1,0,0,response1disk,,6,11.29040527,5.563781738,1,0,0,rectangle,11.29040527,5.563781738,1,0,0,11.29040527,5.563781738,1,0,0,1,58,218,133,1,,,,,,,,
,,,,,,,,,,,,,FF,,,,,,,,0.7333,,,,,,,,,,,,,,,,,,,,,,610367e58b767ec6c3395508,61036c44178ad7abd8d7ae8a,2021-07-29_20h05.18.590,Simcolourproject_2stim_asymm_v5,2020.2.10,MacIntel,60,61025ae37ef11b136ea224fe,,,,,,,,,2337,63.04699707,31.49346924,1,0,0,response1disk,,6,-12.66589355,1.94329834,1,0,0,rectangle,-12.66589355,1.94329834,1,0,0,-12.66589355,1.94329834,1,0,0,1,59,219,30,1,,,,,,,,
,,,,,,,,,,,,,FF,,,,,,,,0.934,,,,,,,,,,,,,,,,,,,,,,610367e58b767ec6c3395508,61036c44178ad7abd8d7ae8a,2021-07-29_20h05.18.590,Simcolourproject_2stim_asymm_v5,2020.2.10,MacIntel,60,61025ae37ef11b136ea224fe,,,,,,,,,970,-40.95343018,-88.83209229,1,0,0,response5disk,,3,2.02130127,-3.483520508,1,0,0,rectangle,2.02130127,-3.483520508,1,0,0,2.02130127,-3.483520508,1,0,0,1,60,220,104,1,,,,,,,,
,,,,,,,,,,,,,FF,,,,,,,,1.4506,,,,,,,,,,,,,,,,,,,,,,610367e58b767ec6c3395508,61036c44178ad7abd8d7ae8a,2021-07-29_20h05.18.590,Simcolourproject_2stim_asymm_v5,2020.2.10,MacIntel,60,61025ae37ef11b136ea224fe,,,,,,,,,3207,75.27520752,-65.87609863,1,0,0,response3disk,,5,-15.10540771,2.632293701,1,0,0,rectangle,-15.10540771,2.632293701,1,0,0,-15.10540771,2.632293701,1,0,0,1,61,221,98,1,,,,,,,,
,,,,,,,,,,,,,FF,,,,,,,,4.3994,,,,,,,,,,,,,,,,,,,,,,610367e58b767ec6c3395508,61036c44178ad7abd8d7ae8a,2021-07-29_20h05.18.590,Simcolourproject_2stim_asymm_v5,2020.2.10,MacIntel,60,61025ae37ef11b136ea224fe,,,,,,,,,2901,102.2803955,-22.90802002,1,0,0,response3disk,,5,-0.575073242,-0.683532715,1,0,0,rectangle,-0.575073242,-0.683532715,1,0,0,-0.575073242,-0.683532715,1,0,0,1,62,222,18,1,,,,,,,,
,,,,,,,,,,,,,FF,,,,,,,,1.083,,,,,,,,,,,,,,,,,,,,,,610367e58b767ec6c3395508,61036c44178ad7abd8d7ae8a,2021-07-29_20h05.18.590,Simcolourproject_2stim_asymm_v5,2020.2.10,MacIntel,60,61025ae37ef11b136ea224fe,,,,,,,,,4320,31.03759766,-70.30822754,1,0,0,response3disk,,4,12.67120361,-6.191864014,1,0,0,rectangle,12.67120361,-6.191864014,1,0,0,12.67120361,-6.191864014,1,0,0,1,63,223,140,1,,,,,,,,
,,,,,,,,,,,,,FF,,,,,,,,1.1674,,,,,,,,,,,,,,,,,,,,,,610367e58b767ec6c3395508,61036c44178ad7abd8d7ae8a,2021-07-29_20h05.18.590,Simcolourproject_2stim_asymm_v5,2020.2.10,MacIntel,60,61025ae37ef11b136ea224fe,,,,,,,,,1463,84.93383789,-44.77780151,1,0,0,response3disk,,5,5.725280762,-2.327758789,1,0,0,rectangle,5.725280762,-2.327758789,1,0,0,5.725280762,-2.327758789,1,0,0,1,64,224,89,1,,,,,,,,
,,,,,,,,,,,,,FF,,,,,,,,0.9498,,,,,,,,,,,,,,,,,,,,,,610367e58b767ec6c3395508,61036c44178ad7abd8d7ae8a,2021-07-29_20h05.18.590,Simcolourproject_2stim_asymm_v5,2020.2.10,MacIntel,60,61025ae37ef11b136ea224fe,,,,,,,,,3615,33.41955566,91.646698,1,0,0,response1disk,,7,19.75286865,2.767425537,1,0,0,rectangle,19.75286865,2.767425537,1,0,0,19.75286865,2.767425537,1,0,0,1,65,225,38,1,,,,,,,,
,,,,,,,,,,,,,FF,,,,,,,,1.1011,,,,,,,,,,,,,,,,,,,,,,610367e58b767ec6c3395508,61036c44178ad7abd8d7ae8a,2021-07-29_20h05.18.590,Simcolourproject_2stim_asymm_v5,2020.2.10,MacIntel,60,61025ae37ef11b136ea224fe,,,,,,,,,3093,-33.91815186,-84.83233643,1,0,0,response5disk,,3,8.855895996,-12.48919678,1,0,0,rectangle,8.855895996,-12.48919678,1,0,0,8.855895996,-12.48919678,1,0,0,1,66,226,80,1,,,,,,,,
,,,,,,,,,,,,,FF,,,,,,,,0.8164,,,,,,,,,,,,,,,,,,,,,,610367e58b767ec6c3395508,61036c44178ad7abd8d7ae8a,2021-07-29_20h05.18.590,Simcolourproject_2stim_asymm_v5,2020.2.10,MacIntel,60,61025ae37ef11b136ea224fe,,,,,,,,,886,-68.03417969,-32.19934082,1,0,0,response5disk,,2,11.98352051,-0.657714844,1,0,0,rectangle,11.98352051,-0.657714844,1,0,0,11.98352051,-0.657714844,1,0,0,1,67,227,130,1,,,,,,,,
,,,,,,,,,,,,,FF,,,,,,,,1.2666,,,,,,,,,,,,,,,,,,,,,,610367e58b767ec6c3395508,61036c44178ad7abd8d7ae8a,2021-07-29_20h05.18.590,Simcolourproject_2stim_asymm_v5,2020.2.10,MacIntel,60,61025ae37ef11b136ea224fe,,,,,,,,,820,41.53204346,-95.47259521,1,0,0,response3disk,,4,20.65661621,-1.719055176,1,0,0,rectangle,-106.7214355,59.22070313,1,0,0,6.029785156,5.450256348,1,0,0,1,68,228,143,1,,response7disk_3,TRUE,1,1,"[82,52,177,21,51,141,262,229,32,275,36,9,176,230,20,25,100,134,191,54]",1.4335,rectangle
,,,,,,,,,,,,,FF,,,,,,,,1.3663,,,,,,,,,,,,,,,,,,,,,,610367e58b767ec6c3395508,61036c44178ad7abd8d7ae8a,2021-07-29_20h05.18.590,Simcolourproject_2stim_asymm_v5,2020.2.10,MacIntel,60,61025ae37ef11b136ea224fe,,,,,,,,,591,75.82000732,-23.70556641,1,0,0,response3disk,,5,8.961791992,8.957763672,1,0,0,rectangle,-87.66522217,-52.98468018,1,0,0,7.933227539,-4.926635742,1,0,0,1,69,229,87,1,,response5disk_3,TRUE,2,2,"[82,52,177,21,51,141,262,229,32,275,36,9,176,230,20,25,100,134,191,54]",1.9996,rectangle
,,,,,,,,,,,,,FF,,,,,,,,1.1,,,,,,,,,,,,,,,,,,,,,,610367e58b767ec6c3395508,61036c44178ad7abd8d7ae8a,2021-07-29_20h05.18.590,Simcolourproject_2stim_asymm_v5,2020.2.10,MacIntel,60,61025ae37ef11b136ea224fe,,,,,,,,,4234,81.73046875,30.82730103,1,0,0,response1disk,,6,12.30633545,2.504394531,1,0,0,rectangle,12.30633545,2.504394531,1,0,0,12.30633545,2.504394531,1,0,0,1,70,230,41,1,,,,,,,,
,,,,,,,,,,,,,FF,,,,,,,,2.149,,,,,,,,,,,,,,,,,,,,,,610367e58b767ec6c3395508,61036c44178ad7abd8d7ae8a,2021-07-29_20h05.18.590,Simcolourproject_2stim_asymm_v5,2020.2.10,MacIntel,60,61025ae37ef11b136ea224fe,,,,,,,,,3372,48.87237549,-62.20544434,1,0,0,response3disk,,4,15.64331055,-6.987182617,1,0,0,rectangle,15.64331055,-6.987182617,1,0,0,15.64331055,-6.987182617,1,0,0,1,71,231,146,1,,,,,,,,
,,,,,,,,,,,,,FF,,,,,,,,1.4495,,,,,,,,,,,,,,,,,,,,,,610367e58b767ec6c3395508,61036c44178ad7abd8d7ae8a,2021-07-29_20h05.18.590,Simcolourproject_2stim_asymm_v5,2020.2.10,MacIntel,60,61025ae37ef11b136ea224fe,,,,,,,,,412,83.52679443,28.42590332,1,0,0,response1disk,,6,30.07714844,6.005493164,1,0,0,rectangle,30.07714844,6.005493164,1,0,0,30.07714844,6.005493164,1,0,0,1,72,232,106,1,,,,,,,,
,,,,,,,,,,,,,FF,,,,,,,,1.401,,,,,,,,,,,,,,,,,,,,,,610367e58b767ec6c3395508,61036c44178ad7abd8d7ae8a,2021-07-29_20h05.18.590,Simcolourproject_2stim_asymm_v5,2020.2.10,MacIntel,60,61025ae37ef11b136ea224fe,,,,,,,,,2026,-41.34753418,-68.19458008,1,0,0,response5disk,,3,2.383728027,16.51013184,1,0,0,rectangle,2.383728027,16.51013184,1,0,0,2.383728027,16.51013184,1,0,0,1,73,233,50,1,,,,,,,,
,,,,,,,,,,,,,FF,,,,,,,,1.4838,,,,,,,,,,,,,,,,,,,,,,610367e58b767ec6c3395508,61036c44178ad7abd8d7ae8a,2021-07-29_20h05.18.590,Simcolourproject_2stim_asymm_v5,2020.2.10,MacIntel,60,61025ae37ef11b136ea224fe,,,,,,,,,2038,-50.04467773,-34.27880859,1,0,0,response5disk,,2,-3.621337891,-12.77587891,1,0,0,rectangle,-3.621337891,-12.77587891,1,0,0,-3.621337891,-12.77587891,1,0,0,1,74,234,137,1,,,,,,,,
,,,,,,,,,,,,,FF,,,,,,,,0.8834,,,,,,,,,,,,,,,,,,,,,,610367e58b767ec6c3395508,61036c44178ad7abd8d7ae8a,2021-07-29_20h05.18.590,Simcolourproject_2stim_asymm_v5,2020.2.10,MacIntel,60,61025ae37ef11b136ea224fe,,,,,,,,,2249,53.65881348,-68.20629883,1,0,0,response3disk,,4,-1.171203613,5.742004395,1,0,0,rectangle,-1.171203613,5.742004395,1,0,0,-1.171203613,5.742004395,1,0,0,1,75,235,57,1,,,,,,,,
,,,,,,,,,,,,,FF,,,,,,,,1.2992,,,,,,,,,,,,,,,,,,,,,,610367e58b767ec6c3395508,61036c44178ad7abd8d7ae8a,2021-07-29_20h05.18.590,Simcolourproject_2stim_asymm_v5,2020.2.10,MacIntel,60,61025ae37ef11b136ea224fe,,,,,,,,,2490,94.62817383,-46.28582764,1,0,0,response3disk,,5,13.44512939,-2.832092285,1,0,0,rectangle,13.44512939,-2.832092285,1,0,0,13.44512939,-2.832092285,1,0,0,1,76,236,153,1,,,,,,,,
,,,,,,,,,,,,,FF,,,,,,,,1.2837,,,,,,,,,,,,,,,,,,,,,,610367e58b767ec6c3395508,61036c44178ad7abd8d7ae8a,2021-07-29_20h05.18.590,Simcolourproject_2stim_asymm_v5,2020.2.10,MacIntel,60,61025ae37ef11b136ea224fe,,,,,,,,,4125,-31.21777344,-95.44842529,1,0,0,response5disk,,3,-5.625305176,-7.462188721,1,0,0,rectangle,-5.625305176,-7.462188721,1,0,0,-5.625305176,-7.462188721,1,0,0,1,77,237,125,1,,,,,,,,
,,,,,,,,,,,,,FF,,,,,,,,0.866,,,,,,,,,,,,,,,,,,,,,,610367e58b767ec6c3395508,61036c44178ad7abd8d7ae8a,2021-07-29_20h05.18.590,Simcolourproject_2stim_asymm_v5,2020.2.10,MacIntel,60,61025ae37ef11b136ea224fe,,,,,,,,,2257,88.19055176,-46.29711914,1,0,0,response3disk,,5,7.731384277,-3.967590332,1,0,0,rectangle,7.731384277,-3.967590332,1,0,0,7.731384277,-3.967590332,1,0,0,1,78,238,61,1,,,,,,,,
,,,,,,,,,,,,,FF,,,,,,,,1.1665,,,,,,,,,,,,,,,,,,,,,,610367e58b767ec6c3395508,61036c44178ad7abd8d7ae8a,2021-07-29_20h05.18.590,Simcolourproject_2stim_asymm_v5,2020.2.10,MacIntel,60,61025ae37ef11b136ea224fe,,,,,,,,,4181,-58.31573486,90.23565674,1,0,0,response7disk,,0,-4.447875977,12.39483643,1,0,0,rectangle,-4.447875977,12.39483643,1,0,0,-4.447875977,12.39483643,1,0,0,1,79,239,34,1,,,,,,,,
,,,,,,,,,,,,,FF,,,,,,,,1.3829,,,,,,,,,,,,,,,,,,,,,,610367e58b767ec6c3395508,61036c44178ad7abd8d7ae8a,2021-07-29_20h05.18.590,Simcolourproject_2stim_asymm_v5,2020.2.10,MacIntel,60,61025ae37ef11b136ea224fe,,,,,,,,,1968,-47.07080078,-96.83203125,1,0,0,response5disk,,3,10.18371582,-1.324615479,1,0,0,rectangle,10.18371582,-1.324615479,1,0,0,10.18371582,-1.324615479,1,0,0,1,80,240,127,1,,,,,,,,
