key_resp.keys,key_resp.rt,key_resp_14.keys,key_resp_14.rt,key_resp_15.keys,key_resp_15.rt,key_resp_17.keys,key_resp_17.rt,key_resp_9.keys,key_resp_9.rt,key_resp_10.keys,key_resp_10.rt,practice_comparison,Ecc,mouse_5.x,mouse_5.y,mouse_5.leftButton,mouse_5.midButton,mouse_5.rightButton,mouse_5.clicked_name,pracsimilarity,response_time,mouse_10.x,mouse_10.y,mouse_10.leftButton,mouse_10.midButton,mouse_10.rightButton,mouse_10.clicked_name,mouse_7.x,mouse_7.y,mouse_7.leftButton,mouse_7.midButton,mouse_7.rightButton,mouse_6.x,mouse_6.y,mouse_6.leftButton,mouse_6.midButton,mouse_6.rightButton,duringprac.thisRepN,duringprac.thisTrialN,duringprac.thisN,duringprac.thisIndex,duringprac.ran,participant,session,date,expName,psychopyVersion,OS,frameRate,study_id,mouse_7.clicked_name,catchpracsimilarity,catch_response_time,catchnumberprac,catchtrialorderprac,mouse_6.clicked_name,key_resp_22.keys,key_resp_22.rt,realcomparison,mouse.x,mouse.y,mouse.leftButton,mouse.midButton,mouse.rightButton,mouse.clicked_name,Colour2,similarity,mouse_2.x,mouse_2.y,mouse_2.leftButton,mouse_2.midButton,mouse_2.rightButton,mouse_2.clicked_name,mouse_3.x,mouse_3.y,mouse_3.leftButton,mouse_3.midButton,mouse_3.rightButton,mouse_11.x,mouse_11.y,mouse_11.leftButton,mouse_11.midButton,mouse_11.rightButton,trials_2.thisRepN,trials_2.thisTrialN,trials_2.thisN,trials_2.thisIndex,trials_2.ran,Colour1,mouse_3.clicked_name,catchornah,catchsimilarity,catchnumber,catchtrialorder,catchRT,mouse_11.clicked_name
space,2.873,space,14.662,space,18.397,space,8.298,space,2.306,space,7.005,35,FF,48,-36,1,0,0,response3disk_5,5,11.603,1,6,1,0,0,rectangle_8,1,6,1,0,0,1,6,1,0,0,0,0,0,5,1,6103462a62215bc455f87411,61036a5e0a2c909979743125,2021-07-29_21h59.16.827,Simcolourproject_2stim_asymm_v5,2020.2.10,MacIntel,60,61025ae37ef11b136ea224fe,,,,,,,,,,,,,,,,,,,,,,,,,,,,,,,,,,,,,,,,,,,,,,
,,,,,,,,,,,,25,FF,-21,-54,1,0,0,response5disk_5,3,3.084,-4,-7,1,0,0,rectangle_8,-31,74,1,0,0,6,-5,1,0,0,0,1,1,0,1,6103462a62215bc455f87411,61036a5e0a2c909979743125,2021-07-29_21h59.16.827,Simcolourproject_2stim_asymm_v5,2020.2.10,MacIntel,60,61025ae37ef11b136ea224fe,response7disk_7,0,2.585,0,"[2,5]",rectangle_4,,,,,,,,,,,,,,,,,,,,,,,,,,,,,,,,,,,,,,,,
,,,,,,,,,,,,139,FF,31,-51,1,0,0,response3disk_5,4,3.75,14,-13,1,0,0,rectangle_8,14,-13,1,0,0,14,-13,1,0,0,0,2,2,3,1,6103462a62215bc455f87411,61036a5e0a2c909979743125,2021-07-29_21h59.16.827,Simcolourproject_2stim_asymm_v5,2020.2.10,MacIntel,60,61025ae37ef11b136ea224fe,,,,,,,,,,,,,,,,,,,,,,,,,,,,,,,,,,,,,,,,,,,,,,
,,,,,,,,,,,,68,PF,59,30,1,0,0,response1disk_5,6,1.899,11,-3,1,0,0,rectangle_8,11,-3,1,0,0,11,-3,1,0,0,0,3,3,2,1,6103462a62215bc455f87411,61036a5e0a2c909979743125,2021-07-29_21h59.16.827,Simcolourproject_2stim_asymm_v5,2020.2.10,MacIntel,60,61025ae37ef11b136ea224fe,,,,,,,,,,,,,,,,,,,,,,,,,,,,,,,,,,,,,,,,,,,,,,
,,,,,,,,,,,,111,PF,63,33,1,0,0,response1disk_5,6,2.884,4,-6,1,0,0,rectangle_8,-37,79,1,0,0,-12,-5,1,0,0,0,4,4,6,1,6103462a62215bc455f87411,61036a5e0a2c909979743125,2021-07-29_21h59.16.827,Simcolourproject_2stim_asymm_v5,2020.2.10,MacIntel,60,61025ae37ef11b136ea224fe,response7disk_7,0,3.401,0,"[2,5]",rectangle_4,,,,,,,,,,,,,,,,,,,,,,,,,,,,,,,,,,,,,,,,
,,,,,,,,,,,,11,PF,73,31,1,0,0,response1disk_5,6,2.284,20,-5,1,0,0,rectangle_8,20,-5,1,0,0,20,-5,1,0,0,0,5,5,4,1,6103462a62215bc455f87411,61036a5e0a2c909979743125,2021-07-29_21h59.16.827,Simcolourproject_2stim_asymm_v5,2020.2.10,MacIntel,60,61025ae37ef11b136ea224fe,,,,,,,,,,,,,,,,,,,,,,,,,,,,,,,,,,,,,,,,,,,,,,
,,,,,,,,,,,,91,PF,52,-39,1,0,0,response3disk_5,5,2.017,7,7,1,0,0,rectangle_8,7,7,1,0,0,7,7,1,0,0,0,6,6,1,1,6103462a62215bc455f87411,61036a5e0a2c909979743125,2021-07-29_21h59.16.827,Simcolourproject_2stim_asymm_v5,2020.2.10,MacIntel,60,61025ae37ef11b136ea224fe,,,,,,,,,,,,,,,,,,,,,,,,,,,,,,,,,,,,,,,,,,,,,,
,,,,,,,,,,,,,FF,,,,,,,,3.105,,,,,,,,,,,,,,,,,,,,,,6103462a62215bc455f87411,61036a5e0a2c909979743125,2021-07-29_21h59.16.827,Simcolourproject_2stim_asymm_v5,2020.2.10,MacIntel,60,61025ae37ef11b136ea224fe,,,,,,,space,3.692,1948,39,-57,1,0,0,response3disk,,4,11,5,1,0,0,rectangle,11,5,1,0,0,11,5,1,0,0,0,0,0,128,1,,,,,,,,
,,,,,,,,,,,,,FF,,,,,,,,3.901,,,,,,,,,,,,,,,,,,,,,,6103462a62215bc455f87411,61036a5e0a2c909979743125,2021-07-29_21h59.16.827,Simcolourproject_2stim_asymm_v5,2020.2.10,MacIntel,60,61025ae37ef11b136ea224fe,,,,,,,,,2995,-66,-61,1,0,0,response5disk,,2,-4,3,1,0,0,rectangle,-4,3,1,0,0,-4,3,1,0,0,0,1,1,8,1,,,,,,,,
,,,,,,,,,,,,,FF,,,,,,,,3.75,,,,,,,,,,,,,,,,,,,,,,6103462a62215bc455f87411,61036a5e0a2c909979743125,2021-07-29_21h59.16.827,Simcolourproject_2stim_asymm_v5,2020.2.10,MacIntel,60,61025ae37ef11b136ea224fe,,,,,,,,,3897,47,-36,1,0,0,response3disk,,5,12,-7,1,0,0,rectangle,12,-7,1,0,0,12,-7,1,0,0,0,2,2,57,1,,,,,,,,
,,,,,,,,,,,,,FF,,,,,,,,1.366,,,,,,,,,,,,,,,,,,,,,,6103462a62215bc455f87411,61036a5e0a2c909979743125,2021-07-29_21h59.16.827,Simcolourproject_2stim_asymm_v5,2020.2.10,MacIntel,60,61025ae37ef11b136ea224fe,,,,,,,,,2037,46,-69,1,0,0,response3disk,,4,3,4,1,0,0,rectangle,3,4,1,0,0,3,4,1,0,0,0,3,3,119,1,,,,,,,,
,,,,,,,,,,,,,FF,,,,,,,,1.268,,,,,,,,,,,,,,,,,,,,,,6103462a62215bc455f87411,61036a5e0a2c909979743125,2021-07-29_21h59.16.827,Simcolourproject_2stim_asymm_v5,2020.2.10,MacIntel,60,61025ae37ef11b136ea224fe,,,,,,,,,1823,47,80,1,0,0,response1disk,,7,26,4,1,0,0,rectangle,26,4,1,0,0,26,4,1,0,0,0,4,4,92,1,,,,,,,,
,,,,,,,,,,,,,FF,,,,,,,,4.85,,,,,,,,,,,,,,,,,,,,,,6103462a62215bc455f87411,61036a5e0a2c909979743125,2021-07-29_21h59.16.827,Simcolourproject_2stim_asymm_v5,2020.2.10,MacIntel,60,61025ae37ef11b136ea224fe,,,,,,,,,3180,-45,-36,1,0,0,response5disk,,2,-3,-8,1,0,0,rectangle,-3,-8,1,0,0,-3,-8,1,0,0,0,5,5,85,1,,,,,,,,
,,,,,,,,,,,,,FF,,,,,,,,2.216,,,,,,,,,,,,,,,,,,,,,,6103462a62215bc455f87411,61036a5e0a2c909979743125,2021-07-29_21h59.16.827,Simcolourproject_2stim_asymm_v5,2020.2.10,MacIntel,60,61025ae37ef11b136ea224fe,,,,,,,,,2139,-35,57,1,0,0,response7disk,,0,-9,1,1,0,0,rectangle,-9,1,1,0,0,-9,1,1,0,0,0,6,6,115,1,,,,,,,,
,,,,,,,,,,,,,FF,,,,,,,,1.317,,,,,,,,,,,,,,,,,,,,,,6103462a62215bc455f87411,61036a5e0a2c909979743125,2021-07-29_21h59.16.827,Simcolourproject_2stim_asymm_v5,2020.2.10,MacIntel,60,61025ae37ef11b136ea224fe,,,,,,,,,2724,-23,62,1,0,0,response7disk,,0,-18,9,1,0,0,rectangle,-18,9,1,0,0,-18,9,1,0,0,0,7,7,30,1,,,,,,,,
,,,,,,,,,,,,,FF,,,,,,,,9.45,,,,,,,,,,,,,,,,,,,,,,6103462a62215bc455f87411,61036a5e0a2c909979743125,2021-07-29_21h59.16.827,Simcolourproject_2stim_asymm_v5,2020.2.10,MacIntel,60,61025ae37ef11b136ea224fe,,,,,,,,,694,52,-73,1,0,0,response3disk,,4,-1,3,1,0,0,rectangle,-1,3,1,0,0,-1,3,1,0,0,0,8,8,65,1,,,,,,,,
,,,,,,,,,,,,,FF,,,,,,,,1.582,,,,,,,,,,,,,,,,,,,,,,6103462a62215bc455f87411,61036a5e0a2c909979743125,2021-07-29_21h59.16.827,Simcolourproject_2stim_asymm_v5,2020.2.10,MacIntel,60,61025ae37ef11b136ea224fe,,,,,,,,,839,76,40,1,0,0,response1disk,,6,18,-3,1,0,0,rectangle,18,-3,1,0,0,18,-3,1,0,0,0,9,9,25,1,,,,,,,,
,,,,,,,,,,,,,FF,,,,,,,,2.201,,,,,,,,,,,,,,,,,,,,,,6103462a62215bc455f87411,61036a5e0a2c909979743125,2021-07-29_21h59.16.827,Simcolourproject_2stim_asymm_v5,2020.2.10,MacIntel,60,61025ae37ef11b136ea224fe,,,,,,,,,4066,48,-83,1,0,0,response3disk,,4,-5,-3,1,0,0,rectangle,-5,-3,1,0,0,-5,-3,1,0,0,0,10,10,148,1,,,,,,,,
,,,,,,,,,,,,,FF,,,,,,,,1.484,,,,,,,,,,,,,,,,,,,,,,6103462a62215bc455f87411,61036a5e0a2c909979743125,2021-07-29_21h59.16.827,Simcolourproject_2stim_asymm_v5,2020.2.10,MacIntel,60,61025ae37ef11b136ea224fe,,,,,,,,,1640,93,51,1,0,0,response1disk,,6,9,-3,1,0,0,rectangle,9,-3,1,0,0,9,-3,1,0,0,0,11,11,123,1,,,,,,,,
,,,,,,,,,,,,,FF,,,,,,,,2.499,,,,,,,,,,,,,,,,,,,,,,6103462a62215bc455f87411,61036a5e0a2c909979743125,2021-07-29_21h59.16.827,Simcolourproject_2stim_asymm_v5,2020.2.10,MacIntel,60,61025ae37ef11b136ea224fe,,,,,,,,,258,-40,73,1,0,0,response7disk,,0,8,0,1,0,0,rectangle,8,0,1,0,0,8,0,1,0,0,0,12,12,56,1,,,,,,,,
,,,,,,,,,,,,,FF,,,,,,,,1.917,,,,,,,,,,,,,,,,,,,,,,6103462a62215bc455f87411,61036a5e0a2c909979743125,2021-07-29_21h59.16.827,Simcolourproject_2stim_asymm_v5,2020.2.10,MacIntel,60,61025ae37ef11b136ea224fe,,,,,,,,,2968,35,-105,1,0,0,response3disk,,4,9,-5,1,0,0,rectangle,9,-5,1,0,0,9,-5,1,0,0,0,13,13,34,1,,,,,,,,
,,,,,,,,,,,,,FF,,,,,,,,2.465,,,,,,,,,,,,,,,,,,,,,,6103462a62215bc455f87411,61036a5e0a2c909979743125,2021-07-29_21h59.16.827,Simcolourproject_2stim_asymm_v5,2020.2.10,MacIntel,60,61025ae37ef11b136ea224fe,,,,,,,,,2066,34,-59,1,0,0,response3disk,,4,12,-13,1,0,0,rectangle,12,-13,1,0,0,12,-13,1,0,0,0,14,14,22,1,,,,,,,,
,,,,,,,,,,,,,FF,,,,,,,,1.1,,,,,,,,,,,,,,,,,,,,,,6103462a62215bc455f87411,61036a5e0a2c909979743125,2021-07-29_21h59.16.827,Simcolourproject_2stim_asymm_v5,2020.2.10,MacIntel,60,61025ae37ef11b136ea224fe,,,,,,,,,2859,29,-63,1,0,0,response3disk,,4,-2,-7,1,0,0,rectangle,-2,-7,1,0,0,-2,-7,1,0,0,0,15,15,14,1,,,,,,,,
,,,,,,,,,,,,,FF,,,,,,,,4.35,,,,,,,,,,,,,,,,,,,,,,6103462a62215bc455f87411,61036a5e0a2c909979743125,2021-07-29_21h59.16.827,Simcolourproject_2stim_asymm_v5,2020.2.10,MacIntel,60,61025ae37ef11b136ea224fe,,,,,,,,,1654,-30,-85,1,0,0,response5disk,,3,16,-13,1,0,0,rectangle,16,-13,1,0,0,16,-13,1,0,0,0,16,16,49,1,,,,,,,,
,,,,,,,,,,,,,FF,,,,,,,,1.234,,,,,,,,,,,,,,,,,,,,,,6103462a62215bc455f87411,61036a5e0a2c909979743125,2021-07-29_21h59.16.827,Simcolourproject_2stim_asymm_v5,2020.2.10,MacIntel,60,61025ae37ef11b136ea224fe,,,,,,,,,4124,-43,-72,1,0,0,response5disk,,3,-15,-9,1,0,0,rectangle,-15,-9,1,0,0,-15,-9,1,0,0,0,17,17,124,1,,,,,,,,
,,,,,,,,,,,,,FF,,,,,,,,2.082,,,,,,,,,,,,,,,,,,,,,,6103462a62215bc455f87411,61036a5e0a2c909979743125,2021-07-29_21h59.16.827,Simcolourproject_2stim_asymm_v5,2020.2.10,MacIntel,60,61025ae37ef11b136ea224fe,,,,,,,,,3391,-81,37,1,0,0,response7disk,,1,-7,9,1,0,0,rectangle,-7,9,1,0,0,-7,9,1,0,0,0,18,18,79,1,,,,,,,,
,,,,,,,,,,,,,FF,,,,,,,,1.632,,,,,,,,,,,,,,,,,,,,,,6103462a62215bc455f87411,61036a5e0a2c909979743125,2021-07-29_21h59.16.827,Simcolourproject_2stim_asymm_v5,2020.2.10,MacIntel,60,61025ae37ef11b136ea224fe,,,,,,,,,4004,-45,-78,1,0,0,response5disk,,3,12,-6,1,0,0,rectangle,12,-6,1,0,0,12,-6,1,0,0,0,19,19,93,1,,,,,,,,
,,,,,,,,,,,,,FF,,,,,,,,3.5,,,,,,,,,,,,,,,,,,,,,,6103462a62215bc455f87411,61036a5e0a2c909979743125,2021-07-29_21h59.16.827,Simcolourproject_2stim_asymm_v5,2020.2.10,MacIntel,60,61025ae37ef11b136ea224fe,,,,,,,,,2088,53,64,1,0,0,response1disk,,7,12,3,1,0,0,rectangle,12,3,1,0,0,12,3,1,0,0,0,20,20,96,1,,,,,,,,
,,,,,,,,,,,,,FF,,,,,,,,1.733,,,,,,,,,,,,,,,,,,,,,,6103462a62215bc455f87411,61036a5e0a2c909979743125,2021-07-29_21h59.16.827,Simcolourproject_2stim_asymm_v5,2020.2.10,MacIntel,60,61025ae37ef11b136ea224fe,,,,,,,,,3344,53,-76,1,0,0,response3disk,,4,7,-12,1,0,0,rectangle,7,-12,1,0,0,7,-12,1,0,0,0,21,21,100,1,,,,,,,,
,,,,,,,,,,,,,FF,,,,,,,,2.634,,,,,,,,,,,,,,,,,,,,,,6103462a62215bc455f87411,61036a5e0a2c909979743125,2021-07-29_21h59.16.827,Simcolourproject_2stim_asymm_v5,2020.2.10,MacIntel,60,61025ae37ef11b136ea224fe,,,,,,,,,2313,36,-54,1,0,0,response3disk,,4,1,-7,1,0,0,rectangle,1,-7,1,0,0,1,-7,1,0,0,0,22,22,82,1,,,,,,,,
,,,,,,,,,,,,,FF,,,,,,,,2.485,,,,,,,,,,,,,,,,,,,,,,6103462a62215bc455f87411,61036a5e0a2c909979743125,2021-07-29_21h59.16.827,Simcolourproject_2stim_asymm_v5,2020.2.10,MacIntel,60,61025ae37ef11b136ea224fe,,,,,,,,,1038,-61,-94,1,0,0,response5disk,,3,-7,-8,1,0,0,rectangle,-7,-8,1,0,0,-7,-8,1,0,0,0,23,23,72,1,,,,,,,,
,,,,,,,,,,,,,FF,,,,,,,,1.284,,,,,,,,,,,,,,,,,,,,,,6103462a62215bc455f87411,61036a5e0a2c909979743125,2021-07-29_21h59.16.827,Simcolourproject_2stim_asymm_v5,2020.2.10,MacIntel,60,61025ae37ef11b136ea224fe,,,,,,,,,688,45,-62,1,0,0,response3disk,,4,6,-3,1,0,0,rectangle,6,-3,1,0,0,6,-3,1,0,0,0,24,24,55,1,,,,,,,,
,,,,,,,,,,,,,FF,,,,,,,,2.282,,,,,,,,,,,,,,,,,,,,,,6103462a62215bc455f87411,61036a5e0a2c909979743125,2021-07-29_21h59.16.827,Simcolourproject_2stim_asymm_v5,2020.2.10,MacIntel,60,61025ae37ef11b136ea224fe,,,,,,,,,4089,-60,-74,1,0,0,response5disk,,3,-6,2,1,0,0,rectangle,-6,2,1,0,0,-6,2,1,0,0,0,25,25,35,1,,,,,,,,
,,,,,,,,,,,,,FF,,,,,,,,2.267,,,,,,,,,,,,,,,,,,,,,,6103462a62215bc455f87411,61036a5e0a2c909979743125,2021-07-29_21h59.16.827,Simcolourproject_2stim_asymm_v5,2020.2.10,MacIntel,60,61025ae37ef11b136ea224fe,,,,,,,,,2593,36,-80,1,0,0,response3disk,,4,7,3,1,0,0,rectangle,7,3,1,0,0,7,3,1,0,0,0,26,26,4,1,,,,,,,,
,,,,,,,,,,,,,FF,,,,,,,,1.401,,,,,,,,,,,,,,,,,,,,,,6103462a62215bc455f87411,61036a5e0a2c909979743125,2021-07-29_21h59.16.827,Simcolourproject_2stim_asymm_v5,2020.2.10,MacIntel,60,61025ae37ef11b136ea224fe,,,,,,,,,198,-79,-32,1,0,0,response5disk,,2,-1,0,1,0,0,rectangle,-1,0,1,0,0,-1,0,1,0,0,0,27,27,78,1,,,,,,,,
,,,,,,,,,,,,,FF,,,,,,,,3.284,,,,,,,,,,,,,,,,,,,,,,6103462a62215bc455f87411,61036a5e0a2c909979743125,2021-07-29_21h59.16.827,Simcolourproject_2stim_asymm_v5,2020.2.10,MacIntel,60,61025ae37ef11b136ea224fe,,,,,,,,,937,79,-41,1,0,0,response3disk,,5,7,8,1,0,0,rectangle,7,8,1,0,0,7,8,1,0,0,0,28,28,45,1,,,,,,,,
,,,,,,,,,,,,,FF,,,,,,,,1.615,,,,,,,,,,,,,,,,,,,,,,6103462a62215bc455f87411,61036a5e0a2c909979743125,2021-07-29_21h59.16.827,Simcolourproject_2stim_asymm_v5,2020.2.10,MacIntel,60,61025ae37ef11b136ea224fe,,,,,,,,,2845,-74,-37,1,0,0,response5disk,,2,7,-6,1,0,0,rectangle,7,-6,1,0,0,7,-6,1,0,0,0,29,29,157,1,,,,,,,,
,,,,,,,,,,,,,FF,,,,,,,,1.183,,,,,,,,,,,,,,,,,,,,,,6103462a62215bc455f87411,61036a5e0a2c909979743125,2021-07-29_21h59.16.827,Simcolourproject_2stim_asymm_v5,2020.2.10,MacIntel,60,61025ae37ef11b136ea224fe,,,,,,,,,1185,66,38,1,0,0,response1disk,,6,4,-12,1,0,0,rectangle,4,-12,1,0,0,4,-12,1,0,0,0,30,30,151,1,,,,,,,,
,,,,,,,,,,,,,FF,,,,,,,,1.367,,,,,,,,,,,,,,,,,,,,,,6103462a62215bc455f87411,61036a5e0a2c909979743125,2021-07-29_21h59.16.827,Simcolourproject_2stim_asymm_v5,2020.2.10,MacIntel,60,61025ae37ef11b136ea224fe,,,,,,,,,3174,78,-74,1,0,0,response3disk,,5,-3,-12,1,0,0,rectangle,-3,-12,1,0,0,-3,-12,1,0,0,0,31,31,20,1,,,,,,,,
,,,,,,,,,,,,,FF,,,,,,,,1.034,,,,,,,,,,,,,,,,,,,,,,6103462a62215bc455f87411,61036a5e0a2c909979743125,2021-07-29_21h59.16.827,Simcolourproject_2stim_asymm_v5,2020.2.10,MacIntel,60,61025ae37ef11b136ea224fe,,,,,,,,,3449,61,27,1,0,0,response1disk,,6,4,4,1,0,0,rectangle,4,4,1,0,0,4,4,1,0,0,0,32,32,145,1,,,,,,,,
,,,,,,,,,,,,,FF,,,,,,,,1.084,,,,,,,,,,,,,,,,,,,,,,6103462a62215bc455f87411,61036a5e0a2c909979743125,2021-07-29_21h59.16.827,Simcolourproject_2stim_asymm_v5,2020.2.10,MacIntel,60,61025ae37ef11b136ea224fe,,,,,,,,,3487,83,-40,1,0,0,response3disk,,5,8,-3,1,0,0,rectangle,8,-3,1,0,0,8,-3,1,0,0,0,33,33,131,1,,,,,,,,
,,,,,,,,,,,,,FF,,,,,,,,1.317,,,,,,,,,,,,,,,,,,,,,,6103462a62215bc455f87411,61036a5e0a2c909979743125,2021-07-29_21h59.16.827,Simcolourproject_2stim_asymm_v5,2020.2.10,MacIntel,60,61025ae37ef11b136ea224fe,,,,,,,,,3837,-51,-106,1,0,0,response5disk,,3,18,-6,1,0,0,rectangle,18,-6,1,0,0,18,-6,1,0,0,0,34,34,117,1,,,,,,,,
,,,,,,,,,,,,,FF,,,,,,,,1.718,,,,,,,,,,,,,,,,,,,,,,6103462a62215bc455f87411,61036a5e0a2c909979743125,2021-07-29_21h59.16.827,Simcolourproject_2stim_asymm_v5,2020.2.10,MacIntel,60,61025ae37ef11b136ea224fe,,,,,,,,,4041,51,-69,1,0,0,response3disk,,4,7,-13,1,0,0,rectangle,7,-13,1,0,0,7,-13,1,0,0,0,35,35,21,1,,,,,,,,
,,,,,,,,,,,,,FF,,,,,,,,1.867,,,,,,,,,,,,,,,,,,,,,,6103462a62215bc455f87411,61036a5e0a2c909979743125,2021-07-29_21h59.16.827,Simcolourproject_2stim_asymm_v5,2020.2.10,MacIntel,60,61025ae37ef11b136ea224fe,,,,,,,,,1674,-58,-53,1,0,0,response5disk,,2,18,-8,1,0,0,rectangle,18,-8,1,0,0,18,-8,1,0,0,0,36,36,1,1,,,,,,,,
,,,,,,,,,,,,,FF,,,,,,,,1.867,,,,,,,,,,,,,,,,,,,,,,6103462a62215bc455f87411,61036a5e0a2c909979743125,2021-07-29_21h59.16.827,Simcolourproject_2stim_asymm_v5,2020.2.10,MacIntel,60,61025ae37ef11b136ea224fe,,,,,,,,,1288,88,-62,1,0,0,response3disk,,5,-9,-18,1,0,0,rectangle,-9,-18,1,0,0,-9,-18,1,0,0,0,37,37,140,1,,,,,,,,
,,,,,,,,,,,,,FF,,,,,,,,0.9,,,,,,,,,,,,,,,,,,,,,,6103462a62215bc455f87411,61036a5e0a2c909979743125,2021-07-29_21h59.16.827,Simcolourproject_2stim_asymm_v5,2020.2.10,MacIntel,60,61025ae37ef11b136ea224fe,,,,,,,,,2362,50,-100,1,0,0,response3disk,,4,18,-7,1,0,0,rectangle,18,-7,1,0,0,18,-7,1,0,0,0,38,38,109,1,,,,,,,,
,,,,,,,,,,,,,FF,,,,,,,,1.285,,,,,,,,,,,,,,,,,,,,,,6103462a62215bc455f87411,61036a5e0a2c909979743125,2021-07-29_21h59.16.827,Simcolourproject_2stim_asymm_v5,2020.2.10,MacIntel,60,61025ae37ef11b136ea224fe,,,,,,,,,965,85,40,1,0,0,response1disk,,6,17,8,1,0,0,rectangle,17,8,1,0,0,17,8,1,0,0,0,39,39,102,1,,,,,,,,
,,,,,,,,,,,,,FF,,,,,,,,1.617,,,,,,,,,,,,,,,,,,,,,,6103462a62215bc455f87411,61036a5e0a2c909979743125,2021-07-29_21h59.16.827,Simcolourproject_2stim_asymm_v5,2020.2.10,MacIntel,60,61025ae37ef11b136ea224fe,,,,,,,,,1663,53,-41,1,0,0,response3disk,,5,3,-6,1,0,0,rectangle,3,-6,1,0,0,3,-6,1,0,0,0,40,40,24,1,,,,,,,,
,,,,,,,,,,,,,FF,,,,,,,,2.267,,,,,,,,,,,,,,,,,,,,,,6103462a62215bc455f87411,61036a5e0a2c909979743125,2021-07-29_21h59.16.827,Simcolourproject_2stim_asymm_v5,2020.2.10,MacIntel,60,61025ae37ef11b136ea224fe,,,,,,,,,3822,35,-79,1,0,0,response3disk,,4,2,-5,1,0,0,rectangle,2,-5,1,0,0,2,-5,1,0,0,0,41,41,3,1,,,,,,,,
,,,,,,,,,,,,,FF,,,,,,,,1.301,,,,,,,,,,,,,,,,,,,,,,6103462a62215bc455f87411,61036a5e0a2c909979743125,2021-07-29_21h59.16.827,Simcolourproject_2stim_asymm_v5,2020.2.10,MacIntel,60,61025ae37ef11b136ea224fe,,,,,,,,,44,48,-77,1,0,0,response3disk,,4,1,-13,1,0,0,rectangle,1,-13,1,0,0,1,-13,1,0,0,0,42,42,38,1,,,,,,,,
,,,,,,,,,,,,,FF,,,,,,,,1.432,,,,,,,,,,,,,,,,,,,,,,6103462a62215bc455f87411,61036a5e0a2c909979743125,2021-07-29_21h59.16.827,Simcolourproject_2stim_asymm_v5,2020.2.10,MacIntel,60,61025ae37ef11b136ea224fe,,,,,,,,,3545,75,-38,1,0,0,response3disk,,5,18,-12,1,0,0,rectangle,18,-12,1,0,0,18,-12,1,0,0,0,43,43,127,1,,,,,,,,
,,,,,,,,,,,,,FF,,,,,,,,1.617,,,,,,,,,,,,,,,,,,,,,,6103462a62215bc455f87411,61036a5e0a2c909979743125,2021-07-29_21h59.16.827,Simcolourproject_2stim_asymm_v5,2020.2.10,MacIntel,60,61025ae37ef11b136ea224fe,,,,,,,,,3964,71,30,1,0,0,response1disk,,6,27,-2,1,0,0,rectangle,27,-2,1,0,0,27,-2,1,0,0,0,44,44,108,1,,,,,,,,
,,,,,,,,,,,,,FF,,,,,,,,2.385,,,,,,,,,,,,,,,,,,,,,,6103462a62215bc455f87411,61036a5e0a2c909979743125,2021-07-29_21h59.16.827,Simcolourproject_2stim_asymm_v5,2020.2.10,MacIntel,60,61025ae37ef11b136ea224fe,,,,,,,,,922,82,-42,1,0,0,response3disk,,5,13,4,1,0,0,rectangle,13,4,1,0,0,13,4,1,0,0,0,45,45,50,1,,,,,,,,
,,,,,,,,,,,,,FF,,,,,,,,1.951,,,,,,,,,,,,,,,,,,,,,,6103462a62215bc455f87411,61036a5e0a2c909979743125,2021-07-29_21h59.16.827,Simcolourproject_2stim_asymm_v5,2020.2.10,MacIntel,60,61025ae37ef11b136ea224fe,,,,,,,,,1224,56,-87,1,0,0,response3disk,,4,22,-12,1,0,0,rectangle,22,-12,1,0,0,22,-12,1,0,0,0,46,46,159,1,,,,,,,,
,,,,,,,,,,,,,FF,,,,,,,,0.817,,,,,,,,,,,,,,,,,,,,,,6103462a62215bc455f87411,61036a5e0a2c909979743125,2021-07-29_21h59.16.827,Simcolourproject_2stim_asymm_v5,2020.2.10,MacIntel,60,61025ae37ef11b136ea224fe,,,,,,,,,2785,50,-82,1,0,0,response3disk,,4,11,6,1,0,0,rectangle,11,6,1,0,0,11,6,1,0,0,0,47,47,153,1,,,,,,,,
,,,,,,,,,,,,,FF,,,,,,,,0.935,,,,,,,,,,,,,,,,,,,,,,6103462a62215bc455f87411,61036a5e0a2c909979743125,2021-07-29_21h59.16.827,Simcolourproject_2stim_asymm_v5,2020.2.10,MacIntel,60,61025ae37ef11b136ea224fe,,,,,,,,,1835,95,-66,1,0,0,response3disk,,5,3,0,1,0,0,rectangle,3,0,1,0,0,3,0,1,0,0,0,48,48,137,1,,,,,,,,
,,,,,,,,,,,,,FF,,,,,,,,0.834,,,,,,,,,,,,,,,,,,,,,,6103462a62215bc455f87411,61036a5e0a2c909979743125,2021-07-29_21h59.16.827,Simcolourproject_2stim_asymm_v5,2020.2.10,MacIntel,60,61025ae37ef11b136ea224fe,,,,,,,,,4292,29,60,1,0,0,response1disk,,7,9,-2,1,0,0,rectangle,9,-2,1,0,0,9,-2,1,0,0,0,49,49,61,1,,,,,,,,
,,,,,,,,,,,,,FF,,,,,,,,3.316,,,,,,,,,,,,,,,,,,,,,,6103462a62215bc455f87411,61036a5e0a2c909979743125,2021-07-29_21h59.16.827,Simcolourproject_2stim_asymm_v5,2020.2.10,MacIntel,60,61025ae37ef11b136ea224fe,,,,,,,,,4152,49,92,1,0,0,response1disk,,7,3,2,1,0,0,rectangle,3,2,1,0,0,3,2,1,0,0,0,50,50,103,1,,,,,,,,
,,,,,,,,,,,,,FF,,,,,,,,1.2,,,,,,,,,,,,,,,,,,,,,,6103462a62215bc455f87411,61036a5e0a2c909979743125,2021-07-29_21h59.16.827,Simcolourproject_2stim_asymm_v5,2020.2.10,MacIntel,60,61025ae37ef11b136ea224fe,,,,,,,,,1152,87,33,1,0,0,response1disk,,6,22,-5,1,0,0,rectangle,22,-5,1,0,0,22,-5,1,0,0,0,51,51,99,1,,,,,,,,
,,,,,,,,,,,,,FF,,,,,,,,1.1,,,,,,,,,,,,,,,,,,,,,,6103462a62215bc455f87411,61036a5e0a2c909979743125,2021-07-29_21h59.16.827,Simcolourproject_2stim_asymm_v5,2020.2.10,MacIntel,60,61025ae37ef11b136ea224fe,,,,,,,,,3321,85,-42,1,0,0,response3disk,,5,0,-2,1,0,0,rectangle,0,-2,1,0,0,0,-2,1,0,0,0,52,52,84,1,,,,,,,,
,,,,,,,,,,,,,FF,,,,,,,,1.4,,,,,,,,,,,,,,,,,,,,,,6103462a62215bc455f87411,61036a5e0a2c909979743125,2021-07-29_21h59.16.827,Simcolourproject_2stim_asymm_v5,2020.2.10,MacIntel,60,61025ae37ef11b136ea224fe,,,,,,,,,631,-45,-80,1,0,0,response5disk,,3,-3,-7,1,0,0,rectangle,-3,-7,1,0,0,-3,-7,1,0,0,0,53,53,31,1,,,,,,,,
,,,,,,,,,,,,,FF,,,,,,,,0.968,,,,,,,,,,,,,,,,,,,,,,6103462a62215bc455f87411,61036a5e0a2c909979743125,2021-07-29_21h59.16.827,Simcolourproject_2stim_asymm_v5,2020.2.10,MacIntel,60,61025ae37ef11b136ea224fe,,,,,,,,,2711,83,-42,1,0,0,response3disk,,5,9,-6,1,0,0,rectangle,9,-6,1,0,0,9,-6,1,0,0,0,54,54,158,1,,,,,,,,
,,,,,,,,,,,,,FF,,,,,,,,0.751,,,,,,,,,,,,,,,,,,,,,,6103462a62215bc455f87411,61036a5e0a2c909979743125,2021-07-29_21h59.16.827,Simcolourproject_2stim_asymm_v5,2020.2.10,MacIntel,60,61025ae37ef11b136ea224fe,,,,,,,,,2477,45,-69,1,0,0,response3disk,,4,8,-12,1,0,0,rectangle,8,-12,1,0,0,8,-12,1,0,0,0,55,55,64,1,,,,,,,,
,,,,,,,,,,,,,FF,,,,,,,,0.918,,,,,,,,,,,,,,,,,,,,,,6103462a62215bc455f87411,61036a5e0a2c909979743125,2021-07-29_21h59.16.827,Simcolourproject_2stim_asymm_v5,2020.2.10,MacIntel,60,61025ae37ef11b136ea224fe,,,,,,,,,1421,97,-44,1,0,0,response3disk,,5,24,-14,1,0,0,rectangle,24,-14,1,0,0,24,-14,1,0,0,0,56,56,106,1,,,,,,,,
,,,,,,,,,,,,,FF,,,,,,,,0.801,,,,,,,,,,,,,,,,,,,,,,6103462a62215bc455f87411,61036a5e0a2c909979743125,2021-07-29_21h59.16.827,Simcolourproject_2stim_asymm_v5,2020.2.10,MacIntel,60,61025ae37ef11b136ea224fe,,,,,,,,,2856,85,-46,1,0,0,response3disk,,5,7,-18,1,0,0,rectangle,-76,34,1,0,0,0,1,1,0,0,0,57,57,114,1,,response7disk_3,TRUE,1,1,"[280,309,261,322,228,58,91,243,129,214,64,302,278,282,153,289,186,100,59,102]",1.784,rectangle
,,,,,,,,,,,,,FF,,,,,,,,3.417,,,,,,,,,,,,,,,,,,,,,,6103462a62215bc455f87411,61036a5e0a2c909979743125,2021-07-29_21h59.16.827,Simcolourproject_2stim_asymm_v5,2020.2.10,MacIntel,60,61025ae37ef11b136ea224fe,,,,,,,,,1740,50,-99,1,0,0,response3disk,,4,5,9,1,0,0,rectangle,-47,92,1,0,0,-14,-4,1,0,0,0,58,58,19,1,,response7disk_3,TRUE,0,0,"[280,309,261,322,228,58,91,243,129,214,64,302,278,282,153,289,186,100,59,102]",1.982,rectangle
,,,,,,,,,,,,,FF,,,,,,,,1.699,,,,,,,,,,,,,,,,,,,,,,6103462a62215bc455f87411,61036a5e0a2c909979743125,2021-07-29_21h59.16.827,Simcolourproject_2stim_asymm_v5,2020.2.10,MacIntel,60,61025ae37ef11b136ea224fe,,,,,,,,,2215,50,-65,1,0,0,response3disk,,4,4,10,1,0,0,rectangle,4,10,1,0,0,4,10,1,0,0,0,59,59,11,1,,,,,,,,
,,,,,,,,,,,,,FF,,,,,,,,1.434,,,,,,,,,,,,,,,,,,,,,,6103462a62215bc455f87411,61036a5e0a2c909979743125,2021-07-29_21h59.16.827,Simcolourproject_2stim_asymm_v5,2020.2.10,MacIntel,60,61025ae37ef11b136ea224fe,,,,,,,,,2702,-31,-83,1,0,0,response5disk,,3,-9,-9,1,0,0,rectangle,-9,-9,1,0,0,-9,-9,1,0,0,0,60,60,138,1,,,,,,,,
,,,,,,,,,,,,,FF,,,,,,,,1.768,,,,,,,,,,,,,,,,,,,,,,6103462a62215bc455f87411,61036a5e0a2c909979743125,2021-07-29_21h59.16.827,Simcolourproject_2stim_asymm_v5,2020.2.10,MacIntel,60,61025ae37ef11b136ea224fe,,,,,,,,,1002,65,-36,1,0,0,response3disk,,5,25,-7,1,0,0,rectangle,25,-7,1,0,0,25,-7,1,0,0,0,61,61,143,1,,,,,,,,
,,,,,,,,,,,,,FF,,,,,,,,1.016,,,,,,,,,,,,,,,,,,,,,,6103462a62215bc455f87411,61036a5e0a2c909979743125,2021-07-29_21h59.16.827,Simcolourproject_2stim_asymm_v5,2020.2.10,MacIntel,60,61025ae37ef11b136ea224fe,,,,,,,,,1153,77,28,1,0,0,response1disk,,6,27,-6,1,0,0,rectangle,27,-6,1,0,0,27,-6,1,0,0,0,62,62,16,1,,,,,,,,
,,,,,,,,,,,,,FF,,,,,,,,0.983,,,,,,,,,,,,,,,,,,,,,,6103462a62215bc455f87411,61036a5e0a2c909979743125,2021-07-29_21h59.16.827,Simcolourproject_2stim_asymm_v5,2020.2.10,MacIntel,60,61025ae37ef11b136ea224fe,,,,,,,,,997,89,-49,1,0,0,response3disk,,5,18,-6,1,0,0,rectangle,-88,28,1,0,0,-2,-8,1,0,0,0,63,63,87,1,,response7disk_3,TRUE,1,1,"[280,309,261,322,228,58,91,243,129,214,64,302,278,282,153,289,186,100,59,102]",1.767,rectangle
,,,,,,,,,,,,,FF,,,,,,,,1.034,,,,,,,,,,,,,,,,,,,,,,6103462a62215bc455f87411,61036a5e0a2c909979743125,2021-07-29_21h59.16.827,Simcolourproject_2stim_asymm_v5,2020.2.10,MacIntel,60,61025ae37ef11b136ea224fe,,,,,,,,,2268,62,-90,1,0,0,response3disk,,4,16,-9,1,0,0,rectangle,16,-9,1,0,0,16,-9,1,0,0,0,64,64,52,1,,,,,,,,
,,,,,,,,,,,,,FF,,,,,,,,1.5,,,,,,,,,,,,,,,,,,,,,,6103462a62215bc455f87411,61036a5e0a2c909979743125,2021-07-29_21h59.16.827,Simcolourproject_2stim_asymm_v5,2020.2.10,MacIntel,60,61025ae37ef11b136ea224fe,,,,,,,,,45,80,-44,1,0,0,response3disk,,5,14,-11,1,0,0,rectangle,14,-11,1,0,0,14,-11,1,0,0,0,65,65,94,1,,,,,,,,
,,,,,,,,,,,,,FF,,,,,,,,1.033,,,,,,,,,,,,,,,,,,,,,,6103462a62215bc455f87411,61036a5e0a2c909979743125,2021-07-29_21h59.16.827,Simcolourproject_2stim_asymm_v5,2020.2.10,MacIntel,60,61025ae37ef11b136ea224fe,,,,,,,,,322,-24,-92,1,0,0,response5disk,,3,-3,-15,1,0,0,rectangle,-3,-15,1,0,0,-3,-15,1,0,0,0,66,66,95,1,,,,,,,,
,,,,,,,,,,,,,FF,,,,,,,,0.984,,,,,,,,,,,,,,,,,,,,,,6103462a62215bc455f87411,61036a5e0a2c909979743125,2021-07-29_21h59.16.827,Simcolourproject_2stim_asymm_v5,2020.2.10,MacIntel,60,61025ae37ef11b136ea224fe,,,,,,,,,2214,86,-56,1,0,0,response3disk,,5,1,-10,1,0,0,rectangle,1,-10,1,0,0,1,-10,1,0,0,0,67,67,81,1,,,,,,,,
,,,,,,,,,,,,,FF,,,,,,,,2.201,,,,,,,,,,,,,,,,,,,,,,6103462a62215bc455f87411,61036a5e0a2c909979743125,2021-07-29_21h59.16.827,Simcolourproject_2stim_asymm_v5,2020.2.10,MacIntel,60,61025ae37ef11b136ea224fe,,,,,,,,,2816,72,-46,1,0,0,response3disk,,5,22,-9,1,0,0,rectangle,22,-9,1,0,0,22,-9,1,0,0,0,68,68,91,1,,,,,,,,
,,,,,,,,,,,,,FF,,,,,,,,1.2,,,,,,,,,,,,,,,,,,,,,,6103462a62215bc455f87411,61036a5e0a2c909979743125,2021-07-29_21h59.16.827,Simcolourproject_2stim_asymm_v5,2020.2.10,MacIntel,60,61025ae37ef11b136ea224fe,,,,,,,,,2613,-36,-87,1,0,0,response5disk,,3,-32,7,1,0,0,rectangle,-32,7,1,0,0,-32,7,1,0,0,0,69,69,74,1,,,,,,,,
,,,,,,,,,,,,,FF,,,,,,,,0.95,,,,,,,,,,,,,,,,,,,,,,6103462a62215bc455f87411,61036a5e0a2c909979743125,2021-07-29_21h59.16.827,Simcolourproject_2stim_asymm_v5,2020.2.10,MacIntel,60,61025ae37ef11b136ea224fe,,,,,,,,,1313,58,-77,1,0,0,response3disk,,4,9,7,1,0,0,rectangle,9,7,1,0,0,9,7,1,0,0,0,70,70,48,1,,,,,,,,
,,,,,,,,,,,,,FF,,,,,,,,0.8,,,,,,,,,,,,,,,,,,,,,,6103462a62215bc455f87411,61036a5e0a2c909979743125,2021-07-29_21h59.16.827,Simcolourproject_2stim_asymm_v5,2020.2.10,MacIntel,60,61025ae37ef11b136ea224fe,,,,,,,,,829,97,-55,1,0,0,response3disk,,5,-9,-10,1,0,0,rectangle,-9,-10,1,0,0,-9,-10,1,0,0,0,71,71,150,1,,,,,,,,
,,,,,,,,,,,,,FF,,,,,,,,1.233,,,,,,,,,,,,,,,,,,,,,,6103462a62215bc455f87411,61036a5e0a2c909979743125,2021-07-29_21h59.16.827,Simcolourproject_2stim_asymm_v5,2020.2.10,MacIntel,60,61025ae37ef11b136ea224fe,,,,,,,,,656,74,-45,1,0,0,response3disk,,5,-10,-3,1,0,0,rectangle,-10,-3,1,0,0,-10,-3,1,0,0,0,72,72,47,1,,,,,,,,
,,,,,,,,,,,,,FF,,,,,,,,1.3,,,,,,,,,,,,,,,,,,,,,,6103462a62215bc455f87411,61036a5e0a2c909979743125,2021-07-29_21h59.16.827,Simcolourproject_2stim_asymm_v5,2020.2.10,MacIntel,60,61025ae37ef11b136ea224fe,,,,,,,,,1887,-21,-76,1,0,0,response5disk,,3,-11,-11,1,0,0,rectangle,-11,-11,1,0,0,-11,-11,1,0,0,0,73,73,12,1,,,,,,,,
,,,,,,,,,,,,,FF,,,,,,,,1.201,,,,,,,,,,,,,,,,,,,,,,6103462a62215bc455f87411,61036a5e0a2c909979743125,2021-07-29_21h59.16.827,Simcolourproject_2stim_asymm_v5,2020.2.10,MacIntel,60,61025ae37ef11b136ea224fe,,,,,,,,,2650,46,-54,1,0,0,response3disk,,4,12,-10,1,0,0,rectangle,12,-10,1,0,0,12,-10,1,0,0,0,74,74,36,1,,,,,,,,
,,,,,,,,,,,,,FF,,,,,,,,2.749,,,,,,,,,,,,,,,,,,,,,,6103462a62215bc455f87411,61036a5e0a2c909979743125,2021-07-29_21h59.16.827,Simcolourproject_2stim_asymm_v5,2020.2.10,MacIntel,60,61025ae37ef11b136ea224fe,,,,,,,,,704,36,-93,1,0,0,response3disk,,4,1,7,1,0,0,rectangle,1,7,1,0,0,1,7,1,0,0,0,75,75,26,1,,,,,,,,
,,,,,,,,,,,,,FF,,,,,,,,0.8,,,,,,,,,,,,,,,,,,,,,,6103462a62215bc455f87411,61036a5e0a2c909979743125,2021-07-29_21h59.16.827,Simcolourproject_2stim_asymm_v5,2020.2.10,MacIntel,60,61025ae37ef11b136ea224fe,,,,,,,,,1777,87,-62,1,0,0,response3disk,,5,2,-8,1,0,0,rectangle,2,-8,1,0,0,2,-8,1,0,0,0,76,76,104,1,,,,,,,,
,,,,,,,,,,,,,FF,,,,,,,,0.95,,,,,,,,,,,,,,,,,,,,,,6103462a62215bc455f87411,61036a5e0a2c909979743125,2021-07-29_21h59.16.827,Simcolourproject_2stim_asymm_v5,2020.2.10,MacIntel,60,61025ae37ef11b136ea224fe,,,,,,,,,3575,38,-65,1,0,0,response3disk,,4,-5,-3,1,0,0,rectangle,-5,-3,1,0,0,-5,-3,1,0,0,0,77,77,29,1,,,,,,,,
,,,,,,,,,,,,,FF,,,,,,,,0.938,,,,,,,,,,,,,,,,,,,,,,6103462a62215bc455f87411,61036a5e0a2c909979743125,2021-07-29_21h59.16.827,Simcolourproject_2stim_asymm_v5,2020.2.10,MacIntel,60,61025ae37ef11b136ea224fe,,,,,,,,,2245,93,-44,1,0,0,response3disk,,5,17,-2,1,0,0,rectangle,17,-2,1,0,0,17,-2,1,0,0,0,78,78,88,1,,,,,,,,
,,,,,,,,,,,,,FF,,,,,,,,1.867,,,,,,,,,,,,,,,,,,,,,,6103462a62215bc455f87411,61036a5e0a2c909979743125,2021-07-29_21h59.16.827,Simcolourproject_2stim_asymm_v5,2020.2.10,MacIntel,60,61025ae37ef11b136ea224fe,,,,,,,,,4221,-59,-69,1,0,0,response5disk,,3,-5,-6,1,0,0,rectangle,-5,-6,1,0,0,-5,-6,1,0,0,0,79,79,126,1,,,,,,,,
,,,,,,,,,,,,,FF,,,,,,,,0.867,,,,,,,,,,,,,,,,,,,,,,6103462a62215bc455f87411,61036a5e0a2c909979743125,2021-07-29_21h59.16.827,Simcolourproject_2stim_asymm_v5,2020.2.10,MacIntel,60,61025ae37ef11b136ea224fe,,,,,,,,,3850,-82,-51,1,0,0,response5disk,,2,2,-11,1,0,0,rectangle,2,-11,1,0,0,2,-11,1,0,0,0,80,80,75,1,,,,,,,,
,,,,,,,,,,,,,FF,,,,,,,,1.466,,,,,,,,,,,,,,,,,,,,,,6103462a62215bc455f87411,61036a5e0a2c909979743125,2021-07-29_21h59.16.827,Simcolourproject_2stim_asymm_v5,2020.2.10,MacIntel,60,61025ae37ef11b136ea224fe,,,,,,,,,4170,-70,-39,1,0,0,response5disk,,2,0,-8,1,0,0,rectangle,0,-8,1,0,0,0,-8,1,0,0,0,81,81,62,1,,,,,,,,
,,,,,,,,,,,,,FF,,,,,,,,0.85,,,,,,,,,,,,,,,,,,,,,,6103462a62215bc455f87411,61036a5e0a2c909979743125,2021-07-29_21h59.16.827,Simcolourproject_2stim_asymm_v5,2020.2.10,MacIntel,60,61025ae37ef11b136ea224fe,,,,,,,,,1492,82,-36,1,0,0,response3disk,,5,4,-10,1,0,0,rectangle,4,-10,1,0,0,4,-10,1,0,0,0,82,82,66,1,,,,,,,,
,,,,,,,,,,,,,FF,,,,,,,,2.367,,,,,,,,,,,,,,,,,,,,,,6103462a62215bc455f87411,61036a5e0a2c909979743125,2021-07-29_21h59.16.827,Simcolourproject_2stim_asymm_v5,2020.2.10,MacIntel,60,61025ae37ef11b136ea224fe,,,,,,,,,3124,49,-83,1,0,0,response3disk,,4,8,1,1,0,0,rectangle,8,1,1,0,0,8,1,1,0,0,0,83,83,116,1,,,,,,,,
,,,,,,,,,,,,,FF,,,,,,,,1.384,,,,,,,,,,,,,,,,,,,,,,6103462a62215bc455f87411,61036a5e0a2c909979743125,2021-07-29_21h59.16.827,Simcolourproject_2stim_asymm_v5,2020.2.10,MacIntel,60,61025ae37ef11b136ea224fe,,,,,,,,,94,-69,41,1,0,0,response7disk,,1,11,-4,1,0,0,rectangle,11,-4,1,0,0,11,-4,1,0,0,0,84,84,42,1,,,,,,,,
,,,,,,,,,,,,,FF,,,,,,,,0.934,,,,,,,,,,,,,,,,,,,,,,6103462a62215bc455f87411,61036a5e0a2c909979743125,2021-07-29_21h59.16.827,Simcolourproject_2stim_asymm_v5,2020.2.10,MacIntel,60,61025ae37ef11b136ea224fe,,,,,,,,,2529,95,-64,1,0,0,response3disk,,5,9,-3,1,0,0,rectangle,9,-3,1,0,0,9,-3,1,0,0,0,85,85,6,1,,,,,,,,
,,,,,,,,,,,,,FF,,,,,,,,1.067,,,,,,,,,,,,,,,,,,,,,,6103462a62215bc455f87411,61036a5e0a2c909979743125,2021-07-29_21h59.16.827,Simcolourproject_2stim_asymm_v5,2020.2.10,MacIntel,60,61025ae37ef11b136ea224fe,,,,,,,,,2065,87,-35,1,0,0,response3disk,,5,6,-5,1,0,0,rectangle,6,-5,1,0,0,6,-5,1,0,0,0,86,86,134,1,,,,,,,,
,,,,,,,,,,,,,FF,,,,,,,,1.051,,,,,,,,,,,,,,,,,,,,,,6103462a62215bc455f87411,61036a5e0a2c909979743125,2021-07-29_21h59.16.827,Simcolourproject_2stim_asymm_v5,2020.2.10,MacIntel,60,61025ae37ef11b136ea224fe,,,,,,,,,1395,67,-51,1,0,0,response3disk,,5,-1,-12,1,0,0,rectangle,-1,-12,1,0,0,-1,-12,1,0,0,0,87,87,105,1,,,,,,,,
,,,,,,,,,,,,,FF,,,,,,,,1.201,,,,,,,,,,,,,,,,,,,,,,6103462a62215bc455f87411,61036a5e0a2c909979743125,2021-07-29_21h59.16.827,Simcolourproject_2stim_asymm_v5,2020.2.10,MacIntel,60,61025ae37ef11b136ea224fe,,,,,,,,,3035,78,-44,1,0,0,response3disk,,5,2,-9,1,0,0,rectangle,2,-9,1,0,0,2,-9,1,0,0,0,88,88,71,1,,,,,,,,
,,,,,,,,,,,,,FF,,,,,,,,0.835,,,,,,,,,,,,,,,,,,,,,,6103462a62215bc455f87411,61036a5e0a2c909979743125,2021-07-29_21h59.16.827,Simcolourproject_2stim_asymm_v5,2020.2.10,MacIntel,60,61025ae37ef11b136ea224fe,,,,,,,,,3278,72,25,1,0,0,response1disk,,6,-8,-4,1,0,0,rectangle,-8,-4,1,0,0,-8,-4,1,0,0,0,89,89,152,1,,,,,,,,
,,,,,,,,,,,,,FF,,,,,,,,1.267,,,,,,,,,,,,,,,,,,,,,,6103462a62215bc455f87411,61036a5e0a2c909979743125,2021-07-29_21h59.16.827,Simcolourproject_2stim_asymm_v5,2020.2.10,MacIntel,60,61025ae37ef11b136ea224fe,,,,,,,,,814,33,-60,1,0,0,response3disk,,4,15,-4,1,0,0,rectangle,42,74,1,0,0,9,-17,1,0,0,0,90,90,46,1,,response1disk_3,TRUE,7,7,"[280,309,261,322,228,58,91,243,129,214,64,302,278,282,153,289,186,100,59,102]",1.601,rectangle
,,,,,,,,,,,,,FF,,,,,,,,3.584,,,,,,,,,,,,,,,,,,,,,,6103462a62215bc455f87411,61036a5e0a2c909979743125,2021-07-29_21h59.16.827,Simcolourproject_2stim_asymm_v5,2020.2.10,MacIntel,60,61025ae37ef11b136ea224fe,,,,,,,,,1200,62,-97,1,0,0,response3disk,,4,18,9,1,0,0,rectangle,18,9,1,0,0,18,9,1,0,0,0,91,91,39,1,,,,,,,,
,,,,,,,,,,,,,FF,,,,,,,,0.7,,,,,,,,,,,,,,,,,,,,,,6103462a62215bc455f87411,61036a5e0a2c909979743125,2021-07-29_21h59.16.827,Simcolourproject_2stim_asymm_v5,2020.2.10,MacIntel,60,61025ae37ef11b136ea224fe,,,,,,,,,925,68,-35,1,0,0,response3disk,,5,0,-1,1,0,0,rectangle,0,-1,1,0,0,0,-1,1,0,0,0,92,92,111,1,,,,,,,,
,,,,,,,,,,,,,FF,,,,,,,,1.933,,,,,,,,,,,,,,,,,,,,,,6103462a62215bc455f87411,61036a5e0a2c909979743125,2021-07-29_21h59.16.827,Simcolourproject_2stim_asymm_v5,2020.2.10,MacIntel,60,61025ae37ef11b136ea224fe,,,,,,,,,102,31,-73,1,0,0,response3disk,,4,-10,-2,1,0,0,rectangle,-10,-2,1,0,0,-10,-2,1,0,0,0,93,93,121,1,,,,,,,,
,,,,,,,,,,,,,FF,,,,,,,,1.085,,,,,,,,,,,,,,,,,,,,,,6103462a62215bc455f87411,61036a5e0a2c909979743125,2021-07-29_21h59.16.827,Simcolourproject_2stim_asymm_v5,2020.2.10,MacIntel,60,61025ae37ef11b136ea224fe,,,,,,,,,378,-19,-72,1,0,0,response5disk,,3,5,0,1,0,0,rectangle,5,0,1,0,0,5,0,1,0,0,0,94,94,41,1,,,,,,,,
,,,,,,,,,,,,,FF,,,,,,,,1.283,,,,,,,,,,,,,,,,,,,,,,6103462a62215bc455f87411,61036a5e0a2c909979743125,2021-07-29_21h59.16.827,Simcolourproject_2stim_asymm_v5,2020.2.10,MacIntel,60,61025ae37ef11b136ea224fe,,,,,,,,,4247,66,-40,1,0,0,response3disk,,5,20,-9,1,0,0,rectangle,20,-9,1,0,0,20,-9,1,0,0,0,95,95,17,1,,,,,,,,
,,,,,,,,,,,,,FF,,,,,,,,1.251,,,,,,,,,,,,,,,,,,,,,,6103462a62215bc455f87411,61036a5e0a2c909979743125,2021-07-29_21h59.16.827,Simcolourproject_2stim_asymm_v5,2020.2.10,MacIntel,60,61025ae37ef11b136ea224fe,,,,,,,,,538,58,29,1,0,0,response1disk,,6,-10,5,1,0,0,rectangle,-10,5,1,0,0,-10,5,1,0,0,0,96,96,43,1,,,,,,,,
,,,,,,,,,,,,,FF,,,,,,,,1.184,,,,,,,,,,,,,,,,,,,,,,6103462a62215bc455f87411,61036a5e0a2c909979743125,2021-07-29_21h59.16.827,Simcolourproject_2stim_asymm_v5,2020.2.10,MacIntel,60,61025ae37ef11b136ea224fe,,,,,,,,,3332,66,25,1,0,0,response1disk,,6,31,1,1,0,0,rectangle,31,1,1,0,0,31,1,1,0,0,0,97,97,86,1,,,,,,,,
,,,,,,,,,,,,,FF,,,,,,,,1.201,,,,,,,,,,,,,,,,,,,,,,6103462a62215bc455f87411,61036a5e0a2c909979743125,2021-07-29_21h59.16.827,Simcolourproject_2stim_asymm_v5,2020.2.10,MacIntel,60,61025ae37ef11b136ea224fe,,,,,,,,,3098,-37,-77,1,0,0,response5disk,,3,2,-2,1,0,0,rectangle,2,-2,1,0,0,2,-2,1,0,0,0,98,98,70,1,,,,,,,,
,,,,,,,,,,,,,FF,,,,,,,,0.949,,,,,,,,,,,,,,,,,,,,,,6103462a62215bc455f87411,61036a5e0a2c909979743125,2021-07-29_21h59.16.827,Simcolourproject_2stim_asymm_v5,2020.2.10,MacIntel,60,61025ae37ef11b136ea224fe,,,,,,,,,3959,84,31,1,0,0,response1disk,,6,13,0,1,0,0,rectangle,42,70,1,0,0,6,-8,1,0,0,0,99,99,101,1,,response1disk_3,TRUE,7,7,"[280,309,261,322,228,58,91,243,129,214,64,302,278,282,153,289,186,100,59,102]",1.301,rectangle
,,,,,,,,,,,,,FF,,,,,,,,0.967,,,,,,,,,,,,,,,,,,,,,,6103462a62215bc455f87411,61036a5e0a2c909979743125,2021-07-29_21h59.16.827,Simcolourproject_2stim_asymm_v5,2020.2.10,MacIntel,60,61025ae37ef11b136ea224fe,,,,,,,,,2697,77,-36,1,0,0,response3disk,,5,21,-7,1,0,0,rectangle,21,-7,1,0,0,21,-7,1,0,0,0,100,100,60,1,,,,,,,,
,,,,,,,,,,,,,FF,,,,,,,,0.984,,,,,,,,,,,,,,,,,,,,,,6103462a62215bc455f87411,61036a5e0a2c909979743125,2021-07-29_21h59.16.827,Simcolourproject_2stim_asymm_v5,2020.2.10,MacIntel,60,61025ae37ef11b136ea224fe,,,,,,,,,859,67,26,1,0,0,response1disk,,6,9,0,1,0,0,rectangle,87,-41,1,0,0,-7,-2,1,0,0,0,101,101,112,1,,response3disk_3,TRUE,5,5,"[280,309,261,322,228,58,91,243,129,214,64,302,278,282,153,289,186,100,59,102]",1.483,rectangle
,,,,,,,,,,,,,FF,,,,,,,,0.867,,,,,,,,,,,,,,,,,,,,,,6103462a62215bc455f87411,61036a5e0a2c909979743125,2021-07-29_21h59.16.827,Simcolourproject_2stim_asymm_v5,2020.2.10,MacIntel,60,61025ae37ef11b136ea224fe,,,,,,,,,1275,61,-34,1,0,0,response3disk,,5,2,-14,1,0,0,rectangle,2,-14,1,0,0,2,-14,1,0,0,0,102,102,58,1,,,,,,,,
,,,,,,,,,,,,,FF,,,,,,,,1.183,,,,,,,,,,,,,,,,,,,,,,6103462a62215bc455f87411,61036a5e0a2c909979743125,2021-07-29_21h59.16.827,Simcolourproject_2stim_asymm_v5,2020.2.10,MacIntel,60,61025ae37ef11b136ea224fe,,,,,,,,,1659,65,-40,1,0,0,response3disk,,5,3,2,1,0,0,rectangle,3,2,1,0,0,3,2,1,0,0,0,103,103,69,1,,,,,,,,
,,,,,,,,,,,,,FF,,,,,,,,1.184,,,,,,,,,,,,,,,,,,,,,,6103462a62215bc455f87411,61036a5e0a2c909979743125,2021-07-29_21h59.16.827,Simcolourproject_2stim_asymm_v5,2020.2.10,MacIntel,60,61025ae37ef11b136ea224fe,,,,,,,,,1599,40,-77,1,0,0,response3disk,,4,0,-5,1,0,0,rectangle,0,-5,1,0,0,0,-5,1,0,0,0,104,104,155,1,,,,,,,,
,,,,,,,,,,,,,FF,,,,,,,,0.917,,,,,,,,,,,,,,,,,,,,,,6103462a62215bc455f87411,61036a5e0a2c909979743125,2021-07-29_21h59.16.827,Simcolourproject_2stim_asymm_v5,2020.2.10,MacIntel,60,61025ae37ef11b136ea224fe,,,,,,,,,341,89,-52,1,0,0,response3disk,,5,11,-5,1,0,0,rectangle,11,-5,1,0,0,11,-5,1,0,0,0,105,105,136,1,,,,,,,,
,,,,,,,,,,,,,FF,,,,,,,,1.35,,,,,,,,,,,,,,,,,,,,,,6103462a62215bc455f87411,61036a5e0a2c909979743125,2021-07-29_21h59.16.827,Simcolourproject_2stim_asymm_v5,2020.2.10,MacIntel,60,61025ae37ef11b136ea224fe,,,,,,,,,2147,65,43,1,0,0,response1disk,,6,7,-12,1,0,0,rectangle,7,-12,1,0,0,7,-12,1,0,0,0,106,106,139,1,,,,,,,,
,,,,,,,,,,,,,FF,,,,,,,,1.166,,,,,,,,,,,,,,,,,,,,,,6103462a62215bc455f87411,61036a5e0a2c909979743125,2021-07-29_21h59.16.827,Simcolourproject_2stim_asymm_v5,2020.2.10,MacIntel,60,61025ae37ef11b136ea224fe,,,,,,,,,2089,71,30,1,0,0,response1disk,,6,-2,0,1,0,0,rectangle,-2,0,1,0,0,-2,0,1,0,0,0,107,107,135,1,,,,,,,,
,,,,,,,,,,,,,FF,,,,,,,,1.3,,,,,,,,,,,,,,,,,,,,,,6103462a62215bc455f87411,61036a5e0a2c909979743125,2021-07-29_21h59.16.827,Simcolourproject_2stim_asymm_v5,2020.2.10,MacIntel,60,61025ae37ef11b136ea224fe,,,,,,,,,2087,73,19,1,0,0,response1disk,,6,13,-3,1,0,0,rectangle,13,-3,1,0,0,13,-3,1,0,0,0,108,108,37,1,,,,,,,,
,,,,,,,,,,,,,FF,,,,,,,,1.301,,,,,,,,,,,,,,,,,,,,,,6103462a62215bc455f87411,61036a5e0a2c909979743125,2021-07-29_21h59.16.827,Simcolourproject_2stim_asymm_v5,2020.2.10,MacIntel,60,61025ae37ef11b136ea224fe,,,,,,,,,3553,-43,-80,1,0,0,response5disk,,3,-1,-4,1,0,0,rectangle,-1,-4,1,0,0,-1,-4,1,0,0,0,109,109,83,1,,,,,,,,
,,,,,,,,,,,,,FF,,,,,,,,1.083,,,,,,,,,,,,,,,,,,,,,,6103462a62215bc455f87411,61036a5e0a2c909979743125,2021-07-29_21h59.16.827,Simcolourproject_2stim_asymm_v5,2020.2.10,MacIntel,60,61025ae37ef11b136ea224fe,,,,,,,,,3696,50,-80,1,0,0,response3disk,,4,12,5,1,0,0,rectangle,12,5,1,0,0,12,5,1,0,0,0,110,110,90,1,,,,,,,,
,,,,,,,,,,,,,FF,,,,,,,,1.334,,,,,,,,,,,,,,,,,,,,,,6103462a62215bc455f87411,61036a5e0a2c909979743125,2021-07-29_21h59.16.827,Simcolourproject_2stim_asymm_v5,2020.2.10,MacIntel,60,61025ae37ef11b136ea224fe,,,,,,,,,3665,44,-74,1,0,0,response3disk,,4,3,-7,1,0,0,rectangle,3,-7,1,0,0,3,-7,1,0,0,0,111,111,44,1,,,,,,,,
,,,,,,,,,,,,,FF,,,,,,,,0.85,,,,,,,,,,,,,,,,,,,,,,6103462a62215bc455f87411,61036a5e0a2c909979743125,2021-07-29_21h59.16.827,Simcolourproject_2stim_asymm_v5,2020.2.10,MacIntel,60,61025ae37ef11b136ea224fe,,,,,,,,,960,99,-36,1,0,0,response3disk,,5,15,-3,1,0,0,rectangle,15,-3,1,0,0,15,-3,1,0,0,0,112,112,147,1,,,,,,,,
,,,,,,,,,,,,,FF,,,,,,,,1.384,,,,,,,,,,,,,,,,,,,,,,6103462a62215bc455f87411,61036a5e0a2c909979743125,2021-07-29_21h59.16.827,Simcolourproject_2stim_asymm_v5,2020.2.10,MacIntel,60,61025ae37ef11b136ea224fe,,,,,,,,,963,82,-27,1,0,0,response3disk,,5,17,-8,1,0,0,rectangle,17,-8,1,0,0,17,-8,1,0,0,0,113,113,141,1,,,,,,,,
,,,,,,,,,,,,,FF,,,,,,,,0.767,,,,,,,,,,,,,,,,,,,,,,6103462a62215bc455f87411,61036a5e0a2c909979743125,2021-07-29_21h59.16.827,Simcolourproject_2stim_asymm_v5,2020.2.10,MacIntel,60,61025ae37ef11b136ea224fe,,,,,,,,,3549,72,-36,1,0,0,response3disk,,5,15,2,1,0,0,rectangle,15,2,1,0,0,15,2,1,0,0,0,114,114,122,1,,,,,,,,
,,,,,,,,,,,,,FF,,,,,,,,2.55,,,,,,,,,,,,,,,,,,,,,,6103462a62215bc455f87411,61036a5e0a2c909979743125,2021-07-29_21h59.16.827,Simcolourproject_2stim_asymm_v5,2020.2.10,MacIntel,60,61025ae37ef11b136ea224fe,,,,,,,,,4060,27,-59,1,0,0,response3disk,,4,-9,7,1,0,0,rectangle,-9,7,1,0,0,-9,7,1,0,0,0,115,115,113,1,,,,,,,,
,,,,,,,,,,,,,FF,,,,,,,,0.7,,,,,,,,,,,,,,,,,,,,,,6103462a62215bc455f87411,61036a5e0a2c909979743125,2021-07-29_21h59.16.827,Simcolourproject_2stim_asymm_v5,2020.2.10,MacIntel,60,61025ae37ef11b136ea224fe,,,,,,,,,3287,94,-32,1,0,0,response3disk,,5,11,-7,1,0,0,rectangle,11,-7,1,0,0,11,-7,1,0,0,0,116,116,0,1,,,,,,,,
,,,,,,,,,,,,,FF,,,,,,,,1.834,,,,,,,,,,,,,,,,,,,,,,6103462a62215bc455f87411,61036a5e0a2c909979743125,2021-07-29_21h59.16.827,Simcolourproject_2stim_asymm_v5,2020.2.10,MacIntel,60,61025ae37ef11b136ea224fe,,,,,,,,,923,87,-47,1,0,0,response3disk,,5,-9,-14,1,0,0,rectangle,-9,-14,1,0,0,-9,-14,1,0,0,0,117,117,89,1,,,,,,,,
,,,,,,,,,,,,,FF,,,,,,,,0.7,,,,,,,,,,,,,,,,,,,,,,6103462a62215bc455f87411,61036a5e0a2c909979743125,2021-07-29_21h59.16.827,Simcolourproject_2stim_asymm_v5,2020.2.10,MacIntel,60,61025ae37ef11b136ea224fe,,,,,,,,,1482,84,-41,1,0,0,response3disk,,5,0,-1,1,0,0,rectangle,0,-1,1,0,0,0,-1,1,0,0,0,118,118,28,1,,,,,,,,
,,,,,,,,,,,,,FF,,,,,,,,1.466,,,,,,,,,,,,,,,,,,,,,,6103462a62215bc455f87411,61036a5e0a2c909979743125,2021-07-29_21h59.16.827,Simcolourproject_2stim_asymm_v5,2020.2.10,MacIntel,60,61025ae37ef11b136ea224fe,,,,,,,,,769,88,20,1,0,0,response1disk,,6,2,-5,1,0,0,rectangle,2,-5,1,0,0,2,-5,1,0,0,0,119,119,132,1,,,,,,,,
,,,,,,,,,,,,,FF,,,,,,,,1.251,,,,,,,,,,,,,,,,,,,,,,6103462a62215bc455f87411,61036a5e0a2c909979743125,2021-07-29_21h59.16.827,Simcolourproject_2stim_asymm_v5,2020.2.10,MacIntel,60,61025ae37ef11b136ea224fe,,,,,,,,,4250,78,46,1,0,0,response1disk,,6,2,-2,1,0,0,rectangle,2,-2,1,0,0,2,-2,1,0,0,0,120,120,68,1,,,,,,,,
,,,,,,,,,,,,,FF,,,,,,,,1.601,,,,,,,,,,,,,,,,,,,,,,6103462a62215bc455f87411,61036a5e0a2c909979743125,2021-07-29_21h59.16.827,Simcolourproject_2stim_asymm_v5,2020.2.10,MacIntel,60,61025ae37ef11b136ea224fe,,,,,,,,,4171,50,-83,1,0,0,response3disk,,4,9,-4,1,0,0,rectangle,9,-4,1,0,0,9,-4,1,0,0,0,121,121,154,1,,,,,,,,
,,,,,,,,,,,,,FF,,,,,,,,1.134,,,,,,,,,,,,,,,,,,,,,,6103462a62215bc455f87411,61036a5e0a2c909979743125,2021-07-29_21h59.16.827,Simcolourproject_2stim_asymm_v5,2020.2.10,MacIntel,60,61025ae37ef11b136ea224fe,,,,,,,,,2257,89,33,1,0,0,response1disk,,6,18,10,1,0,0,rectangle,18,10,1,0,0,18,10,1,0,0,0,122,122,32,1,,,,,,,,
,,,,,,,,,,,,,FF,,,,,,,,1.268,,,,,,,,,,,,,,,,,,,,,,6103462a62215bc455f87411,61036a5e0a2c909979743125,2021-07-29_21h59.16.827,Simcolourproject_2stim_asymm_v5,2020.2.10,MacIntel,60,61025ae37ef11b136ea224fe,,,,,,,,,3515,50,-68,1,0,0,response3disk,,4,4,5,1,0,0,rectangle,4,5,1,0,0,4,5,1,0,0,0,123,123,125,1,,,,,,,,
,,,,,,,,,,,,,FF,,,,,,,,0.95,,,,,,,,,,,,,,,,,,,,,,6103462a62215bc455f87411,61036a5e0a2c909979743125,2021-07-29_21h59.16.827,Simcolourproject_2stim_asymm_v5,2020.2.10,MacIntel,60,61025ae37ef11b136ea224fe,,,,,,,,,39,80,54,1,0,0,response1disk,,6,4,0,1,0,0,rectangle,4,0,1,0,0,4,0,1,0,0,0,124,124,63,1,,,,,,,,
,,,,,,,,,,,,,FF,,,,,,,,1.182,,,,,,,,,,,,,,,,,,,,,,6103462a62215bc455f87411,61036a5e0a2c909979743125,2021-07-29_21h59.16.827,Simcolourproject_2stim_asymm_v5,2020.2.10,MacIntel,60,61025ae37ef11b136ea224fe,,,,,,,,,252,57,-28,1,0,0,response3disk,,5,-16,-1,1,0,0,rectangle,-16,-1,1,0,0,-16,-1,1,0,0,0,125,125,129,1,,,,,,,,
,,,,,,,,,,,,,FF,,,,,,,,1.433,,,,,,,,,,,,,,,,,,,,,,6103462a62215bc455f87411,61036a5e0a2c909979743125,2021-07-29_21h59.16.827,Simcolourproject_2stim_asymm_v5,2020.2.10,MacIntel,60,61025ae37ef11b136ea224fe,,,,,,,,,2113,74,27,1,0,0,response1disk,,6,-13,-11,1,0,0,rectangle,-13,-11,1,0,0,-13,-11,1,0,0,0,126,126,59,1,,,,,,,,
,,,,,,,,,,,,,FF,,,,,,,,2.017,,,,,,,,,,,,,,,,,,,,,,6103462a62215bc455f87411,61036a5e0a2c909979743125,2021-07-29_21h59.16.827,Simcolourproject_2stim_asymm_v5,2020.2.10,MacIntel,60,61025ae37ef11b136ea224fe,,,,,,,,,1131,-42,-84,1,0,0,response5disk,,3,8,0,1,0,0,rectangle,8,0,1,0,0,8,0,1,0,0,0,127,127,118,1,,,,,,,,
,,,,,,,,,,,,,FF,,,,,,,,0.966,,,,,,,,,,,,,,,,,,,,,,6103462a62215bc455f87411,61036a5e0a2c909979743125,2021-07-29_21h59.16.827,Simcolourproject_2stim_asymm_v5,2020.2.10,MacIntel,60,61025ae37ef11b136ea224fe,,,,,,,,,1925,88,-51,1,0,0,response3disk,,5,8,-6,1,0,0,rectangle,91,28,1,0,0,7,-10,1,0,0,0,128,128,7,1,,response1disk_3,TRUE,6,6,"[280,309,261,322,228,58,91,243,129,214,64,302,278,282,153,289,186,100,59,102]",1.599,rectangle
,,,,,,,,,,,,,FF,,,,,,,,1.049,,,,,,,,,,,,,,,,,,,,,,6103462a62215bc455f87411,61036a5e0a2c909979743125,2021-07-29_21h59.16.827,Simcolourproject_2stim_asymm_v5,2020.2.10,MacIntel,60,61025ae37ef11b136ea224fe,,,,,,,,,4272,36,82,1,0,0,response1disk,,7,12,-10,1,0,0,rectangle,12,-10,1,0,0,12,-10,1,0,0,0,129,129,10,1,,,,,,,,
,,,,,,,,,,,,,FF,,,,,,,,1.117,,,,,,,,,,,,,,,,,,,,,,6103462a62215bc455f87411,61036a5e0a2c909979743125,2021-07-29_21h59.16.827,Simcolourproject_2stim_asymm_v5,2020.2.10,MacIntel,60,61025ae37ef11b136ea224fe,,,,,,,,,3123,72,29,1,0,0,response1disk,,6,20,2,1,0,0,rectangle,20,2,1,0,0,20,2,1,0,0,0,130,130,51,1,,,,,,,,
,,,,,,,,,,,,,FF,,,,,,,,1.316,,,,,,,,,,,,,,,,,,,,,,6103462a62215bc455f87411,61036a5e0a2c909979743125,2021-07-29_21h59.16.827,Simcolourproject_2stim_asymm_v5,2020.2.10,MacIntel,60,61025ae37ef11b136ea224fe,,,,,,,,,3339,33,-79,1,0,0,response3disk,,4,-3,-3,1,0,0,rectangle,-3,-3,1,0,0,-3,-3,1,0,0,0,131,131,67,1,,,,,,,,
,,,,,,,,,,,,,FF,,,,,,,,1.383,,,,,,,,,,,,,,,,,,,,,,6103462a62215bc455f87411,61036a5e0a2c909979743125,2021-07-29_21h59.16.827,Simcolourproject_2stim_asymm_v5,2020.2.10,MacIntel,60,61025ae37ef11b136ea224fe,,,,,,,,,2894,19,-74,1,0,0,response3disk,,4,-2,-4,1,0,0,rectangle,-2,-4,1,0,0,-2,-4,1,0,0,0,132,132,142,1,,,,,,,,
,,,,,,,,,,,,,FF,,,,,,,,1.083,,,,,,,,,,,,,,,,,,,,,,6103462a62215bc455f87411,61036a5e0a2c909979743125,2021-07-29_21h59.16.827,Simcolourproject_2stim_asymm_v5,2020.2.10,MacIntel,60,61025ae37ef11b136ea224fe,,,,,,,,,4114,61,-31,1,0,0,response3disk,,5,16,-12,1,0,0,rectangle,16,-12,1,0,0,16,-12,1,0,0,0,133,133,156,1,,,,,,,,
,,,,,,,,,,,,,FF,,,,,,,,1.001,,,,,,,,,,,,,,,,,,,,,,6103462a62215bc455f87411,61036a5e0a2c909979743125,2021-07-29_21h59.16.827,Simcolourproject_2stim_asymm_v5,2020.2.10,MacIntel,60,61025ae37ef11b136ea224fe,,,,,,,,,3649,68,-40,1,0,0,response3disk,,5,22,-6,1,0,0,rectangle,22,-6,1,0,0,22,-6,1,0,0,0,134,134,9,1,,,,,,,,
,,,,,,,,,,,,,FF,,,,,,,,1.399,,,,,,,,,,,,,,,,,,,,,,6103462a62215bc455f87411,61036a5e0a2c909979743125,2021-07-29_21h59.16.827,Simcolourproject_2stim_asymm_v5,2020.2.10,MacIntel,60,61025ae37ef11b136ea224fe,,,,,,,,,368,-44,-79,1,0,0,response5disk,,3,-24,-7,1,0,0,rectangle,-24,-7,1,0,0,-24,-7,1,0,0,0,135,135,18,1,,,,,,,,
,,,,,,,,,,,,,FF,,,,,,,,0.884,,,,,,,,,,,,,,,,,,,,,,6103462a62215bc455f87411,61036a5e0a2c909979743125,2021-07-29_21h59.16.827,Simcolourproject_2stim_asymm_v5,2020.2.10,MacIntel,60,61025ae37ef11b136ea224fe,,,,,,,,,504,89,-52,1,0,0,response3disk,,5,10,-7,1,0,0,rectangle,10,-7,1,0,0,10,-7,1,0,0,0,136,136,15,1,,,,,,,,
,,,,,,,,,,,,,FF,,,,,,,,0.95,,,,,,,,,,,,,,,,,,,,,,6103462a62215bc455f87411,61036a5e0a2c909979743125,2021-07-29_21h59.16.827,Simcolourproject_2stim_asymm_v5,2020.2.10,MacIntel,60,61025ae37ef11b136ea224fe,,,,,,,,,7,-41,-68,1,0,0,response5disk,,3,7,-8,1,0,0,rectangle,7,-8,1,0,0,7,-8,1,0,0,0,137,137,149,1,,,,,,,,
,,,,,,,,,,,,,FF,,,,,,,,1.451,,,,,,,,,,,,,,,,,,,,,,6103462a62215bc455f87411,61036a5e0a2c909979743125,2021-07-29_21h59.16.827,Simcolourproject_2stim_asymm_v5,2020.2.10,MacIntel,60,61025ae37ef11b136ea224fe,,,,,,,,,971,33,-80,1,0,0,response3disk,,4,-2,5,1,0,0,rectangle,-2,5,1,0,0,-2,5,1,0,0,0,138,138,98,1,,,,,,,,
,,,,,,,,,,,,,FF,,,,,,,,1.317,,,,,,,,,,,,,,,,,,,,,,6103462a62215bc455f87411,61036a5e0a2c909979743125,2021-07-29_21h59.16.827,Simcolourproject_2stim_asymm_v5,2020.2.10,MacIntel,60,61025ae37ef11b136ea224fe,,,,,,,,,1944,86,24,1,0,0,response1disk,,6,30,7,1,0,0,rectangle,30,7,1,0,0,30,7,1,0,0,0,139,139,5,1,,,,,,,,
,,,,,,,,,,,,,FF,,,,,,,,0.866,,,,,,,,,,,,,,,,,,,,,,6103462a62215bc455f87411,61036a5e0a2c909979743125,2021-07-29_21h59.16.827,Simcolourproject_2stim_asymm_v5,2020.2.10,MacIntel,60,61025ae37ef11b136ea224fe,,,,,,,,,4289,59,27,1,0,0,response1disk,,6,11,6,1,0,0,rectangle,11,6,1,0,0,11,6,1,0,0,0,140,140,73,1,,,,,,,,
,,,,,,,,,,,,,FF,,,,,,,,1.266,,,,,,,,,,,,,,,,,,,,,,6103462a62215bc455f87411,61036a5e0a2c909979743125,2021-07-29_21h59.16.827,Simcolourproject_2stim_asymm_v5,2020.2.10,MacIntel,60,61025ae37ef11b136ea224fe,,,,,,,,,3471,-41,-85,1,0,0,response5disk,,3,-2,-8,1,0,0,rectangle,-2,-8,1,0,0,-2,-8,1,0,0,0,141,141,53,1,,,,,,,,
,,,,,,,,,,,,,FF,,,,,,,,0.917,,,,,,,,,,,,,,,,,,,,,,6103462a62215bc455f87411,61036a5e0a2c909979743125,2021-07-29_21h59.16.827,Simcolourproject_2stim_asymm_v5,2020.2.10,MacIntel,60,61025ae37ef11b136ea224fe,,,,,,,,,1087,94,36,1,0,0,response1disk,,6,4,-4,1,0,0,rectangle,4,-4,1,0,0,4,-4,1,0,0,0,142,142,146,1,,,,,,,,
,,,,,,,,,,,,,FF,,,,,,,,1.134,,,,,,,,,,,,,,,,,,,,,,6103462a62215bc455f87411,61036a5e0a2c909979743125,2021-07-29_21h59.16.827,Simcolourproject_2stim_asymm_v5,2020.2.10,MacIntel,60,61025ae37ef11b136ea224fe,,,,,,,,,1049,76,43,1,0,0,response1disk,,6,-4,-6,1,0,0,rectangle,-4,-6,1,0,0,-4,-6,1,0,0,0,143,143,133,1,,,,,,,,
,,,,,,,,,,,,,FF,,,,,,,,1.083,,,,,,,,,,,,,,,,,,,,,,6103462a62215bc455f87411,61036a5e0a2c909979743125,2021-07-29_21h59.16.827,Simcolourproject_2stim_asymm_v5,2020.2.10,MacIntel,60,61025ae37ef11b136ea224fe,,,,,,,,,3616,74,-29,1,0,0,response3disk,,5,-10,-5,1,0,0,rectangle,-10,-5,1,0,0,-10,-5,1,0,0,0,144,144,76,1,,,,,,,,
,,,,,,,,,,,,,FF,,,,,,,,0.816,,,,,,,,,,,,,,,,,,,,,,6103462a62215bc455f87411,61036a5e0a2c909979743125,2021-07-29_21h59.16.827,Simcolourproject_2stim_asymm_v5,2020.2.10,MacIntel,60,61025ae37ef11b136ea224fe,,,,,,,,,3641,79,23,1,0,0,response1disk,,6,9,1,1,0,0,rectangle,9,1,1,0,0,9,1,1,0,0,0,145,145,80,1,,,,,,,,
,,,,,,,,,,,,,FF,,,,,,,,1.683,,,,,,,,,,,,,,,,,,,,,,6103462a62215bc455f87411,61036a5e0a2c909979743125,2021-07-29_21h59.16.827,Simcolourproject_2stim_asymm_v5,2020.2.10,MacIntel,60,61025ae37ef11b136ea224fe,,,,,,,,,2181,71,-34,1,0,0,response3disk,,5,3,-1,1,0,0,rectangle,3,-1,1,0,0,3,-1,1,0,0,0,146,146,33,1,,,,,,,,
,,,,,,,,,,,,,FF,,,,,,,,1.467,,,,,,,,,,,,,,,,,,,,,,6103462a62215bc455f87411,61036a5e0a2c909979743125,2021-07-29_21h59.16.827,Simcolourproject_2stim_asymm_v5,2020.2.10,MacIntel,60,61025ae37ef11b136ea224fe,,,,,,,,,1652,85,29,1,0,0,response1disk,,6,-4,6,1,0,0,rectangle,-4,6,1,0,0,-4,6,1,0,0,0,147,147,110,1,,,,,,,,
,,,,,,,,,,,,,FF,,,,,,,,1.866,,,,,,,,,,,,,,,,,,,,,,6103462a62215bc455f87411,61036a5e0a2c909979743125,2021-07-29_21h59.16.827,Simcolourproject_2stim_asymm_v5,2020.2.10,MacIntel,60,61025ae37ef11b136ea224fe,,,,,,,,,1260,84,-52,1,0,0,response3disk,,5,-18,4,1,0,0,rectangle,-18,4,1,0,0,-18,4,1,0,0,0,148,148,13,1,,,,,,,,
,,,,,,,,,,,,,FF,,,,,,,,1.251,,,,,,,,,,,,,,,,,,,,,,6103462a62215bc455f87411,61036a5e0a2c909979743125,2021-07-29_21h59.16.827,Simcolourproject_2stim_asymm_v5,2020.2.10,MacIntel,60,61025ae37ef11b136ea224fe,,,,,,,,,1584,42,-57,1,0,0,response3disk,,4,0,5,1,0,0,rectangle,0,5,1,0,0,0,5,1,0,0,0,149,149,107,1,,,,,,,,
,,,,,,,,,,,,,FF,,,,,,,,0.732,,,,,,,,,,,,,,,,,,,,,,6103462a62215bc455f87411,61036a5e0a2c909979743125,2021-07-29_21h59.16.827,Simcolourproject_2stim_asymm_v5,2020.2.10,MacIntel,60,61025ae37ef11b136ea224fe,,,,,,,,,2213,55,33,1,0,0,response1disk,,6,9,9,1,0,0,rectangle,9,9,1,0,0,9,9,1,0,0,0,150,150,23,1,,,,,,,,
,,,,,,,,,,,,,FF,,,,,,,,1.699,,,,,,,,,,,,,,,,,,,,,,6103462a62215bc455f87411,61036a5e0a2c909979743125,2021-07-29_21h59.16.827,Simcolourproject_2stim_asymm_v5,2020.2.10,MacIntel,60,61025ae37ef11b136ea224fe,,,,,,,,,4202,46,-62,1,0,0,response3disk,,4,-3,1,1,0,0,rectangle,-3,1,1,0,0,-3,1,1,0,0,0,151,151,77,1,,,,,,,,
,,,,,,,,,,,,,FF,,,,,,,,3.167,,,,,,,,,,,,,,,,,,,,,,6103462a62215bc455f87411,61036a5e0a2c909979743125,2021-07-29_21h59.16.827,Simcolourproject_2stim_asymm_v5,2020.2.10,MacIntel,60,61025ae37ef11b136ea224fe,,,,,,,,,793,60,-32,1,0,0,response3disk,,5,25,-15,1,0,0,rectangle,-28,-101,1,0,0,7,-3,1,0,0,0,152,152,54,1,,response5disk_3,TRUE,3,3,"[280,309,261,322,228,58,91,243,129,214,64,302,278,282,153,289,186,100,59,102]",1.55,rectangle
,,,,,,,,,,,,,FF,,,,,,,,2.268,,,,,,,,,,,,,,,,,,,,,,6103462a62215bc455f87411,61036a5e0a2c909979743125,2021-07-29_21h59.16.827,Simcolourproject_2stim_asymm_v5,2020.2.10,MacIntel,60,61025ae37ef11b136ea224fe,,,,,,,,,756,59,25,1,0,0,response1disk,,6,12,-4,1,0,0,rectangle,12,-4,1,0,0,12,-4,1,0,0,0,153,153,130,1,,,,,,,,
,,,,,,,,,,,,,FF,,,,,,,,1.718,,,,,,,,,,,,,,,,,,,,,,6103462a62215bc455f87411,61036a5e0a2c909979743125,2021-07-29_21h59.16.827,Simcolourproject_2stim_asymm_v5,2020.2.10,MacIntel,60,61025ae37ef11b136ea224fe,,,,,,,,,1815,-47,80,1,0,0,response7disk,,0,-1,-14,1,0,0,rectangle,-1,-14,1,0,0,-1,-14,1,0,0,0,154,154,144,1,,,,,,,,
,,,,,,,,,,,,,FF,,,,,,,,1,,,,,,,,,,,,,,,,,,,,,,6103462a62215bc455f87411,61036a5e0a2c909979743125,2021-07-29_21h59.16.827,Simcolourproject_2stim_asymm_v5,2020.2.10,MacIntel,60,61025ae37ef11b136ea224fe,,,,,,,,,3594,100,-44,1,0,0,response3disk,,5,9,-10,1,0,0,rectangle,9,-10,1,0,0,9,-10,1,0,0,0,155,155,40,1,,,,,,,,
,,,,,,,,,,,,,FF,,,,,,,,1.768,,,,,,,,,,,,,,,,,,,,,,6103462a62215bc455f87411,61036a5e0a2c909979743125,2021-07-29_21h59.16.827,Simcolourproject_2stim_asymm_v5,2020.2.10,MacIntel,60,61025ae37ef11b136ea224fe,,,,,,,,,1081,84,-44,1,0,0,response3disk,,5,20,2,1,0,0,rectangle,20,2,1,0,0,20,2,1,0,0,0,156,156,2,1,,,,,,,,
,,,,,,,,,,,,,FF,,,,,,,,3.868,,,,,,,,,,,,,,,,,,,,,,6103462a62215bc455f87411,61036a5e0a2c909979743125,2021-07-29_21h59.16.827,Simcolourproject_2stim_asymm_v5,2020.2.10,MacIntel,60,61025ae37ef11b136ea224fe,,,,,,,,,195,50,-77,1,0,0,response3disk,,4,2,8,1,0,0,rectangle,2,8,1,0,0,2,8,1,0,0,0,157,157,97,1,,,,,,,,
,,,,,,,,,,,,,FF,,,,,,,,1.315,,,,,,,,,,,,,,,,,,,,,,6103462a62215bc455f87411,61036a5e0a2c909979743125,2021-07-29_21h59.16.827,Simcolourproject_2stim_asymm_v5,2020.2.10,MacIntel,60,61025ae37ef11b136ea224fe,,,,,,,,,3037,-24,-74,1,0,0,response5disk,,3,0,-11,1,0,0,rectangle,0,-11,1,0,0,0,-11,1,0,0,0,158,158,120,1,,,,,,,,
,,,,,,,,,,,,,FF,,,,,,,,0.933,,,,,,,,,,,,,,,,,,,,,,6103462a62215bc455f87411,61036a5e0a2c909979743125,2021-07-29_21h59.16.827,Simcolourproject_2stim_asymm_v5,2020.2.10,MacIntel,60,61025ae37ef11b136ea224fe,,,,,,,,,2540,57,85,1,0,0,response1disk,,7,14,1,1,0,0,rectangle,14,1,1,0,0,14,1,1,0,0,0,159,159,27,1,,,,,,,,
,,,,,,,,,,,,,FF,,,,,,,,1.933,,,,,,,,,,,,,,,,,,,,,,6103462a62215bc455f87411,61036a5e0a2c909979743125,2021-07-29_21h59.16.827,Simcolourproject_2stim_asymm_v5,2020.2.10,MacIntel,60,61025ae37ef11b136ea224fe,,,,,,,,,1948,72,-44,1,0,0,response3disk,,5,12,3,1,0,0,rectangle,12,3,1,0,0,12,3,1,0,0,1,0,160,121,1,,,,,,,,
,,,,,,,,,,,,,FF,,,,,,,,0.999,,,,,,,,,,,,,,,,,,,,,,6103462a62215bc455f87411,61036a5e0a2c909979743125,2021-07-29_21h59.16.827,Simcolourproject_2stim_asymm_v5,2020.2.10,MacIntel,60,61025ae37ef11b136ea224fe,,,,,,,,,2995,82,-34,1,0,0,response3disk,,5,0,-2,1,0,0,rectangle,0,-2,1,0,0,0,-2,1,0,0,1,1,161,30,1,,,,,,,,
,,,,,,,,,,,,,FF,,,,,,,,4.683,,,,,,,,,,,,,,,,,,,,,,6103462a62215bc455f87411,61036a5e0a2c909979743125,2021-07-29_21h59.16.827,Simcolourproject_2stim_asymm_v5,2020.2.10,MacIntel,60,61025ae37ef11b136ea224fe,,,,,,,,,3897,51,-87,1,0,0,response3disk,,4,8,-7,1,0,0,rectangle,8,-7,1,0,0,8,-7,1,0,0,1,2,162,104,1,,,,,,,,
,,,,,,,,,,,,,FF,,,,,,,,1.151,,,,,,,,,,,,,,,,,,,,,,6103462a62215bc455f87411,61036a5e0a2c909979743125,2021-07-29_21h59.16.827,Simcolourproject_2stim_asymm_v5,2020.2.10,MacIntel,60,61025ae37ef11b136ea224fe,,,,,,,,,2037,39,-80,1,0,0,response3disk,,4,-4,0,1,0,0,rectangle,-4,0,1,0,0,-4,0,1,0,0,1,3,163,19,1,,,,,,,,
,,,,,,,,,,,,,FF,,,,,,,,0.766,,,,,,,,,,,,,,,,,,,,,,6103462a62215bc455f87411,61036a5e0a2c909979743125,2021-07-29_21h59.16.827,Simcolourproject_2stim_asymm_v5,2020.2.10,MacIntel,60,61025ae37ef11b136ea224fe,,,,,,,,,1823,-21,-60,1,0,0,response5disk,,3,-10,-4,1,0,0,rectangle,-10,-4,1,0,0,-10,-4,1,0,0,1,4,164,10,1,,,,,,,,
,,,,,,,,,,,,,FF,,,,,,,,0.85,,,,,,,,,,,,,,,,,,,,,,6103462a62215bc455f87411,61036a5e0a2c909979743125,2021-07-29_21h59.16.827,Simcolourproject_2stim_asymm_v5,2020.2.10,MacIntel,60,61025ae37ef11b136ea224fe,,,,,,,,,3180,69,-45,1,0,0,response3disk,,5,-8,-3,1,0,0,rectangle,-8,-3,1,0,0,-8,-3,1,0,0,1,5,165,2,1,,,,,,,,
,,,,,,,,,,,,,FF,,,,,,,,0.902,,,,,,,,,,,,,,,,,,,,,,6103462a62215bc455f87411,61036a5e0a2c909979743125,2021-07-29_21h59.16.827,Simcolourproject_2stim_asymm_v5,2020.2.10,MacIntel,60,61025ae37ef11b136ea224fe,,,,,,,,,2139,82,-32,1,0,0,response3disk,,5,13,5,1,0,0,rectangle,13,5,1,0,0,13,5,1,0,0,1,6,166,35,1,,,,,,,,
,,,,,,,,,,,,,FF,,,,,,,,1.115,,,,,,,,,,,,,,,,,,,,,,6103462a62215bc455f87411,61036a5e0a2c909979743125,2021-07-29_21h59.16.827,Simcolourproject_2stim_asymm_v5,2020.2.10,MacIntel,60,61025ae37ef11b136ea224fe,,,,,,,,,2724,49,-68,1,0,0,response3disk,,4,-3,-5,1,0,0,rectangle,-3,-5,1,0,0,-3,-5,1,0,0,1,7,167,148,1,,,,,,,,
,,,,,,,,,,,,,FF,,,,,,,,1.568,,,,,,,,,,,,,,,,,,,,,,6103462a62215bc455f87411,61036a5e0a2c909979743125,2021-07-29_21h59.16.827,Simcolourproject_2stim_asymm_v5,2020.2.10,MacIntel,60,61025ae37ef11b136ea224fe,,,,,,,,,694,71,-54,1,0,0,response3disk,,5,21,-13,1,0,0,rectangle,21,-13,1,0,0,21,-13,1,0,0,1,8,168,94,1,,,,,,,,
,,,,,,,,,,,,,FF,,,,,,,,0.767,,,,,,,,,,,,,,,,,,,,,,6103462a62215bc455f87411,61036a5e0a2c909979743125,2021-07-29_21h59.16.827,Simcolourproject_2stim_asymm_v5,2020.2.10,MacIntel,60,61025ae37ef11b136ea224fe,,,,,,,,,839,82,-55,1,0,0,response3disk,,5,6,-11,1,0,0,rectangle,6,-11,1,0,0,6,-11,1,0,0,1,9,169,46,1,,,,,,,,
,,,,,,,,,,,,,FF,,,,,,,,2.284,,,,,,,,,,,,,,,,,,,,,,6103462a62215bc455f87411,61036a5e0a2c909979743125,2021-07-29_21h59.16.827,Simcolourproject_2stim_asymm_v5,2020.2.10,MacIntel,60,61025ae37ef11b136ea224fe,,,,,,,,,4066,-53,-93,1,0,0,response5disk,,3,-13,0,1,0,0,rectangle,-13,0,1,0,0,-13,0,1,0,0,1,10,170,14,1,,,,,,,,
,,,,,,,,,,,,,FF,,,,,,,,0.75,,,,,,,,,,,,,,,,,,,,,,6103462a62215bc455f87411,61036a5e0a2c909979743125,2021-07-29_21h59.16.827,Simcolourproject_2stim_asymm_v5,2020.2.10,MacIntel,60,61025ae37ef11b136ea224fe,,,,,,,,,1640,90,-48,1,0,0,response3disk,,5,22,-17,1,0,0,rectangle,22,-17,1,0,0,22,-17,1,0,0,1,11,171,22,1,,,,,,,,
,,,,,,,,,,,,,FF,,,,,,,,1.434,,,,,,,,,,,,,,,,,,,,,,6103462a62215bc455f87411,61036a5e0a2c909979743125,2021-07-29_21h59.16.827,Simcolourproject_2stim_asymm_v5,2020.2.10,MacIntel,60,61025ae37ef11b136ea224fe,,,,,,,,,258,46,-101,1,0,0,response3disk,,4,-2,-3,1,0,0,rectangle,-2,-3,1,0,0,-2,-3,1,0,0,1,12,172,122,1,,,,,,,,
,,,,,,,,,,,,,FF,,,,,,,,0.717,,,,,,,,,,,,,,,,,,,,,,6103462a62215bc455f87411,61036a5e0a2c909979743125,2021-07-29_21h59.16.827,Simcolourproject_2stim_asymm_v5,2020.2.10,MacIntel,60,61025ae37ef11b136ea224fe,,,,,,,,,2968,95,-28,1,0,0,response3disk,,5,5,4,1,0,0,rectangle,5,4,1,0,0,5,4,1,0,0,1,13,173,140,1,,,,,,,,
,,,,,,,,,,,,,FF,,,,,,,,0.884,,,,,,,,,,,,,,,,,,,,,,6103462a62215bc455f87411,61036a5e0a2c909979743125,2021-07-29_21h59.16.827,Simcolourproject_2stim_asymm_v5,2020.2.10,MacIntel,60,61025ae37ef11b136ea224fe,,,,,,,,,2066,90,31,1,0,0,response1disk,,6,-7,-2,1,0,0,rectangle,-7,-2,1,0,0,-7,-2,1,0,0,1,14,174,138,1,,,,,,,,
,,,,,,,,,,,,,FF,,,,,,,,0.801,,,,,,,,,,,,,,,,,,,,,,6103462a62215bc455f87411,61036a5e0a2c909979743125,2021-07-29_21h59.16.827,Simcolourproject_2stim_asymm_v5,2020.2.10,MacIntel,60,61025ae37ef11b136ea224fe,,,,,,,,,2859,81,-49,1,0,0,response3disk,,5,26,-1,1,0,0,rectangle,26,-1,1,0,0,26,-1,1,0,0,1,15,175,24,1,,,,,,,,
,,,,,,,,,,,,,FF,,,,,,,,0.566,,,,,,,,,,,,,,,,,,,,,,6103462a62215bc455f87411,61036a5e0a2c909979743125,2021-07-29_21h59.16.827,Simcolourproject_2stim_asymm_v5,2020.2.10,MacIntel,60,61025ae37ef11b136ea224fe,,,,,,,,,1654,78,21,1,0,0,response1disk,,6,0,-12,1,0,0,rectangle,0,-12,1,0,0,0,-12,1,0,0,1,16,176,75,1,,,,,,,,
,,,,,,,,,,,,,FF,,,,,,,,1.267,,,,,,,,,,,,,,,,,,,,,,6103462a62215bc455f87411,61036a5e0a2c909979743125,2021-07-29_21h59.16.827,Simcolourproject_2stim_asymm_v5,2020.2.10,MacIntel,60,61025ae37ef11b136ea224fe,,,,,,,,,4124,84,-32,1,0,0,response3disk,,5,9,-7,1,0,0,rectangle,9,-7,1,0,0,9,-7,1,0,0,1,17,177,15,1,,,,,,,,
,,,,,,,,,,,,,FF,,,,,,,,1.266,,,,,,,,,,,,,,,,,,,,,,6103462a62215bc455f87411,61036a5e0a2c909979743125,2021-07-29_21h59.16.827,Simcolourproject_2stim_asymm_v5,2020.2.10,MacIntel,60,61025ae37ef11b136ea224fe,,,,,,,,,3391,-27,-74,1,0,0,response5disk,,3,-5,1,1,0,0,rectangle,-5,1,1,0,0,-5,1,1,0,0,1,18,178,55,1,,,,,,,,
,,,,,,,,,,,,,FF,,,,,,,,1.384,,,,,,,,,,,,,,,,,,,,,,6103462a62215bc455f87411,61036a5e0a2c909979743125,2021-07-29_21h59.16.827,Simcolourproject_2stim_asymm_v5,2020.2.10,MacIntel,60,61025ae37ef11b136ea224fe,,,,,,,,,4004,60,-45,1,0,0,response3disk,,5,17,-17,1,0,0,rectangle,17,-17,1,0,0,17,-17,1,0,0,1,19,179,145,1,,,,,,,,
,,,,,,,,,,,,,FF,,,,,,,,2.2,,,,,,,,,,,,,,,,,,,,,,6103462a62215bc455f87411,61036a5e0a2c909979743125,2021-07-29_21h59.16.827,Simcolourproject_2stim_asymm_v5,2020.2.10,MacIntel,60,61025ae37ef11b136ea224fe,,,,,,,,,2088,73,-53,1,0,0,response3disk,,5,18,-9,1,0,0,rectangle,18,-9,1,0,0,18,-9,1,0,0,1,20,180,111,1,,,,,,,,
,,,,,,,,,,,,,FF,,,,,,,,1.267,,,,,,,,,,,,,,,,,,,,,,6103462a62215bc455f87411,61036a5e0a2c909979743125,2021-07-29_21h59.16.827,Simcolourproject_2stim_asymm_v5,2020.2.10,MacIntel,60,61025ae37ef11b136ea224fe,,,,,,,,,3344,38,-71,1,0,0,response3disk,,4,1,-12,1,0,0,rectangle,1,-12,1,0,0,1,-12,1,0,0,1,21,181,74,1,,,,,,,,
,,,,,,,,,,,,,FF,,,,,,,,1.017,,,,,,,,,,,,,,,,,,,,,,6103462a62215bc455f87411,61036a5e0a2c909979743125,2021-07-29_21h59.16.827,Simcolourproject_2stim_asymm_v5,2020.2.10,MacIntel,60,61025ae37ef11b136ea224fe,,,,,,,,,2313,66,-94,1,0,0,response3disk,,4,14,-7,1,0,0,rectangle,14,-7,1,0,0,14,-7,1,0,0,1,22,182,5,1,,,,,,,,
,,,,,,,,,,,,,FF,,,,,,,,1.017,,,,,,,,,,,,,,,,,,,,,,6103462a62215bc455f87411,61036a5e0a2c909979743125,2021-07-29_21h59.16.827,Simcolourproject_2stim_asymm_v5,2020.2.10,MacIntel,60,61025ae37ef11b136ea224fe,,,,,,,,,1038,58,-82,1,0,0,response3disk,,4,20,-2,1,0,0,rectangle,20,-2,1,0,0,20,-2,1,0,0,1,23,183,89,1,,,,,,,,
,,,,,,,,,,,,,FF,,,,,,,,0.718,,,,,,,,,,,,,,,,,,,,,,6103462a62215bc455f87411,61036a5e0a2c909979743125,2021-07-29_21h59.16.827,Simcolourproject_2stim_asymm_v5,2020.2.10,MacIntel,60,61025ae37ef11b136ea224fe,,,,,,,,,688,94,-48,1,0,0,response3disk,,5,10,0,1,0,0,rectangle,10,0,1,0,0,10,0,1,0,0,1,24,184,143,1,,,,,,,,
,,,,,,,,,,,,,FF,,,,,,,,0.966,,,,,,,,,,,,,,,,,,,,,,6103462a62215bc455f87411,61036a5e0a2c909979743125,2021-07-29_21h59.16.827,Simcolourproject_2stim_asymm_v5,2020.2.10,MacIntel,60,61025ae37ef11b136ea224fe,,,,,,,,,4089,49,-69,1,0,0,response3disk,,4,-2,0,1,0,0,rectangle,34,99,1,0,0,9,-6,1,0,0,1,25,185,58,1,,response1disk_3,TRUE,7,7,"[280,309,261,322,228,58,91,243,129,214,64,302,278,282,153,289,186,100,59,102]",1.85,rectangle
,,,,,,,,,,,,,FF,,,,,,,,0.866,,,,,,,,,,,,,,,,,,,,,,6103462a62215bc455f87411,61036a5e0a2c909979743125,2021-07-29_21h59.16.827,Simcolourproject_2stim_asymm_v5,2020.2.10,MacIntel,60,61025ae37ef11b136ea224fe,,,,,,,,,2593,80,-32,1,0,0,response3disk,,5,8,-12,1,0,0,rectangle,8,-12,1,0,0,8,-12,1,0,0,1,26,186,61,1,,,,,,,,
,,,,,,,,,,,,,FF,,,,,,,,1.151,,,,,,,,,,,,,,,,,,,,,,6103462a62215bc455f87411,61036a5e0a2c909979743125,2021-07-29_21h59.16.827,Simcolourproject_2stim_asymm_v5,2020.2.10,MacIntel,60,61025ae37ef11b136ea224fe,,,,,,,,,198,-30,-85,1,0,0,response5disk,,3,-8,-6,1,0,0,rectangle,-8,-6,1,0,0,-8,-6,1,0,0,1,27,187,76,1,,,,,,,,
,,,,,,,,,,,,,FF,,,,,,,,0.984,,,,,,,,,,,,,,,,,,,,,,6103462a62215bc455f87411,61036a5e0a2c909979743125,2021-07-29_21h59.16.827,Simcolourproject_2stim_asymm_v5,2020.2.10,MacIntel,60,61025ae37ef11b136ea224fe,,,,,,,,,937,88,-27,1,0,0,response3disk,,5,15,-6,1,0,0,rectangle,15,-6,1,0,0,15,-6,1,0,0,1,28,188,3,1,,,,,,,,
,,,,,,,,,,,,,FF,,,,,,,,1.649,,,,,,,,,,,,,,,,,,,,,,6103462a62215bc455f87411,61036a5e0a2c909979743125,2021-07-29_21h59.16.827,Simcolourproject_2stim_asymm_v5,2020.2.10,MacIntel,60,61025ae37ef11b136ea224fe,,,,,,,,,2845,45,-58,1,0,0,response3disk,,4,16,-10,1,0,0,rectangle,16,-10,1,0,0,16,-10,1,0,0,1,29,189,9,1,,,,,,,,
,,,,,,,,,,,,,FF,,,,,,,,0.717,,,,,,,,,,,,,,,,,,,,,,6103462a62215bc455f87411,61036a5e0a2c909979743125,2021-07-29_21h59.16.827,Simcolourproject_2stim_asymm_v5,2020.2.10,MacIntel,60,61025ae37ef11b136ea224fe,,,,,,,,,1185,83,-51,1,0,0,response3disk,,5,7,-3,1,0,0,rectangle,7,-3,1,0,0,7,-3,1,0,0,1,30,190,152,1,,,,,,,,
,,,,,,,,,,,,,FF,,,,,,,,0.917,,,,,,,,,,,,,,,,,,,,,,6103462a62215bc455f87411,61036a5e0a2c909979743125,2021-07-29_21h59.16.827,Simcolourproject_2stim_asymm_v5,2020.2.10,MacIntel,60,61025ae37ef11b136ea224fe,,,,,,,,,3174,69,-31,1,0,0,response3disk,,5,-13,-4,1,0,0,rectangle,-13,-4,1,0,0,-13,-4,1,0,0,1,31,191,97,1,,,,,,,,
,,,,,,,,,,,,,FF,,,,,,,,1.466,,,,,,,,,,,,,,,,,,,,,,6103462a62215bc455f87411,61036a5e0a2c909979743125,2021-07-29_21h59.16.827,Simcolourproject_2stim_asymm_v5,2020.2.10,MacIntel,60,61025ae37ef11b136ea224fe,,,,,,,,,3449,70,-41,1,0,0,response3disk,,5,16,2,1,0,0,rectangle,16,2,1,0,0,16,2,1,0,0,1,32,192,20,1,,,,,,,,
,,,,,,,,,,,,,FF,,,,,,,,1.116,,,,,,,,,,,,,,,,,,,,,,6103462a62215bc455f87411,61036a5e0a2c909979743125,2021-07-29_21h59.16.827,Simcolourproject_2stim_asymm_v5,2020.2.10,MacIntel,60,61025ae37ef11b136ea224fe,,,,,,,,,3487,67,-54,1,0,0,response3disk,,5,-8,-5,1,0,0,rectangle,-8,-5,1,0,0,-8,-5,1,0,0,1,33,193,8,1,,,,,,,,
,,,,,,,,,,,,,FF,,,,,,,,1.1,,,,,,,,,,,,,,,,,,,,,,6103462a62215bc455f87411,61036a5e0a2c909979743125,2021-07-29_21h59.16.827,Simcolourproject_2stim_asymm_v5,2020.2.10,MacIntel,60,61025ae37ef11b136ea224fe,,,,,,,,,3837,-38,-79,1,0,0,response5disk,,3,-19,-10,1,0,0,rectangle,-19,-10,1,0,0,-19,-10,1,0,0,1,34,194,119,1,,,,,,,,
,,,,,,,,,,,,,FF,,,,,,,,0.783,,,,,,,,,,,,,,,,,,,,,,6103462a62215bc455f87411,61036a5e0a2c909979743125,2021-07-29_21h59.16.827,Simcolourproject_2stim_asymm_v5,2020.2.10,MacIntel,60,61025ae37ef11b136ea224fe,,,,,,,,,4041,38,-71,1,0,0,response3disk,,4,10,-1,1,0,0,rectangle,10,-1,1,0,0,10,-1,1,0,0,1,35,195,1,1,,,,,,,,
,,,,,,,,,,,,,FF,,,,,,,,2.433,,,,,,,,,,,,,,,,,,,,,,6103462a62215bc455f87411,61036a5e0a2c909979743125,2021-07-29_21h59.16.827,Simcolourproject_2stim_asymm_v5,2020.2.10,MacIntel,60,61025ae37ef11b136ea224fe,,,,,,,,,1674,-35,-77,1,0,0,response5disk,,3,-17,4,1,0,0,rectangle,-17,4,1,0,0,-17,4,1,0,0,1,36,196,52,1,,,,,,,,
,,,,,,,,,,,,,FF,,,,,,,,1.332,,,,,,,,,,,,,,,,,,,,,,6103462a62215bc455f87411,61036a5e0a2c909979743125,2021-07-29_21h59.16.827,Simcolourproject_2stim_asymm_v5,2020.2.10,MacIntel,60,61025ae37ef11b136ea224fe,,,,,,,,,1288,91,39,1,0,0,response1disk,,6,-1,-6,1,0,0,rectangle,-1,-6,1,0,0,-1,-6,1,0,0,1,37,197,155,1,,,,,,,,
,,,,,,,,,,,,,FF,,,,,,,,2.251,,,,,,,,,,,,,,,,,,,,,,6103462a62215bc455f87411,61036a5e0a2c909979743125,2021-07-29_21h59.16.827,Simcolourproject_2stim_asymm_v5,2020.2.10,MacIntel,60,61025ae37ef11b136ea224fe,,,,,,,,,2362,-42,-102,1,0,0,response5disk,,3,19,-11,1,0,0,rectangle,19,-11,1,0,0,19,-11,1,0,0,1,38,198,34,1,,,,,,,,
,,,,,,,,,,,,,FF,,,,,,,,4.568,,,,,,,,,,,,,,,,,,,,,,6103462a62215bc455f87411,61036a5e0a2c909979743125,2021-07-29_21h59.16.827,Simcolourproject_2stim_asymm_v5,2020.2.10,MacIntel,60,61025ae37ef11b136ea224fe,,,,,,,,,965,91,-44,1,0,0,response3disk,,5,22,-12,1,0,0,rectangle,22,-12,1,0,0,22,-12,1,0,0,1,39,199,32,1,,,,,,,,
,,,,,,,,,,,,,FF,,,,,,,,1.899,,,,,,,,,,,,,,,,,,,,,,6103462a62215bc455f87411,61036a5e0a2c909979743125,2021-07-29_21h59.16.827,Simcolourproject_2stim_asymm_v5,2020.2.10,MacIntel,60,61025ae37ef11b136ea224fe,,,,,,,,,1663,30,-82,1,0,0,response3disk,,4,17,-10,1,0,0,rectangle,17,-10,1,0,0,17,-10,1,0,0,1,40,200,57,1,,,,,,,,
,,,,,,,,,,,,,FF,,,,,,,,1.149,,,,,,,,,,,,,,,,,,,,,,6103462a62215bc455f87411,61036a5e0a2c909979743125,2021-07-29_21h59.16.827,Simcolourproject_2stim_asymm_v5,2020.2.10,MacIntel,60,61025ae37ef11b136ea224fe,,,,,,,,,3822,34,-83,1,0,0,response3disk,,4,7,0,1,0,0,rectangle,7,0,1,0,0,7,0,1,0,0,1,41,201,130,1,,,,,,,,
,,,,,,,,,,,,,FF,,,,,,,,0.667,,,,,,,,,,,,,,,,,,,,,,6103462a62215bc455f87411,61036a5e0a2c909979743125,2021-07-29_21h59.16.827,Simcolourproject_2stim_asymm_v5,2020.2.10,MacIntel,60,61025ae37ef11b136ea224fe,,,,,,,,,44,68,-48,1,0,0,response3disk,,5,21,-2,1,0,0,rectangle,21,-2,1,0,0,21,-2,1,0,0,1,42,202,106,1,,,,,,,,
,,,,,,,,,,,,,FF,,,,,,,,1.185,,,,,,,,,,,,,,,,,,,,,,6103462a62215bc455f87411,61036a5e0a2c909979743125,2021-07-29_21h59.16.827,Simcolourproject_2stim_asymm_v5,2020.2.10,MacIntel,60,61025ae37ef11b136ea224fe,,,,,,,,,3545,45,-76,1,0,0,response3disk,,4,10,-7,1,0,0,rectangle,10,-7,1,0,0,10,-7,1,0,0,1,43,203,47,1,,,,,,,,
,,,,,,,,,,,,,FF,,,,,,,,0.717,,,,,,,,,,,,,,,,,,,,,,6103462a62215bc455f87411,61036a5e0a2c909979743125,2021-07-29_21h59.16.827,Simcolourproject_2stim_asymm_v5,2020.2.10,MacIntel,60,61025ae37ef11b136ea224fe,,,,,,,,,3964,81,-29,1,0,0,response3disk,,5,23,-17,1,0,0,rectangle,23,-17,1,0,0,23,-17,1,0,0,1,44,204,60,1,,,,,,,,
,,,,,,,,,,,,,FF,,,,,,,,0.699,,,,,,,,,,,,,,,,,,,,,,6103462a62215bc455f87411,61036a5e0a2c909979743125,2021-07-29_21h59.16.827,Simcolourproject_2stim_asymm_v5,2020.2.10,MacIntel,60,61025ae37ef11b136ea224fe,,,,,,,,,922,92,-48,1,0,0,response3disk,,5,9,-6,1,0,0,rectangle,9,-6,1,0,0,9,-6,1,0,0,1,45,205,116,1,,,,,,,,
,,,,,,,,,,,,,FF,,,,,,,,0.618,,,,,,,,,,,,,,,,,,,,,,6103462a62215bc455f87411,61036a5e0a2c909979743125,2021-07-29_21h59.16.827,Simcolourproject_2stim_asymm_v5,2020.2.10,MacIntel,60,61025ae37ef11b136ea224fe,,,,,,,,,1224,69,-52,1,0,0,response3disk,,5,28,-5,1,0,0,rectangle,28,-5,1,0,0,28,-5,1,0,0,1,46,206,158,1,,,,,,,,
,,,,,,,,,,,,,FF,,,,,,,,0.9,,,,,,,,,,,,,,,,,,,,,,6103462a62215bc455f87411,61036a5e0a2c909979743125,2021-07-29_21h59.16.827,Simcolourproject_2stim_asymm_v5,2020.2.10,MacIntel,60,61025ae37ef11b136ea224fe,,,,,,,,,2785,46,-61,1,0,0,response3disk,,4,9,-1,1,0,0,rectangle,9,-1,1,0,0,9,-1,1,0,0,1,47,207,56,1,,,,,,,,
,,,,,,,,,,,,,FF,,,,,,,,0.9,,,,,,,,,,,,,,,,,,,,,,6103462a62215bc455f87411,61036a5e0a2c909979743125,2021-07-29_21h59.16.827,Simcolourproject_2stim_asymm_v5,2020.2.10,MacIntel,60,61025ae37ef11b136ea224fe,,,,,,,,,1835,55,-72,1,0,0,response3disk,,4,20,-3,1,0,0,rectangle,20,-3,1,0,0,20,-3,1,0,0,1,48,208,102,1,,,,,,,,
,,,,,,,,,,,,,FF,,,,,,,,1.134,,,,,,,,,,,,,,,,,,,,,,6103462a62215bc455f87411,61036a5e0a2c909979743125,2021-07-29_21h59.16.827,Simcolourproject_2stim_asymm_v5,2020.2.10,MacIntel,60,61025ae37ef11b136ea224fe,,,,,,,,,4292,103,38,1,0,0,response1disk,,6,11,-8,1,0,0,rectangle,11,-8,1,0,0,11,-8,1,0,0,1,49,209,27,1,,,,,,,,
,,,,,,,,,,,,,FF,,,,,,,,1.917,,,,,,,,,,,,,,,,,,,,,,6103462a62215bc455f87411,61036a5e0a2c909979743125,2021-07-29_21h59.16.827,Simcolourproject_2stim_asymm_v5,2020.2.10,MacIntel,60,61025ae37ef11b136ea224fe,,,,,,,,,4152,85,-47,1,0,0,response3disk,,5,-3,-10,1,0,0,rectangle,-3,-10,1,0,0,-3,-10,1,0,0,1,50,210,4,1,,,,,,,,
,,,,,,,,,,,,,FF,,,,,,,,1.351,,,,,,,,,,,,,,,,,,,,,,6103462a62215bc455f87411,61036a5e0a2c909979743125,2021-07-29_21h59.16.827,Simcolourproject_2stim_asymm_v5,2020.2.10,MacIntel,60,61025ae37ef11b136ea224fe,,,,,,,,,1152,34,-91,1,0,0,response3disk,,4,-2,3,1,0,0,rectangle,-2,3,1,0,0,-2,3,1,0,0,1,51,211,29,1,,,,,,,,
,,,,,,,,,,,,,FF,,,,,,,,0.801,,,,,,,,,,,,,,,,,,,,,,6103462a62215bc455f87411,61036a5e0a2c909979743125,2021-07-29_21h59.16.827,Simcolourproject_2stim_asymm_v5,2020.2.10,MacIntel,60,61025ae37ef11b136ea224fe,,,,,,,,,3321,82,30,1,0,0,response1disk,,6,17,7,1,0,0,rectangle,17,7,1,0,0,17,7,1,0,0,1,52,212,85,1,,,,,,,,
,,,,,,,,,,,,,FF,,,,,,,,1.299,,,,,,,,,,,,,,,,,,,,,,6103462a62215bc455f87411,61036a5e0a2c909979743125,2021-07-29_21h59.16.827,Simcolourproject_2stim_asymm_v5,2020.2.10,MacIntel,60,61025ae37ef11b136ea224fe,,,,,,,,,631,-35,-92,1,0,0,response5disk,,3,16,-11,1,0,0,rectangle,34,-107,1,0,0,-5,7,1,0,0,1,53,213,36,1,,response3disk_3,TRUE,4,4,"[280,309,261,322,228,58,91,243,129,214,64,302,278,282,153,289,186,100,59,102]",1.433,rectangle
,,,,,,,,,,,,,FF,,,,,,,,0.951,,,,,,,,,,,,,,,,,,,,,,6103462a62215bc455f87411,61036a5e0a2c909979743125,2021-07-29_21h59.16.827,Simcolourproject_2stim_asymm_v5,2020.2.10,MacIntel,60,61025ae37ef11b136ea224fe,,,,,,,,,2711,43,-82,1,0,0,response3disk,,4,-5,8,1,0,0,rectangle,-5,8,1,0,0,-5,8,1,0,0,1,54,214,44,1,,,,,,,,
,,,,,,,,,,,,,FF,,,,,,,,1.75,,,,,,,,,,,,,,,,,,,,,,6103462a62215bc455f87411,61036a5e0a2c909979743125,2021-07-29_21h59.16.827,Simcolourproject_2stim_asymm_v5,2020.2.10,MacIntel,60,61025ae37ef11b136ea224fe,,,,,,,,,2477,85,-45,1,0,0,response3disk,,5,14,-2,1,0,0,rectangle,14,-2,1,0,0,14,-2,1,0,0,1,55,215,26,1,,,,,,,,
,,,,,,,,,,,,,FF,,,,,,,,0.883,,,,,,,,,,,,,,,,,,,,,,6103462a62215bc455f87411,61036a5e0a2c909979743125,2021-07-29_21h59.16.827,Simcolourproject_2stim_asymm_v5,2020.2.10,MacIntel,60,61025ae37ef11b136ea224fe,,,,,,,,,1421,73,27,1,0,0,response1disk,,6,5,2,1,0,0,rectangle,5,2,1,0,0,5,2,1,0,0,1,56,216,144,1,,,,,,,,
,,,,,,,,,,,,,FF,,,,,,,,0.737,,,,,,,,,,,,,,,,,,,,,,6103462a62215bc455f87411,61036a5e0a2c909979743125,2021-07-29_21h59.16.827,Simcolourproject_2stim_asymm_v5,2020.2.10,MacIntel,60,61025ae37ef11b136ea224fe,,,,,,,,,2856,53,21,1,0,0,response1disk,,6,3,3,1,0,0,rectangle,3,3,1,0,0,3,3,1,0,0,1,57,217,87,1,,,,,,,,
,,,,,,,,,,,,,FF,,,,,,,,0.616,,,,,,,,,,,,,,,,,,,,,,6103462a62215bc455f87411,61036a5e0a2c909979743125,2021-07-29_21h59.16.827,Simcolourproject_2stim_asymm_v5,2020.2.10,MacIntel,60,61025ae37ef11b136ea224fe,,,,,,,,,1740,74,36,1,0,0,response1disk,,6,21,3,1,0,0,rectangle,21,3,1,0,0,21,3,1,0,0,1,58,218,49,1,,,,,,,,
,,,,,,,,,,,,,FF,,,,,,,,1.616,,,,,,,,,,,,,,,,,,,,,,6103462a62215bc455f87411,61036a5e0a2c909979743125,2021-07-29_21h59.16.827,Simcolourproject_2stim_asymm_v5,2020.2.10,MacIntel,60,61025ae37ef11b136ea224fe,,,,,,,,,2215,69,-36,1,0,0,response3disk,,5,3,0,1,0,0,rectangle,3,0,1,0,0,3,0,1,0,0,1,59,219,137,1,,,,,,,,
,,,,,,,,,,,,,FF,,,,,,,,1.283,,,,,,,,,,,,,,,,,,,,,,6103462a62215bc455f87411,61036a5e0a2c909979743125,2021-07-29_21h59.16.827,Simcolourproject_2stim_asymm_v5,2020.2.10,MacIntel,60,61025ae37ef11b136ea224fe,,,,,,,,,2702,28,-64,1,0,0,response3disk,,4,25,6,1,0,0,rectangle,25,6,1,0,0,25,6,1,0,0,1,60,220,50,1,,,,,,,,
,,,,,,,,,,,,,FF,,,,,,,,1.483,,,,,,,,,,,,,,,,,,,,,,6103462a62215bc455f87411,61036a5e0a2c909979743125,2021-07-29_21h59.16.827,Simcolourproject_2stim_asymm_v5,2020.2.10,MacIntel,60,61025ae37ef11b136ea224fe,,,,,,,,,1002,93,-43,1,0,0,response3disk,,5,11,6,1,0,0,rectangle,11,6,1,0,0,11,6,1,0,0,1,61,221,64,1,,,,,,,,
,,,,,,,,,,,,,FF,,,,,,,,0.668,,,,,,,,,,,,,,,,,,,,,,6103462a62215bc455f87411,61036a5e0a2c909979743125,2021-07-29_21h59.16.827,Simcolourproject_2stim_asymm_v5,2020.2.10,MacIntel,60,61025ae37ef11b136ea224fe,,,,,,,,,1153,56,-21,1,0,0,response3disk,,5,19,-2,1,0,0,rectangle,19,-2,1,0,0,19,-2,1,0,0,1,62,222,156,1,,,,,,,,
,,,,,,,,,,,,,FF,,,,,,,,0.983,,,,,,,,,,,,,,,,,,,,,,6103462a62215bc455f87411,61036a5e0a2c909979743125,2021-07-29_21h59.16.827,Simcolourproject_2stim_asymm_v5,2020.2.10,MacIntel,60,61025ae37ef11b136ea224fe,,,,,,,,,997,30,-71,1,0,0,response3disk,,4,4,-6,1,0,0,rectangle,4,-6,1,0,0,4,-6,1,0,0,1,63,223,100,1,,,,,,,,
,,,,,,,,,,,,,FF,,,,,,,,0.784,,,,,,,,,,,,,,,,,,,,,,6103462a62215bc455f87411,61036a5e0a2c909979743125,2021-07-29_21h59.16.827,Simcolourproject_2stim_asymm_v5,2020.2.10,MacIntel,60,61025ae37ef11b136ea224fe,,,,,,,,,2268,72,-45,1,0,0,response3disk,,5,17,-11,1,0,0,rectangle,17,-11,1,0,0,17,-11,1,0,0,1,64,224,78,1,,,,,,,,
,,,,,,,,,,,,,FF,,,,,,,,0.518,,,,,,,,,,,,,,,,,,,,,,6103462a62215bc455f87411,61036a5e0a2c909979743125,2021-07-29_21h59.16.827,Simcolourproject_2stim_asymm_v5,2020.2.10,MacIntel,60,61025ae37ef11b136ea224fe,,,,,,,,,45,72,-56,1,0,0,response3disk,,5,11,0,1,0,0,rectangle,11,0,1,0,0,11,0,1,0,0,1,65,225,18,1,,,,,,,,
,,,,,,,,,,,,,FF,,,,,,,,0.934,,,,,,,,,,,,,,,,,,,,,,6103462a62215bc455f87411,61036a5e0a2c909979743125,2021-07-29_21h59.16.827,Simcolourproject_2stim_asymm_v5,2020.2.10,MacIntel,60,61025ae37ef11b136ea224fe,,,,,,,,,322,71,-42,1,0,0,response3disk,,5,6,9,1,0,0,rectangle,6,9,1,0,0,6,9,1,0,0,1,66,226,42,1,,,,,,,,
,,,,,,,,,,,,,FF,,,,,,,,1.285,,,,,,,,,,,,,,,,,,,,,,6103462a62215bc455f87411,61036a5e0a2c909979743125,2021-07-29_21h59.16.827,Simcolourproject_2stim_asymm_v5,2020.2.10,MacIntel,60,61025ae37ef11b136ea224fe,,,,,,,,,2214,61,-40,1,0,0,response3disk,,5,12,-10,1,0,0,rectangle,74,29,1,0,0,12,-2,1,0,0,1,67,227,118,1,,response1disk_3,TRUE,6,6,"[280,309,261,322,228,58,91,243,129,214,64,302,278,282,153,289,186,100,59,102]",1.749,rectangle
,,,,,,,,,,,,,FF,,,,,,,,0.816,,,,,,,,,,,,,,,,,,,,,,6103462a62215bc455f87411,61036a5e0a2c909979743125,2021-07-29_21h59.16.827,Simcolourproject_2stim_asymm_v5,2020.2.10,MacIntel,60,61025ae37ef11b136ea224fe,,,,,,,,,2816,68,-51,1,0,0,response3disk,,5,4,-8,1,0,0,rectangle,4,-8,1,0,0,4,-8,1,0,0,1,68,228,68,1,,,,,,,,
,,,,,,,,,,,,,FF,,,,,,,,0.9,,,,,,,,,,,,,,,,,,,,,,6103462a62215bc455f87411,61036a5e0a2c909979743125,2021-07-29_21h59.16.827,Simcolourproject_2stim_asymm_v5,2020.2.10,MacIntel,60,61025ae37ef11b136ea224fe,,,,,,,,,2613,30,-83,1,0,0,response3disk,,4,-6,-10,1,0,0,rectangle,-6,-10,1,0,0,-6,-10,1,0,0,1,69,229,17,1,,,,,,,,
,,,,,,,,,,,,,FF,,,,,,,,1.016,,,,,,,,,,,,,,,,,,,,,,6103462a62215bc455f87411,61036a5e0a2c909979743125,2021-07-29_21h59.16.827,Simcolourproject_2stim_asymm_v5,2020.2.10,MacIntel,60,61025ae37ef11b136ea224fe,,,,,,,,,1313,42,-89,1,0,0,response3disk,,4,13,-14,1,0,0,rectangle,13,-14,1,0,0,13,-14,1,0,0,1,70,230,92,1,,,,,,,,
,,,,,,,,,,,,,FF,,,,,,,,1.117,,,,,,,,,,,,,,,,,,,,,,6103462a62215bc455f87411,61036a5e0a2c909979743125,2021-07-29_21h59.16.827,Simcolourproject_2stim_asymm_v5,2020.2.10,MacIntel,60,61025ae37ef11b136ea224fe,,,,,,,,,829,72,-44,1,0,0,response3disk,,5,17,-3,1,0,0,rectangle,17,-3,1,0,0,17,-3,1,0,0,1,71,231,51,1,,,,,,,,
,,,,,,,,,,,,,FF,,,,,,,,1.114,,,,,,,,,,,,,,,,,,,,,,6103462a62215bc455f87411,61036a5e0a2c909979743125,2021-07-29_21h59.16.827,Simcolourproject_2stim_asymm_v5,2020.2.10,MacIntel,60,61025ae37ef11b136ea224fe,,,,,,,,,656,29,-87,1,0,0,response3disk,,4,2,-8,1,0,0,rectangle,2,-8,1,0,0,2,-8,1,0,0,1,72,232,63,1,,,,,,,,
,,,,,,,,,,,,,FF,,,,,,,,1.217,,,,,,,,,,,,,,,,,,,,,,6103462a62215bc455f87411,61036a5e0a2c909979743125,2021-07-29_21h59.16.827,Simcolourproject_2stim_asymm_v5,2020.2.10,MacIntel,60,61025ae37ef11b136ea224fe,,,,,,,,,1887,-68,-32,1,0,0,response5disk,,2,-8,-10,1,0,0,rectangle,-8,-10,1,0,0,-8,-10,1,0,0,1,73,233,81,1,,,,,,,,
,,,,,,,,,,,,,FF,,,,,,,,0.834,,,,,,,,,,,,,,,,,,,,,,6103462a62215bc455f87411,61036a5e0a2c909979743125,2021-07-29_21h59.16.827,Simcolourproject_2stim_asymm_v5,2020.2.10,MacIntel,60,61025ae37ef11b136ea224fe,,,,,,,,,2650,41,-77,1,0,0,response3disk,,4,21,-15,1,0,0,rectangle,21,-15,1,0,0,21,-15,1,0,0,1,74,234,93,1,,,,,,,,
,,,,,,,,,,,,,FF,,,,,,,,1.118,,,,,,,,,,,,,,,,,,,,,,6103462a62215bc455f87411,61036a5e0a2c909979743125,2021-07-29_21h59.16.827,Simcolourproject_2stim_asymm_v5,2020.2.10,MacIntel,60,61025ae37ef11b136ea224fe,,,,,,,,,704,62,-53,1,0,0,response3disk,,5,18,-10,1,0,0,rectangle,18,-10,1,0,0,18,-10,1,0,0,1,75,235,84,1,,,,,,,,
,,,,,,,,,,,,,FF,,,,,,,,0.684,,,,,,,,,,,,,,,,,,,,,,6103462a62215bc455f87411,61036a5e0a2c909979743125,2021-07-29_21h59.16.827,Simcolourproject_2stim_asymm_v5,2020.2.10,MacIntel,60,61025ae37ef11b136ea224fe,,,,,,,,,1777,48,-88,1,0,0,response3disk,,4,5,-5,1,0,0,rectangle,5,-5,1,0,0,5,-5,1,0,0,1,76,236,0,1,,,,,,,,
,,,,,,,,,,,,,FF,,,,,,,,0.751,,,,,,,,,,,,,,,,,,,,,,6103462a62215bc455f87411,61036a5e0a2c909979743125,2021-07-29_21h59.16.827,Simcolourproject_2stim_asymm_v5,2020.2.10,MacIntel,60,61025ae37ef11b136ea224fe,,,,,,,,,3575,78,-60,1,0,0,response3disk,,5,26,-8,1,0,0,rectangle,26,-8,1,0,0,26,-8,1,0,0,1,77,237,124,1,,,,,,,,
,,,,,,,,,,,,,FF,,,,,,,,0.717,,,,,,,,,,,,,,,,,,,,,,6103462a62215bc455f87411,61036a5e0a2c909979743125,2021-07-29_21h59.16.827,Simcolourproject_2stim_asymm_v5,2020.2.10,MacIntel,60,61025ae37ef11b136ea224fe,,,,,,,,,2245,73,-62,1,0,0,response3disk,,5,21,4,1,0,0,rectangle,21,4,1,0,0,21,4,1,0,0,1,78,238,142,1,,,,,,,,
,,,,,,,,,,,,,FF,,,,,,,,0.901,,,,,,,,,,,,,,,,,,,,,,6103462a62215bc455f87411,61036a5e0a2c909979743125,2021-07-29_21h59.16.827,Simcolourproject_2stim_asymm_v5,2020.2.10,MacIntel,60,61025ae37ef11b136ea224fe,,,,,,,,,4221,60,-89,1,0,0,response3disk,,4,27,-5,1,0,0,rectangle,27,-5,1,0,0,27,-5,1,0,0,1,79,239,147,1,,,,,,,,
,,,,,,,,,,,,,FF,,,,,,,,1.235,,,,,,,,,,,,,,,,,,,,,,6103462a62215bc455f87411,61036a5e0a2c909979743125,2021-07-29_21h59.16.827,Simcolourproject_2stim_asymm_v5,2020.2.10,MacIntel,60,61025ae37ef11b136ea224fe,,,,,,,,,3850,-70,-47,1,0,0,response5disk,,2,3,-11,1,0,0,rectangle,3,-11,1,0,0,3,-11,1,0,0,1,80,240,45,1,,,,,,,,
,,,,,,,,,,,,,FF,,,,,,,,2.233,,,,,,,,,,,,,,,,,,,,,,6103462a62215bc455f87411,61036a5e0a2c909979743125,2021-07-29_21h59.16.827,Simcolourproject_2stim_asymm_v5,2020.2.10,MacIntel,60,61025ae37ef11b136ea224fe,,,,,,,,,4170,-75,-33,1,0,0,response5disk,,2,-6,-8,1,0,0,rectangle,-6,-8,1,0,0,-6,-8,1,0,0,1,81,241,151,1,,,,,,,,
,,,,,,,,,,,,,FF,,,,,,,,0.816,,,,,,,,,,,,,,,,,,,,,,6103462a62215bc455f87411,61036a5e0a2c909979743125,2021-07-29_21h59.16.827,Simcolourproject_2stim_asymm_v5,2020.2.10,MacIntel,60,61025ae37ef11b136ea224fe,,,,,,,,,1492,109,-47,1,0,0,response3disk,,5,-1,-3,1,0,0,rectangle,29,109,1,0,0,4,-8,1,0,0,1,82,242,132,1,,response1disk_3,TRUE,7,7,"[280,309,261,322,228,58,91,243,129,214,64,302,278,282,153,289,186,100,59,102]",1.434,rectangle
,,,,,,,,,,,,,FF,,,,,,,,0.683,,,,,,,,,,,,,,,,,,,,,,6103462a62215bc455f87411,61036a5e0a2c909979743125,2021-07-29_21h59.16.827,Simcolourproject_2stim_asymm_v5,2020.2.10,MacIntel,60,61025ae37ef11b136ea224fe,,,,,,,,,3124,66,-54,1,0,0,response3disk,,5,20,-11,1,0,0,rectangle,20,-11,1,0,0,20,-11,1,0,0,1,83,243,21,1,,,,,,,,
,,,,,,,,,,,,,FF,,,,,,,,1.283,,,,,,,,,,,,,,,,,,,,,,6103462a62215bc455f87411,61036a5e0a2c909979743125,2021-07-29_21h59.16.827,Simcolourproject_2stim_asymm_v5,2020.2.10,MacIntel,60,61025ae37ef11b136ea224fe,,,,,,,,,94,-53,93,1,0,0,response7disk,,0,-13,-11,1,0,0,rectangle,-13,-11,1,0,0,-13,-11,1,0,0,1,84,244,23,1,,,,,,,,
,,,,,,,,,,,,,FF,,,,,,,,0.95,,,,,,,,,,,,,,,,,,,,,,6103462a62215bc455f87411,61036a5e0a2c909979743125,2021-07-29_21h59.16.827,Simcolourproject_2stim_asymm_v5,2020.2.10,MacIntel,60,61025ae37ef11b136ea224fe,,,,,,,,,2529,95,-59,1,0,0,response3disk,,5,2,-1,1,0,0,rectangle,2,-1,1,0,0,2,-1,1,0,0,1,85,245,136,1,,,,,,,,
,,,,,,,,,,,,,FF,,,,,,,,1.45,,,,,,,,,,,,,,,,,,,,,,6103462a62215bc455f87411,61036a5e0a2c909979743125,2021-07-29_21h59.16.827,Simcolourproject_2stim_asymm_v5,2020.2.10,MacIntel,60,61025ae37ef11b136ea224fe,,,,,,,,,2065,75,-38,1,0,0,response3disk,,5,23,8,1,0,0,rectangle,23,8,1,0,0,23,8,1,0,0,1,86,246,80,1,,,,,,,,
,,,,,,,,,,,,,FF,,,,,,,,1.017,,,,,,,,,,,,,,,,,,,,,,6103462a62215bc455f87411,61036a5e0a2c909979743125,2021-07-29_21h59.16.827,Simcolourproject_2stim_asymm_v5,2020.2.10,MacIntel,60,61025ae37ef11b136ea224fe,,,,,,,,,1395,44,-69,1,0,0,response3disk,,4,26,-15,1,0,0,rectangle,26,-15,1,0,0,26,-15,1,0,0,1,87,247,77,1,,,,,,,,
,,,,,,,,,,,,,FF,,,,,,,,0.801,,,,,,,,,,,,,,,,,,,,,,6103462a62215bc455f87411,61036a5e0a2c909979743125,2021-07-29_21h59.16.827,Simcolourproject_2stim_asymm_v5,2020.2.10,MacIntel,60,61025ae37ef11b136ea224fe,,,,,,,,,3035,65,-47,1,0,0,response3disk,,5,14,-3,1,0,0,rectangle,14,-3,1,0,0,14,-3,1,0,0,1,88,248,123,1,,,,,,,,
,,,,,,,,,,,,,FF,,,,,,,,0.983,,,,,,,,,,,,,,,,,,,,,,6103462a62215bc455f87411,61036a5e0a2c909979743125,2021-07-29_21h59.16.827,Simcolourproject_2stim_asymm_v5,2020.2.10,MacIntel,60,61025ae37ef11b136ea224fe,,,,,,,,,3278,85,-51,1,0,0,response3disk,,5,20,-1,1,0,0,rectangle,20,-1,1,0,0,20,-1,1,0,0,1,89,249,43,1,,,,,,,,
,,,,,,,,,,,,,FF,,,,,,,,1.216,,,,,,,,,,,,,,,,,,,,,,6103462a62215bc455f87411,61036a5e0a2c909979743125,2021-07-29_21h59.16.827,Simcolourproject_2stim_asymm_v5,2020.2.10,MacIntel,60,61025ae37ef11b136ea224fe,,,,,,,,,814,48,-89,1,0,0,response3disk,,4,18,-5,1,0,0,rectangle,18,-5,1,0,0,18,-5,1,0,0,1,90,250,129,1,,,,,,,,
,,,,,,,,,,,,,FF,,,,,,,,0.785,,,,,,,,,,,,,,,,,,,,,,6103462a62215bc455f87411,61036a5e0a2c909979743125,2021-07-29_21h59.16.827,Simcolourproject_2stim_asymm_v5,2020.2.10,MacIntel,60,61025ae37ef11b136ea224fe,,,,,,,,,1200,-30,-58,1,0,0,response5disk,,3,-20,-4,1,0,0,rectangle,-20,-4,1,0,0,-20,-4,1,0,0,1,91,251,28,1,,,,,,,,
,,,,,,,,,,,,,FF,,,,,,,,1.95,,,,,,,,,,,,,,,,,,,,,,6103462a62215bc455f87411,61036a5e0a2c909979743125,2021-07-29_21h59.16.827,Simcolourproject_2stim_asymm_v5,2020.2.10,MacIntel,60,61025ae37ef11b136ea224fe,,,,,,,,,925,88,34,1,0,0,response1disk,,6,15,-3,1,0,0,rectangle,15,-3,1,0,0,15,-3,1,0,0,1,92,252,135,1,,,,,,,,
,,,,,,,,,,,,,FF,,,,,,,,0.983,,,,,,,,,,,,,,,,,,,,,,6103462a62215bc455f87411,61036a5e0a2c909979743125,2021-07-29_21h59.16.827,Simcolourproject_2stim_asymm_v5,2020.2.10,MacIntel,60,61025ae37ef11b136ea224fe,,,,,,,,,102,48,-83,1,0,0,response3disk,,4,18,1,1,0,0,rectangle,18,1,1,0,0,18,1,1,0,0,1,93,253,33,1,,,,,,,,
,,,,,,,,,,,,,FF,,,,,,,,1.017,,,,,,,,,,,,,,,,,,,,,,6103462a62215bc455f87411,61036a5e0a2c909979743125,2021-07-29_21h59.16.827,Simcolourproject_2stim_asymm_v5,2020.2.10,MacIntel,60,61025ae37ef11b136ea224fe,,,,,,,,,378,-42,-87,1,0,0,response5disk,,3,-8,11,1,0,0,rectangle,-8,11,1,0,0,-8,11,1,0,0,1,94,254,128,1,,,,,,,,
,,,,,,,,,,,,,FF,,,,,,,,1.051,,,,,,,,,,,,,,,,,,,,,,6103462a62215bc455f87411,61036a5e0a2c909979743125,2021-07-29_21h59.16.827,Simcolourproject_2stim_asymm_v5,2020.2.10,MacIntel,60,61025ae37ef11b136ea224fe,,,,,,,,,4247,61,40,1,0,0,response1disk,,6,18,-1,1,0,0,rectangle,18,-1,1,0,0,18,-1,1,0,0,1,95,255,38,1,,,,,,,,
,,,,,,,,,,,,,FF,,,,,,,,1.25,,,,,,,,,,,,,,,,,,,,,,6103462a62215bc455f87411,61036a5e0a2c909979743125,2021-07-29_21h59.16.827,Simcolourproject_2stim_asymm_v5,2020.2.10,MacIntel,60,61025ae37ef11b136ea224fe,,,,,,,,,538,61,34,1,0,0,response1disk,,6,15,-1,1,0,0,rectangle,15,-1,1,0,0,15,-1,1,0,0,1,96,256,115,1,,,,,,,,
,,,,,,,,,,,,,FF,,,,,,,,1.534,,,,,,,,,,,,,,,,,,,,,,6103462a62215bc455f87411,61036a5e0a2c909979743125,2021-07-29_21h59.16.827,Simcolourproject_2stim_asymm_v5,2020.2.10,MacIntel,60,61025ae37ef11b136ea224fe,,,,,,,,,3332,79,-44,1,0,0,response3disk,,5,8,-5,1,0,0,rectangle,8,-5,1,0,0,8,-5,1,0,0,1,97,257,117,1,,,,,,,,
,,,,,,,,,,,,,FF,,,,,,,,1.467,,,,,,,,,,,,,,,,,,,,,,6103462a62215bc455f87411,61036a5e0a2c909979743125,2021-07-29_21h59.16.827,Simcolourproject_2stim_asymm_v5,2020.2.10,MacIntel,60,61025ae37ef11b136ea224fe,,,,,,,,,3098,-72,-45,1,0,0,response5disk,,2,17,-13,1,0,0,rectangle,17,-13,1,0,0,17,-13,1,0,0,1,98,258,110,1,,,,,,,,
,,,,,,,,,,,,,FF,,,,,,,,1.016,,,,,,,,,,,,,,,,,,,,,,6103462a62215bc455f87411,61036a5e0a2c909979743125,2021-07-29_21h59.16.827,Simcolourproject_2stim_asymm_v5,2020.2.10,MacIntel,60,61025ae37ef11b136ea224fe,,,,,,,,,3959,92,-49,1,0,0,response3disk,,5,26,-7,1,0,0,rectangle,26,-7,1,0,0,26,-7,1,0,0,1,99,259,109,1,,,,,,,,
,,,,,,,,,,,,,FF,,,,,,,,1.984,,,,,,,,,,,,,,,,,,,,,,6103462a62215bc455f87411,61036a5e0a2c909979743125,2021-07-29_21h59.16.827,Simcolourproject_2stim_asymm_v5,2020.2.10,MacIntel,60,61025ae37ef11b136ea224fe,,,,,,,,,2697,75,-50,1,0,0,response3disk,,5,22,-13,1,0,0,rectangle,-43,-104,1,0,0,6,-11,1,0,0,1,100,260,6,1,,response5disk_3,TRUE,3,3,"[280,309,261,322,228,58,91,243,129,214,64,302,278,282,153,289,186,100,59,102]",1.75,rectangle
,,,,,,,,,,,,,FF,,,,,,,,3.067,,,,,,,,,,,,,,,,,,,,,,6103462a62215bc455f87411,61036a5e0a2c909979743125,2021-07-29_21h59.16.827,Simcolourproject_2stim_asymm_v5,2020.2.10,MacIntel,60,61025ae37ef11b136ea224fe,,,,,,,,,859,93,-49,1,0,0,response3disk,,5,20,-6,1,0,0,rectangle,20,-6,1,0,0,20,-6,1,0,0,1,101,261,39,1,,,,,,,,
,,,,,,,,,,,,,FF,,,,,,,,0.967,,,,,,,,,,,,,,,,,,,,,,6103462a62215bc455f87411,61036a5e0a2c909979743125,2021-07-29_21h59.16.827,Simcolourproject_2stim_asymm_v5,2020.2.10,MacIntel,60,61025ae37ef11b136ea224fe,,,,,,,,,1275,58,-81,1,0,0,response3disk,,4,9,3,1,0,0,rectangle,9,3,1,0,0,9,3,1,0,0,1,102,262,54,1,,,,,,,,
,,,,,,,,,,,,,FF,,,,,,,,0.767,,,,,,,,,,,,,,,,,,,,,,6103462a62215bc455f87411,61036a5e0a2c909979743125,2021-07-29_21h59.16.827,Simcolourproject_2stim_asymm_v5,2020.2.10,MacIntel,60,61025ae37ef11b136ea224fe,,,,,,,,,1659,75,-42,1,0,0,response3disk,,5,16,-2,1,0,0,rectangle,16,-2,1,0,0,16,-2,1,0,0,1,103,263,120,1,,,,,,,,
,,,,,,,,,,,,,FF,,,,,,,,1.1,,,,,,,,,,,,,,,,,,,,,,6103462a62215bc455f87411,61036a5e0a2c909979743125,2021-07-29_21h59.16.827,Simcolourproject_2stim_asymm_v5,2020.2.10,MacIntel,60,61025ae37ef11b136ea224fe,,,,,,,,,1599,-39,-77,1,0,0,response5disk,,3,-21,-4,1,0,0,rectangle,-21,-4,1,0,0,-21,-4,1,0,0,1,104,264,31,1,,,,,,,,
,,,,,,,,,,,,,FF,,,,,,,,0.683,,,,,,,,,,,,,,,,,,,,,,6103462a62215bc455f87411,61036a5e0a2c909979743125,2021-07-29_21h59.16.827,Simcolourproject_2stim_asymm_v5,2020.2.10,MacIntel,60,61025ae37ef11b136ea224fe,,,,,,,,,341,93,-49,1,0,0,response3disk,,5,5,-12,1,0,0,rectangle,5,-12,1,0,0,5,-12,1,0,0,1,105,265,40,1,,,,,,,,
,,,,,,,,,,,,,FF,,,,,,,,0.666,,,,,,,,,,,,,,,,,,,,,,6103462a62215bc455f87411,61036a5e0a2c909979743125,2021-07-29_21h59.16.827,Simcolourproject_2stim_asymm_v5,2020.2.10,MacIntel,60,61025ae37ef11b136ea224fe,,,,,,,,,2147,74,-29,1,0,0,response3disk,,5,15,-7,1,0,0,rectangle,15,-7,1,0,0,15,-7,1,0,0,1,106,266,90,1,,,,,,,,
,,,,,,,,,,,,,FF,,,,,,,,0.667,,,,,,,,,,,,,,,,,,,,,,6103462a62215bc455f87411,61036a5e0a2c909979743125,2021-07-29_21h59.16.827,Simcolourproject_2stim_asymm_v5,2020.2.10,MacIntel,60,61025ae37ef11b136ea224fe,,,,,,,,,2089,96,31,1,0,0,response1disk,,6,6,4,1,0,0,rectangle,6,4,1,0,0,6,4,1,0,0,1,107,267,103,1,,,,,,,,
,,,,,,,,,,,,,FF,,,,,,,,2.017,,,,,,,,,,,,,,,,,,,,,,6103462a62215bc455f87411,61036a5e0a2c909979743125,2021-07-29_21h59.16.827,Simcolourproject_2stim_asymm_v5,2020.2.10,MacIntel,60,61025ae37ef11b136ea224fe,,,,,,,,,2087,-66,-81,1,0,0,response5disk,,3,-11,-6,1,0,0,rectangle,-11,-6,1,0,0,-11,-6,1,0,0,1,108,268,95,1,,,,,,,,
,,,,,,,,,,,,,FF,,,,,,,,0.9,,,,,,,,,,,,,,,,,,,,,,6103462a62215bc455f87411,61036a5e0a2c909979743125,2021-07-29_21h59.16.827,Simcolourproject_2stim_asymm_v5,2020.2.10,MacIntel,60,61025ae37ef11b136ea224fe,,,,,,,,,3553,-17,-100,1,0,0,response5disk,,3,12,4,1,0,0,rectangle,12,4,1,0,0,12,4,1,0,0,1,109,269,125,1,,,,,,,,
,,,,,,,,,,,,,FF,,,,,,,,0.849,,,,,,,,,,,,,,,,,,,,,,6103462a62215bc455f87411,61036a5e0a2c909979743125,2021-07-29_21h59.16.827,Simcolourproject_2stim_asymm_v5,2020.2.10,MacIntel,60,61025ae37ef11b136ea224fe,,,,,,,,,3696,84,-38,1,0,0,response3disk,,5,29,1,1,0,0,rectangle,29,1,1,0,0,29,1,1,0,0,1,110,270,154,1,,,,,,,,
,,,,,,,,,,,,,FF,,,,,,,,1.699,,,,,,,,,,,,,,,,,,,,,,6103462a62215bc455f87411,61036a5e0a2c909979743125,2021-07-29_21h59.16.827,Simcolourproject_2stim_asymm_v5,2020.2.10,MacIntel,60,61025ae37ef11b136ea224fe,,,,,,,,,3665,70,-40,1,0,0,response3disk,,5,11,-8,1,0,0,rectangle,11,-8,1,0,0,11,-8,1,0,0,1,111,271,157,1,,,,,,,,
,,,,,,,,,,,,,FF,,,,,,,,0.966,,,,,,,,,,,,,,,,,,,,,,6103462a62215bc455f87411,61036a5e0a2c909979743125,2021-07-29_21h59.16.827,Simcolourproject_2stim_asymm_v5,2020.2.10,MacIntel,60,61025ae37ef11b136ea224fe,,,,,,,,,960,100,-34,1,0,0,response3disk,,5,13,-2,1,0,0,rectangle,13,-2,1,0,0,13,-2,1,0,0,1,112,272,53,1,,,,,,,,
,,,,,,,,,,,,,FF,,,,,,,,1.149,,,,,,,,,,,,,,,,,,,,,,6103462a62215bc455f87411,61036a5e0a2c909979743125,2021-07-29_21h59.16.827,Simcolourproject_2stim_asymm_v5,2020.2.10,MacIntel,60,61025ae37ef11b136ea224fe,,,,,,,,,963,86,25,1,0,0,response1disk,,6,18,-7,1,0,0,rectangle,18,-7,1,0,0,18,-7,1,0,0,1,113,273,105,1,,,,,,,,
,,,,,,,,,,,,,FF,,,,,,,,1.766,,,,,,,,,,,,,,,,,,,,,,6103462a62215bc455f87411,61036a5e0a2c909979743125,2021-07-29_21h59.16.827,Simcolourproject_2stim_asymm_v5,2020.2.10,MacIntel,60,61025ae37ef11b136ea224fe,,,,,,,,,3549,-33,-98,1,0,0,response5disk,,3,-6,-14,1,0,0,rectangle,-6,-14,1,0,0,-6,-14,1,0,0,1,114,274,146,1,,,,,,,,
,,,,,,,,,,,,,FF,,,,,,,,2.483,,,,,,,,,,,,,,,,,,,,,,6103462a62215bc455f87411,61036a5e0a2c909979743125,2021-07-29_21h59.16.827,Simcolourproject_2stim_asymm_v5,2020.2.10,MacIntel,60,61025ae37ef11b136ea224fe,,,,,,,,,4060,52,-76,1,0,0,response3disk,,4,0,4,1,0,0,rectangle,0,4,1,0,0,0,4,1,0,0,1,115,275,127,1,,,,,,,,
,,,,,,,,,,,,,FF,,,,,,,,0.833,,,,,,,,,,,,,,,,,,,,,,6103462a62215bc455f87411,61036a5e0a2c909979743125,2021-07-29_21h59.16.827,Simcolourproject_2stim_asymm_v5,2020.2.10,MacIntel,60,61025ae37ef11b136ea224fe,,,,,,,,,3287,54,-87,1,0,0,response3disk,,4,14,2,1,0,0,rectangle,14,2,1,0,0,14,2,1,0,0,1,116,276,139,1,,,,,,,,
,,,,,,,,,,,,,FF,,,,,,,,1.1,,,,,,,,,,,,,,,,,,,,,,6103462a62215bc455f87411,61036a5e0a2c909979743125,2021-07-29_21h59.16.827,Simcolourproject_2stim_asymm_v5,2020.2.10,MacIntel,60,61025ae37ef11b136ea224fe,,,,,,,,,923,61,-48,1,0,0,response3disk,,5,7,-2,1,0,0,rectangle,30,68,1,0,0,10,-13,1,0,0,1,117,277,112,1,,response1disk_3,TRUE,7,7,"[280,309,261,322,228,58,91,243,129,214,64,302,278,282,153,289,186,100,59,102]",1.317,rectangle
,,,,,,,,,,,,,FF,,,,,,,,0.717,,,,,,,,,,,,,,,,,,,,,,6103462a62215bc455f87411,61036a5e0a2c909979743125,2021-07-29_21h59.16.827,Simcolourproject_2stim_asymm_v5,2020.2.10,MacIntel,60,61025ae37ef11b136ea224fe,,,,,,,,,1482,61,-28,1,0,0,response3disk,,5,5,-14,1,0,0,rectangle,5,-14,1,0,0,5,-14,1,0,0,1,118,278,159,1,,,,,,,,
,,,,,,,,,,,,,FF,,,,,,,,0.9,,,,,,,,,,,,,,,,,,,,,,6103462a62215bc455f87411,61036a5e0a2c909979743125,2021-07-29_21h59.16.827,Simcolourproject_2stim_asymm_v5,2020.2.10,MacIntel,60,61025ae37ef11b136ea224fe,,,,,,,,,769,47,-84,1,0,0,response3disk,,4,19,-13,1,0,0,rectangle,58,-94,1,0,0,-1,1,1,0,0,1,119,279,101,1,,response3disk_3,TRUE,4,4,"[280,309,261,322,228,58,91,243,129,214,64,302,278,282,153,289,186,100,59,102]",1.45,rectangle
,,,,,,,,,,,,,FF,,,,,,,,1.967,,,,,,,,,,,,,,,,,,,,,,6103462a62215bc455f87411,61036a5e0a2c909979743125,2021-07-29_21h59.16.827,Simcolourproject_2stim_asymm_v5,2020.2.10,MacIntel,60,61025ae37ef11b136ea224fe,,,,,,,,,4250,65,-40,1,0,0,response3disk,,5,7,-7,1,0,0,rectangle,7,-7,1,0,0,7,-7,1,0,0,1,120,280,150,1,,,,,,,,
,,,,,,,,,,,,,FF,,,,,,,,1.933,,,,,,,,,,,,,,,,,,,,,,6103462a62215bc455f87411,61036a5e0a2c909979743125,2021-07-29_21h59.16.827,Simcolourproject_2stim_asymm_v5,2020.2.10,MacIntel,60,61025ae37ef11b136ea224fe,,,,,,,,,4171,-30,-85,1,0,0,response5disk,,3,3,0,1,0,0,rectangle,-89,-39,1,0,0,-10,6,1,0,0,1,121,281,62,1,,response5disk_3,TRUE,2,2,"[280,309,261,322,228,58,91,243,129,214,64,302,278,282,153,289,186,100,59,102]",1.451,rectangle
,,,,,,,,,,,,,FF,,,,,,,,1.1,,,,,,,,,,,,,,,,,,,,,,6103462a62215bc455f87411,61036a5e0a2c909979743125,2021-07-29_21h59.16.827,Simcolourproject_2stim_asymm_v5,2020.2.10,MacIntel,60,61025ae37ef11b136ea224fe,,,,,,,,,2257,53,-87,1,0,0,response3disk,,4,17,-1,1,0,0,rectangle,17,-1,1,0,0,17,-1,1,0,0,1,122,282,69,1,,,,,,,,
,,,,,,,,,,,,,FF,,,,,,,,1.183,,,,,,,,,,,,,,,,,,,,,,6103462a62215bc455f87411,61036a5e0a2c909979743125,2021-07-29_21h59.16.827,Simcolourproject_2stim_asymm_v5,2020.2.10,MacIntel,60,61025ae37ef11b136ea224fe,,,,,,,,,3515,-24,-68,1,0,0,response5disk,,3,1,2,1,0,0,rectangle,1,2,1,0,0,1,2,1,0,0,1,123,283,134,1,,,,,,,,
,,,,,,,,,,,,,FF,,,,,,,,1.301,,,,,,,,,,,,,,,,,,,,,,6103462a62215bc455f87411,61036a5e0a2c909979743125,2021-07-29_21h59.16.827,Simcolourproject_2stim_asymm_v5,2020.2.10,MacIntel,60,61025ae37ef11b136ea224fe,,,,,,,,,39,64,-26,1,0,0,response3disk,,5,20,15,1,0,0,rectangle,20,15,1,0,0,20,15,1,0,0,1,124,284,73,1,,,,,,,,
,,,,,,,,,,,,,FF,,,,,,,,1.099,,,,,,,,,,,,,,,,,,,,,,6103462a62215bc455f87411,61036a5e0a2c909979743125,2021-07-29_21h59.16.827,Simcolourproject_2stim_asymm_v5,2020.2.10,MacIntel,60,61025ae37ef11b136ea224fe,,,,,,,,,252,79,27,1,0,0,response1disk,,6,2,4,1,0,0,rectangle,2,4,1,0,0,2,4,1,0,0,1,125,285,7,1,,,,,,,,
,,,,,,,,,,,,,FF,,,,,,,,2.55,,,,,,,,,,,,,,,,,,,,,,6103462a62215bc455f87411,61036a5e0a2c909979743125,2021-07-29_21h59.16.827,Simcolourproject_2stim_asymm_v5,2020.2.10,MacIntel,60,61025ae37ef11b136ea224fe,,,,,,,,,2113,-22,-79,1,0,0,response5disk,,3,-6,-9,1,0,0,rectangle,-6,-9,1,0,0,-6,-9,1,0,0,1,126,286,141,1,,,,,,,,
,,,,,,,,,,,,,FF,,,,,,,,0.883,,,,,,,,,,,,,,,,,,,,,,6103462a62215bc455f87411,61036a5e0a2c909979743125,2021-07-29_21h59.16.827,Simcolourproject_2stim_asymm_v5,2020.2.10,MacIntel,60,61025ae37ef11b136ea224fe,,,,,,,,,1131,-33,82,1,0,0,response7disk,,0,17,5,1,0,0,rectangle,17,5,1,0,0,17,5,1,0,0,1,127,287,82,1,,,,,,,,
,,,,,,,,,,,,,FF,,,,,,,,3.151,,,,,,,,,,,,,,,,,,,,,,6103462a62215bc455f87411,61036a5e0a2c909979743125,2021-07-29_21h59.16.827,Simcolourproject_2stim_asymm_v5,2020.2.10,MacIntel,60,61025ae37ef11b136ea224fe,,,,,,,,,1925,89,-57,1,0,0,response3disk,,5,12,-16,1,0,0,rectangle,77,-44,1,0,0,6,-6,1,0,0,1,128,288,107,1,,response3disk_3,TRUE,5,5,"[280,309,261,322,228,58,91,243,129,214,64,302,278,282,153,289,186,100,59,102]",1.3,rectangle
,,,,,,,,,,,,,FF,,,,,,,,2.252,,,,,,,,,,,,,,,,,,,,,,6103462a62215bc455f87411,61036a5e0a2c909979743125,2021-07-29_21h59.16.827,Simcolourproject_2stim_asymm_v5,2020.2.10,MacIntel,60,61025ae37ef11b136ea224fe,,,,,,,,,4272,96,-49,1,0,0,response3disk,,5,-1,-2,1,0,0,rectangle,-1,-2,1,0,0,-1,-2,1,0,0,1,129,289,88,1,,,,,,,,
,,,,,,,,,,,,,FF,,,,,,,,2.151,,,,,,,,,,,,,,,,,,,,,,6103462a62215bc455f87411,61036a5e0a2c909979743125,2021-07-29_21h59.16.827,Simcolourproject_2stim_asymm_v5,2020.2.10,MacIntel,60,61025ae37ef11b136ea224fe,,,,,,,,,3123,78,-46,1,0,0,response3disk,,5,13,11,1,0,0,rectangle,13,11,1,0,0,13,11,1,0,0,1,130,290,114,1,,,,,,,,
,,,,,,,,,,,,,FF,,,,,,,,0.849,,,,,,,,,,,,,,,,,,,,,,6103462a62215bc455f87411,61036a5e0a2c909979743125,2021-07-29_21h59.16.827,Simcolourproject_2stim_asymm_v5,2020.2.10,MacIntel,60,61025ae37ef11b136ea224fe,,,,,,,,,3339,48,-67,1,0,0,response3disk,,4,4,-7,1,0,0,rectangle,4,-7,1,0,0,4,-7,1,0,0,1,131,291,12,1,,,,,,,,
,,,,,,,,,,,,,FF,,,,,,,,1.233,,,,,,,,,,,,,,,,,,,,,,6103462a62215bc455f87411,61036a5e0a2c909979743125,2021-07-29_21h59.16.827,Simcolourproject_2stim_asymm_v5,2020.2.10,MacIntel,60,61025ae37ef11b136ea224fe,,,,,,,,,2894,-77,-51,1,0,0,response5disk,,2,-15,-7,1,0,0,rectangle,-15,-7,1,0,0,-15,-7,1,0,0,1,132,292,133,1,,,,,,,,
,,,,,,,,,,,,,FF,,,,,,,,1.951,,,,,,,,,,,,,,,,,,,,,,6103462a62215bc455f87411,61036a5e0a2c909979743125,2021-07-29_21h59.16.827,Simcolourproject_2stim_asymm_v5,2020.2.10,MacIntel,60,61025ae37ef11b136ea224fe,,,,,,,,,4114,45,-99,1,0,0,response3disk,,4,3,-7,1,0,0,rectangle,3,-7,1,0,0,3,-7,1,0,0,1,133,293,37,1,,,,,,,,
,,,,,,,,,,,,,FF,,,,,,,,2.399,,,,,,,,,,,,,,,,,,,,,,6103462a62215bc455f87411,61036a5e0a2c909979743125,2021-07-29_21h59.16.827,Simcolourproject_2stim_asymm_v5,2020.2.10,MacIntel,60,61025ae37ef11b136ea224fe,,,,,,,,,3649,53,-85,1,0,0,response3disk,,4,22,-5,1,0,0,rectangle,22,-5,1,0,0,22,-5,1,0,0,1,134,294,79,1,,,,,,,,
,,,,,,,,,,,,,FF,,,,,,,,0.851,,,,,,,,,,,,,,,,,,,,,,6103462a62215bc455f87411,61036a5e0a2c909979743125,2021-07-29_21h59.16.827,Simcolourproject_2stim_asymm_v5,2020.2.10,MacIntel,60,61025ae37ef11b136ea224fe,,,,,,,,,368,-45,-80,1,0,0,response5disk,,3,-21,-5,1,0,0,rectangle,-21,-5,1,0,0,-21,-5,1,0,0,1,135,295,108,1,,,,,,,,
,,,,,,,,,,,,,FF,,,,,,,,0.699,,,,,,,,,,,,,,,,,,,,,,6103462a62215bc455f87411,61036a5e0a2c909979743125,2021-07-29_21h59.16.827,Simcolourproject_2stim_asymm_v5,2020.2.10,MacIntel,60,61025ae37ef11b136ea224fe,,,,,,,,,504,72,-52,1,0,0,response3disk,,5,0,-7,1,0,0,rectangle,0,-7,1,0,0,0,-7,1,0,0,1,136,296,72,1,,,,,,,,
,,,,,,,,,,,,,FF,,,,,,,,0.933,,,,,,,,,,,,,,,,,,,,,,6103462a62215bc455f87411,61036a5e0a2c909979743125,2021-07-29_21h59.16.827,Simcolourproject_2stim_asymm_v5,2020.2.10,MacIntel,60,61025ae37ef11b136ea224fe,,,,,,,,,7,-28,-89,1,0,0,response5disk,,3,-10,-6,1,0,0,rectangle,-10,-6,1,0,0,-10,-6,1,0,0,1,137,297,16,1,,,,,,,,
,,,,,,,,,,,,,FF,,,,,,,,0.833,,,,,,,,,,,,,,,,,,,,,,6103462a62215bc455f87411,61036a5e0a2c909979743125,2021-07-29_21h59.16.827,Simcolourproject_2stim_asymm_v5,2020.2.10,MacIntel,60,61025ae37ef11b136ea224fe,,,,,,,,,971,-38,-76,1,0,0,response5disk,,3,-16,-6,1,0,0,rectangle,-16,-6,1,0,0,-16,-6,1,0,0,1,138,298,25,1,,,,,,,,
,,,,,,,,,,,,,FF,,,,,,,,0.951,,,,,,,,,,,,,,,,,,,,,,6103462a62215bc455f87411,61036a5e0a2c909979743125,2021-07-29_21h59.16.827,Simcolourproject_2stim_asymm_v5,2020.2.10,MacIntel,60,61025ae37ef11b136ea224fe,,,,,,,,,1944,74,-37,1,0,0,response3disk,,5,2,5,1,0,0,rectangle,2,5,1,0,0,2,5,1,0,0,1,139,299,86,1,,,,,,,,
,,,,,,,,,,,,,FF,,,,,,,,1.034,,,,,,,,,,,,,,,,,,,,,,6103462a62215bc455f87411,61036a5e0a2c909979743125,2021-07-29_21h59.16.827,Simcolourproject_2stim_asymm_v5,2020.2.10,MacIntel,60,61025ae37ef11b136ea224fe,,,,,,,,,4289,80,37,1,0,0,response1disk,,6,23,6,1,0,0,rectangle,23,6,1,0,0,23,6,1,0,0,1,140,300,96,1,,,,,,,,
