key_resp.keys,key_resp.rt,key_resp_14.keys,key_resp_14.rt,key_resp_15.keys,key_resp_15.rt,key_resp_17.keys,key_resp_17.rt,key_resp_9.keys,key_resp_9.rt,key_resp_10.keys,key_resp_10.rt,practice_comparison,Ecc,mouse_5.x,mouse_5.y,mouse_5.leftButton,mouse_5.midButton,mouse_5.rightButton,mouse_5.clicked_name,pracsimilarity,response_time,mouse_10.x,mouse_10.y,mouse_10.leftButton,mouse_10.midButton,mouse_10.rightButton,mouse_10.clicked_name,mouse_7.x,mouse_7.y,mouse_7.leftButton,mouse_7.midButton,mouse_7.rightButton,mouse_6.x,mouse_6.y,mouse_6.leftButton,mouse_6.midButton,mouse_6.rightButton,duringprac.thisRepN,duringprac.thisTrialN,duringprac.thisN,duringprac.thisIndex,duringprac.ran,participant,session,date,expName,psychopyVersion,OS,frameRate,study_id,mouse_7.clicked_name,catchpracsimilarity,catch_response_time,catchnumberprac,catchtrialorderprac,mouse_6.clicked_name,key_resp_22.keys,key_resp_22.rt,realcomparison,mouse.x,mouse.y,mouse.leftButton,mouse.midButton,mouse.rightButton,mouse.clicked_name,Colour2,similarity,mouse_2.x,mouse_2.y,mouse_2.leftButton,mouse_2.midButton,mouse_2.rightButton,mouse_2.clicked_name,mouse_3.x,mouse_3.y,mouse_3.leftButton,mouse_3.midButton,mouse_3.rightButton,mouse_11.x,mouse_11.y,mouse_11.leftButton,mouse_11.midButton,mouse_11.rightButton,trials_2.thisRepN,trials_2.thisTrialN,trials_2.thisN,trials_2.thisIndex,trials_2.ran,Colour1,mouse_3.clicked_name,catchornah,catchsimilarity,catchnumber,catchtrialorder,catchRT,mouse_11.clicked_name
space,1.2937,space,2.9522,space,18.2954,space,4.1043,space,0.0193,space,3.0691,6,FF,95,-62,1,0,0,response3disk_5,5,9.6522,15,-7,1,0,0,rectangle_8,15,-7,1,0,0,15,-7,1,0,0,0,0,0,3,1,61035e5f92396a346169f1b5,610369223c6d86eda699d859,2021-07-29_22h52.13.206,Simcolourproject_2stim_asymm_v5,2020.2.10,Win32,60,61025ae37ef11b136ea224fe,,,,,,,,,,,,,,,,,,,,,,,,,,,,,,,,,,,,,,,,,,,,,,
,,,,,,,,,,,,82,FF,41,91,1,0,0,response1disk_5,7,3.4741,-5,-13,1,0,0,rectangle_8,-60,81,1,0,0,-2,-8,1,0,0,0,1,1,5,1,61035e5f92396a346169f1b5,610369223c6d86eda699d859,2021-07-29_22h52.13.206,Simcolourproject_2stim_asymm_v5,2020.2.10,Win32,60,61025ae37ef11b136ea224fe,response7disk_7,0,3.1405,0,"[2,5]",rectangle_4,,,,,,,,,,,,,,,,,,,,,,,,,,,,,,,,,,,,,,,,
,,,,,,,,,,,,89,PF,96,56,1,0,0,response1disk_5,6,1.3533,11,-7,1,0,0,rectangle_8,11,-7,1,0,0,11,-7,1,0,0,0,2,2,6,1,61035e5f92396a346169f1b5,610369223c6d86eda699d859,2021-07-29_22h52.13.206,Simcolourproject_2stim_asymm_v5,2020.2.10,Win32,60,61025ae37ef11b136ea224fe,,,,,,,,,,,,,,,,,,,,,,,,,,,,,,,,,,,,,,,,,,,,,,
,,,,,,,,,,,,0,FF,-95,-42,1,0,0,response5disk_5,2,1.5185,21,6,1,0,0,rectangle_8,21,6,1,0,0,21,6,1,0,0,0,3,3,0,1,61035e5f92396a346169f1b5,610369223c6d86eda699d859,2021-07-29_22h52.13.206,Simcolourproject_2stim_asymm_v5,2020.2.10,Win32,60,61025ae37ef11b136ea224fe,,,,,,,,,,,,,,,,,,,,,,,,,,,,,,,,,,,,,,,,,,,,,,
,,,,,,,,,,,,159,PF,55,89,1,0,0,response1disk_5,7,1.4845,4,11,1,0,0,rectangle_8,-55,114,1,0,0,9,-16,1,0,0,0,4,4,2,1,61035e5f92396a346169f1b5,610369223c6d86eda699d859,2021-07-29_22h52.13.206,Simcolourproject_2stim_asymm_v5,2020.2.10,Win32,60,61025ae37ef11b136ea224fe,response7disk_7,0,2.9546,0,"[2,5]",rectangle_4,,,,,,,,,,,,,,,,,,,,,,,,,,,,,,,,,,,,,,,,
,,,,,,,,,,,,16,PF,-38,-117,1,0,0,response5disk_5,3,1.2845,1,6,1,0,0,rectangle_8,1,6,1,0,0,1,6,1,0,0,0,5,5,4,1,61035e5f92396a346169f1b5,610369223c6d86eda699d859,2021-07-29_22h52.13.206,Simcolourproject_2stim_asymm_v5,2020.2.10,Win32,60,61025ae37ef11b136ea224fe,,,,,,,,,,,,,,,,,,,,,,,,,,,,,,,,,,,,,,,,,,,,,,
,,,,,,,,,,,,37,PF,47,97,1,0,0,response1disk_5,7,1.101,8,1,1,0,0,rectangle_8,8,1,1,0,0,8,1,1,0,0,0,6,6,1,1,61035e5f92396a346169f1b5,610369223c6d86eda699d859,2021-07-29_22h52.13.206,Simcolourproject_2stim_asymm_v5,2020.2.10,Win32,60,61025ae37ef11b136ea224fe,,,,,,,,,,,,,,,,,,,,,,,,,,,,,,,,,,,,,,,,,,,,,,
,,,,,,,,,,,,,FF,,,,,,,,1.0671,,,,,,,,,,,,,,,,,,,,,,61035e5f92396a346169f1b5,610369223c6d86eda699d859,2021-07-29_22h52.13.206,Simcolourproject_2stim_asymm_v5,2020.2.10,Win32,60,61025ae37ef11b136ea224fe,,,,,,,space,1.912,2100,-78,-29,1,0,0,response5disk,,2,-14,-3,1,0,0,rectangle,-14,-3,1,0,0,-14,-3,1,0,0,0,0,0,10,1,,,,,,,,
,,,,,,,,,,,,,FF,,,,,,,,1.1477,,,,,,,,,,,,,,,,,,,,,,61035e5f92396a346169f1b5,610369223c6d86eda699d859,2021-07-29_22h52.13.206,Simcolourproject_2stim_asymm_v5,2020.2.10,Win32,60,61025ae37ef11b136ea224fe,,,,,,,,,1720,54,93,1,0,0,response1disk,,7,14,5,1,0,0,rectangle,14,5,1,0,0,14,5,1,0,0,0,1,1,63,1,,,,,,,,
,,,,,,,,,,,,,FF,,,,,,,,1.1666,,,,,,,,,,,,,,,,,,,,,,61035e5f92396a346169f1b5,610369223c6d86eda699d859,2021-07-29_22h52.13.206,Simcolourproject_2stim_asymm_v5,2020.2.10,Win32,60,61025ae37ef11b136ea224fe,,,,,,,,,650,54,-102,1,0,0,response3disk,,4,-3,7,1,0,0,rectangle,-3,7,1,0,0,-3,7,1,0,0,0,2,2,145,1,,,,,,,,
,,,,,,,,,,,,,FF,,,,,,,,1.6019,,,,,,,,,,,,,,,,,,,,,,61035e5f92396a346169f1b5,610369223c6d86eda699d859,2021-07-29_22h52.13.206,Simcolourproject_2stim_asymm_v5,2020.2.10,Win32,60,61025ae37ef11b136ea224fe,,,,,,,,,3002,-26,-120,1,0,0,response5disk,,3,4,2,1,0,0,rectangle,4,2,1,0,0,4,2,1,0,0,0,3,3,46,1,,,,,,,,
,,,,,,,,,,,,,FF,,,,,,,,0.9194,,,,,,,,,,,,,,,,,,,,,,61035e5f92396a346169f1b5,610369223c6d86eda699d859,2021-07-29_22h52.13.206,Simcolourproject_2stim_asymm_v5,2020.2.10,Win32,60,61025ae37ef11b136ea224fe,,,,,,,,,4084,-61,-100,1,0,0,response5disk,,3,-5,7,1,0,0,rectangle,-5,7,1,0,0,-5,7,1,0,0,0,4,4,138,1,,,,,,,,
,,,,,,,,,,,,,FF,,,,,,,,1.082,,,,,,,,,,,,,,,,,,,,,,61035e5f92396a346169f1b5,610369223c6d86eda699d859,2021-07-29_22h52.13.206,Simcolourproject_2stim_asymm_v5,2020.2.10,Win32,60,61025ae37ef11b136ea224fe,,,,,,,,,3362,94,47,1,0,0,response1disk,,6,7,9,1,0,0,rectangle,7,9,1,0,0,7,9,1,0,0,0,5,5,159,1,,,,,,,,
,,,,,,,,,,,,,FF,,,,,,,,0.8673,,,,,,,,,,,,,,,,,,,,,,61035e5f92396a346169f1b5,610369223c6d86eda699d859,2021-07-29_22h52.13.206,Simcolourproject_2stim_asymm_v5,2020.2.10,Win32,60,61025ae37ef11b136ea224fe,,,,,,,,,1417,124,56,1,0,0,response1disk,,6,17,-7,1,0,0,rectangle,17,-7,1,0,0,17,-7,1,0,0,0,6,6,102,1,,,,,,,,
,,,,,,,,,,,,,FF,,,,,,,,1.2349,,,,,,,,,,,,,,,,,,,,,,61035e5f92396a346169f1b5,610369223c6d86eda699d859,2021-07-29_22h52.13.206,Simcolourproject_2stim_asymm_v5,2020.2.10,Win32,60,61025ae37ef11b136ea224fe,,,,,,,,,3643,106,42,1,0,0,response1disk,,6,11,-9,1,0,0,rectangle,11,-9,1,0,0,11,-9,1,0,0,0,7,7,83,1,,,,,,,,
,,,,,,,,,,,,,FF,,,,,,,,1.1019,,,,,,,,,,,,,,,,,,,,,,61035e5f92396a346169f1b5,610369223c6d86eda699d859,2021-07-29_22h52.13.206,Simcolourproject_2stim_asymm_v5,2020.2.10,Win32,60,61025ae37ef11b136ea224fe,,,,,,,,,3521,63,-115,1,0,0,response3disk,,4,-3,4,1,0,0,rectangle,-3,4,1,0,0,-3,4,1,0,0,0,8,8,66,1,,,,,,,,
,,,,,,,,,,,,,FF,,,,,,,,1.1485,,,,,,,,,,,,,,,,,,,,,,61035e5f92396a346169f1b5,610369223c6d86eda699d859,2021-07-29_22h52.13.206,Simcolourproject_2stim_asymm_v5,2020.2.10,Win32,60,61025ae37ef11b136ea224fe,,,,,,,,,1973,-79,-50,1,0,0,response5disk,,2,-17,-9,1,0,0,rectangle,-17,-9,1,0,0,-17,-9,1,0,0,0,9,9,42,1,,,,,,,,
,,,,,,,,,,,,,FF,,,,,,,,1.1688,,,,,,,,,,,,,,,,,,,,,,61035e5f92396a346169f1b5,610369223c6d86eda699d859,2021-07-29_22h52.13.206,Simcolourproject_2stim_asymm_v5,2020.2.10,Win32,60,61025ae37ef11b136ea224fe,,,,,,,,,1324,109,-41,1,0,0,response3disk,,5,-4,-4,1,0,0,rectangle,-4,-4,1,0,0,-4,-4,1,0,0,0,10,10,96,1,,,,,,,,
,,,,,,,,,,,,,FF,,,,,,,,0.9846,,,,,,,,,,,,,,,,,,,,,,61035e5f92396a346169f1b5,610369223c6d86eda699d859,2021-07-29_22h52.13.206,Simcolourproject_2stim_asymm_v5,2020.2.10,Win32,60,61025ae37ef11b136ea224fe,,,,,,,,,4225,-81,62,1,0,0,response7disk,,1,16,-10,1,0,0,rectangle,-29,-92,1,0,0,24,12,1,0,0,0,11,11,28,1,,response5disk_3,TRUE,3,3,"[280,230,68,237,261,313,297,178,114,66,211,81,215,70,126,66,12,231,122,63]",2.5529,rectangle
,,,,,,,,,,,,,FF,,,,,,,,1.1017,,,,,,,,,,,,,,,,,,,,,,61035e5f92396a346169f1b5,610369223c6d86eda699d859,2021-07-29_22h52.13.206,Simcolourproject_2stim_asymm_v5,2020.2.10,Win32,60,61025ae37ef11b136ea224fe,,,,,,,,,3321,118,-46,1,0,0,response3disk,,5,18,5,1,0,0,rectangle,18,5,1,0,0,18,5,1,0,0,0,12,12,86,1,,,,,,,,
,,,,,,,,,,,,,FF,,,,,,,,0.9823,,,,,,,,,,,,,,,,,,,,,,61035e5f92396a346169f1b5,610369223c6d86eda699d859,2021-07-29_22h52.13.206,Simcolourproject_2stim_asymm_v5,2020.2.10,Win32,60,61025ae37ef11b136ea224fe,,,,,,,,,721,-72,-44,1,0,0,response5disk,,2,-4,1,1,0,0,rectangle,-4,1,1,0,0,-4,1,1,0,0,0,13,13,61,1,,,,,,,,
,,,,,,,,,,,,,FF,,,,,,,,0.8684,,,,,,,,,,,,,,,,,,,,,,61035e5f92396a346169f1b5,610369223c6d86eda699d859,2021-07-29_22h52.13.206,Simcolourproject_2stim_asymm_v5,2020.2.10,Win32,60,61025ae37ef11b136ea224fe,,,,,,,,,2823,-87,-45,1,0,0,response5disk,,2,0,0,1,0,0,rectangle,0,0,1,0,0,0,0,1,0,0,0,14,14,92,1,,,,,,,,
,,,,,,,,,,,,,FF,,,,,,,,0.8004,,,,,,,,,,,,,,,,,,,,,,61035e5f92396a346169f1b5,610369223c6d86eda699d859,2021-07-29_22h52.13.206,Simcolourproject_2stim_asymm_v5,2020.2.10,Win32,60,61025ae37ef11b136ea224fe,,,,,,,,,788,-55,-96,1,0,0,response5disk,,3,13,1,1,0,0,rectangle,13,1,1,0,0,13,1,1,0,0,0,15,15,15,1,,,,,,,,
,,,,,,,,,,,,,FF,,,,,,,,0.8343,,,,,,,,,,,,,,,,,,,,,,61035e5f92396a346169f1b5,610369223c6d86eda699d859,2021-07-29_22h52.13.206,Simcolourproject_2stim_asymm_v5,2020.2.10,Win32,60,61025ae37ef11b136ea224fe,,,,,,,,,2954,-39,-102,1,0,0,response5disk,,3,16,11,1,0,0,rectangle,16,11,1,0,0,16,11,1,0,0,0,16,16,149,1,,,,,,,,
,,,,,,,,,,,,,FF,,,,,,,,0.8509,,,,,,,,,,,,,,,,,,,,,,61035e5f92396a346169f1b5,610369223c6d86eda699d859,2021-07-29_22h52.13.206,Simcolourproject_2stim_asymm_v5,2020.2.10,Win32,60,61025ae37ef11b136ea224fe,,,,,,,,,3880,-41,-103,1,0,0,response5disk,,3,14,-2,1,0,0,rectangle,14,-2,1,0,0,14,-2,1,0,0,0,17,17,48,1,,,,,,,,
,,,,,,,,,,,,,FF,,,,,,,,0.8125,,,,,,,,,,,,,,,,,,,,,,61035e5f92396a346169f1b5,610369223c6d86eda699d859,2021-07-29_22h52.13.206,Simcolourproject_2stim_asymm_v5,2020.2.10,Win32,60,61025ae37ef11b136ea224fe,,,,,,,,,2006,58,100,1,0,0,response1disk,,7,0,12,1,0,0,rectangle,0,12,1,0,0,0,12,1,0,0,0,18,18,81,1,,,,,,,,
,,,,,,,,,,,,,FF,,,,,,,,1.2179,,,,,,,,,,,,,,,,,,,,,,61035e5f92396a346169f1b5,610369223c6d86eda699d859,2021-07-29_22h52.13.206,Simcolourproject_2stim_asymm_v5,2020.2.10,Win32,60,61025ae37ef11b136ea224fe,,,,,,,,,2044,66,-103,1,0,0,response3disk,,4,14,3,1,0,0,rectangle,14,3,1,0,0,14,3,1,0,0,0,19,19,74,1,,,,,,,,
,,,,,,,,,,,,,FF,,,,,,,,0.8858,,,,,,,,,,,,,,,,,,,,,,61035e5f92396a346169f1b5,610369223c6d86eda699d859,2021-07-29_22h52.13.206,Simcolourproject_2stim_asymm_v5,2020.2.10,Win32,60,61025ae37ef11b136ea224fe,,,,,,,,,4168,-75,34,1,0,0,response7disk,,1,2,3,1,0,0,rectangle,2,3,1,0,0,2,3,1,0,0,0,20,20,51,1,,,,,,,,
,,,,,,,,,,,,,FF,,,,,,,,1.7206,,,,,,,,,,,,,,,,,,,,,,61035e5f92396a346169f1b5,610369223c6d86eda699d859,2021-07-29_22h52.13.206,Simcolourproject_2stim_asymm_v5,2020.2.10,Win32,60,61025ae37ef11b136ea224fe,,,,,,,,,1680,-33,-100,1,0,0,response5disk,,3,7,-1,1,0,0,rectangle,7,-1,1,0,0,7,-1,1,0,0,0,21,21,141,1,,,,,,,,
,,,,,,,,,,,,,FF,,,,,,,,0.817,,,,,,,,,,,,,,,,,,,,,,61035e5f92396a346169f1b5,610369223c6d86eda699d859,2021-07-29_22h52.13.206,Simcolourproject_2stim_asymm_v5,2020.2.10,Win32,60,61025ae37ef11b136ea224fe,,,,,,,,,1944,115,31,1,0,0,response1disk,,6,-18,7,1,0,0,rectangle,-18,7,1,0,0,-18,7,1,0,0,0,22,22,22,1,,,,,,,,
,,,,,,,,,,,,,FF,,,,,,,,0.9177,,,,,,,,,,,,,,,,,,,,,,61035e5f92396a346169f1b5,610369223c6d86eda699d859,2021-07-29_22h52.13.206,Simcolourproject_2stim_asymm_v5,2020.2.10,Win32,60,61025ae37ef11b136ea224fe,,,,,,,,,227,87,-34,1,0,0,response3disk,,5,15,12,1,0,0,rectangle,15,12,1,0,0,15,12,1,0,0,0,23,23,88,1,,,,,,,,
,,,,,,,,,,,,,FF,,,,,,,,0.9049,,,,,,,,,,,,,,,,,,,,,,61035e5f92396a346169f1b5,610369223c6d86eda699d859,2021-07-29_22h52.13.206,Simcolourproject_2stim_asymm_v5,2020.2.10,Win32,60,61025ae37ef11b136ea224fe,,,,,,,,,3119,81,44,1,0,0,response1disk,,6,10,3,1,0,0,rectangle,10,3,1,0,0,10,3,1,0,0,0,24,24,109,1,,,,,,,,
,,,,,,,,,,,,,FF,,,,,,,,1.0012,,,,,,,,,,,,,,,,,,,,,,61035e5f92396a346169f1b5,610369223c6d86eda699d859,2021-07-29_22h52.13.206,Simcolourproject_2stim_asymm_v5,2020.2.10,Win32,60,61025ae37ef11b136ea224fe,,,,,,,,,2665,93,-39,1,0,0,response3disk,,5,-2,2,1,0,0,rectangle,-2,2,1,0,0,-2,2,1,0,0,0,25,25,122,1,,,,,,,,
,,,,,,,,,,,,,FF,,,,,,,,1.2016,,,,,,,,,,,,,,,,,,,,,,61035e5f92396a346169f1b5,610369223c6d86eda699d859,2021-07-29_22h52.13.206,Simcolourproject_2stim_asymm_v5,2020.2.10,Win32,60,61025ae37ef11b136ea224fe,,,,,,,,,2023,118,-35,1,0,0,response3disk,,5,10,5,1,0,0,rectangle,10,5,1,0,0,10,5,1,0,0,0,26,26,56,1,,,,,,,,
,,,,,,,,,,,,,FF,,,,,,,,1.2017,,,,,,,,,,,,,,,,,,,,,,61035e5f92396a346169f1b5,610369223c6d86eda699d859,2021-07-29_22h52.13.206,Simcolourproject_2stim_asymm_v5,2020.2.10,Win32,60,61025ae37ef11b136ea224fe,,,,,,,,,3394,-30,-95,1,0,0,response5disk,,3,2,-1,1,0,0,rectangle,2,-1,1,0,0,2,-1,1,0,0,0,27,27,131,1,,,,,,,,
,,,,,,,,,,,,,FF,,,,,,,,0.8684,,,,,,,,,,,,,,,,,,,,,,61035e5f92396a346169f1b5,610369223c6d86eda699d859,2021-07-29_22h52.13.206,Simcolourproject_2stim_asymm_v5,2020.2.10,Win32,60,61025ae37ef11b136ea224fe,,,,,,,,,1677,-81,37,1,0,0,response7disk,,1,3,1,1,0,0,rectangle,3,1,1,0,0,3,1,1,0,0,0,28,28,11,1,,,,,,,,
,,,,,,,,,,,,,FF,,,,,,,,1.2349,,,,,,,,,,,,,,,,,,,,,,61035e5f92396a346169f1b5,610369223c6d86eda699d859,2021-07-29_22h52.13.206,Simcolourproject_2stim_asymm_v5,2020.2.10,Win32,60,61025ae37ef11b136ea224fe,,,,,,,,,3454,111,49,1,0,0,response1disk,,6,-16,14,1,0,0,rectangle,-16,14,1,0,0,-16,14,1,0,0,0,29,29,60,1,,,,,,,,
,,,,,,,,,,,,,FF,,,,,,,,0.6675,,,,,,,,,,,,,,,,,,,,,,61035e5f92396a346169f1b5,610369223c6d86eda699d859,2021-07-29_22h52.13.206,Simcolourproject_2stim_asymm_v5,2020.2.10,Win32,60,61025ae37ef11b136ea224fe,,,,,,,,,1448,64,-101,1,0,0,response3disk,,4,11,4,1,0,0,rectangle,11,4,1,0,0,11,4,1,0,0,0,30,30,87,1,,,,,,,,
,,,,,,,,,,,,,FF,,,,,,,,0.8185,,,,,,,,,,,,,,,,,,,,,,61035e5f92396a346169f1b5,610369223c6d86eda699d859,2021-07-29_22h52.13.206,Simcolourproject_2stim_asymm_v5,2020.2.10,Win32,60,61025ae37ef11b136ea224fe,,,,,,,,,437,-95,-30,1,0,0,response5disk,,2,0,6,1,0,0,rectangle,0,6,1,0,0,0,6,1,0,0,0,31,31,67,1,,,,,,,,
,,,,,,,,,,,,,FF,,,,,,,,0.8341,,,,,,,,,,,,,,,,,,,,,,61035e5f92396a346169f1b5,610369223c6d86eda699d859,2021-07-29_22h52.13.206,Simcolourproject_2stim_asymm_v5,2020.2.10,Win32,60,61025ae37ef11b136ea224fe,,,,,,,,,1016,64,95,1,0,0,response1disk,,7,9,1,1,0,0,rectangle,9,1,1,0,0,9,1,1,0,0,0,32,32,137,1,,,,,,,,
,,,,,,,,,,,,,FF,,,,,,,,0.9847,,,,,,,,,,,,,,,,,,,,,,61035e5f92396a346169f1b5,610369223c6d86eda699d859,2021-07-29_22h52.13.206,Simcolourproject_2stim_asymm_v5,2020.2.10,Win32,60,61025ae37ef11b136ea224fe,,,,,,,,,904,32,96,1,0,0,response1disk,,7,-11,-4,1,0,0,rectangle,-11,-4,1,0,0,-11,-4,1,0,0,0,33,33,12,1,,,,,,,,
,,,,,,,,,,,,,FF,,,,,,,,2.5558,,,,,,,,,,,,,,,,,,,,,,61035e5f92396a346169f1b5,610369223c6d86eda699d859,2021-07-29_22h52.13.206,Simcolourproject_2stim_asymm_v5,2020.2.10,Win32,60,61025ae37ef11b136ea224fe,,,,,,,,,1695,100,35,1,0,0,response1disk,,6,-6,12,1,0,0,rectangle,-6,12,1,0,0,-6,12,1,0,0,0,34,34,65,1,,,,,,,,
,,,,,,,,,,,,,FF,,,,,,,,0.9685,,,,,,,,,,,,,,,,,,,,,,61035e5f92396a346169f1b5,610369223c6d86eda699d859,2021-07-29_22h52.13.206,Simcolourproject_2stim_asymm_v5,2020.2.10,Win32,60,61025ae37ef11b136ea224fe,,,,,,,,,2481,-83,-59,1,0,0,response5disk,,2,18,2,1,0,0,rectangle,18,2,1,0,0,18,2,1,0,0,0,35,35,113,1,,,,,,,,
,,,,,,,,,,,,,FF,,,,,,,,0.9187,,,,,,,,,,,,,,,,,,,,,,61035e5f92396a346169f1b5,610369223c6d86eda699d859,2021-07-29_22h52.13.206,Simcolourproject_2stim_asymm_v5,2020.2.10,Win32,60,61025ae37ef11b136ea224fe,,,,,,,,,3623,58,-106,1,0,0,response3disk,,4,-11,11,1,0,0,rectangle,-11,11,1,0,0,-11,11,1,0,0,0,36,36,50,1,,,,,,,,
,,,,,,,,,,,,,FF,,,,,,,,0.6835,,,,,,,,,,,,,,,,,,,,,,61035e5f92396a346169f1b5,610369223c6d86eda699d859,2021-07-29_22h52.13.206,Simcolourproject_2stim_asymm_v5,2020.2.10,Win32,60,61025ae37ef11b136ea224fe,,,,,,,,,48,64,95,1,0,0,response1disk,,7,-4,13,1,0,0,rectangle,-4,13,1,0,0,-4,13,1,0,0,0,37,37,58,1,,,,,,,,
,,,,,,,,,,,,,FF,,,,,,,,1.1015,,,,,,,,,,,,,,,,,,,,,,61035e5f92396a346169f1b5,610369223c6d86eda699d859,2021-07-29_22h52.13.206,Simcolourproject_2stim_asymm_v5,2020.2.10,Win32,60,61025ae37ef11b136ea224fe,,,,,,,,,1983,83,-49,1,0,0,response3disk,,5,-9,12,1,0,0,rectangle,-9,12,1,0,0,-9,12,1,0,0,0,38,38,59,1,,,,,,,,
,,,,,,,,,,,,,FF,,,,,,,,0.8013,,,,,,,,,,,,,,,,,,,,,,61035e5f92396a346169f1b5,610369223c6d86eda699d859,2021-07-29_22h52.13.206,Simcolourproject_2stim_asymm_v5,2020.2.10,Win32,60,61025ae37ef11b136ea224fe,,,,,,,,,4048,50,-105,1,0,0,response3disk,,4,14,1,1,0,0,rectangle,14,1,1,0,0,14,1,1,0,0,0,39,39,157,1,,,,,,,,
,,,,,,,,,,,,,FF,,,,,,,,0.7169,,,,,,,,,,,,,,,,,,,,,,61035e5f92396a346169f1b5,610369223c6d86eda699d859,2021-07-29_22h52.13.206,Simcolourproject_2stim_asymm_v5,2020.2.10,Win32,60,61025ae37ef11b136ea224fe,,,,,,,,,188,-96,-38,1,0,0,response5disk,,2,-23,-2,1,0,0,rectangle,-23,-2,1,0,0,-23,-2,1,0,0,0,40,40,104,1,,,,,,,,
,,,,,,,,,,,,,FF,,,,,,,,0.7016,,,,,,,,,,,,,,,,,,,,,,61035e5f92396a346169f1b5,610369223c6d86eda699d859,2021-07-29_22h52.13.206,Simcolourproject_2stim_asymm_v5,2020.2.10,Win32,60,61025ae37ef11b136ea224fe,,,,,,,,,1313,99,38,1,0,0,response1disk,,6,-4,3,1,0,0,rectangle,-4,3,1,0,0,-4,3,1,0,0,0,41,41,128,1,,,,,,,,
,,,,,,,,,,,,,FF,,,,,,,,0.7183,,,,,,,,,,,,,,,,,,,,,,61035e5f92396a346169f1b5,610369223c6d86eda699d859,2021-07-29_22h52.13.206,Simcolourproject_2stim_asymm_v5,2020.2.10,Win32,60,61025ae37ef11b136ea224fe,,,,,,,,,2643,95,45,1,0,0,response1disk,,6,27,-2,1,0,0,rectangle,27,-2,1,0,0,27,-2,1,0,0,0,42,42,97,1,,,,,,,,
,,,,,,,,,,,,,FF,,,,,,,,0.7352,,,,,,,,,,,,,,,,,,,,,,61035e5f92396a346169f1b5,610369223c6d86eda699d859,2021-07-29_22h52.13.206,Simcolourproject_2stim_asymm_v5,2020.2.10,Win32,60,61025ae37ef11b136ea224fe,,,,,,,,,570,106,64,1,0,0,response1disk,,6,12,1,1,0,0,rectangle,12,1,1,0,0,12,1,1,0,0,0,43,43,90,1,,,,,,,,
,,,,,,,,,,,,,FF,,,,,,,,0.7018,,,,,,,,,,,,,,,,,,,,,,61035e5f92396a346169f1b5,610369223c6d86eda699d859,2021-07-29_22h52.13.206,Simcolourproject_2stim_asymm_v5,2020.2.10,Win32,60,61025ae37ef11b136ea224fe,,,,,,,,,1532,84,-42,1,0,0,response3disk,,5,-3,4,1,0,0,rectangle,-3,4,1,0,0,-3,4,1,0,0,0,44,44,129,1,,,,,,,,
,,,,,,,,,,,,,FF,,,,,,,,0.7501,,,,,,,,,,,,,,,,,,,,,,61035e5f92396a346169f1b5,610369223c6d86eda699d859,2021-07-29_22h52.13.206,Simcolourproject_2stim_asymm_v5,2020.2.10,Win32,60,61025ae37ef11b136ea224fe,,,,,,,,,1918,90,-59,1,0,0,response3disk,,5,22,-10,1,0,0,rectangle,22,-10,1,0,0,22,-10,1,0,0,0,45,45,38,1,,,,,,,,
,,,,,,,,,,,,,FF,,,,,,,,0.8527,,,,,,,,,,,,,,,,,,,,,,61035e5f92396a346169f1b5,610369223c6d86eda699d859,2021-07-29_22h52.13.206,Simcolourproject_2stim_asymm_v5,2020.2.10,Win32,60,61025ae37ef11b136ea224fe,,,,,,,,,806,-36,-96,1,0,0,response5disk,,3,-1,19,1,0,0,rectangle,-1,19,1,0,0,-1,19,1,0,0,0,46,46,99,1,,,,,,,,
,,,,,,,,,,,,,FF,,,,,,,,1.1524,,,,,,,,,,,,,,,,,,,,,,61035e5f92396a346169f1b5,610369223c6d86eda699d859,2021-07-29_22h52.13.206,Simcolourproject_2stim_asymm_v5,2020.2.10,Win32,60,61025ae37ef11b136ea224fe,,,,,,,,,468,66,-110,1,0,0,response3disk,,4,10,12,1,0,0,rectangle,10,12,1,0,0,10,12,1,0,0,0,47,47,13,1,,,,,,,,
,,,,,,,,,,,,,FF,,,,,,,,0.8685,,,,,,,,,,,,,,,,,,,,,,61035e5f92396a346169f1b5,610369223c6d86eda699d859,2021-07-29_22h52.13.206,Simcolourproject_2stim_asymm_v5,2020.2.10,Win32,60,61025ae37ef11b136ea224fe,,,,,,,,,2294,94,65,1,0,0,response1disk,,6,-8,-10,1,0,0,rectangle,-8,-10,1,0,0,-8,-10,1,0,0,0,48,48,103,1,,,,,,,,
,,,,,,,,,,,,,FF,,,,,,,,1.1197,,,,,,,,,,,,,,,,,,,,,,61035e5f92396a346169f1b5,610369223c6d86eda699d859,2021-07-29_22h52.13.206,Simcolourproject_2stim_asymm_v5,2020.2.10,Win32,60,61025ae37ef11b136ea224fe,,,,,,,,,923,94,-31,1,0,0,response3disk,,5,-7,2,1,0,0,rectangle,-7,2,1,0,0,-7,2,1,0,0,0,49,49,6,1,,,,,,,,
,,,,,,,,,,,,,FF,,,,,,,,0.9182,,,,,,,,,,,,,,,,,,,,,,61035e5f92396a346169f1b5,610369223c6d86eda699d859,2021-07-29_22h52.13.206,Simcolourproject_2stim_asymm_v5,2020.2.10,Win32,60,61025ae37ef11b136ea224fe,,,,,,,,,2046,49,-97,1,0,0,response3disk,,4,13,5,1,0,0,rectangle,13,5,1,0,0,13,5,1,0,0,0,50,50,4,1,,,,,,,,
,,,,,,,,,,,,,FF,,,,,,,,0.6671,,,,,,,,,,,,,,,,,,,,,,61035e5f92396a346169f1b5,610369223c6d86eda699d859,2021-07-29_22h52.13.206,Simcolourproject_2stim_asymm_v5,2020.2.10,Win32,60,61025ae37ef11b136ea224fe,,,,,,,,,860,50,-107,1,0,0,response3disk,,4,15,-5,1,0,0,rectangle,15,-5,1,0,0,15,-5,1,0,0,0,51,51,84,1,,,,,,,,
,,,,,,,,,,,,,FF,,,,,,,,0.7202,,,,,,,,,,,,,,,,,,,,,,61035e5f92396a346169f1b5,610369223c6d86eda699d859,2021-07-29_22h52.13.206,Simcolourproject_2stim_asymm_v5,2020.2.10,Win32,60,61025ae37ef11b136ea224fe,,,,,,,,,2673,-58,-89,1,0,0,response5disk,,3,14,-1,1,0,0,rectangle,14,-1,1,0,0,14,-1,1,0,0,0,52,52,35,1,,,,,,,,
,,,,,,,,,,,,,FF,,,,,,,,0.7853,,,,,,,,,,,,,,,,,,,,,,61035e5f92396a346169f1b5,610369223c6d86eda699d859,2021-07-29_22h52.13.206,Simcolourproject_2stim_asymm_v5,2020.2.10,Win32,60,61025ae37ef11b136ea224fe,,,,,,,,,4268,-79,-47,1,0,0,response5disk,,2,-2,7,1,0,0,rectangle,-2,7,1,0,0,-2,7,1,0,0,0,53,53,124,1,,,,,,,,
,,,,,,,,,,,,,FF,,,,,,,,2.1533,,,,,,,,,,,,,,,,,,,,,,61035e5f92396a346169f1b5,610369223c6d86eda699d859,2021-07-29_22h52.13.206,Simcolourproject_2stim_asymm_v5,2020.2.10,Win32,60,61025ae37ef11b136ea224fe,,,,,,,,,3330,-117,-46,1,0,0,response5disk,,2,-28,-2,1,0,0,rectangle,-28,-2,1,0,0,-28,-2,1,0,0,0,54,54,73,1,,,,,,,,
,,,,,,,,,,,,,FF,,,,,,,,0.9013,,,,,,,,,,,,,,,,,,,,,,61035e5f92396a346169f1b5,610369223c6d86eda699d859,2021-07-29_22h52.13.206,Simcolourproject_2stim_asymm_v5,2020.2.10,Win32,60,61025ae37ef11b136ea224fe,,,,,,,,,4123,-61,-82,1,0,0,response5disk,,3,-11,3,1,0,0,rectangle,-11,3,1,0,0,-11,3,1,0,0,0,55,55,80,1,,,,,,,,
,,,,,,,,,,,,,FF,,,,,,,,1.1526,,,,,,,,,,,,,,,,,,,,,,61035e5f92396a346169f1b5,610369223c6d86eda699d859,2021-07-29_22h52.13.206,Simcolourproject_2stim_asymm_v5,2020.2.10,Win32,60,61025ae37ef11b136ea224fe,,,,,,,,,54,115,-50,1,0,0,response3disk,,5,-24,9,1,0,0,rectangle,-24,9,1,0,0,-24,9,1,0,0,0,56,56,20,1,,,,,,,,
,,,,,,,,,,,,,FF,,,,,,,,0.7336,,,,,,,,,,,,,,,,,,,,,,61035e5f92396a346169f1b5,610369223c6d86eda699d859,2021-07-29_22h52.13.206,Simcolourproject_2stim_asymm_v5,2020.2.10,Win32,60,61025ae37ef11b136ea224fe,,,,,,,,,2688,90,-53,1,0,0,response3disk,,5,16,10,1,0,0,rectangle,16,10,1,0,0,16,10,1,0,0,0,57,57,30,1,,,,,,,,
,,,,,,,,,,,,,FF,,,,,,,,1.0345,,,,,,,,,,,,,,,,,,,,,,61035e5f92396a346169f1b5,610369223c6d86eda699d859,2021-07-29_22h52.13.206,Simcolourproject_2stim_asymm_v5,2020.2.10,Win32,60,61025ae37ef11b136ea224fe,,,,,,,,,3348,61,-97,1,0,0,response3disk,,4,9,-4,1,0,0,rectangle,9,-4,1,0,0,9,-4,1,0,0,0,58,58,34,1,,,,,,,,
,,,,,,,,,,,,,FF,,,,,,,,0.9676,,,,,,,,,,,,,,,,,,,,,,61035e5f92396a346169f1b5,610369223c6d86eda699d859,2021-07-29_22h52.13.206,Simcolourproject_2stim_asymm_v5,2020.2.10,Win32,60,61025ae37ef11b136ea224fe,,,,,,,,,771,100,-60,1,0,0,response3disk,,5,-16,-3,1,0,0,rectangle,-16,-3,1,0,0,-16,-3,1,0,0,0,59,59,154,1,,,,,,,,
,,,,,,,,,,,,,FF,,,,,,,,1.0844,,,,,,,,,,,,,,,,,,,,,,61035e5f92396a346169f1b5,610369223c6d86eda699d859,2021-07-29_22h52.13.206,Simcolourproject_2stim_asymm_v5,2020.2.10,Win32,60,61025ae37ef11b136ea224fe,,,,,,,,,883,102,-41,1,0,0,response3disk,,5,-6,8,1,0,0,rectangle,-6,8,1,0,0,-6,8,1,0,0,0,60,60,85,1,,,,,,,,
,,,,,,,,,,,,,FF,,,,,,,,0.7839,,,,,,,,,,,,,,,,,,,,,,61035e5f92396a346169f1b5,610369223c6d86eda699d859,2021-07-29_22h52.13.206,Simcolourproject_2stim_asymm_v5,2020.2.10,Win32,60,61025ae37ef11b136ea224fe,,,,,,,,,669,104,-58,1,0,0,response3disk,,5,-3,-1,1,0,0,rectangle,-3,-1,1,0,0,-3,-1,1,0,0,0,61,61,91,1,,,,,,,,
,,,,,,,,,,,,,FF,,,,,,,,0.851,,,,,,,,,,,,,,,,,,,,,,61035e5f92396a346169f1b5,610369223c6d86eda699d859,2021-07-29_22h52.13.206,Simcolourproject_2stim_asymm_v5,2020.2.10,Win32,60,61025ae37ef11b136ea224fe,,,,,,,,,1425,54,-108,1,0,0,response3disk,,4,7,2,1,0,0,rectangle,-89,49,1,0,0,-13,1,1,0,0,0,62,62,49,1,,response7disk_3,TRUE,1,1,"[280,230,68,237,261,313,297,178,114,66,211,81,215,70,126,66,12,231,122,63]",1.6865,rectangle
,,,,,,,,,,,,,FF,,,,,,,,1.4859,,,,,,,,,,,,,,,,,,,,,,61035e5f92396a346169f1b5,610369223c6d86eda699d859,2021-07-29_22h52.13.206,Simcolourproject_2stim_asymm_v5,2020.2.10,Win32,60,61025ae37ef11b136ea224fe,,,,,,,,,915,69,-108,1,0,0,response3disk,,4,5,20,1,0,0,rectangle,5,20,1,0,0,5,20,1,0,0,0,63,63,44,1,,,,,,,,
,,,,,,,,,,,,,FF,,,,,,,,0.5523,,,,,,,,,,,,,,,,,,,,,,61035e5f92396a346169f1b5,610369223c6d86eda699d859,2021-07-29_22h52.13.206,Simcolourproject_2stim_asymm_v5,2020.2.10,Win32,60,61025ae37ef11b136ea224fe,,,,,,,,,3879,108,-49,1,0,0,response3disk,,5,13,14,1,0,0,rectangle,13,14,1,0,0,13,14,1,0,0,0,64,64,142,1,,,,,,,,
,,,,,,,,,,,,,FF,,,,,,,,0.9864,,,,,,,,,,,,,,,,,,,,,,61035e5f92396a346169f1b5,610369223c6d86eda699d859,2021-07-29_22h52.13.206,Simcolourproject_2stim_asymm_v5,2020.2.10,Win32,60,61025ae37ef11b136ea224fe,,,,,,,,,684,39,-108,1,0,0,response3disk,,4,-14,-3,1,0,0,rectangle,149,-60,1,0,0,18,1,1,0,0,0,65,65,121,1,,response3disk_3,TRUE,5,5,"[280,230,68,237,261,313,297,178,114,66,211,81,215,70,126,66,12,231,122,63]",2.4714,rectangle
,,,,,,,,,,,,,FF,,,,,,,,2.5717,,,,,,,,,,,,,,,,,,,,,,61035e5f92396a346169f1b5,610369223c6d86eda699d859,2021-07-29_22h52.13.206,Simcolourproject_2stim_asymm_v5,2020.2.10,Win32,60,61025ae37ef11b136ea224fe,,,,,,,,,2531,-69,-79,1,0,0,response5disk,,3,1,-4,1,0,0,rectangle,1,-4,1,0,0,1,-4,1,0,0,0,66,66,18,1,,,,,,,,
,,,,,,,,,,,,,FF,,,,,,,,0.8017,,,,,,,,,,,,,,,,,,,,,,61035e5f92396a346169f1b5,610369223c6d86eda699d859,2021-07-29_22h52.13.206,Simcolourproject_2stim_asymm_v5,2020.2.10,Win32,60,61025ae37ef11b136ea224fe,,,,,,,,,3216,49,95,1,0,0,response1disk,,7,-3,-4,1,0,0,rectangle,-57,-83,1,0,0,-9,0,1,0,0,0,67,67,17,1,,response5disk_3,TRUE,3,3,"[280,230,68,237,261,313,297,178,114,66,211,81,215,70,126,66,12,231,122,63]",2.3038,rectangle
,,,,,,,,,,,,,FF,,,,,,,,3.289,,,,,,,,,,,,,,,,,,,,,,61035e5f92396a346169f1b5,610369223c6d86eda699d859,2021-07-29_22h52.13.206,Simcolourproject_2stim_asymm_v5,2020.2.10,Win32,60,61025ae37ef11b136ea224fe,,,,,,,,,688,58,-113,1,0,0,response3disk,,4,1,4,1,0,0,rectangle,1,4,1,0,0,1,4,1,0,0,0,68,68,150,1,,,,,,,,
,,,,,,,,,,,,,FF,,,,,,,,0.7334,,,,,,,,,,,,,,,,,,,,,,61035e5f92396a346169f1b5,610369223c6d86eda699d859,2021-07-29_22h52.13.206,Simcolourproject_2stim_asymm_v5,2020.2.10,Win32,60,61025ae37ef11b136ea224fe,,,,,,,,,3783,-40,-116,1,0,0,response5disk,,3,2,13,1,0,0,rectangle,-41,100,1,0,0,-2,3,1,0,0,0,69,69,147,1,,response7disk_3,TRUE,0,0,"[280,230,68,237,261,313,297,178,114,66,211,81,215,70,126,66,12,231,122,63]",1.3367,rectangle
,,,,,,,,,,,,,FF,,,,,,,,2.621,,,,,,,,,,,,,,,,,,,,,,61035e5f92396a346169f1b5,610369223c6d86eda699d859,2021-07-29_22h52.13.206,Simcolourproject_2stim_asymm_v5,2020.2.10,Win32,60,61025ae37ef11b136ea224fe,,,,,,,,,419,101,65,1,0,0,response1disk,,6,0,7,1,0,0,rectangle,0,7,1,0,0,0,7,1,0,0,0,70,70,144,1,,,,,,,,
,,,,,,,,,,,,,FF,,,,,,,,1.2191,,,,,,,,,,,,,,,,,,,,,,61035e5f92396a346169f1b5,610369223c6d86eda699d859,2021-07-29_22h52.13.206,Simcolourproject_2stim_asymm_v5,2020.2.10,Win32,60,61025ae37ef11b136ea224fe,,,,,,,,,1913,34,-89,1,0,0,response3disk,,4,-14,-3,1,0,0,rectangle,-14,-3,1,0,0,-14,-3,1,0,0,0,71,71,110,1,,,,,,,,
,,,,,,,,,,,,,FF,,,,,,,,0.6515,,,,,,,,,,,,,,,,,,,,,,61035e5f92396a346169f1b5,610369223c6d86eda699d859,2021-07-29_22h52.13.206,Simcolourproject_2stim_asymm_v5,2020.2.10,Win32,60,61025ae37ef11b136ea224fe,,,,,,,,,2546,-84,-55,1,0,0,response5disk,,2,-2,2,1,0,0,rectangle,-2,2,1,0,0,-2,2,1,0,0,0,72,72,52,1,,,,,,,,
,,,,,,,,,,,,,FF,,,,,,,,0.6339,,,,,,,,,,,,,,,,,,,,,,61035e5f92396a346169f1b5,610369223c6d86eda699d859,2021-07-29_22h52.13.206,Simcolourproject_2stim_asymm_v5,2020.2.10,Win32,60,61025ae37ef11b136ea224fe,,,,,,,,,2602,-90,-54,1,0,0,response5disk,,2,21,1,1,0,0,rectangle,21,1,1,0,0,21,1,1,0,0,0,73,73,21,1,,,,,,,,
,,,,,,,,,,,,,FF,,,,,,,,0.6516,,,,,,,,,,,,,,,,,,,,,,61035e5f92396a346169f1b5,610369223c6d86eda699d859,2021-07-29_22h52.13.206,Simcolourproject_2stim_asymm_v5,2020.2.10,Win32,60,61025ae37ef11b136ea224fe,,,,,,,,,864,55,-102,1,0,0,response3disk,,4,9,13,1,0,0,rectangle,9,13,1,0,0,9,13,1,0,0,0,74,74,114,1,,,,,,,,
,,,,,,,,,,,,,FF,,,,,,,,1.0854,,,,,,,,,,,,,,,,,,,,,,61035e5f92396a346169f1b5,610369223c6d86eda699d859,2021-07-29_22h52.13.206,Simcolourproject_2stim_asymm_v5,2020.2.10,Win32,60,61025ae37ef11b136ea224fe,,,,,,,,,4301,96,48,1,0,0,response1disk,,6,-9,-19,1,0,0,rectangle,-9,-19,1,0,0,-9,-19,1,0,0,0,75,75,156,1,,,,,,,,
,,,,,,,,,,,,,FF,,,,,,,,0.868,,,,,,,,,,,,,,,,,,,,,,61035e5f92396a346169f1b5,610369223c6d86eda699d859,2021-07-29_22h52.13.206,Simcolourproject_2stim_asymm_v5,2020.2.10,Win32,60,61025ae37ef11b136ea224fe,,,,,,,,,2313,-47,-96,1,0,0,response5disk,,3,14,10,1,0,0,rectangle,14,10,1,0,0,14,10,1,0,0,0,76,76,1,1,,,,,,,,
,,,,,,,,,,,,,FF,,,,,,,,0.717,,,,,,,,,,,,,,,,,,,,,,61035e5f92396a346169f1b5,610369223c6d86eda699d859,2021-07-29_22h52.13.206,Simcolourproject_2stim_asymm_v5,2020.2.10,Win32,60,61025ae37ef11b136ea224fe,,,,,,,,,1050,-82,39,1,0,0,response7disk,,1,4,0,1,0,0,rectangle,4,0,1,0,0,4,0,1,0,0,0,77,77,78,1,,,,,,,,
,,,,,,,,,,,,,FF,,,,,,,,3.5013,,,,,,,,,,,,,,,,,,,,,,61035e5f92396a346169f1b5,610369223c6d86eda699d859,2021-07-29_22h52.13.206,Simcolourproject_2stim_asymm_v5,2020.2.10,Win32,60,61025ae37ef11b136ea224fe,,,,,,,,,939,-84,-40,1,0,0,response5disk,,2,6,-6,1,0,0,rectangle,6,-6,1,0,0,6,-6,1,0,0,0,78,78,105,1,,,,,,,,
,,,,,,,,,,,,,FF,,,,,,,,1.018,,,,,,,,,,,,,,,,,,,,,,61035e5f92396a346169f1b5,610369223c6d86eda699d859,2021-07-29_22h52.13.206,Simcolourproject_2stim_asymm_v5,2020.2.10,Win32,60,61025ae37ef11b136ea224fe,,,,,,,,,2659,101,38,1,0,0,response1disk,,6,-21,-6,1,0,0,rectangle,-21,-6,1,0,0,-21,-6,1,0,0,0,79,79,70,1,,,,,,,,
,,,,,,,,,,,,,FF,,,,,,,,1.0029,,,,,,,,,,,,,,,,,,,,,,61035e5f92396a346169f1b5,610369223c6d86eda699d859,2021-07-29_22h52.13.206,Simcolourproject_2stim_asymm_v5,2020.2.10,Win32,60,61025ae37ef11b136ea224fe,,,,,,,,,1949,-99,-51,1,0,0,response5disk,,2,-19,0,1,0,0,rectangle,-39,99,1,0,0,6,-20,1,0,0,0,80,80,19,1,,response7disk_3,TRUE,0,0,"[280,230,68,237,261,313,297,178,114,66,211,81,215,70,126,66,12,231,122,63]",1.2848,rectangle
,,,,,,,,,,,,,FF,,,,,,,,0.6802,,,,,,,,,,,,,,,,,,,,,,61035e5f92396a346169f1b5,610369223c6d86eda699d859,2021-07-29_22h52.13.206,Simcolourproject_2stim_asymm_v5,2020.2.10,Win32,60,61025ae37ef11b136ea224fe,,,,,,,,,3560,-69,47,1,0,0,response7disk,,1,-5,-3,1,0,0,rectangle,-5,-3,1,0,0,-5,-3,1,0,0,0,81,81,32,1,,,,,,,,
,,,,,,,,,,,,,FF,,,,,,,,0.8506,,,,,,,,,,,,,,,,,,,,,,61035e5f92396a346169f1b5,610369223c6d86eda699d859,2021-07-29_22h52.13.206,Simcolourproject_2stim_asymm_v5,2020.2.10,Win32,60,61025ae37ef11b136ea224fe,,,,,,,,,3325,42,101,1,0,0,response1disk,,7,-2,-9,1,0,0,rectangle,-2,-9,1,0,0,-2,-9,1,0,0,0,82,82,72,1,,,,,,,,
,,,,,,,,,,,,,FF,,,,,,,,0.6503,,,,,,,,,,,,,,,,,,,,,,61035e5f92396a346169f1b5,610369223c6d86eda699d859,2021-07-29_22h52.13.206,Simcolourproject_2stim_asymm_v5,2020.2.10,Win32,60,61025ae37ef11b136ea224fe,,,,,,,,,653,74,-55,1,0,0,response3disk,,5,0,8,1,0,0,rectangle,0,8,1,0,0,0,8,1,0,0,0,83,83,151,1,,,,,,,,
,,,,,,,,,,,,,FF,,,,,,,,1.1006,,,,,,,,,,,,,,,,,,,,,,61035e5f92396a346169f1b5,610369223c6d86eda699d859,2021-07-29_22h52.13.206,Simcolourproject_2stim_asymm_v5,2020.2.10,Win32,60,61025ae37ef11b136ea224fe,,,,,,,,,1216,-84,-39,1,0,0,response5disk,,2,-19,13,1,0,0,rectangle,-19,13,1,0,0,-19,13,1,0,0,0,84,84,40,1,,,,,,,,
,,,,,,,,,,,,,FF,,,,,,,,0.701,,,,,,,,,,,,,,,,,,,,,,61035e5f92396a346169f1b5,610369223c6d86eda699d859,2021-07-29_22h52.13.206,Simcolourproject_2stim_asymm_v5,2020.2.10,Win32,60,61025ae37ef11b136ea224fe,,,,,,,,,3198,-97,-48,1,0,0,response5disk,,2,-14,9,1,0,0,rectangle,-14,9,1,0,0,-14,9,1,0,0,0,85,85,39,1,,,,,,,,
,,,,,,,,,,,,,FF,,,,,,,,0.8838,,,,,,,,,,,,,,,,,,,,,,61035e5f92396a346169f1b5,610369223c6d86eda699d859,2021-07-29_22h52.13.206,Simcolourproject_2stim_asymm_v5,2020.2.10,Win32,60,61025ae37ef11b136ea224fe,,,,,,,,,3260,107,65,1,0,0,response1disk,,6,-29,-10,1,0,0,rectangle,-29,-10,1,0,0,-29,-10,1,0,0,0,86,86,55,1,,,,,,,,
,,,,,,,,,,,,,FF,,,,,,,,0.8007,,,,,,,,,,,,,,,,,,,,,,61035e5f92396a346169f1b5,610369223c6d86eda699d859,2021-07-29_22h52.13.206,Simcolourproject_2stim_asymm_v5,2020.2.10,Win32,60,61025ae37ef11b136ea224fe,,,,,,,,,3176,46,-93,1,0,0,response3disk,,4,5,-10,1,0,0,rectangle,5,-10,1,0,0,5,-10,1,0,0,0,87,87,14,1,,,,,,,,
,,,,,,,,,,,,,FF,,,,,,,,2.087,,,,,,,,,,,,,,,,,,,,,,61035e5f92396a346169f1b5,610369223c6d86eda699d859,2021-07-29_22h52.13.206,Simcolourproject_2stim_asymm_v5,2020.2.10,Win32,60,61025ae37ef11b136ea224fe,,,,,,,,,108,94,39,1,0,0,response1disk,,6,-5,-8,1,0,0,rectangle,-5,-8,1,0,0,-5,-8,1,0,0,0,88,88,62,1,,,,,,,,
,,,,,,,,,,,,,FF,,,,,,,,0.7008,,,,,,,,,,,,,,,,,,,,,,61035e5f92396a346169f1b5,610369223c6d86eda699d859,2021-07-29_22h52.13.206,Simcolourproject_2stim_asymm_v5,2020.2.10,Win32,60,61025ae37ef11b136ea224fe,,,,,,,,,3081,78,44,1,0,0,response1disk,,6,-4,-6,1,0,0,rectangle,-4,-6,1,0,0,-4,-6,1,0,0,0,89,89,2,1,,,,,,,,
,,,,,,,,,,,,,FF,,,,,,,,0.8671,,,,,,,,,,,,,,,,,,,,,,61035e5f92396a346169f1b5,610369223c6d86eda699d859,2021-07-29_22h52.13.206,Simcolourproject_2stim_asymm_v5,2020.2.10,Win32,60,61025ae37ef11b136ea224fe,,,,,,,,,98,86,-53,1,0,0,response3disk,,5,-3,8,1,0,0,rectangle,-3,8,1,0,0,-3,8,1,0,0,0,90,90,24,1,,,,,,,,
,,,,,,,,,,,,,FF,,,,,,,,0.9521,,,,,,,,,,,,,,,,,,,,,,61035e5f92396a346169f1b5,610369223c6d86eda699d859,2021-07-29_22h52.13.206,Simcolourproject_2stim_asymm_v5,2020.2.10,Win32,60,61025ae37ef11b136ea224fe,,,,,,,,,1479,56,70,1,0,0,response1disk,,7,18,-10,1,0,0,rectangle,18,-10,1,0,0,18,-10,1,0,0,0,91,91,106,1,,,,,,,,
,,,,,,,,,,,,,FF,,,,,,,,0.8849,,,,,,,,,,,,,,,,,,,,,,61035e5f92396a346169f1b5,610369223c6d86eda699d859,2021-07-29_22h52.13.206,Simcolourproject_2stim_asymm_v5,2020.2.10,Win32,60,61025ae37ef11b136ea224fe,,,,,,,,,2240,-44,-86,1,0,0,response5disk,,3,-7,7,1,0,0,rectangle,-7,7,1,0,0,-7,7,1,0,0,0,92,92,133,1,,,,,,,,
,,,,,,,,,,,,,FF,,,,,,,,0.6169,,,,,,,,,,,,,,,,,,,,,,61035e5f92396a346169f1b5,610369223c6d86eda699d859,2021-07-29_22h52.13.206,Simcolourproject_2stim_asymm_v5,2020.2.10,Win32,60,61025ae37ef11b136ea224fe,,,,,,,,,4146,-91,-40,1,0,0,response5disk,,2,18,3,1,0,0,rectangle,18,3,1,0,0,18,3,1,0,0,0,93,93,93,1,,,,,,,,
,,,,,,,,,,,,,FF,,,,,,,,0.8188,,,,,,,,,,,,,,,,,,,,,,61035e5f92396a346169f1b5,610369223c6d86eda699d859,2021-07-29_22h52.13.206,Simcolourproject_2stim_asymm_v5,2020.2.10,Win32,60,61025ae37ef11b136ea224fe,,,,,,,,,2393,59,105,1,0,0,response1disk,,7,20,4,1,0,0,rectangle,20,4,1,0,0,20,4,1,0,0,0,94,94,125,1,,,,,,,,
,,,,,,,,,,,,,FF,,,,,,,,2.137,,,,,,,,,,,,,,,,,,,,,,61035e5f92396a346169f1b5,610369223c6d86eda699d859,2021-07-29_22h52.13.206,Simcolourproject_2stim_asymm_v5,2020.2.10,Win32,60,61025ae37ef11b136ea224fe,,,,,,,,,3736,111,-52,1,0,0,response3disk,,5,-17,-6,1,0,0,rectangle,-17,-6,1,0,0,-17,-6,1,0,0,0,95,95,120,1,,,,,,,,
,,,,,,,,,,,,,FF,,,,,,,,1.8037,,,,,,,,,,,,,,,,,,,,,,61035e5f92396a346169f1b5,610369223c6d86eda699d859,2021-07-29_22h52.13.206,Simcolourproject_2stim_asymm_v5,2020.2.10,Win32,60,61025ae37ef11b136ea224fe,,,,,,,,,919,115,59,1,0,0,response1disk,,6,3,-3,1,0,0,rectangle,3,-3,1,0,0,3,-3,1,0,0,0,96,96,41,1,,,,,,,,
,,,,,,,,,,,,,FF,,,,,,,,0.7335,,,,,,,,,,,,,,,,,,,,,,61035e5f92396a346169f1b5,610369223c6d86eda699d859,2021-07-29_22h52.13.206,Simcolourproject_2stim_asymm_v5,2020.2.10,Win32,60,61025ae37ef11b136ea224fe,,,,,,,,,3908,-111,47,1,0,0,response7disk,,1,14,-8,1,0,0,rectangle,14,-8,1,0,0,14,-8,1,0,0,0,97,97,140,1,,,,,,,,
,,,,,,,,,,,,,FF,,,,,,,,0.8344,,,,,,,,,,,,,,,,,,,,,,61035e5f92396a346169f1b5,610369223c6d86eda699d859,2021-07-29_22h52.13.206,Simcolourproject_2stim_asymm_v5,2020.2.10,Win32,60,61025ae37ef11b136ea224fe,,,,,,,,,1055,-78,-57,1,0,0,response5disk,,2,-3,-4,1,0,0,rectangle,-3,-4,1,0,0,-3,-4,1,0,0,0,98,98,132,1,,,,,,,,
,,,,,,,,,,,,,FF,,,,,,,,0.7506,,,,,,,,,,,,,,,,,,,,,,61035e5f92396a346169f1b5,610369223c6d86eda699d859,2021-07-29_22h52.13.206,Simcolourproject_2stim_asymm_v5,2020.2.10,Win32,60,61025ae37ef11b136ea224fe,,,,,,,,,2441,39,-85,1,0,0,response3disk,,4,23,0,1,0,0,rectangle,23,0,1,0,0,23,0,1,0,0,0,99,99,79,1,,,,,,,,
,,,,,,,,,,,,,FF,,,,,,,,0.7678,,,,,,,,,,,,,,,,,,,,,,61035e5f92396a346169f1b5,610369223c6d86eda699d859,2021-07-29_22h52.13.206,Simcolourproject_2stim_asymm_v5,2020.2.10,Win32,60,61025ae37ef11b136ea224fe,,,,,,,,,763,109,58,1,0,0,response1disk,,6,-20,6,1,0,0,rectangle,-20,6,1,0,0,-20,6,1,0,0,0,100,100,89,1,,,,,,,,
,,,,,,,,,,,,,FF,,,,,,,,1.7357,,,,,,,,,,,,,,,,,,,,,,61035e5f92396a346169f1b5,610369223c6d86eda699d859,2021-07-29_22h52.13.206,Simcolourproject_2stim_asymm_v5,2020.2.10,Win32,60,61025ae37ef11b136ea224fe,,,,,,,,,1042,106,-56,1,0,0,response3disk,,5,10,4,1,0,0,rectangle,10,4,1,0,0,10,4,1,0,0,0,101,101,3,1,,,,,,,,
,,,,,,,,,,,,,FF,,,,,,,,0.9356,,,,,,,,,,,,,,,,,,,,,,61035e5f92396a346169f1b5,610369223c6d86eda699d859,2021-07-29_22h52.13.206,Simcolourproject_2stim_asymm_v5,2020.2.10,Win32,60,61025ae37ef11b136ea224fe,,,,,,,,,2553,97,46,1,0,0,response1disk,,6,-1,0,1,0,0,rectangle,-1,0,1,0,0,-1,0,1,0,0,0,102,102,36,1,,,,,,,,
,,,,,,,,,,,,,FF,,,,,,,,0.7505,,,,,,,,,,,,,,,,,,,,,,61035e5f92396a346169f1b5,610369223c6d86eda699d859,2021-07-29_22h52.13.206,Simcolourproject_2stim_asymm_v5,2020.2.10,Win32,60,61025ae37ef11b136ea224fe,,,,,,,,,995,88,53,1,0,0,response1disk,,6,-3,-1,1,0,0,rectangle,-3,-1,1,0,0,-3,-1,1,0,0,0,103,103,71,1,,,,,,,,
,,,,,,,,,,,,,FF,,,,,,,,0.8841,,,,,,,,,,,,,,,,,,,,,,61035e5f92396a346169f1b5,610369223c6d86eda699d859,2021-07-29_22h52.13.206,Simcolourproject_2stim_asymm_v5,2020.2.10,Win32,60,61025ae37ef11b136ea224fe,,,,,,,,,2155,80,52,1,0,0,response1disk,,6,10,-3,1,0,0,rectangle,10,-3,1,0,0,10,-3,1,0,0,0,104,104,111,1,,,,,,,,
,,,,,,,,,,,,,FF,,,,,,,,0.7674,,,,,,,,,,,,,,,,,,,,,,61035e5f92396a346169f1b5,610369223c6d86eda699d859,2021-07-29_22h52.13.206,Simcolourproject_2stim_asymm_v5,2020.2.10,Win32,60,61025ae37ef11b136ea224fe,,,,,,,,,2124,31,95,1,0,0,response1disk,,7,3,-10,1,0,0,rectangle,3,-10,1,0,0,3,-10,1,0,0,0,105,105,54,1,,,,,,,,
,,,,,,,,,,,,,FF,,,,,,,,0.7356,,,,,,,,,,,,,,,,,,,,,,61035e5f92396a346169f1b5,610369223c6d86eda699d859,2021-07-29_22h52.13.206,Simcolourproject_2stim_asymm_v5,2020.2.10,Win32,60,61025ae37ef11b136ea224fe,,,,,,,,,1794,92,40,1,0,0,response1disk,,6,9,6,1,0,0,rectangle,9,6,1,0,0,9,6,1,0,0,0,106,106,26,1,,,,,,,,
,,,,,,,,,,,,,FF,,,,,,,,0.7519,,,,,,,,,,,,,,,,,,,,,,61035e5f92396a346169f1b5,610369223c6d86eda699d859,2021-07-29_22h52.13.206,Simcolourproject_2stim_asymm_v5,2020.2.10,Win32,60,61025ae37ef11b136ea224fe,,,,,,,,,651,52,100,1,0,0,response1disk,,7,6,-12,1,0,0,rectangle,6,-12,1,0,0,6,-12,1,0,0,0,107,107,33,1,,,,,,,,
,,,,,,,,,,,,,FF,,,,,,,,0.8177,,,,,,,,,,,,,,,,,,,,,,61035e5f92396a346169f1b5,610369223c6d86eda699d859,2021-07-29_22h52.13.206,Simcolourproject_2stim_asymm_v5,2020.2.10,Win32,60,61025ae37ef11b136ea224fe,,,,,,,,,3315,31,89,1,0,0,response1disk,,7,-20,-15,1,0,0,rectangle,-20,-15,1,0,0,-20,-15,1,0,0,0,108,108,8,1,,,,,,,,
,,,,,,,,,,,,,FF,,,,,,,,0.6684,,,,,,,,,,,,,,,,,,,,,,61035e5f92396a346169f1b5,610369223c6d86eda699d859,2021-07-29_22h52.13.206,Simcolourproject_2stim_asymm_v5,2020.2.10,Win32,60,61025ae37ef11b136ea224fe,,,,,,,,,4257,46,87,1,0,0,response1disk,,7,-24,-9,1,0,0,rectangle,-24,-9,1,0,0,-24,-9,1,0,0,0,109,109,77,1,,,,,,,,
,,,,,,,,,,,,,FF,,,,,,,,1.0844,,,,,,,,,,,,,,,,,,,,,,61035e5f92396a346169f1b5,610369223c6d86eda699d859,2021-07-29_22h52.13.206,Simcolourproject_2stim_asymm_v5,2020.2.10,Win32,60,61025ae37ef11b136ea224fe,,,,,,,,,3919,102,-55,1,0,0,response3disk,,5,22,-5,1,0,0,rectangle,22,-5,1,0,0,22,-5,1,0,0,0,110,110,153,1,,,,,,,,
,,,,,,,,,,,,,FF,,,,,,,,1.1027,,,,,,,,,,,,,,,,,,,,,,61035e5f92396a346169f1b5,610369223c6d86eda699d859,2021-07-29_22h52.13.206,Simcolourproject_2stim_asymm_v5,2020.2.10,Win32,60,61025ae37ef11b136ea224fe,,,,,,,,,2722,-46,-107,1,0,0,response5disk,,3,0,14,1,0,0,rectangle,0,14,1,0,0,0,14,1,0,0,0,111,111,29,1,,,,,,,,
,,,,,,,,,,,,,FF,,,,,,,,0.9352,,,,,,,,,,,,,,,,,,,,,,61035e5f92396a346169f1b5,610369223c6d86eda699d859,2021-07-29_22h52.13.206,Simcolourproject_2stim_asymm_v5,2020.2.10,Win32,60,61025ae37ef11b136ea224fe,,,,,,,,,2414,-94,-56,1,0,0,response5disk,,2,-26,2,1,0,0,rectangle,-26,2,1,0,0,-26,2,1,0,0,0,112,112,9,1,,,,,,,,
,,,,,,,,,,,,,FF,,,,,,,,0.7675,,,,,,,,,,,,,,,,,,,,,,61035e5f92396a346169f1b5,610369223c6d86eda699d859,2021-07-29_22h52.13.206,Simcolourproject_2stim_asymm_v5,2020.2.10,Win32,60,61025ae37ef11b136ea224fe,,,,,,,,,27,97,49,1,0,0,response1disk,,6,-23,4,1,0,0,rectangle,33,-93,1,0,0,3,-18,1,0,0,0,113,113,98,1,,response3disk_3,TRUE,4,4,"[280,230,68,237,261,313,297,178,114,66,211,81,215,70,126,66,12,231,122,63]",1.8051,rectangle
,,,,,,,,,,,,,FF,,,,,,,,1.0515,,,,,,,,,,,,,,,,,,,,,,61035e5f92396a346169f1b5,610369223c6d86eda699d859,2021-07-29_22h52.13.206,Simcolourproject_2stim_asymm_v5,2020.2.10,Win32,60,61025ae37ef11b136ea224fe,,,,,,,,,1294,-82,47,1,0,0,response7disk,,1,-4,9,1,0,0,rectangle,-4,9,1,0,0,-4,9,1,0,0,0,114,114,47,1,,,,,,,,
,,,,,,,,,,,,,FF,,,,,,,,0.684,,,,,,,,,,,,,,,,,,,,,,61035e5f92396a346169f1b5,610369223c6d86eda699d859,2021-07-29_22h52.13.206,Simcolourproject_2stim_asymm_v5,2020.2.10,Win32,60,61025ae37ef11b136ea224fe,,,,,,,,,3562,91,46,1,0,0,response1disk,,6,-20,-9,1,0,0,rectangle,-20,-9,1,0,0,-20,-9,1,0,0,0,115,115,158,1,,,,,,,,
,,,,,,,,,,,,,FF,,,,,,,,1.6835,,,,,,,,,,,,,,,,,,,,,,61035e5f92396a346169f1b5,610369223c6d86eda699d859,2021-07-29_22h52.13.206,Simcolourproject_2stim_asymm_v5,2020.2.10,Win32,60,61025ae37ef11b136ea224fe,,,,,,,,,4356,-66,117,1,0,0,response7disk,,0,-3,7,1,0,0,rectangle,-3,7,1,0,0,-3,7,1,0,0,0,116,116,5,1,,,,,,,,
,,,,,,,,,,,,,FF,,,,,,,,1.9369,,,,,,,,,,,,,,,,,,,,,,61035e5f92396a346169f1b5,610369223c6d86eda699d859,2021-07-29_22h52.13.206,Simcolourproject_2stim_asymm_v5,2020.2.10,Win32,60,61025ae37ef11b136ea224fe,,,,,,,,,861,-84,-43,1,0,0,response5disk,,2,3,8,1,0,0,rectangle,3,8,1,0,0,3,8,1,0,0,0,117,117,118,1,,,,,,,,
,,,,,,,,,,,,,FF,,,,,,,,0.5511,,,,,,,,,,,,,,,,,,,,,,61035e5f92396a346169f1b5,610369223c6d86eda699d859,2021-07-29_22h52.13.206,Simcolourproject_2stim_asymm_v5,2020.2.10,Win32,60,61025ae37ef11b136ea224fe,,,,,,,,,2196,57,-89,1,0,0,response3disk,,4,7,-3,1,0,0,rectangle,7,-3,1,0,0,7,-3,1,0,0,0,118,118,135,1,,,,,,,,
,,,,,,,,,,,,,FF,,,,,,,,0.8348,,,,,,,,,,,,,,,,,,,,,,61035e5f92396a346169f1b5,610369223c6d86eda699d859,2021-07-29_22h52.13.206,Simcolourproject_2stim_asymm_v5,2020.2.10,Win32,60,61025ae37ef11b136ea224fe,,,,,,,,,1056,-76,-30,1,0,0,response5disk,,2,-3,9,1,0,0,rectangle,-3,9,1,0,0,-3,9,1,0,0,0,119,119,7,1,,,,,,,,
,,,,,,,,,,,,,FF,,,,,,,,0.818,,,,,,,,,,,,,,,,,,,,,,61035e5f92396a346169f1b5,610369223c6d86eda699d859,2021-07-29_22h52.13.206,Simcolourproject_2stim_asymm_v5,2020.2.10,Win32,60,61025ae37ef11b136ea224fe,,,,,,,,,2360,-107,62,1,0,0,response7disk,,1,-14,7,1,0,0,rectangle,-14,7,1,0,0,-14,7,1,0,0,0,120,120,155,1,,,,,,,,
,,,,,,,,,,,,,FF,,,,,,,,0.8008,,,,,,,,,,,,,,,,,,,,,,61035e5f92396a346169f1b5,610369223c6d86eda699d859,2021-07-29_22h52.13.206,Simcolourproject_2stim_asymm_v5,2020.2.10,Win32,60,61025ae37ef11b136ea224fe,,,,,,,,,2396,108,47,1,0,0,response1disk,,6,-9,0,1,0,0,rectangle,53,89,1,0,0,14,-3,1,0,0,0,121,121,119,1,,response1disk_3,TRUE,7,7,"[280,230,68,237,261,313,297,178,114,66,211,81,215,70,126,66,12,231,122,63]",1.351,rectangle
,,,,,,,,,,,,,FF,,,,,,,,0.9186,,,,,,,,,,,,,,,,,,,,,,61035e5f92396a346169f1b5,610369223c6d86eda699d859,2021-07-29_22h52.13.206,Simcolourproject_2stim_asymm_v5,2020.2.10,Win32,60,61025ae37ef11b136ea224fe,,,,,,,,,477,99,42,1,0,0,response1disk,,6,16,8,1,0,0,rectangle,16,8,1,0,0,16,8,1,0,0,0,122,122,112,1,,,,,,,,
,,,,,,,,,,,,,FF,,,,,,,,0.6332,,,,,,,,,,,,,,,,,,,,,,61035e5f92396a346169f1b5,610369223c6d86eda699d859,2021-07-29_22h52.13.206,Simcolourproject_2stim_asymm_v5,2020.2.10,Win32,60,61025ae37ef11b136ea224fe,,,,,,,,,34,107,50,1,0,0,response1disk,,6,20,-4,1,0,0,rectangle,20,-4,1,0,0,20,-4,1,0,0,0,123,123,117,1,,,,,,,,
,,,,,,,,,,,,,FF,,,,,,,,0.6669,,,,,,,,,,,,,,,,,,,,,,61035e5f92396a346169f1b5,610369223c6d86eda699d859,2021-07-29_22h52.13.206,Simcolourproject_2stim_asymm_v5,2020.2.10,Win32,60,61025ae37ef11b136ea224fe,,,,,,,,,2018,96,-53,1,0,0,response3disk,,5,18,3,1,0,0,rectangle,18,3,1,0,0,18,3,1,0,0,0,124,124,130,1,,,,,,,,
,,,,,,,,,,,,,FF,,,,,,,,0.7008,,,,,,,,,,,,,,,,,,,,,,61035e5f92396a346169f1b5,610369223c6d86eda699d859,2021-07-29_22h52.13.206,Simcolourproject_2stim_asymm_v5,2020.2.10,Win32,60,61025ae37ef11b136ea224fe,,,,,,,,,3368,36,107,1,0,0,response1disk,,7,11,2,1,0,0,rectangle,-38,99,1,0,0,-1,-18,1,0,0,0,125,125,37,1,,response7disk_3,TRUE,0,0,"[280,230,68,237,261,313,297,178,114,66,211,81,215,70,126,66,12,231,122,63]",1.2005,rectangle
,,,,,,,,,,,,,FF,,,,,,,,0.9677,,,,,,,,,,,,,,,,,,,,,,61035e5f92396a346169f1b5,610369223c6d86eda699d859,2021-07-29_22h52.13.206,Simcolourproject_2stim_asymm_v5,2020.2.10,Win32,60,61025ae37ef11b136ea224fe,,,,,,,,,3702,-91,43,1,0,0,response7disk,,1,-1,-6,1,0,0,rectangle,-1,-6,1,0,0,-1,-6,1,0,0,0,126,126,43,1,,,,,,,,
,,,,,,,,,,,,,FF,,,,,,,,0.6335,,,,,,,,,,,,,,,,,,,,,,61035e5f92396a346169f1b5,610369223c6d86eda699d859,2021-07-29_22h52.13.206,Simcolourproject_2stim_asymm_v5,2020.2.10,Win32,60,61025ae37ef11b136ea224fe,,,,,,,,,4316,-39,87,1,0,0,response7disk,,0,-2,-5,1,0,0,rectangle,-2,-5,1,0,0,-2,-5,1,0,0,0,127,127,101,1,,,,,,,,
,,,,,,,,,,,,,FF,,,,,,,,0.7003,,,,,,,,,,,,,,,,,,,,,,61035e5f92396a346169f1b5,610369223c6d86eda699d859,2021-07-29_22h52.13.206,Simcolourproject_2stim_asymm_v5,2020.2.10,Win32,60,61025ae37ef11b136ea224fe,,,,,,,,,3506,-93,37,1,0,0,response7disk,,1,2,-12,1,0,0,rectangle,2,-12,1,0,0,2,-12,1,0,0,0,128,128,148,1,,,,,,,,
,,,,,,,,,,,,,FF,,,,,,,,0.6841,,,,,,,,,,,,,,,,,,,,,,61035e5f92396a346169f1b5,610369223c6d86eda699d859,2021-07-29_22h52.13.206,Simcolourproject_2stim_asymm_v5,2020.2.10,Win32,60,61025ae37ef11b136ea224fe,,,,,,,,,2493,51,107,1,0,0,response1disk,,7,19,-2,1,0,0,rectangle,19,-2,1,0,0,19,-2,1,0,0,0,129,129,16,1,,,,,,,,
,,,,,,,,,,,,,FF,,,,,,,,0.617,,,,,,,,,,,,,,,,,,,,,,61035e5f92396a346169f1b5,610369223c6d86eda699d859,2021-07-29_22h52.13.206,Simcolourproject_2stim_asymm_v5,2020.2.10,Win32,60,61025ae37ef11b136ea224fe,,,,,,,,,2993,-44,100,1,0,0,response7disk,,0,11,-11,1,0,0,rectangle,11,-11,1,0,0,11,-11,1,0,0,0,130,130,53,1,,,,,,,,
,,,,,,,,,,,,,FF,,,,,,,,0.9685,,,,,,,,,,,,,,,,,,,,,,61035e5f92396a346169f1b5,610369223c6d86eda699d859,2021-07-29_22h52.13.206,Simcolourproject_2stim_asymm_v5,2020.2.10,Win32,60,61025ae37ef11b136ea224fe,,,,,,,,,2156,58,100,1,0,0,response1disk,,7,0,1,1,0,0,rectangle,0,1,1,0,0,0,1,1,0,0,0,131,131,139,1,,,,,,,,
,,,,,,,,,,,,,FF,,,,,,,,0.834,,,,,,,,,,,,,,,,,,,,,,61035e5f92396a346169f1b5,610369223c6d86eda699d859,2021-07-29_22h52.13.206,Simcolourproject_2stim_asymm_v5,2020.2.10,Win32,60,61025ae37ef11b136ea224fe,,,,,,,,,1671,104,-67,1,0,0,response3disk,,5,8,7,1,0,0,rectangle,8,7,1,0,0,8,7,1,0,0,0,132,132,126,1,,,,,,,,
,,,,,,,,,,,,,FF,,,,,,,,0.6845,,,,,,,,,,,,,,,,,,,,,,61035e5f92396a346169f1b5,610369223c6d86eda699d859,2021-07-29_22h52.13.206,Simcolourproject_2stim_asymm_v5,2020.2.10,Win32,60,61025ae37ef11b136ea224fe,,,,,,,,,1180,97,-62,1,0,0,response3disk,,5,-21,11,1,0,0,rectangle,-21,11,1,0,0,-21,11,1,0,0,0,133,133,136,1,,,,,,,,
,,,,,,,,,,,,,FF,,,,,,,,0.9519,,,,,,,,,,,,,,,,,,,,,,61035e5f92396a346169f1b5,610369223c6d86eda699d859,2021-07-29_22h52.13.206,Simcolourproject_2stim_asymm_v5,2020.2.10,Win32,60,61025ae37ef11b136ea224fe,,,,,,,,,1555,92,33,1,0,0,response1disk,,6,-12,-5,1,0,0,rectangle,-12,-5,1,0,0,-12,-5,1,0,0,0,134,134,108,1,,,,,,,,
,,,,,,,,,,,,,FF,,,,,,,,0.7184,,,,,,,,,,,,,,,,,,,,,,61035e5f92396a346169f1b5,610369223c6d86eda699d859,2021-07-29_22h52.13.206,Simcolourproject_2stim_asymm_v5,2020.2.10,Win32,60,61025ae37ef11b136ea224fe,,,,,,,,,2058,53,98,1,0,0,response1disk,,7,14,-3,1,0,0,rectangle,14,-3,1,0,0,14,-3,1,0,0,0,135,135,75,1,,,,,,,,
,,,,,,,,,,,,,FF,,,,,,,,0.6846,,,,,,,,,,,,,,,,,,,,,,61035e5f92396a346169f1b5,610369223c6d86eda699d859,2021-07-29_22h52.13.206,Simcolourproject_2stim_asymm_v5,2020.2.10,Win32,60,61025ae37ef11b136ea224fe,,,,,,,,,1356,52,109,1,0,0,response1disk,,7,21,7,1,0,0,rectangle,21,7,1,0,0,21,7,1,0,0,0,136,136,64,1,,,,,,,,
,,,,,,,,,,,,,FF,,,,,,,,1.1183,,,,,,,,,,,,,,,,,,,,,,61035e5f92396a346169f1b5,610369223c6d86eda699d859,2021-07-29_22h52.13.206,Simcolourproject_2stim_asymm_v5,2020.2.10,Win32,60,61025ae37ef11b136ea224fe,,,,,,,,,343,33,-115,1,0,0,response3disk,,4,0,17,1,0,0,rectangle,0,17,1,0,0,0,17,1,0,0,0,137,137,123,1,,,,,,,,
,,,,,,,,,,,,,FF,,,,,,,,0.8005,,,,,,,,,,,,,,,,,,,,,,61035e5f92396a346169f1b5,610369223c6d86eda699d859,2021-07-29_22h52.13.206,Simcolourproject_2stim_asymm_v5,2020.2.10,Win32,60,61025ae37ef11b136ea224fe,,,,,,,,,3115,52,-120,1,0,0,response3disk,,4,3,0,1,0,0,rectangle,3,0,1,0,0,3,0,1,0,0,0,138,138,69,1,,,,,,,,
,,,,,,,,,,,,,FF,,,,,,,,0.8675,,,,,,,,,,,,,,,,,,,,,,61035e5f92396a346169f1b5,610369223c6d86eda699d859,2021-07-29_22h52.13.206,Simcolourproject_2stim_asymm_v5,2020.2.10,Win32,60,61025ae37ef11b136ea224fe,,,,,,,,,91,129,68,1,0,0,response1disk,,6,7,-2,1,0,0,rectangle,7,-2,1,0,0,7,-2,1,0,0,0,139,139,107,1,,,,,,,,
,,,,,,,,,,,,,FF,,,,,,,,0.7349,,,,,,,,,,,,,,,,,,,,,,61035e5f92396a346169f1b5,610369223c6d86eda699d859,2021-07-29_22h52.13.206,Simcolourproject_2stim_asymm_v5,2020.2.10,Win32,60,61025ae37ef11b136ea224fe,,,,,,,,,3468,-35,107,1,0,0,response7disk,,0,15,-7,1,0,0,rectangle,15,-7,1,0,0,15,-7,1,0,0,0,140,140,146,1,,,,,,,,
,,,,,,,,,,,,,FF,,,,,,,,0.9521,,,,,,,,,,,,,,,,,,,,,,61035e5f92396a346169f1b5,610369223c6d86eda699d859,2021-07-29_22h52.13.206,Simcolourproject_2stim_asymm_v5,2020.2.10,Win32,60,61025ae37ef11b136ea224fe,,,,,,,,,4046,-98,52,1,0,0,response7disk,,1,-3,-5,1,0,0,rectangle,-3,-5,1,0,0,-3,-5,1,0,0,0,141,141,23,1,,,,,,,,
,,,,,,,,,,,,,FF,,,,,,,,0.9358,,,,,,,,,,,,,,,,,,,,,,61035e5f92396a346169f1b5,610369223c6d86eda699d859,2021-07-29_22h52.13.206,Simcolourproject_2stim_asymm_v5,2020.2.10,Win32,60,61025ae37ef11b136ea224fe,,,,,,,,,4367,-37,-130,1,0,0,response5disk,,3,2,-15,1,0,0,rectangle,2,-15,1,0,0,2,-15,1,0,0,0,142,142,134,1,,,,,,,,
,,,,,,,,,,,,,FF,,,,,,,,0.8842,,,,,,,,,,,,,,,,,,,,,,61035e5f92396a346169f1b5,610369223c6d86eda699d859,2021-07-29_22h52.13.206,Simcolourproject_2stim_asymm_v5,2020.2.10,Win32,60,61025ae37ef11b136ea224fe,,,,,,,,,1494,40,109,1,0,0,response1disk,,7,18,-20,1,0,0,rectangle,18,-20,1,0,0,18,-20,1,0,0,0,143,143,127,1,,,,,,,,
,,,,,,,,,,,,,FF,,,,,,,,0.9175,,,,,,,,,,,,,,,,,,,,,,61035e5f92396a346169f1b5,610369223c6d86eda699d859,2021-07-29_22h52.13.206,Simcolourproject_2stim_asymm_v5,2020.2.10,Win32,60,61025ae37ef11b136ea224fe,,,,,,,,,516,49,97,1,0,0,response1disk,,7,-6,-12,1,0,0,rectangle,-6,-12,1,0,0,-6,-12,1,0,0,0,144,144,115,1,,,,,,,,
,,,,,,,,,,,,,FF,,,,,,,,0.6015,,,,,,,,,,,,,,,,,,,,,,61035e5f92396a346169f1b5,610369223c6d86eda699d859,2021-07-29_22h52.13.206,Simcolourproject_2stim_asymm_v5,2020.2.10,Win32,60,61025ae37ef11b136ea224fe,,,,,,,,,3530,39,81,1,0,0,response1disk,,7,7,-3,1,0,0,rectangle,7,-3,1,0,0,7,-3,1,0,0,0,145,145,76,1,,,,,,,,
,,,,,,,,,,,,,FF,,,,,,,,0.8672,,,,,,,,,,,,,,,,,,,,,,61035e5f92396a346169f1b5,610369223c6d86eda699d859,2021-07-29_22h52.13.206,Simcolourproject_2stim_asymm_v5,2020.2.10,Win32,60,61025ae37ef11b136ea224fe,,,,,,,,,748,50,79,1,0,0,response1disk,,7,5,0,1,0,0,rectangle,5,0,1,0,0,5,0,1,0,0,0,146,146,94,1,,,,,,,,
,,,,,,,,,,,,,FF,,,,,,,,1.7693,,,,,,,,,,,,,,,,,,,,,,61035e5f92396a346169f1b5,610369223c6d86eda699d859,2021-07-29_22h52.13.206,Simcolourproject_2stim_asymm_v5,2020.2.10,Win32,60,61025ae37ef11b136ea224fe,,,,,,,,,1898,99,-62,1,0,0,response3disk,,5,29,-3,1,0,0,rectangle,29,-3,1,0,0,29,-3,1,0,0,0,147,147,25,1,,,,,,,,
,,,,,,,,,,,,,FF,,,,,,,,0.5684,,,,,,,,,,,,,,,,,,,,,,61035e5f92396a346169f1b5,610369223c6d86eda699d859,2021-07-29_22h52.13.206,Simcolourproject_2stim_asymm_v5,2020.2.10,Win32,60,61025ae37ef11b136ea224fe,,,,,,,,,638,107,-45,1,0,0,response3disk,,5,3,9,1,0,0,rectangle,3,9,1,0,0,3,9,1,0,0,0,148,148,57,1,,,,,,,,
,,,,,,,,,,,,,FF,,,,,,,,0.6513,,,,,,,,,,,,,,,,,,,,,,61035e5f92396a346169f1b5,610369223c6d86eda699d859,2021-07-29_22h52.13.206,Simcolourproject_2stim_asymm_v5,2020.2.10,Win32,60,61025ae37ef11b136ea224fe,,,,,,,,,3866,60,114,1,0,0,response1disk,,7,18,-4,1,0,0,rectangle,18,-4,1,0,0,18,-4,1,0,0,0,149,149,100,1,,,,,,,,
,,,,,,,,,,,,,FF,,,,,,,,0.8839,,,,,,,,,,,,,,,,,,,,,,61035e5f92396a346169f1b5,610369223c6d86eda699d859,2021-07-29_22h52.13.206,Simcolourproject_2stim_asymm_v5,2020.2.10,Win32,60,61025ae37ef11b136ea224fe,,,,,,,,,4000,41,-104,1,0,0,response3disk,,4,3,14,1,0,0,rectangle,3,14,1,0,0,3,14,1,0,0,0,150,150,95,1,,,,,,,,
,,,,,,,,,,,,,FF,,,,,,,,0.7177,,,,,,,,,,,,,,,,,,,,,,61035e5f92396a346169f1b5,610369223c6d86eda699d859,2021-07-29_22h52.13.206,Simcolourproject_2stim_asymm_v5,2020.2.10,Win32,60,61025ae37ef11b136ea224fe,,,,,,,,,3326,50,114,1,0,0,response1disk,,7,10,3,1,0,0,rectangle,10,3,1,0,0,10,3,1,0,0,0,151,151,68,1,,,,,,,,
,,,,,,,,,,,,,FF,,,,,,,,1.0517,,,,,,,,,,,,,,,,,,,,,,61035e5f92396a346169f1b5,610369223c6d86eda699d859,2021-07-29_22h52.13.206,Simcolourproject_2stim_asymm_v5,2020.2.10,Win32,60,61025ae37ef11b136ea224fe,,,,,,,,,463,-62,-98,1,0,0,response5disk,,3,-7,7,1,0,0,rectangle,-7,7,1,0,0,-7,7,1,0,0,0,152,152,31,1,,,,,,,,
,,,,,,,,,,,,,FF,,,,,,,,1.001,,,,,,,,,,,,,,,,,,,,,,61035e5f92396a346169f1b5,610369223c6d86eda699d859,2021-07-29_22h52.13.206,Simcolourproject_2stim_asymm_v5,2020.2.10,Win32,60,61025ae37ef11b136ea224fe,,,,,,,,,4286,98,64,1,0,0,response1disk,,6,-6,1,1,0,0,rectangle,-6,1,1,0,0,-6,1,1,0,0,0,153,153,0,1,,,,,,,,
,,,,,,,,,,,,,FF,,,,,,,,0.6686,,,,,,,,,,,,,,,,,,,,,,61035e5f92396a346169f1b5,610369223c6d86eda699d859,2021-07-29_22h52.13.206,Simcolourproject_2stim_asymm_v5,2020.2.10,Win32,60,61025ae37ef11b136ea224fe,,,,,,,,,42,56,124,1,0,0,response1disk,,7,15,-5,1,0,0,rectangle,15,-5,1,0,0,15,-5,1,0,0,0,154,154,82,1,,,,,,,,
,,,,,,,,,,,,,FF,,,,,,,,0.751,,,,,,,,,,,,,,,,,,,,,,61035e5f92396a346169f1b5,610369223c6d86eda699d859,2021-07-29_22h52.13.206,Simcolourproject_2stim_asymm_v5,2020.2.10,Win32,60,61025ae37ef11b136ea224fe,,,,,,,,,2769,86,-71,1,0,0,response3disk,,5,12,-1,1,0,0,rectangle,12,-1,1,0,0,12,-1,1,0,0,0,155,155,152,1,,,,,,,,
,,,,,,,,,,,,,FF,,,,,,,,0.734,,,,,,,,,,,,,,,,,,,,,,61035e5f92396a346169f1b5,610369223c6d86eda699d859,2021-07-29_22h52.13.206,Simcolourproject_2stim_asymm_v5,2020.2.10,Win32,60,61025ae37ef11b136ea224fe,,,,,,,,,2257,98,57,1,0,0,response1disk,,6,-2,0,1,0,0,rectangle,-2,0,1,0,0,-2,0,1,0,0,0,156,156,45,1,,,,,,,,
,,,,,,,,,,,,,FF,,,,,,,,0.635,,,,,,,,,,,,,,,,,,,,,,61035e5f92396a346169f1b5,610369223c6d86eda699d859,2021-07-29_22h52.13.206,Simcolourproject_2stim_asymm_v5,2020.2.10,Win32,60,61025ae37ef11b136ea224fe,,,,,,,,,3705,-51,114,1,0,0,response7disk,,0,2,-6,1,0,0,rectangle,2,-6,1,0,0,2,-6,1,0,0,0,157,157,116,1,,,,,,,,
,,,,,,,,,,,,,FF,,,,,,,,0.6844,,,,,,,,,,,,,,,,,,,,,,61035e5f92396a346169f1b5,610369223c6d86eda699d859,2021-07-29_22h52.13.206,Simcolourproject_2stim_asymm_v5,2020.2.10,Win32,60,61025ae37ef11b136ea224fe,,,,,,,,,2503,43,104,1,0,0,response1disk,,7,-1,-8,1,0,0,rectangle,-1,-8,1,0,0,-1,-8,1,0,0,0,158,158,27,1,,,,,,,,
,,,,,,,,,,,,,FF,,,,,,,,0.717,,,,,,,,,,,,,,,,,,,,,,61035e5f92396a346169f1b5,610369223c6d86eda699d859,2021-07-29_22h52.13.206,Simcolourproject_2stim_asymm_v5,2020.2.10,Win32,60,61025ae37ef11b136ea224fe,,,,,,,,,2383,53,126,1,0,0,response1disk,,7,-3,1,1,0,0,rectangle,-3,1,1,0,0,-3,1,1,0,0,0,159,159,143,1,,,,,,,,
,,,,,,,,,,,,,FF,,,,,,,,0.7172,,,,,,,,,,,,,,,,,,,,,,61035e5f92396a346169f1b5,610369223c6d86eda699d859,2021-07-29_22h52.13.206,Simcolourproject_2stim_asymm_v5,2020.2.10,Win32,60,61025ae37ef11b136ea224fe,,,,,,,,,2100,-107,44,1,0,0,response7disk,,1,-6,-13,1,0,0,rectangle,-6,-13,1,0,0,-6,-13,1,0,0,1,0,160,81,1,,,,,,,,
,,,,,,,,,,,,,FF,,,,,,,,0.7168,,,,,,,,,,,,,,,,,,,,,,61035e5f92396a346169f1b5,610369223c6d86eda699d859,2021-07-29_22h52.13.206,Simcolourproject_2stim_asymm_v5,2020.2.10,Win32,60,61025ae37ef11b136ea224fe,,,,,,,,,1720,51,115,1,0,0,response1disk,,7,-2,-4,1,0,0,rectangle,-2,-4,1,0,0,-2,-4,1,0,0,1,1,161,8,1,,,,,,,,
,,,,,,,,,,,,,FF,,,,,,,,0.7339,,,,,,,,,,,,,,,,,,,,,,61035e5f92396a346169f1b5,610369223c6d86eda699d859,2021-07-29_22h52.13.206,Simcolourproject_2stim_asymm_v5,2020.2.10,Win32,60,61025ae37ef11b136ea224fe,,,,,,,,,650,93,-53,1,0,0,response3disk,,5,-15,10,1,0,0,rectangle,-15,10,1,0,0,-15,10,1,0,0,1,2,162,130,1,,,,,,,,
,,,,,,,,,,,,,FF,,,,,,,,0.9689,,,,,,,,,,,,,,,,,,,,,,61035e5f92396a346169f1b5,610369223c6d86eda699d859,2021-07-29_22h52.13.206,Simcolourproject_2stim_asymm_v5,2020.2.10,Win32,60,61025ae37ef11b136ea224fe,,,,,,,,,3002,-41,103,1,0,0,response7disk,,0,-23,-2,1,0,0,rectangle,-23,-2,1,0,0,-23,-2,1,0,0,1,3,163,101,1,,,,,,,,
,,,,,,,,,,,,,FF,,,,,,,,1.0531,,,,,,,,,,,,,,,,,,,,,,61035e5f92396a346169f1b5,610369223c6d86eda699d859,2021-07-29_22h52.13.206,Simcolourproject_2stim_asymm_v5,2020.2.10,Win32,60,61025ae37ef11b136ea224fe,,,,,,,,,4084,-91,-52,1,0,0,response5disk,,2,-1,11,1,0,0,rectangle,-1,11,1,0,0,-1,11,1,0,0,1,4,164,159,1,,,,,,,,
,,,,,,,,,,,,,FF,,,,,,,,1.1357,,,,,,,,,,,,,,,,,,,,,,61035e5f92396a346169f1b5,610369223c6d86eda699d859,2021-07-29_22h52.13.206,Simcolourproject_2stim_asymm_v5,2020.2.10,Win32,60,61025ae37ef11b136ea224fe,,,,,,,,,3362,88,36,1,0,0,response1disk,,6,1,4,1,0,0,rectangle,1,4,1,0,0,1,4,1,0,0,1,5,165,156,1,,,,,,,,
,,,,,,,,,,,,,FF,,,,,,,,0.684,,,,,,,,,,,,,,,,,,,,,,61035e5f92396a346169f1b5,610369223c6d86eda699d859,2021-07-29_22h52.13.206,Simcolourproject_2stim_asymm_v5,2020.2.10,Win32,60,61025ae37ef11b136ea224fe,,,,,,,,,1417,95,66,1,0,0,response1disk,,6,-8,2,1,0,0,rectangle,-8,2,1,0,0,-8,2,1,0,0,1,6,166,91,1,,,,,,,,
,,,,,,,,,,,,,FF,,,,,,,,0.8013,,,,,,,,,,,,,,,,,,,,,,61035e5f92396a346169f1b5,610369223c6d86eda699d859,2021-07-29_22h52.13.206,Simcolourproject_2stim_asymm_v5,2020.2.10,Win32,60,61025ae37ef11b136ea224fe,,,,,,,,,3643,95,61,1,0,0,response1disk,,6,-24,-5,1,0,0,rectangle,-24,-5,1,0,0,-24,-5,1,0,0,1,7,167,20,1,,,,,,,,
,,,,,,,,,,,,,FF,,,,,,,,2.4207,,,,,,,,,,,,,,,,,,,,,,61035e5f92396a346169f1b5,610369223c6d86eda699d859,2021-07-29_22h52.13.206,Simcolourproject_2stim_asymm_v5,2020.2.10,Win32,60,61025ae37ef11b136ea224fe,,,,,,,,,3521,90,46,1,0,0,response1disk,,6,1,-2,1,0,0,rectangle,1,-2,1,0,0,1,-2,1,0,0,1,8,168,11,1,,,,,,,,
,,,,,,,,,,,,,FF,,,,,,,,1.0182,,,,,,,,,,,,,,,,,,,,,,61035e5f92396a346169f1b5,610369223c6d86eda699d859,2021-07-29_22h52.13.206,Simcolourproject_2stim_asymm_v5,2020.2.10,Win32,60,61025ae37ef11b136ea224fe,,,,,,,,,1973,-65,-97,1,0,0,response5disk,,3,-7,-4,1,0,0,rectangle,-7,-4,1,0,0,-7,-4,1,0,0,1,9,169,144,1,,,,,,,,
,,,,,,,,,,,,,FF,,,,,,,,0.9011,,,,,,,,,,,,,,,,,,,,,,61035e5f92396a346169f1b5,610369223c6d86eda699d859,2021-07-29_22h52.13.206,Simcolourproject_2stim_asymm_v5,2020.2.10,Win32,60,61025ae37ef11b136ea224fe,,,,,,,,,1324,60,-104,1,0,0,response3disk,,4,19,-9,1,0,0,rectangle,19,-9,1,0,0,19,-9,1,0,0,1,10,170,43,1,,,,,,,,
,,,,,,,,,,,,,FF,,,,,,,,0.7181,,,,,,,,,,,,,,,,,,,,,,61035e5f92396a346169f1b5,610369223c6d86eda699d859,2021-07-29_22h52.13.206,Simcolourproject_2stim_asymm_v5,2020.2.10,Win32,60,61025ae37ef11b136ea224fe,,,,,,,,,4225,-116,50,1,0,0,response7disk,,1,-8,0,1,0,0,rectangle,-8,0,1,0,0,-8,0,1,0,0,1,11,171,65,1,,,,,,,,
,,,,,,,,,,,,,FF,,,,,,,,0.6683,,,,,,,,,,,,,,,,,,,,,,61035e5f92396a346169f1b5,610369223c6d86eda699d859,2021-07-29_22h52.13.206,Simcolourproject_2stim_asymm_v5,2020.2.10,Win32,60,61025ae37ef11b136ea224fe,,,,,,,,,3321,36,85,1,0,0,response1disk,,7,17,-11,1,0,0,rectangle,17,-11,1,0,0,17,-11,1,0,0,1,12,172,105,1,,,,,,,,
,,,,,,,,,,,,,FF,,,,,,,,0.8509,,,,,,,,,,,,,,,,,,,,,,61035e5f92396a346169f1b5,610369223c6d86eda699d859,2021-07-29_22h52.13.206,Simcolourproject_2stim_asymm_v5,2020.2.10,Win32,60,61025ae37ef11b136ea224fe,,,,,,,,,721,88,-62,1,0,0,response3disk,,5,-9,4,1,0,0,rectangle,-9,4,1,0,0,-9,4,1,0,0,1,13,173,147,1,,,,,,,,
,,,,,,,,,,,,,FF,,,,,,,,0.9339,,,,,,,,,,,,,,,,,,,,,,61035e5f92396a346169f1b5,610369223c6d86eda699d859,2021-07-29_22h52.13.206,Simcolourproject_2stim_asymm_v5,2020.2.10,Win32,60,61025ae37ef11b136ea224fe,,,,,,,,,2823,85,-50,1,0,0,response3disk,,5,-6,-4,1,0,0,rectangle,-6,-4,1,0,0,-6,-4,1,0,0,1,14,174,50,1,,,,,,,,
,,,,,,,,,,,,,FF,,,,,,,,0.7009,,,,,,,,,,,,,,,,,,,,,,61035e5f92396a346169f1b5,610369223c6d86eda699d859,2021-07-29_22h52.13.206,Simcolourproject_2stim_asymm_v5,2020.2.10,Win32,60,61025ae37ef11b136ea224fe,,,,,,,,,788,101,-53,1,0,0,response3disk,,5,8,12,1,0,0,rectangle,8,12,1,0,0,8,12,1,0,0,1,15,175,33,1,,,,,,,,
,,,,,,,,,,,,,FF,,,,,,,,0.7353,,,,,,,,,,,,,,,,,,,,,,61035e5f92396a346169f1b5,610369223c6d86eda699d859,2021-07-29_22h52.13.206,Simcolourproject_2stim_asymm_v5,2020.2.10,Win32,60,61025ae37ef11b136ea224fe,,,,,,,,,2954,60,-110,1,0,0,response3disk,,4,-6,2,1,0,0,rectangle,-6,2,1,0,0,-6,2,1,0,0,1,16,176,21,1,,,,,,,,
,,,,,,,,,,,,,FF,,,,,,,,0.7676,,,,,,,,,,,,,,,,,,,,,,61035e5f92396a346169f1b5,610369223c6d86eda699d859,2021-07-29_22h52.13.206,Simcolourproject_2stim_asymm_v5,2020.2.10,Win32,60,61025ae37ef11b136ea224fe,,,,,,,,,3880,25,-97,1,0,0,response3disk,,4,-10,2,1,0,0,rectangle,40,106,1,0,0,3,-4,1,0,0,1,17,177,30,1,,response1disk_3,TRUE,7,7,"[280,230,68,237,261,313,297,178,114,66,211,81,215,70,126,66,12,231,122,63]",1.3692,rectangle
,,,,,,,,,,,,,FF,,,,,,,,1.0014,,,,,,,,,,,,,,,,,,,,,,61035e5f92396a346169f1b5,610369223c6d86eda699d859,2021-07-29_22h52.13.206,Simcolourproject_2stim_asymm_v5,2020.2.10,Win32,60,61025ae37ef11b136ea224fe,,,,,,,,,2006,96,59,1,0,0,response1disk,,6,-13,-10,1,0,0,rectangle,-13,-10,1,0,0,-13,-10,1,0,0,1,18,178,0,1,,,,,,,,
,,,,,,,,,,,,,FF,,,,,,,,0.7672,,,,,,,,,,,,,,,,,,,,,,61035e5f92396a346169f1b5,610369223c6d86eda699d859,2021-07-29_22h52.13.206,Simcolourproject_2stim_asymm_v5,2020.2.10,Win32,60,61025ae37ef11b136ea224fe,,,,,,,,,2044,54,-104,1,0,0,response3disk,,4,5,-1,1,0,0,rectangle,5,-1,1,0,0,5,-1,1,0,0,1,19,179,22,1,,,,,,,,
,,,,,,,,,,,,,FF,,,,,,,,0.8345,,,,,,,,,,,,,,,,,,,,,,61035e5f92396a346169f1b5,610369223c6d86eda699d859,2021-07-29_22h52.13.206,Simcolourproject_2stim_asymm_v5,2020.2.10,Win32,60,61025ae37ef11b136ea224fe,,,,,,,,,4168,-92,48,1,0,0,response7disk,,1,-14,11,1,0,0,rectangle,-14,11,1,0,0,-14,11,1,0,0,1,20,180,52,1,,,,,,,,
,,,,,,,,,,,,,FF,,,,,,,,0.8339,,,,,,,,,,,,,,,,,,,,,,61035e5f92396a346169f1b5,610369223c6d86eda699d859,2021-07-29_22h52.13.206,Simcolourproject_2stim_asymm_v5,2020.2.10,Win32,60,61025ae37ef11b136ea224fe,,,,,,,,,1680,-47,-103,1,0,0,response5disk,,3,-3,14,1,0,0,rectangle,-3,14,1,0,0,-3,14,1,0,0,1,21,181,158,1,,,,,,,,
,,,,,,,,,,,,,FF,,,,,,,,0.7455,,,,,,,,,,,,,,,,,,,,,,61035e5f92396a346169f1b5,610369223c6d86eda699d859,2021-07-29_22h52.13.206,Simcolourproject_2stim_asymm_v5,2020.2.10,Win32,60,61025ae37ef11b136ea224fe,,,,,,,,,1944,48,102,1,0,0,response1disk,,7,11,-5,1,0,0,rectangle,11,-5,1,0,0,11,-5,1,0,0,1,22,182,128,1,,,,,,,,
,,,,,,,,,,,,,FF,,,,,,,,0.7839,,,,,,,,,,,,,,,,,,,,,,61035e5f92396a346169f1b5,610369223c6d86eda699d859,2021-07-29_22h52.13.206,Simcolourproject_2stim_asymm_v5,2020.2.10,Win32,60,61025ae37ef11b136ea224fe,,,,,,,,,227,80,47,1,0,0,response1disk,,6,-14,-20,1,0,0,rectangle,-14,-20,1,0,0,-14,-20,1,0,0,1,23,183,6,1,,,,,,,,
,,,,,,,,,,,,,FF,,,,,,,,0.7166,,,,,,,,,,,,,,,,,,,,,,61035e5f92396a346169f1b5,610369223c6d86eda699d859,2021-07-29_22h52.13.206,Simcolourproject_2stim_asymm_v5,2020.2.10,Win32,60,61025ae37ef11b136ea224fe,,,,,,,,,3119,36,91,1,0,0,response1disk,,7,7,-11,1,0,0,rectangle,7,-11,1,0,0,7,-11,1,0,0,1,24,184,37,1,,,,,,,,
,,,,,,,,,,,,,FF,,,,,,,,0.902,,,,,,,,,,,,,,,,,,,,,,61035e5f92396a346169f1b5,610369223c6d86eda699d859,2021-07-29_22h52.13.206,Simcolourproject_2stim_asymm_v5,2020.2.10,Win32,60,61025ae37ef11b136ea224fe,,,,,,,,,2665,53,-108,1,0,0,response3disk,,4,12,-16,1,0,0,rectangle,12,-16,1,0,0,12,-16,1,0,0,1,25,185,56,1,,,,,,,,
,,,,,,,,,,,,,FF,,,,,,,,0.8017,,,,,,,,,,,,,,,,,,,,,,61035e5f92396a346169f1b5,610369223c6d86eda699d859,2021-07-29_22h52.13.206,Simcolourproject_2stim_asymm_v5,2020.2.10,Win32,60,61025ae37ef11b136ea224fe,,,,,,,,,2023,42,86,1,0,0,response1disk,,7,-4,-11,1,0,0,rectangle,-4,-11,1,0,0,-4,-11,1,0,0,1,26,186,44,1,,,,,,,,
,,,,,,,,,,,,,FF,,,,,,,,0.8348,,,,,,,,,,,,,,,,,,,,,,61035e5f92396a346169f1b5,610369223c6d86eda699d859,2021-07-29_22h52.13.206,Simcolourproject_2stim_asymm_v5,2020.2.10,Win32,60,61025ae37ef11b136ea224fe,,,,,,,,,3394,44,-99,1,0,0,response3disk,,4,-4,8,1,0,0,rectangle,-4,8,1,0,0,-4,8,1,0,0,1,27,187,116,1,,,,,,,,
,,,,,,,,,,,,,FF,,,,,,,,0.8525,,,,,,,,,,,,,,,,,,,,,,61035e5f92396a346169f1b5,610369223c6d86eda699d859,2021-07-29_22h52.13.206,Simcolourproject_2stim_asymm_v5,2020.2.10,Win32,60,61025ae37ef11b136ea224fe,,,,,,,,,1677,-97,46,1,0,0,response7disk,,1,10,-5,1,0,0,rectangle,10,-5,1,0,0,10,-5,1,0,0,1,28,188,111,1,,,,,,,,
,,,,,,,,,,,,,FF,,,,,,,,0.7676,,,,,,,,,,,,,,,,,,,,,,61035e5f92396a346169f1b5,610369223c6d86eda699d859,2021-07-29_22h52.13.206,Simcolourproject_2stim_asymm_v5,2020.2.10,Win32,60,61025ae37ef11b136ea224fe,,,,,,,,,3454,51,93,1,0,0,response1disk,,7,13,7,1,0,0,rectangle,13,7,1,0,0,13,7,1,0,0,1,29,189,40,1,,,,,,,,
,,,,,,,,,,,,,FF,,,,,,,,1.2503,,,,,,,,,,,,,,,,,,,,,,61035e5f92396a346169f1b5,610369223c6d86eda699d859,2021-07-29_22h52.13.206,Simcolourproject_2stim_asymm_v5,2020.2.10,Win32,60,61025ae37ef11b136ea224fe,,,,,,,,,1448,55,-111,1,0,0,response3disk,,4,-7,5,1,0,0,rectangle,-7,5,1,0,0,-7,5,1,0,0,1,30,190,115,1,,,,,,,,
,,,,,,,,,,,,,FF,,,,,,,,0.7661,,,,,,,,,,,,,,,,,,,,,,61035e5f92396a346169f1b5,610369223c6d86eda699d859,2021-07-29_22h52.13.206,Simcolourproject_2stim_asymm_v5,2020.2.10,Win32,60,61025ae37ef11b136ea224fe,,,,,,,,,437,-32,-80,1,0,0,response5disk,,3,25,14,1,0,0,rectangle,25,14,1,0,0,25,14,1,0,0,1,31,191,99,1,,,,,,,,
,,,,,,,,,,,,,FF,,,,,,,,0.7006,,,,,,,,,,,,,,,,,,,,,,61035e5f92396a346169f1b5,610369223c6d86eda699d859,2021-07-29_22h52.13.206,Simcolourproject_2stim_asymm_v5,2020.2.10,Win32,60,61025ae37ef11b136ea224fe,,,,,,,,,1016,48,98,1,0,0,response1disk,,7,-4,0,1,0,0,rectangle,-4,0,1,0,0,-4,0,1,0,0,1,32,192,84,1,,,,,,,,
,,,,,,,,,,,,,FF,,,,,,,,0.751,,,,,,,,,,,,,,,,,,,,,,61035e5f92396a346169f1b5,610369223c6d86eda699d859,2021-07-29_22h52.13.206,Simcolourproject_2stim_asymm_v5,2020.2.10,Win32,60,61025ae37ef11b136ea224fe,,,,,,,,,904,124,46,1,0,0,response1disk,,6,7,-2,1,0,0,rectangle,7,-2,1,0,0,7,-2,1,0,0,1,33,193,17,1,,,,,,,,
,,,,,,,,,,,,,FF,,,,,,,,0.734,,,,,,,,,,,,,,,,,,,,,,61035e5f92396a346169f1b5,610369223c6d86eda699d859,2021-07-29_22h52.13.206,Simcolourproject_2stim_asymm_v5,2020.2.10,Win32,60,61025ae37ef11b136ea224fe,,,,,,,,,1695,63,81,1,0,0,response1disk,,7,6,-8,1,0,0,rectangle,6,-8,1,0,0,6,-8,1,0,0,1,34,194,138,1,,,,,,,,
,,,,,,,,,,,,,FF,,,,,,,,0.8734,,,,,,,,,,,,,,,,,,,,,,61035e5f92396a346169f1b5,610369223c6d86eda699d859,2021-07-29_22h52.13.206,Simcolourproject_2stim_asymm_v5,2020.2.10,Win32,60,61025ae37ef11b136ea224fe,,,,,,,,,2481,-89,-62,1,0,0,response5disk,,2,3,9,1,0,0,rectangle,3,9,1,0,0,3,9,1,0,0,1,35,195,25,1,,,,,,,,
,,,,,,,,,,,,,FF,,,,,,,,0.6663,,,,,,,,,,,,,,,,,,,,,,61035e5f92396a346169f1b5,610369223c6d86eda699d859,2021-07-29_22h52.13.206,Simcolourproject_2stim_asymm_v5,2020.2.10,Win32,60,61025ae37ef11b136ea224fe,,,,,,,,,3623,-54,-100,1,0,0,response5disk,,3,-10,-1,1,0,0,rectangle,-10,-1,1,0,0,-10,-1,1,0,0,1,36,196,102,1,,,,,,,,
,,,,,,,,,,,,,FF,,,,,,,,0.8522,,,,,,,,,,,,,,,,,,,,,,61035e5f92396a346169f1b5,610369223c6d86eda699d859,2021-07-29_22h52.13.206,Simcolourproject_2stim_asymm_v5,2020.2.10,Win32,60,61025ae37ef11b136ea224fe,,,,,,,,,48,43,87,1,0,0,response1disk,,7,4,-4,1,0,0,rectangle,4,-4,1,0,0,4,-4,1,0,0,1,37,197,140,1,,,,,,,,
,,,,,,,,,,,,,FF,,,,,,,,0.5836,,,,,,,,,,,,,,,,,,,,,,61035e5f92396a346169f1b5,610369223c6d86eda699d859,2021-07-29_22h52.13.206,Simcolourproject_2stim_asymm_v5,2020.2.10,Win32,60,61025ae37ef11b136ea224fe,,,,,,,,,1983,100,41,1,0,0,response1disk,,6,15,-6,1,0,0,rectangle,15,-6,1,0,0,15,-6,1,0,0,1,38,198,118,1,,,,,,,,
,,,,,,,,,,,,,FF,,,,,,,,0.9516,,,,,,,,,,,,,,,,,,,,,,61035e5f92396a346169f1b5,610369223c6d86eda699d859,2021-07-29_22h52.13.206,Simcolourproject_2stim_asymm_v5,2020.2.10,Win32,60,61025ae37ef11b136ea224fe,,,,,,,,,4048,43,-107,1,0,0,response3disk,,4,9,1,1,0,0,rectangle,9,1,1,0,0,9,1,1,0,0,1,39,199,126,1,,,,,,,,
,,,,,,,,,,,,,FF,,,,,,,,0.8,,,,,,,,,,,,,,,,,,,,,,61035e5f92396a346169f1b5,610369223c6d86eda699d859,2021-07-29_22h52.13.206,Simcolourproject_2stim_asymm_v5,2020.2.10,Win32,60,61025ae37ef11b136ea224fe,,,,,,,,,188,45,-104,1,0,0,response3disk,,4,-4,3,1,0,0,rectangle,-4,3,1,0,0,-4,3,1,0,0,1,40,200,27,1,,,,,,,,
,,,,,,,,,,,,,FF,,,,,,,,0.8322,,,,,,,,,,,,,,,,,,,,,,61035e5f92396a346169f1b5,610369223c6d86eda699d859,2021-07-29_22h52.13.206,Simcolourproject_2stim_asymm_v5,2020.2.10,Win32,60,61025ae37ef11b136ea224fe,,,,,,,,,1313,63,90,1,0,0,response1disk,,7,11,3,1,0,0,rectangle,11,3,1,0,0,11,3,1,0,0,1,41,201,51,1,,,,,,,,
,,,,,,,,,,,,,FF,,,,,,,,0.735,,,,,,,,,,,,,,,,,,,,,,61035e5f92396a346169f1b5,610369223c6d86eda699d859,2021-07-29_22h52.13.206,Simcolourproject_2stim_asymm_v5,2020.2.10,Win32,60,61025ae37ef11b136ea224fe,,,,,,,,,2643,42,75,1,0,0,response1disk,,7,-6,4,1,0,0,rectangle,-6,4,1,0,0,-6,4,1,0,0,1,42,202,139,1,,,,,,,,
,,,,,,,,,,,,,FF,,,,,,,,1.0183,,,,,,,,,,,,,,,,,,,,,,61035e5f92396a346169f1b5,610369223c6d86eda699d859,2021-07-29_22h52.13.206,Simcolourproject_2stim_asymm_v5,2020.2.10,Win32,60,61025ae37ef11b136ea224fe,,,,,,,,,570,87,-46,1,0,0,response3disk,,5,-21,13,1,0,0,rectangle,-21,13,1,0,0,-21,13,1,0,0,1,43,203,69,1,,,,,,,,
,,,,,,,,,,,,,FF,,,,,,,,0.7004,,,,,,,,,,,,,,,,,,,,,,61035e5f92396a346169f1b5,610369223c6d86eda699d859,2021-07-29_22h52.13.206,Simcolourproject_2stim_asymm_v5,2020.2.10,Win32,60,61025ae37ef11b136ea224fe,,,,,,,,,1532,94,-56,1,0,0,response3disk,,5,14,-3,1,0,0,rectangle,14,-3,1,0,0,14,-3,1,0,0,1,44,204,131,1,,,,,,,,
,,,,,,,,,,,,,FF,,,,,,,,0.7024,,,,,,,,,,,,,,,,,,,,,,61035e5f92396a346169f1b5,610369223c6d86eda699d859,2021-07-29_22h52.13.206,Simcolourproject_2stim_asymm_v5,2020.2.10,Win32,60,61025ae37ef11b136ea224fe,,,,,,,,,1918,96,-55,1,0,0,response3disk,,5,19,-7,1,0,0,rectangle,19,-7,1,0,0,19,-7,1,0,0,1,45,205,72,1,,,,,,,,
,,,,,,,,,,,,,FF,,,,,,,,0.8673,,,,,,,,,,,,,,,,,,,,,,61035e5f92396a346169f1b5,610369223c6d86eda699d859,2021-07-29_22h52.13.206,Simcolourproject_2stim_asymm_v5,2020.2.10,Win32,60,61025ae37ef11b136ea224fe,,,,,,,,,806,-28,-104,1,0,0,response5disk,,3,-2,-3,1,0,0,rectangle,-2,-3,1,0,0,-2,-3,1,0,0,1,46,206,70,1,,,,,,,,
,,,,,,,,,,,,,FF,,,,,,,,0.8234,,,,,,,,,,,,,,,,,,,,,,61035e5f92396a346169f1b5,610369223c6d86eda699d859,2021-07-29_22h52.13.206,Simcolourproject_2stim_asymm_v5,2020.2.10,Win32,60,61025ae37ef11b136ea224fe,,,,,,,,,468,83,-60,1,0,0,response3disk,,5,20,-12,1,0,0,rectangle,20,-12,1,0,0,20,-12,1,0,0,1,47,207,89,1,,,,,,,,
,,,,,,,,,,,,,FF,,,,,,,,0.8509,,,,,,,,,,,,,,,,,,,,,,61035e5f92396a346169f1b5,610369223c6d86eda699d859,2021-07-29_22h52.13.206,Simcolourproject_2stim_asymm_v5,2020.2.10,Win32,60,61025ae37ef11b136ea224fe,,,,,,,,,2294,59,82,1,0,0,response1disk,,7,5,-9,1,0,0,rectangle,5,-9,1,0,0,5,-9,1,0,0,1,48,208,55,1,,,,,,,,
,,,,,,,,,,,,,FF,,,,,,,,0.7013,,,,,,,,,,,,,,,,,,,,,,61035e5f92396a346169f1b5,610369223c6d86eda699d859,2021-07-29_22h52.13.206,Simcolourproject_2stim_asymm_v5,2020.2.10,Win32,60,61025ae37ef11b136ea224fe,,,,,,,,,923,104,37,1,0,0,response1disk,,6,4,-7,1,0,0,rectangle,4,-7,1,0,0,4,-7,1,0,0,1,49,209,34,1,,,,,,,,
,,,,,,,,,,,,,FF,,,,,,,,0.7346,,,,,,,,,,,,,,,,,,,,,,61035e5f92396a346169f1b5,610369223c6d86eda699d859,2021-07-29_22h52.13.206,Simcolourproject_2stim_asymm_v5,2020.2.10,Win32,60,61025ae37ef11b136ea224fe,,,,,,,,,2046,113,-59,1,0,0,response3disk,,5,7,0,1,0,0,rectangle,-83,-51,1,0,0,-14,-3,1,0,0,1,50,210,117,1,,response5disk_3,TRUE,2,2,"[280,230,68,237,261,313,297,178,114,66,211,81,215,70,126,66,12,231,122,63]",1.4507,rectangle
,,,,,,,,,,,,,FF,,,,,,,,1.7705,,,,,,,,,,,,,,,,,,,,,,61035e5f92396a346169f1b5,610369223c6d86eda699d859,2021-07-29_22h52.13.206,Simcolourproject_2stim_asymm_v5,2020.2.10,Win32,60,61025ae37ef11b136ea224fe,,,,,,,,,860,83,63,1,0,0,response1disk,,6,-2,-4,1,0,0,rectangle,-2,-4,1,0,0,-2,-4,1,0,0,1,51,211,155,1,,,,,,,,
,,,,,,,,,,,,,FF,,,,,,,,0.7487,,,,,,,,,,,,,,,,,,,,,,61035e5f92396a346169f1b5,610369223c6d86eda699d859,2021-07-29_22h52.13.206,Simcolourproject_2stim_asymm_v5,2020.2.10,Win32,60,61025ae37ef11b136ea224fe,,,,,,,,,2673,-43,-103,1,0,0,response5disk,,3,11,6,1,0,0,rectangle,11,6,1,0,0,11,6,1,0,0,1,52,212,12,1,,,,,,,,
,,,,,,,,,,,,,FF,,,,,,,,0.6327,,,,,,,,,,,,,,,,,,,,,,61035e5f92396a346169f1b5,610369223c6d86eda699d859,2021-07-29_22h52.13.206,Simcolourproject_2stim_asymm_v5,2020.2.10,Win32,60,61025ae37ef11b136ea224fe,,,,,,,,,4268,57,-117,1,0,0,response3disk,,4,-1,7,1,0,0,rectangle,-1,7,1,0,0,-1,7,1,0,0,1,53,213,58,1,,,,,,,,
,,,,,,,,,,,,,FF,,,,,,,,0.7682,,,,,,,,,,,,,,,,,,,,,,61035e5f92396a346169f1b5,610369223c6d86eda699d859,2021-07-29_22h52.13.206,Simcolourproject_2stim_asymm_v5,2020.2.10,Win32,60,61025ae37ef11b136ea224fe,,,,,,,,,3330,-97,-34,1,0,0,response5disk,,2,-1,2,1,0,0,rectangle,-51,-110,1,0,0,2,10,1,0,0,1,54,214,78,1,,response5disk_3,TRUE,3,3,"[280,230,68,237,261,313,297,178,114,66,211,81,215,70,126,66,12,231,122,63]",1.585,rectangle
,,,,,,,,,,,,,FF,,,,,,,,0.7374,,,,,,,,,,,,,,,,,,,,,,61035e5f92396a346169f1b5,610369223c6d86eda699d859,2021-07-29_22h52.13.206,Simcolourproject_2stim_asymm_v5,2020.2.10,Win32,60,61025ae37ef11b136ea224fe,,,,,,,,,4123,-90,26,1,0,0,response7disk,,1,-7,-8,1,0,0,rectangle,-7,-8,1,0,0,-7,-8,1,0,0,1,55,215,146,1,,,,,,,,
,,,,,,,,,,,,,FF,,,,,,,,1.2155,,,,,,,,,,,,,,,,,,,,,,61035e5f92396a346169f1b5,610369223c6d86eda699d859,2021-07-29_22h52.13.206,Simcolourproject_2stim_asymm_v5,2020.2.10,Win32,60,61025ae37ef11b136ea224fe,,,,,,,,,54,-41,-102,1,0,0,response5disk,,3,-4,12,1,0,0,rectangle,-4,12,1,0,0,-4,12,1,0,0,1,56,216,149,1,,,,,,,,
,,,,,,,,,,,,,FF,,,,,,,,0.7008,,,,,,,,,,,,,,,,,,,,,,61035e5f92396a346169f1b5,610369223c6d86eda699d859,2021-07-29_22h52.13.206,Simcolourproject_2stim_asymm_v5,2020.2.10,Win32,60,61025ae37ef11b136ea224fe,,,,,,,,,2688,30,132,1,0,0,response1disk,,7,8,-2,1,0,0,rectangle,8,-2,1,0,0,8,-2,1,0,0,1,57,217,5,1,,,,,,,,
,,,,,,,,,,,,,FF,,,,,,,,0.6672,,,,,,,,,,,,,,,,,,,,,,61035e5f92396a346169f1b5,610369223c6d86eda699d859,2021-07-29_22h52.13.206,Simcolourproject_2stim_asymm_v5,2020.2.10,Win32,60,61025ae37ef11b136ea224fe,,,,,,,,,3348,77,-52,1,0,0,response3disk,,5,-1,-2,1,0,0,rectangle,-1,-2,1,0,0,-1,-2,1,0,0,1,58,218,45,1,,,,,,,,
,,,,,,,,,,,,,FF,,,,,,,,0.8676,,,,,,,,,,,,,,,,,,,,,,61035e5f92396a346169f1b5,610369223c6d86eda699d859,2021-07-29_22h52.13.206,Simcolourproject_2stim_asymm_v5,2020.2.10,Win32,60,61025ae37ef11b136ea224fe,,,,,,,,,771,90,57,1,0,0,response1disk,,6,-7,3,1,0,0,rectangle,-7,3,1,0,0,-7,3,1,0,0,1,59,219,107,1,,,,,,,,
,,,,,,,,,,,,,FF,,,,,,,,0.7673,,,,,,,,,,,,,,,,,,,,,,61035e5f92396a346169f1b5,610369223c6d86eda699d859,2021-07-29_22h52.13.206,Simcolourproject_2stim_asymm_v5,2020.2.10,Win32,60,61025ae37ef11b136ea224fe,,,,,,,,,883,93,53,1,0,0,response1disk,,6,16,4,1,0,0,rectangle,16,4,1,0,0,16,4,1,0,0,1,60,220,153,1,,,,,,,,
,,,,,,,,,,,,,FF,,,,,,,,0.5836,,,,,,,,,,,,,,,,,,,,,,61035e5f92396a346169f1b5,610369223c6d86eda699d859,2021-07-29_22h52.13.206,Simcolourproject_2stim_asymm_v5,2020.2.10,Win32,60,61025ae37ef11b136ea224fe,,,,,,,,,669,86,35,1,0,0,response1disk,,6,5,-6,1,0,0,rectangle,5,-6,1,0,0,5,-6,1,0,0,1,61,221,16,1,,,,,,,,
,,,,,,,,,,,,,FF,,,,,,,,0.6339,,,,,,,,,,,,,,,,,,,,,,61035e5f92396a346169f1b5,610369223c6d86eda699d859,2021-07-29_22h52.13.206,Simcolourproject_2stim_asymm_v5,2020.2.10,Win32,60,61025ae37ef11b136ea224fe,,,,,,,,,1425,78,-38,1,0,0,response3disk,,5,-3,4,1,0,0,rectangle,-3,4,1,0,0,-3,4,1,0,0,1,62,222,24,1,,,,,,,,
,,,,,,,,,,,,,FF,,,,,,,,0.8348,,,,,,,,,,,,,,,,,,,,,,61035e5f92396a346169f1b5,610369223c6d86eda699d859,2021-07-29_22h52.13.206,Simcolourproject_2stim_asymm_v5,2020.2.10,Win32,60,61025ae37ef11b136ea224fe,,,,,,,,,915,56,-102,1,0,0,response3disk,,4,-7,-4,1,0,0,rectangle,-7,-4,1,0,0,-7,-4,1,0,0,1,63,223,145,1,,,,,,,,
,,,,,,,,,,,,,FF,,,,,,,,1.6531,,,,,,,,,,,,,,,,,,,,,,61035e5f92396a346169f1b5,610369223c6d86eda699d859,2021-07-29_22h52.13.206,Simcolourproject_2stim_asymm_v5,2020.2.10,Win32,60,61025ae37ef11b136ea224fe,,,,,,,,,3879,98,63,1,0,0,response1disk,,6,-13,6,1,0,0,rectangle,-13,6,1,0,0,-13,6,1,0,0,1,64,224,80,1,,,,,,,,
,,,,,,,,,,,,,FF,,,,,,,,0.6344,,,,,,,,,,,,,,,,,,,,,,61035e5f92396a346169f1b5,610369223c6d86eda699d859,2021-07-29_22h52.13.206,Simcolourproject_2stim_asymm_v5,2020.2.10,Win32,60,61025ae37ef11b136ea224fe,,,,,,,,,684,100,46,1,0,0,response1disk,,6,-1,-5,1,0,0,rectangle,-1,-5,1,0,0,-1,-5,1,0,0,1,65,225,2,1,,,,,,,,
,,,,,,,,,,,,,FF,,,,,,,,0.8308,,,,,,,,,,,,,,,,,,,,,,61035e5f92396a346169f1b5,610369223c6d86eda699d859,2021-07-29_22h52.13.206,Simcolourproject_2stim_asymm_v5,2020.2.10,Win32,60,61025ae37ef11b136ea224fe,,,,,,,,,2531,36,-109,1,0,0,response3disk,,4,-21,4,1,0,0,rectangle,-21,4,1,0,0,-21,4,1,0,0,1,66,226,125,1,,,,,,,,
,,,,,,,,,,,,,FF,,,,,,,,0.7038,,,,,,,,,,,,,,,,,,,,,,61035e5f92396a346169f1b5,610369223c6d86eda699d859,2021-07-29_22h52.13.206,Simcolourproject_2stim_asymm_v5,2020.2.10,Win32,60,61025ae37ef11b136ea224fe,,,,,,,,,3216,44,103,1,0,0,response1disk,,7,15,-3,1,0,0,rectangle,15,-3,1,0,0,15,-3,1,0,0,1,67,227,23,1,,,,,,,,
,,,,,,,,,,,,,FF,,,,,,,,0.6505,,,,,,,,,,,,,,,,,,,,,,61035e5f92396a346169f1b5,610369223c6d86eda699d859,2021-07-29_22h52.13.206,Simcolourproject_2stim_asymm_v5,2020.2.10,Win32,60,61025ae37ef11b136ea224fe,,,,,,,,,688,87,37,1,0,0,response1disk,,6,-22,-4,1,0,0,rectangle,-22,-4,1,0,0,-22,-4,1,0,0,1,68,228,46,1,,,,,,,,
,,,,,,,,,,,,,FF,,,,,,,,1.0182,,,,,,,,,,,,,,,,,,,,,,61035e5f92396a346169f1b5,610369223c6d86eda699d859,2021-07-29_22h52.13.206,Simcolourproject_2stim_asymm_v5,2020.2.10,Win32,60,61025ae37ef11b136ea224fe,,,,,,,,,3783,36,-100,1,0,0,response3disk,,4,-13,-2,1,0,0,rectangle,-47,-91,1,0,0,4,2,1,0,0,1,69,229,36,1,,response5disk_3,TRUE,3,3,"[280,230,68,237,261,313,297,178,114,66,211,81,215,70,126,66,12,231,122,63]",1.7009,rectangle
,,,,,,,,,,,,,FF,,,,,,,,1.0691,,,,,,,,,,,,,,,,,,,,,,61035e5f92396a346169f1b5,610369223c6d86eda699d859,2021-07-29_22h52.13.206,Simcolourproject_2stim_asymm_v5,2020.2.10,Win32,60,61025ae37ef11b136ea224fe,,,,,,,,,419,88,43,1,0,0,response1disk,,6,-7,3,1,0,0,rectangle,43,110,1,0,0,19,12,1,0,0,1,70,230,71,1,,response1disk_3,TRUE,7,7,"[280,230,68,237,261,313,297,178,114,66,211,81,215,70,126,66,12,231,122,63]",1.4357,rectangle
,,,,,,,,,,,,,FF,,,,,,,,0.7346,,,,,,,,,,,,,,,,,,,,,,61035e5f92396a346169f1b5,610369223c6d86eda699d859,2021-07-29_22h52.13.206,Simcolourproject_2stim_asymm_v5,2020.2.10,Win32,60,61025ae37ef11b136ea224fe,,,,,,,,,1913,85,-47,1,0,0,response3disk,,5,3,5,1,0,0,rectangle,3,5,1,0,0,3,5,1,0,0,1,71,231,35,1,,,,,,,,
,,,,,,,,,,,,,FF,,,,,,,,0.8524,,,,,,,,,,,,,,,,,,,,,,61035e5f92396a346169f1b5,610369223c6d86eda699d859,2021-07-29_22h52.13.206,Simcolourproject_2stim_asymm_v5,2020.2.10,Win32,60,61025ae37ef11b136ea224fe,,,,,,,,,2546,-83,-40,1,0,0,response5disk,,2,-8,14,1,0,0,rectangle,-8,14,1,0,0,-8,14,1,0,0,1,72,232,42,1,,,,,,,,
,,,,,,,,,,,,,FF,,,,,,,,0.5667,,,,,,,,,,,,,,,,,,,,,,61035e5f92396a346169f1b5,610369223c6d86eda699d859,2021-07-29_22h52.13.206,Simcolourproject_2stim_asymm_v5,2020.2.10,Win32,60,61025ae37ef11b136ea224fe,,,,,,,,,2602,-83,-38,1,0,0,response5disk,,2,0,4,1,0,0,rectangle,0,4,1,0,0,0,4,1,0,0,1,73,233,129,1,,,,,,,,
,,,,,,,,,,,,,FF,,,,,,,,0.8026,,,,,,,,,,,,,,,,,,,,,,61035e5f92396a346169f1b5,610369223c6d86eda699d859,2021-07-29_22h52.13.206,Simcolourproject_2stim_asymm_v5,2020.2.10,Win32,60,61025ae37ef11b136ea224fe,,,,,,,,,864,81,58,1,0,0,response1disk,,6,12,2,1,0,0,rectangle,12,2,1,0,0,12,2,1,0,0,1,74,234,108,1,,,,,,,,
,,,,,,,,,,,,,FF,,,,,,,,1.1148,,,,,,,,,,,,,,,,,,,,,,61035e5f92396a346169f1b5,610369223c6d86eda699d859,2021-07-29_22h52.13.206,Simcolourproject_2stim_asymm_v5,2020.2.10,Win32,60,61025ae37ef11b136ea224fe,,,,,,,,,4301,78,58,1,0,0,response1disk,,6,-3,5,1,0,0,rectangle,-3,5,1,0,0,-3,5,1,0,0,1,75,235,10,1,,,,,,,,
,,,,,,,,,,,,,FF,,,,,,,,0.6682,,,,,,,,,,,,,,,,,,,,,,61035e5f92396a346169f1b5,610369223c6d86eda699d859,2021-07-29_22h52.13.206,Simcolourproject_2stim_asymm_v5,2020.2.10,Win32,60,61025ae37ef11b136ea224fe,,,,,,,,,2313,89,42,1,0,0,response1disk,,6,-5,-7,1,0,0,rectangle,104,-47,1,0,0,-4,3,1,0,0,1,76,236,86,1,,response3disk_3,TRUE,5,5,"[280,230,68,237,261,313,297,178,114,66,211,81,215,70,126,66,12,231,122,63]",1.8873,rectangle
,,,,,,,,,,,,,FF,,,,,,,,0.7685,,,,,,,,,,,,,,,,,,,,,,61035e5f92396a346169f1b5,610369223c6d86eda699d859,2021-07-29_22h52.13.206,Simcolourproject_2stim_asymm_v5,2020.2.10,Win32,60,61025ae37ef11b136ea224fe,,,,,,,,,1050,-45,91,1,0,0,response7disk,,0,40,-12,1,0,0,rectangle,40,-12,1,0,0,40,-12,1,0,0,1,77,237,124,1,,,,,,,,
,,,,,,,,,,,,,FF,,,,,,,,0.8171,,,,,,,,,,,,,,,,,,,,,,61035e5f92396a346169f1b5,610369223c6d86eda699d859,2021-07-29_22h52.13.206,Simcolourproject_2stim_asymm_v5,2020.2.10,Win32,60,61025ae37ef11b136ea224fe,,,,,,,,,939,34,97,1,0,0,response1disk,,7,9,-7,1,0,0,rectangle,9,-7,1,0,0,9,-7,1,0,0,1,78,238,150,1,,,,,,,,
,,,,,,,,,,,,,FF,,,,,,,,0.6015,,,,,,,,,,,,,,,,,,,,,,61035e5f92396a346169f1b5,610369223c6d86eda699d859,2021-07-29_22h52.13.206,Simcolourproject_2stim_asymm_v5,2020.2.10,Win32,60,61025ae37ef11b136ea224fe,,,,,,,,,2659,39,80,1,0,0,response1disk,,7,-4,8,1,0,0,rectangle,-4,8,1,0,0,-4,8,1,0,0,1,79,239,120,1,,,,,,,,
,,,,,,,,,,,,,FF,,,,,,,,1.018,,,,,,,,,,,,,,,,,,,,,,61035e5f92396a346169f1b5,610369223c6d86eda699d859,2021-07-29_22h52.13.206,Simcolourproject_2stim_asymm_v5,2020.2.10,Win32,60,61025ae37ef11b136ea224fe,,,,,,,,,1949,47,-92,1,0,0,response3disk,,4,7,-7,1,0,0,rectangle,7,-7,1,0,0,7,-7,1,0,0,1,80,240,60,1,,,,,,,,
,,,,,,,,,,,,,FF,,,,,,,,0.8671,,,,,,,,,,,,,,,,,,,,,,61035e5f92396a346169f1b5,610369223c6d86eda699d859,2021-07-29_22h52.13.206,Simcolourproject_2stim_asymm_v5,2020.2.10,Win32,60,61025ae37ef11b136ea224fe,,,,,,,,,3560,-93,-56,1,0,0,response5disk,,2,-6,-4,1,0,0,rectangle,-6,-4,1,0,0,-6,-4,1,0,0,1,81,241,104,1,,,,,,,,
,,,,,,,,,,,,,FF,,,,,,,,0.6838,,,,,,,,,,,,,,,,,,,,,,61035e5f92396a346169f1b5,610369223c6d86eda699d859,2021-07-29_22h52.13.206,Simcolourproject_2stim_asymm_v5,2020.2.10,Win32,60,61025ae37ef11b136ea224fe,,,,,,,,,3325,26,100,1,0,0,response1disk,,7,11,-9,1,0,0,rectangle,11,-9,1,0,0,11,-9,1,0,0,1,82,242,76,1,,,,,,,,
,,,,,,,,,,,,,FF,,,,,,,,0.7351,,,,,,,,,,,,,,,,,,,,,,61035e5f92396a346169f1b5,610369223c6d86eda699d859,2021-07-29_22h52.13.206,Simcolourproject_2stim_asymm_v5,2020.2.10,Win32,60,61025ae37ef11b136ea224fe,,,,,,,,,653,92,43,1,0,0,response1disk,,6,-6,-13,1,0,0,rectangle,-6,-13,1,0,0,-6,-13,1,0,0,1,83,243,63,1,,,,,,,,
,,,,,,,,,,,,,FF,,,,,,,,0.9675,,,,,,,,,,,,,,,,,,,,,,61035e5f92396a346169f1b5,610369223c6d86eda699d859,2021-07-29_22h52.13.206,Simcolourproject_2stim_asymm_v5,2020.2.10,Win32,60,61025ae37ef11b136ea224fe,,,,,,,,,1216,44,-92,1,0,0,response3disk,,4,-2,2,1,0,0,rectangle,-2,2,1,0,0,-2,2,1,0,0,1,84,244,41,1,,,,,,,,
,,,,,,,,,,,,,FF,,,,,,,,0.784,,,,,,,,,,,,,,,,,,,,,,61035e5f92396a346169f1b5,610369223c6d86eda699d859,2021-07-29_22h52.13.206,Simcolourproject_2stim_asymm_v5,2020.2.10,Win32,60,61025ae37ef11b136ea224fe,,,,,,,,,3198,47,-104,1,0,0,response3disk,,4,-5,14,1,0,0,rectangle,-5,14,1,0,0,-5,14,1,0,0,1,85,245,96,1,,,,,,,,
,,,,,,,,,,,,,FF,,,,,,,,0.7666,,,,,,,,,,,,,,,,,,,,,,61035e5f92396a346169f1b5,610369223c6d86eda699d859,2021-07-29_22h52.13.206,Simcolourproject_2stim_asymm_v5,2020.2.10,Win32,60,61025ae37ef11b136ea224fe,,,,,,,,,3260,54,67,1,0,0,response1disk,,7,-6,-10,1,0,0,rectangle,-6,-10,1,0,0,-6,-10,1,0,0,1,86,246,113,1,,,,,,,,
,,,,,,,,,,,,,FF,,,,,,,,0.6006,,,,,,,,,,,,,,,,,,,,,,61035e5f92396a346169f1b5,610369223c6d86eda699d859,2021-07-29_22h52.13.206,Simcolourproject_2stim_asymm_v5,2020.2.10,Win32,60,61025ae37ef11b136ea224fe,,,,,,,,,3176,115,41,1,0,0,response1disk,,6,0,1,1,0,0,rectangle,0,1,1,0,0,0,1,1,0,0,1,87,247,49,1,,,,,,,,
,,,,,,,,,,,,,FF,,,,,,,,0.5835,,,,,,,,,,,,,,,,,,,,,,61035e5f92396a346169f1b5,610369223c6d86eda699d859,2021-07-29_22h52.13.206,Simcolourproject_2stim_asymm_v5,2020.2.10,Win32,60,61025ae37ef11b136ea224fe,,,,,,,,,108,87,45,1,0,0,response1disk,,6,10,-1,1,0,0,rectangle,10,-1,1,0,0,10,-1,1,0,0,1,88,248,87,1,,,,,,,,
,,,,,,,,,,,,,FF,,,,,,,,0.8473,,,,,,,,,,,,,,,,,,,,,,61035e5f92396a346169f1b5,610369223c6d86eda699d859,2021-07-29_22h52.13.206,Simcolourproject_2stim_asymm_v5,2020.2.10,Win32,60,61025ae37ef11b136ea224fe,,,,,,,,,3081,99,-41,1,0,0,response3disk,,5,26,6,1,0,0,rectangle,26,6,1,0,0,26,6,1,0,0,1,89,249,109,1,,,,,,,,
,,,,,,,,,,,,,FF,,,,,,,,1.101,,,,,,,,,,,,,,,,,,,,,,61035e5f92396a346169f1b5,610369223c6d86eda699d859,2021-07-29_22h52.13.206,Simcolourproject_2stim_asymm_v5,2020.2.10,Win32,60,61025ae37ef11b136ea224fe,,,,,,,,,98,53,-118,1,0,0,response3disk,,4,-16,-6,1,0,0,rectangle,-16,-6,1,0,0,-16,-6,1,0,0,1,90,250,39,1,,,,,,,,
,,,,,,,,,,,,,FF,,,,,,,,4.3408,,,,,,,,,,,,,,,,,,,,,,61035e5f92396a346169f1b5,610369223c6d86eda699d859,2021-07-29_22h52.13.206,Simcolourproject_2stim_asymm_v5,2020.2.10,Win32,60,61025ae37ef11b136ea224fe,,,,,,,,,1479,100,55,1,0,0,response1disk,,6,10,7,1,0,0,rectangle,10,7,1,0,0,10,7,1,0,0,1,91,251,67,1,,,,,,,,
,,,,,,,,,,,,,FF,,,,,,,,0.8177,,,,,,,,,,,,,,,,,,,,,,61035e5f92396a346169f1b5,610369223c6d86eda699d859,2021-07-29_22h52.13.206,Simcolourproject_2stim_asymm_v5,2020.2.10,Win32,60,61025ae37ef11b136ea224fe,,,,,,,,,2240,-83,-50,1,0,0,response5disk,,2,17,4,1,0,0,rectangle,17,4,1,0,0,17,4,1,0,0,1,92,252,29,1,,,,,,,,
,,,,,,,,,,,,,FF,,,,,,,,0.835,,,,,,,,,,,,,,,,,,,,,,61035e5f92396a346169f1b5,610369223c6d86eda699d859,2021-07-29_22h52.13.206,Simcolourproject_2stim_asymm_v5,2020.2.10,Win32,60,61025ae37ef11b136ea224fe,,,,,,,,,4146,-97,33,1,0,0,response7disk,,1,-3,0,1,0,0,rectangle,-3,0,1,0,0,-3,0,1,0,0,1,93,253,82,1,,,,,,,,
,,,,,,,,,,,,,FF,,,,,,,,0.951,,,,,,,,,,,,,,,,,,,,,,61035e5f92396a346169f1b5,610369223c6d86eda699d859,2021-07-29_22h52.13.206,Simcolourproject_2stim_asymm_v5,2020.2.10,Win32,60,61025ae37ef11b136ea224fe,,,,,,,,,2393,100,62,1,0,0,response1disk,,6,-2,-1,1,0,0,rectangle,-2,-1,1,0,0,-2,-1,1,0,0,1,94,254,132,1,,,,,,,,
,,,,,,,,,,,,,FF,,,,,,,,1.1013,,,,,,,,,,,,,,,,,,,,,,61035e5f92396a346169f1b5,610369223c6d86eda699d859,2021-07-29_22h52.13.206,Simcolourproject_2stim_asymm_v5,2020.2.10,Win32,60,61025ae37ef11b136ea224fe,,,,,,,,,3736,85,42,1,0,0,response1disk,,6,-8,-14,1,0,0,rectangle,-8,-14,1,0,0,-8,-14,1,0,0,1,95,255,54,1,,,,,,,,
,,,,,,,,,,,,,FF,,,,,,,,0.8683,,,,,,,,,,,,,,,,,,,,,,61035e5f92396a346169f1b5,610369223c6d86eda699d859,2021-07-29_22h52.13.206,Simcolourproject_2stim_asymm_v5,2020.2.10,Win32,60,61025ae37ef11b136ea224fe,,,,,,,,,919,98,-50,1,0,0,response3disk,,5,6,3,1,0,0,rectangle,6,3,1,0,0,6,3,1,0,0,1,96,256,151,1,,,,,,,,
,,,,,,,,,,,,,FF,,,,,,,,0.7512,,,,,,,,,,,,,,,,,,,,,,61035e5f92396a346169f1b5,610369223c6d86eda699d859,2021-07-29_22h52.13.206,Simcolourproject_2stim_asymm_v5,2020.2.10,Win32,60,61025ae37ef11b136ea224fe,,,,,,,,,3908,-84,40,1,0,0,response7disk,,1,19,-7,1,0,0,rectangle,19,-7,1,0,0,19,-7,1,0,0,1,97,257,61,1,,,,,,,,
,,,,,,,,,,,,,FF,,,,,,,,0.8349,,,,,,,,,,,,,,,,,,,,,,61035e5f92396a346169f1b5,610369223c6d86eda699d859,2021-07-29_22h52.13.206,Simcolourproject_2stim_asymm_v5,2020.2.10,Win32,60,61025ae37ef11b136ea224fe,,,,,,,,,1055,-92,19,1,0,0,response7disk,,1,-12,-12,1,0,0,rectangle,-12,-12,1,0,0,-12,-12,1,0,0,1,98,258,122,1,,,,,,,,
,,,,,,,,,,,,,FF,,,,,,,,0.9858,,,,,,,,,,,,,,,,,,,,,,61035e5f92396a346169f1b5,610369223c6d86eda699d859,2021-07-29_22h52.13.206,Simcolourproject_2stim_asymm_v5,2020.2.10,Win32,60,61025ae37ef11b136ea224fe,,,,,,,,,2441,-54,-79,1,0,0,response5disk,,3,1,-2,1,0,0,rectangle,1,-2,1,0,0,1,-2,1,0,0,1,99,259,77,1,,,,,,,,
,,,,,,,,,,,,,FF,,,,,,,,0.718,,,,,,,,,,,,,,,,,,,,,,61035e5f92396a346169f1b5,610369223c6d86eda699d859,2021-07-29_22h52.13.206,Simcolourproject_2stim_asymm_v5,2020.2.10,Win32,60,61025ae37ef11b136ea224fe,,,,,,,,,763,89,47,1,0,0,response1disk,,6,0,6,1,0,0,rectangle,95,-37,1,0,0,-15,17,1,0,0,1,100,260,59,1,,response3disk_3,TRUE,5,5,"[280,230,68,237,261,313,297,178,114,66,211,81,215,70,126,66,12,231,122,63]",1.3355,rectangle
,,,,,,,,,,,,,FF,,,,,,,,0.901,,,,,,,,,,,,,,,,,,,,,,61035e5f92396a346169f1b5,610369223c6d86eda699d859,2021-07-29_22h52.13.206,Simcolourproject_2stim_asymm_v5,2020.2.10,Win32,60,61025ae37ef11b136ea224fe,,,,,,,,,1042,-41,-102,1,0,0,response5disk,,3,10,12,1,0,0,rectangle,10,12,1,0,0,10,12,1,0,0,1,101,261,26,1,,,,,,,,
,,,,,,,,,,,,,FF,,,,,,,,0.8543,,,,,,,,,,,,,,,,,,,,,,61035e5f92396a346169f1b5,610369223c6d86eda699d859,2021-07-29_22h52.13.206,Simcolourproject_2stim_asymm_v5,2020.2.10,Win32,60,61025ae37ef11b136ea224fe,,,,,,,,,2553,119,73,1,0,0,response1disk,,6,6,6,1,0,0,rectangle,6,6,1,0,0,6,6,1,0,0,1,102,262,38,1,,,,,,,,
,,,,,,,,,,,,,FF,,,,,,,,0.8344,,,,,,,,,,,,,,,,,,,,,,61035e5f92396a346169f1b5,610369223c6d86eda699d859,2021-07-29_22h52.13.206,Simcolourproject_2stim_asymm_v5,2020.2.10,Win32,60,61025ae37ef11b136ea224fe,,,,,,,,,995,89,-40,1,0,0,response3disk,,5,23,16,1,0,0,rectangle,23,16,1,0,0,23,16,1,0,0,1,103,263,157,1,,,,,,,,
,,,,,,,,,,,,,FF,,,,,,,,0.7673,,,,,,,,,,,,,,,,,,,,,,61035e5f92396a346169f1b5,610369223c6d86eda699d859,2021-07-29_22h52.13.206,Simcolourproject_2stim_asymm_v5,2020.2.10,Win32,60,61025ae37ef11b136ea224fe,,,,,,,,,2155,96,-60,1,0,0,response3disk,,5,20,-3,1,0,0,rectangle,20,-3,1,0,0,20,-3,1,0,0,1,104,264,66,1,,,,,,,,
,,,,,,,,,,,,,FF,,,,,,,,0.8858,,,,,,,,,,,,,,,,,,,,,,61035e5f92396a346169f1b5,610369223c6d86eda699d859,2021-07-29_22h52.13.206,Simcolourproject_2stim_asymm_v5,2020.2.10,Win32,60,61025ae37ef11b136ea224fe,,,,,,,,,2124,53,79,1,0,0,response1disk,,7,-9,0,1,0,0,rectangle,-9,0,1,0,0,-9,0,1,0,0,1,105,265,142,1,,,,,,,,
,,,,,,,,,,,,,FF,,,,,,,,0.8507,,,,,,,,,,,,,,,,,,,,,,61035e5f92396a346169f1b5,610369223c6d86eda699d859,2021-07-29_22h52.13.206,Simcolourproject_2stim_asymm_v5,2020.2.10,Win32,60,61025ae37ef11b136ea224fe,,,,,,,,,1794,86,-36,1,0,0,response3disk,,5,30,-8,1,0,0,rectangle,30,-8,1,0,0,30,-8,1,0,0,1,106,266,74,1,,,,,,,,
,,,,,,,,,,,,,FF,,,,,,,,0.7014,,,,,,,,,,,,,,,,,,,,,,61035e5f92396a346169f1b5,610369223c6d86eda699d859,2021-07-29_22h52.13.206,Simcolourproject_2stim_asymm_v5,2020.2.10,Win32,60,61025ae37ef11b136ea224fe,,,,,,,,,651,102,40,1,0,0,response1disk,,6,16,-12,1,0,0,rectangle,16,-12,1,0,0,16,-12,1,0,0,1,107,267,88,1,,,,,,,,
,,,,,,,,,,,,,FF,,,,,,,,0.6002,,,,,,,,,,,,,,,,,,,,,,61035e5f92396a346169f1b5,610369223c6d86eda699d859,2021-07-29_22h52.13.206,Simcolourproject_2stim_asymm_v5,2020.2.10,Win32,60,61025ae37ef11b136ea224fe,,,,,,,,,3315,102,55,1,0,0,response1disk,,6,3,-5,1,0,0,rectangle,3,-5,1,0,0,3,-5,1,0,0,1,108,268,137,1,,,,,,,,
,,,,,,,,,,,,,FF,,,,,,,,0.6681,,,,,,,,,,,,,,,,,,,,,,61035e5f92396a346169f1b5,610369223c6d86eda699d859,2021-07-29_22h52.13.206,Simcolourproject_2stim_asymm_v5,2020.2.10,Win32,60,61025ae37ef11b136ea224fe,,,,,,,,,4257,24,79,1,0,0,response1disk,,7,7,-12,1,0,0,rectangle,7,-12,1,0,0,7,-12,1,0,0,1,109,269,28,1,,,,,,,,
,,,,,,,,,,,,,FF,,,,,,,,1.3852,,,,,,,,,,,,,,,,,,,,,,61035e5f92396a346169f1b5,610369223c6d86eda699d859,2021-07-29_22h52.13.206,Simcolourproject_2stim_asymm_v5,2020.2.10,Win32,60,61025ae37ef11b136ea224fe,,,,,,,,,3919,82,60,1,0,0,response1disk,,6,-8,4,1,0,0,rectangle,-8,4,1,0,0,-8,4,1,0,0,1,110,270,14,1,,,,,,,,
,,,,,,,,,,,,,FF,,,,,,,,0.8175,,,,,,,,,,,,,,,,,,,,,,61035e5f92396a346169f1b5,610369223c6d86eda699d859,2021-07-29_22h52.13.206,Simcolourproject_2stim_asymm_v5,2020.2.10,Win32,60,61025ae37ef11b136ea224fe,,,,,,,,,2722,53,-118,1,0,0,response3disk,,4,-2,16,1,0,0,rectangle,-2,16,1,0,0,-2,16,1,0,0,1,111,271,13,1,,,,,,,,
,,,,,,,,,,,,,FF,,,,,,,,0.8508,,,,,,,,,,,,,,,,,,,,,,61035e5f92396a346169f1b5,610369223c6d86eda699d859,2021-07-29_22h52.13.206,Simcolourproject_2stim_asymm_v5,2020.2.10,Win32,60,61025ae37ef11b136ea224fe,,,,,,,,,2414,-32,-100,1,0,0,response5disk,,3,27,9,1,0,0,rectangle,27,9,1,0,0,27,9,1,0,0,1,112,272,103,1,,,,,,,,
,,,,,,,,,,,,,FF,,,,,,,,0.718,,,,,,,,,,,,,,,,,,,,,,61035e5f92396a346169f1b5,610369223c6d86eda699d859,2021-07-29_22h52.13.206,Simcolourproject_2stim_asymm_v5,2020.2.10,Win32,60,61025ae37ef11b136ea224fe,,,,,,,,,27,46,83,1,0,0,response1disk,,7,-2,5,1,0,0,rectangle,-2,5,1,0,0,-2,5,1,0,0,1,113,273,94,1,,,,,,,,
,,,,,,,,,,,,,FF,,,,,,,,0.9845,,,,,,,,,,,,,,,,,,,,,,61035e5f92396a346169f1b5,610369223c6d86eda699d859,2021-07-29_22h52.13.206,Simcolourproject_2stim_asymm_v5,2020.2.10,Win32,60,61025ae37ef11b136ea224fe,,,,,,,,,1294,50,-87,1,0,0,response3disk,,4,6,9,1,0,0,rectangle,6,9,1,0,0,6,9,1,0,0,1,114,274,95,1,,,,,,,,
,,,,,,,,,,,,,FF,,,,,,,,0.7499,,,,,,,,,,,,,,,,,,,,,,61035e5f92396a346169f1b5,610369223c6d86eda699d859,2021-07-29_22h52.13.206,Simcolourproject_2stim_asymm_v5,2020.2.10,Win32,60,61025ae37ef11b136ea224fe,,,,,,,,,3562,25,-72,1,0,0,response3disk,,4,-11,18,1,0,0,rectangle,-11,18,1,0,0,-11,18,1,0,0,1,115,275,4,1,,,,,,,,
,,,,,,,,,,,,,FF,,,,,,,,1.3033,,,,,,,,,,,,,,,,,,,,,,61035e5f92396a346169f1b5,610369223c6d86eda699d859,2021-07-29_22h52.13.206,Simcolourproject_2stim_asymm_v5,2020.2.10,Win32,60,61025ae37ef11b136ea224fe,,,,,,,,,4356,-71,87,1,0,0,response7disk,,0,12,-2,1,0,0,rectangle,12,-2,1,0,0,12,-2,1,0,0,1,116,276,148,1,,,,,,,,
,,,,,,,,,,,,,FF,,,,,,,,0.6968,,,,,,,,,,,,,,,,,,,,,,61035e5f92396a346169f1b5,610369223c6d86eda699d859,2021-07-29_22h52.13.206,Simcolourproject_2stim_asymm_v5,2020.2.10,Win32,60,61025ae37ef11b136ea224fe,,,,,,,,,861,-52,-93,1,0,0,response5disk,,3,14,6,1,0,0,rectangle,14,6,1,0,0,14,6,1,0,0,1,117,277,135,1,,,,,,,,
,,,,,,,,,,,,,FF,,,,,,,,0.8844,,,,,,,,,,,,,,,,,,,,,,61035e5f92396a346169f1b5,610369223c6d86eda699d859,2021-07-29_22h52.13.206,Simcolourproject_2stim_asymm_v5,2020.2.10,Win32,60,61025ae37ef11b136ea224fe,,,,,,,,,2196,41,78,1,0,0,response1disk,,7,17,-17,1,0,0,rectangle,17,-17,1,0,0,17,-17,1,0,0,1,118,278,100,1,,,,,,,,
,,,,,,,,,,,,,FF,,,,,,,,2.0323,,,,,,,,,,,,,,,,,,,,,,61035e5f92396a346169f1b5,610369223c6d86eda699d859,2021-07-29_22h52.13.206,Simcolourproject_2stim_asymm_v5,2020.2.10,Win32,60,61025ae37ef11b136ea224fe,,,,,,,,,1056,-23,-101,1,0,0,response5disk,,3,-4,4,1,0,0,rectangle,82,-42,1,0,0,5,-1,1,0,0,1,119,279,32,1,,response3disk_3,TRUE,5,5,"[280,230,68,237,261,313,297,178,114,66,211,81,215,70,126,66,12,231,122,63]",1.0684,rectangle
,,,,,,,,,,,,,FF,,,,,,,,0.8529,,,,,,,,,,,,,,,,,,,,,,61035e5f92396a346169f1b5,610369223c6d86eda699d859,2021-07-29_22h52.13.206,Simcolourproject_2stim_asymm_v5,2020.2.10,Win32,60,61025ae37ef11b136ea224fe,,,,,,,,,2360,-117,-34,1,0,0,response5disk,,2,38,10,1,0,0,rectangle,38,10,1,0,0,38,10,1,0,0,1,120,280,143,1,,,,,,,,
,,,,,,,,,,,,,FF,,,,,,,,0.6668,,,,,,,,,,,,,,,,,,,,,,61035e5f92396a346169f1b5,610369223c6d86eda699d859,2021-07-29_22h52.13.206,Simcolourproject_2stim_asymm_v5,2020.2.10,Win32,60,61025ae37ef11b136ea224fe,,,,,,,,,2396,41,107,1,0,0,response1disk,,7,7,15,1,0,0,rectangle,7,15,1,0,0,7,15,1,0,0,1,121,281,1,1,,,,,,,,
,,,,,,,,,,,,,FF,,,,,,,,0.7852,,,,,,,,,,,,,,,,,,,,,,61035e5f92396a346169f1b5,610369223c6d86eda699d859,2021-07-29_22h52.13.206,Simcolourproject_2stim_asymm_v5,2020.2.10,Win32,60,61025ae37ef11b136ea224fe,,,,,,,,,477,-36,-80,1,0,0,response5disk,,3,0,4,1,0,0,rectangle,0,4,1,0,0,0,4,1,0,0,1,122,282,57,1,,,,,,,,
,,,,,,,,,,,,,FF,,,,,,,,0.7002,,,,,,,,,,,,,,,,,,,,,,61035e5f92396a346169f1b5,610369223c6d86eda699d859,2021-07-29_22h52.13.206,Simcolourproject_2stim_asymm_v5,2020.2.10,Win32,60,61025ae37ef11b136ea224fe,,,,,,,,,34,46,116,1,0,0,response1disk,,7,11,11,1,0,0,rectangle,11,11,1,0,0,11,11,1,0,0,1,123,283,90,1,,,,,,,,
,,,,,,,,,,,,,FF,,,,,,,,0.9007,,,,,,,,,,,,,,,,,,,,,,61035e5f92396a346169f1b5,610369223c6d86eda699d859,2021-07-29_22h52.13.206,Simcolourproject_2stim_asymm_v5,2020.2.10,Win32,60,61025ae37ef11b136ea224fe,,,,,,,,,2018,97,-48,1,0,0,response3disk,,5,24,-8,1,0,0,rectangle,24,-8,1,0,0,24,-8,1,0,0,1,124,284,106,1,,,,,,,,
,,,,,,,,,,,,,FF,,,,,,,,0.7511,,,,,,,,,,,,,,,,,,,,,,61035e5f92396a346169f1b5,610369223c6d86eda699d859,2021-07-29_22h52.13.206,Simcolourproject_2stim_asymm_v5,2020.2.10,Win32,60,61025ae37ef11b136ea224fe,,,,,,,,,3368,64,85,1,0,0,response1disk,,7,15,0,1,0,0,rectangle,15,0,1,0,0,15,0,1,0,0,1,125,285,83,1,,,,,,,,
,,,,,,,,,,,,,FF,,,,,,,,0.8838,,,,,,,,,,,,,,,,,,,,,,61035e5f92396a346169f1b5,610369223c6d86eda699d859,2021-07-29_22h52.13.206,Simcolourproject_2stim_asymm_v5,2020.2.10,Win32,60,61025ae37ef11b136ea224fe,,,,,,,,,3702,112,-70,1,0,0,response3disk,,5,22,-6,1,0,0,rectangle,22,-6,1,0,0,22,-6,1,0,0,1,126,286,53,1,,,,,,,,
,,,,,,,,,,,,,FF,,,,,,,,0.7177,,,,,,,,,,,,,,,,,,,,,,61035e5f92396a346169f1b5,610369223c6d86eda699d859,2021-07-29_22h52.13.206,Simcolourproject_2stim_asymm_v5,2020.2.10,Win32,60,61025ae37ef11b136ea224fe,,,,,,,,,4316,-45,106,1,0,0,response7disk,,0,18,-11,1,0,0,rectangle,18,-11,1,0,0,18,-11,1,0,0,1,127,287,141,1,,,,,,,,
,,,,,,,,,,,,,FF,,,,,,,,0.9723,,,,,,,,,,,,,,,,,,,,,,61035e5f92396a346169f1b5,610369223c6d86eda699d859,2021-07-29_22h52.13.206,Simcolourproject_2stim_asymm_v5,2020.2.10,Win32,60,61025ae37ef11b136ea224fe,,,,,,,,,3506,-75,35,1,0,0,response7disk,,1,15,0,1,0,0,rectangle,15,0,1,0,0,15,0,1,0,0,1,128,288,121,1,,,,,,,,
,,,,,,,,,,,,,FF,,,,,,,,0.6005,,,,,,,,,,,,,,,,,,,,,,61035e5f92396a346169f1b5,610369223c6d86eda699d859,2021-07-29_22h52.13.206,Simcolourproject_2stim_asymm_v5,2020.2.10,Win32,60,61025ae37ef11b136ea224fe,,,,,,,,,2493,22,110,1,0,0,response1disk,,7,19,-12,1,0,0,rectangle,19,-12,1,0,0,19,-12,1,0,0,1,129,289,112,1,,,,,,,,
,,,,,,,,,,,,,FF,,,,,,,,0.7339,,,,,,,,,,,,,,,,,,,,,,61035e5f92396a346169f1b5,610369223c6d86eda699d859,2021-07-29_22h52.13.206,Simcolourproject_2stim_asymm_v5,2020.2.10,Win32,60,61025ae37ef11b136ea224fe,,,,,,,,,2993,-28,98,1,0,0,response7disk,,0,1,-2,1,0,0,rectangle,1,-2,1,0,0,1,-2,1,0,0,1,130,290,75,1,,,,,,,,
,,,,,,,,,,,,,FF,,,,,,,,0.8176,,,,,,,,,,,,,,,,,,,,,,61035e5f92396a346169f1b5,610369223c6d86eda699d859,2021-07-29_22h52.13.206,Simcolourproject_2stim_asymm_v5,2020.2.10,Win32,60,61025ae37ef11b136ea224fe,,,,,,,,,2156,50,78,1,0,0,response1disk,,7,21,-7,1,0,0,rectangle,21,-7,1,0,0,21,-7,1,0,0,1,131,291,119,1,,,,,,,,
,,,,,,,,,,,,,FF,,,,,,,,0.9522,,,,,,,,,,,,,,,,,,,,,,61035e5f92396a346169f1b5,610369223c6d86eda699d859,2021-07-29_22h52.13.206,Simcolourproject_2stim_asymm_v5,2020.2.10,Win32,60,61025ae37ef11b136ea224fe,,,,,,,,,1671,96,52,1,0,0,response1disk,,6,8,-9,1,0,0,rectangle,8,-9,1,0,0,8,-9,1,0,0,1,132,292,123,1,,,,,,,,
,,,,,,,,,,,,,FF,,,,,,,,0.7004,,,,,,,,,,,,,,,,,,,,,,61035e5f92396a346169f1b5,610369223c6d86eda699d859,2021-07-29_22h52.13.206,Simcolourproject_2stim_asymm_v5,2020.2.10,Win32,60,61025ae37ef11b136ea224fe,,,,,,,,,1180,97,-57,1,0,0,response3disk,,5,5,6,1,0,0,rectangle,5,6,1,0,0,5,6,1,0,0,1,133,293,7,1,,,,,,,,
,,,,,,,,,,,,,FF,,,,,,,,0.9991,,,,,,,,,,,,,,,,,,,,,,61035e5f92396a346169f1b5,610369223c6d86eda699d859,2021-07-29_22h52.13.206,Simcolourproject_2stim_asymm_v5,2020.2.10,Win32,60,61025ae37ef11b136ea224fe,,,,,,,,,1555,53,86,1,0,0,response1disk,,7,-17,9,1,0,0,rectangle,-17,9,1,0,0,-17,9,1,0,0,1,134,294,64,1,,,,,,,,
,,,,,,,,,,,,,FF,,,,,,,,0.8851,,,,,,,,,,,,,,,,,,,,,,61035e5f92396a346169f1b5,610369223c6d86eda699d859,2021-07-29_22h52.13.206,Simcolourproject_2stim_asymm_v5,2020.2.10,Win32,60,61025ae37ef11b136ea224fe,,,,,,,,,2058,55,79,1,0,0,response1disk,,7,32,-14,1,0,0,rectangle,32,-14,1,0,0,32,-14,1,0,0,1,135,295,136,1,,,,,,,,
,,,,,,,,,,,,,FF,,,,,,,,0.7172,,,,,,,,,,,,,,,,,,,,,,61035e5f92396a346169f1b5,610369223c6d86eda699d859,2021-07-29_22h52.13.206,Simcolourproject_2stim_asymm_v5,2020.2.10,Win32,60,61025ae37ef11b136ea224fe,,,,,,,,,1356,93,49,1,0,0,response1disk,,6,11,-4,1,0,0,rectangle,-93,55,1,0,0,6,-7,1,0,0,1,136,296,3,1,,response7disk_3,TRUE,1,1,"[280,230,68,237,261,313,297,178,114,66,211,81,215,70,126,66,12,231,122,63]",1.2044,rectangle
,,,,,,,,,,,,,FF,,,,,,,,1.0016,,,,,,,,,,,,,,,,,,,,,,61035e5f92396a346169f1b5,610369223c6d86eda699d859,2021-07-29_22h52.13.206,Simcolourproject_2stim_asymm_v5,2020.2.10,Win32,60,61025ae37ef11b136ea224fe,,,,,,,,,343,-80,-39,1,0,0,response5disk,,2,6,9,1,0,0,rectangle,6,9,1,0,0,6,9,1,0,0,1,137,297,73,1,,,,,,,,
,,,,,,,,,,,,,FF,,,,,,,,0.7967,,,,,,,,,,,,,,,,,,,,,,61035e5f92396a346169f1b5,610369223c6d86eda699d859,2021-07-29_22h52.13.206,Simcolourproject_2stim_asymm_v5,2020.2.10,Win32,60,61025ae37ef11b136ea224fe,,,,,,,,,3115,-50,-91,1,0,0,response5disk,,3,1,17,1,0,0,rectangle,1,17,1,0,0,1,17,1,0,0,1,138,298,127,1,,,,,,,,
,,,,,,,,,,,,,FF,,,,,,,,1.3863,,,,,,,,,,,,,,,,,,,,,,61035e5f92396a346169f1b5,610369223c6d86eda699d859,2021-07-29_22h52.13.206,Simcolourproject_2stim_asymm_v5,2020.2.10,Win32,60,61025ae37ef11b136ea224fe,,,,,,,,,91,123,-30,1,0,0,response3disk,,5,3,14,1,0,0,rectangle,3,14,1,0,0,3,14,1,0,0,1,139,299,114,1,,,,,,,,
,,,,,,,,,,,,,FF,,,,,,,,0.6189,,,,,,,,,,,,,,,,,,,,,,61035e5f92396a346169f1b5,610369223c6d86eda699d859,2021-07-29_22h52.13.206,Simcolourproject_2stim_asymm_v5,2020.2.10,Win32,60,61025ae37ef11b136ea224fe,,,,,,,,,3468,-31,106,1,0,0,response7disk,,0,20,-1,1,0,0,rectangle,20,-1,1,0,0,20,-1,1,0,0,1,140,300,19,1,,,,,,,,
,,,,,,,,,,,,,FF,,,,,,,,0.5667,,,,,,,,,,,,,,,,,,,,,,61035e5f92396a346169f1b5,610369223c6d86eda699d859,2021-07-29_22h52.13.206,Simcolourproject_2stim_asymm_v5,2020.2.10,Win32,60,61025ae37ef11b136ea224fe,,,,,,,,,4046,-44,97,1,0,0,response7disk,,0,14,-10,1,0,0,rectangle,14,-10,1,0,0,14,-10,1,0,0,1,141,301,92,1,,,,,,,,
