key_resp.keys,key_resp.rt,key_resp_14.keys,key_resp_14.rt,key_resp_15.keys,key_resp_15.rt,key_resp_17.keys,key_resp_17.rt,key_resp_9.keys,key_resp_9.rt,key_resp_10.keys,key_resp_10.rt,practice_comparison,Ecc,mouse_5.x,mouse_5.y,mouse_5.leftButton,mouse_5.midButton,mouse_5.rightButton,mouse_5.clicked_name,pracsimilarity,response_time,mouse_10.x,mouse_10.y,mouse_10.leftButton,mouse_10.midButton,mouse_10.rightButton,mouse_10.clicked_name,mouse_7.x,mouse_7.y,mouse_7.leftButton,mouse_7.midButton,mouse_7.rightButton,mouse_6.x,mouse_6.y,mouse_6.leftButton,mouse_6.midButton,mouse_6.rightButton,duringprac.thisRepN,duringprac.thisTrialN,duringprac.thisN,duringprac.thisIndex,duringprac.ran,participant,session,date,expName,psychopyVersion,OS,frameRate,study_id,mouse_7.clicked_name,catchpracsimilarity,catch_response_time,catchnumberprac,catchtrialorderprac,mouse_6.clicked_name,key_resp_22.keys,key_resp_22.rt,realcomparison,mouse.x,mouse.y,mouse.leftButton,mouse.midButton,mouse.rightButton,mouse.clicked_name,Colour2,similarity,mouse_2.x,mouse_2.y,mouse_2.leftButton,mouse_2.midButton,mouse_2.rightButton,mouse_2.clicked_name,mouse_3.x,mouse_3.y,mouse_3.leftButton,mouse_3.midButton,mouse_3.rightButton,mouse_11.x,mouse_11.y,mouse_11.leftButton,mouse_11.midButton,mouse_11.rightButton,trials_2.thisRepN,trials_2.thisTrialN,trials_2.thisN,trials_2.thisIndex,trials_2.ran,Colour1,mouse_3.clicked_name,catchornah,catchsimilarity,catchnumber,catchtrialorder,catchRT,mouse_11.clicked_name
space,1.2484,space,15.7583,space,23.7049,space,7.3098,space,2.8387,space,4.1982,53,FF,-85.59998983,43.99999422,1,0,0,response7disk_5,1,4.3141,-6.399939823,3.19999361,1,0,0,rectangle_8,-6.399939823,3.19999361,1,0,0,-6.399939823,3.19999361,1,0,0,0,0,0,0,1,61030f79739dc11db7d01eeb,61036fa9810ea010637744c4,2021-07-29_20h21.58.992,Simcolourproject_2stim_asymm_v5,2020.2.10,Win32,60,61025ae37ef11b136ea224fe,,,,,,,,,,,,,,,,,,,,,,,,,,,,,,,,,,,,,,,,,,,,,,
,,,,,,,,,,,,32,PF,-71.19998962,-34.40000695,1,0,0,response5disk_5,2,1.399,-13.59998876,5.599993646,1,0,0,rectangle_8,-38.3999403,-92.00000781,1,0,0,-1.59998858,7.999993682,1,0,0,0,1,1,2,1,61030f79739dc11db7d01eeb,61036fa9810ea010637744c4,2021-07-29_20h21.58.992,Simcolourproject_2stim_asymm_v5,2020.2.10,Win32,60,61025ae37ef11b136ea224fe,response5disk_7,3,2.9676,3,"[2,5]",rectangle_4,,,,,,,,,,,,,,,,,,,,,,,,,,,,,,,,,,,,,,,,
,,,,,,,,,,,,87,FF,35.20001197,-94.40000784,1,0,0,response3disk_5,4,4.1644,1.600060296,-6.4373E-06,1,0,0,rectangle_8,1.600060296,-6.4373E-06,1,0,0,1.600060296,-6.4373E-06,1,0,0,0,2,2,5,1,61030f79739dc11db7d01eeb,61036fa9810ea010637744c4,2021-07-29_20h21.58.992,Simcolourproject_2stim_asymm_v5,2020.2.10,Win32,60,61025ae37ef11b136ea224fe,,,,,,,,,,,,,,,,,,,,,,,,,,,,,,,,,,,,,,,,,,,,,,
,,,,,,,,,,,,70,PF,-57.59998941,99.19997063,1,0,0,response7disk_5,0,1.3325,-5.599988639,-1.600006461,1,0,0,rectangle_8,-5.599988639,-1.600006461,1,0,0,-5.599988639,-1.600006461,1,0,0,0,3,3,6,1,61030f79739dc11db7d01eeb,61036fa9810ea010637744c4,2021-07-29_20h21.58.992,Simcolourproject_2stim_asymm_v5,2020.2.10,Win32,60,61025ae37ef11b136ea224fe,,,,,,,,,,,,,,,,,,,,,,,,,,,,,,,,,,,,,,,,,,,,,,
,,,,,,,,,,,,23,FF,58.40001231,85.59999484,1,0,0,response1disk_5,7,1.3821,24.0000118,-0.800006449,1,0,0,rectangle_8,-38.3999403,-78.40000761,1,0,0,-10.39993988,4.799993634,1,0,0,0,4,4,3,1,61030f79739dc11db7d01eeb,61036fa9810ea010637744c4,2021-07-29_20h21.58.992,Simcolourproject_2stim_asymm_v5,2020.2.10,Win32,60,61025ae37ef11b136ea224fe,response5disk_7,3,1.8658,3,"[2,5]",rectangle_4,,,,,,,,,,,,,,,,,,,,,,,,,,,,,,,,,,,,,,,,
,,,,,,,,,,,,94,PF,48.80001217,99.99999505,1,0,0,response1disk_5,7,1.5669,24.0000118,-0.800006449,1,0,0,rectangle_8,24.0000118,-0.800006449,1,0,0,24.0000118,-0.800006449,1,0,0,0,5,5,1,1,61030f79739dc11db7d01eeb,61036fa9810ea010637744c4,2021-07-29_20h21.58.992,Simcolourproject_2stim_asymm_v5,2020.2.10,Win32,60,61025ae37ef11b136ea224fe,,,,,,,,,,,,,,,,,,,,,,,,,,,,,,,,,,,,,,,,,,,,,,
,,,,,,,,,,,,127,PF,-103.1999901,-40.80000705,1,0,0,response5disk_5,2,1.2326,-14.39993994,3.999993622,1,0,0,rectangle_8,-14.39993994,3.999993622,1,0,0,-14.39993994,3.999993622,1,0,0,0,6,6,4,1,61030f79739dc11db7d01eeb,61036fa9810ea010637744c4,2021-07-29_20h21.58.992,Simcolourproject_2stim_asymm_v5,2020.2.10,Win32,60,61025ae37ef11b136ea224fe,,,,,,,,,,,,,,,,,,,,,,,,,,,,,,,,,,,,,,,,,,,,,,
,,,,,,,,,,,,,FF,,,,,,,,2.1798,,,,,,,,,,,,,,,,,,,,,,61030f79739dc11db7d01eeb,61036fa9810ea010637744c4,2021-07-29_20h21.58.992,Simcolourproject_2stim_asymm_v5,2020.2.10,Win32,60,61025ae37ef11b136ea224fe,,,,,,,space,3.7951,1991,123.2000133,46.39999425,1,0,0,response1disk,,6,-11.19998872,2.399993598,1,0,0,rectangle,-11.19998872,2.399993598,1,0,0,-11.19998872,2.399993598,1,0,0,0,0,0,9,1,,,,,,,,
,,,,,,,,,,,,,FF,,,,,,,,1.366,,,,,,,,,,,,,,,,,,,,,,61030f79739dc11db7d01eeb,61036fa9810ea010637744c4,2021-07-29_20h21.58.992,Simcolourproject_2stim_asymm_v5,2020.2.10,Win32,60,61025ae37ef11b136ea224fe,,,,,,,,,1548,83.20001268,38.39999413,1,0,0,response1disk,,6,16.00001168,-10.40000659,1,0,0,rectangle,60.00001234,97.59999502,1,0,0,-0.799988568,1.599993587,1,0,0,0,1,1,25,1,,response1disk_3,TRUE,7,7,"[188,285,76,72,220,166,89,194,63,138,211,169,253,133,2,308,28,14,203,77]",2.1978,rectangle
,,,,,,,,,,,,,FF,,,,,,,,1.2162,,,,,,,,,,,,,,,,,,,,,,61030f79739dc11db7d01eeb,61036fa9810ea010637744c4,2021-07-29_20h21.58.992,Simcolourproject_2stim_asymm_v5,2020.2.10,Win32,60,61025ae37ef11b136ea224fe,,,,,,,,,2212,94.40001285,27.99999398,1,0,0,response1disk,,6,-0.799988568,-6.4373E-06,1,0,0,rectangle,-0.799988568,-6.4373E-06,1,0,0,-0.799988568,-6.4373E-06,1,0,0,0,2,2,19,1,,,,,,,,
,,,,,,,,,,,,,FF,,,,,,,,0.9659,,,,,,,,,,,,,,,,,,,,,,61030f79739dc11db7d01eeb,61036fa9810ea010637744c4,2021-07-29_20h21.58.992,Simcolourproject_2stim_asymm_v5,2020.2.10,Win32,60,61025ae37ef11b136ea224fe,,,,,,,,,1706,95.20001286,32.79999405,1,0,0,response1disk,,6,16.80001169,3.19999361,1,0,0,rectangle,16.80001169,3.19999361,1,0,0,16.80001169,3.19999361,1,0,0,0,3,3,100,1,,,,,,,,
,,,,,,,,,,,,,FF,,,,,,,,1.2665,,,,,,,,,,,,,,,,,,,,,,61030f79739dc11db7d01eeb,61036fa9810ea010637744c4,2021-07-29_20h21.58.992,Simcolourproject_2stim_asymm_v5,2020.2.10,Win32,60,61025ae37ef11b136ea224fe,,,,,,,,,1696,51.20001221,-81.60005648,1,0,0,response3disk,,4,4.800011516,-0.800006449,1,0,0,rectangle,4.800011516,-0.800006449,1,0,0,4.800011516,-0.800006449,1,0,0,0,4,4,34,1,,,,,,,,
,,,,,,,,,,,,,FF,,,,,,,,0.7494,,,,,,,,,,,,,,,,,,,,,,61030f79739dc11db7d01eeb,61036fa9810ea010637744c4,2021-07-29_20h21.58.992,Simcolourproject_2stim_asymm_v5,2020.2.10,Win32,60,61025ae37ef11b136ea224fe,,,,,,,,,2726,-42.39994036,-74.40000755,1,0,0,response5disk,,3,-7.999988675,2.399993598,1,0,0,rectangle,-7.999988675,2.399993598,1,0,0,-7.999988675,2.399993598,1,0,0,0,5,5,71,1,,,,,,,,
,,,,,,,,,,,,,FF,,,,,,,,0.6991,,,,,,,,,,,,,,,,,,,,,,61030f79739dc11db7d01eeb,61036fa9810ea010637744c4,2021-07-29_20h21.58.992,Simcolourproject_2stim_asymm_v5,2020.2.10,Win32,60,61025ae37ef11b136ea224fe,,,,,,,,,3592,-69.59998959,-38.40000701,1,0,0,response5disk,,2,-8.799988687,11.99999374,1,0,0,rectangle,-8.799988687,11.99999374,1,0,0,-8.799988687,11.99999374,1,0,0,0,6,6,68,1,,,,,,,,
,,,,,,,,,,,,,FF,,,,,,,,0.8994,,,,,,,,,,,,,,,,,,,,,,61030f79739dc11db7d01eeb,61036fa9810ea010637744c4,2021-07-29_20h21.58.992,Simcolourproject_2stim_asymm_v5,2020.2.10,Win32,60,61025ae37ef11b136ea224fe,,,,,,,,,1025,74.40001255,48.79999429,1,0,0,response1disk,,6,12.80001163,14.39999378,1,0,0,rectangle,12.80001163,14.39999378,1,0,0,12.80001163,14.39999378,1,0,0,0,7,7,60,1,,,,,,,,
,,,,,,,,,,,,,FF,,,,,,,,1.282,,,,,,,,,,,,,,,,,,,,,,61030f79739dc11db7d01eeb,61036fa9810ea010637744c4,2021-07-29_20h21.58.992,Simcolourproject_2stim_asymm_v5,2020.2.10,Win32,60,61025ae37ef11b136ea224fe,,,,,,,,,2104,38.40001202,-71.2000075,1,0,0,response3disk,,4,10.4000116,4.799993634,1,0,0,rectangle,10.4000116,4.799993634,1,0,0,10.4000116,4.799993634,1,0,0,0,8,8,88,1,,,,,,,,
,,,,,,,,,,,,,FF,,,,,,,,0.916,,,,,,,,,,,,,,,,,,,,,,61030f79739dc11db7d01eeb,61036fa9810ea010637744c4,2021-07-29_20h21.58.992,Simcolourproject_2stim_asymm_v5,2020.2.10,Win32,60,61025ae37ef11b136ea224fe,,,,,,,,,1560,100.0000129,42.39999419,1,0,0,response1disk,,6,22.40001178,-12.00000662,1,0,0,rectangle,22.40001178,-12.00000662,1,0,0,22.40001178,-12.00000662,1,0,0,0,9,9,102,1,,,,,,,,
,,,,,,,,,,,,,FF,,,,,,,,1.0002,,,,,,,,,,,,,,,,,,,,,,61030f79739dc11db7d01eeb,61036fa9810ea010637744c4,2021-07-29_20h21.58.992,Simcolourproject_2stim_asymm_v5,2020.2.10,Win32,60,61025ae37ef11b136ea224fe,,,,,,,,,1526,-81.59998977,-49.60000718,1,0,0,response5disk,,2,-11.99998873,-9.60000658,1,0,0,rectangle,-11.99998873,-9.60000658,1,0,0,-11.99998873,-9.60000658,1,0,0,0,10,10,105,1,,,,,,,,
,,,,,,,,,,,,,FF,,,,,,,,0.7832,,,,,,,,,,,,,,,,,,,,,,61030f79739dc11db7d01eeb,61036fa9810ea010637744c4,2021-07-29_20h21.58.992,Simcolourproject_2stim_asymm_v5,2020.2.10,Win32,60,61025ae37ef11b136ea224fe,,,,,,,,,3197,-78.3999409,47.99999428,1,0,0,response7disk,,1,-3.199988604,11.19999373,1,0,0,rectangle,-3.199988604,11.19999373,1,0,0,-3.199988604,11.19999373,1,0,0,0,11,11,41,1,,,,,,,,
,,,,,,,,,,,,,FF,,,,,,,,1.2829,,,,,,,,,,,,,,,,,,,,,,61030f79739dc11db7d01eeb,61036fa9810ea010637744c4,2021-07-29_20h21.58.992,Simcolourproject_2stim_asymm_v5,2020.2.10,Win32,60,61025ae37ef11b136ea224fe,,,,,,,,,4194,39.20001203,-85.60005654,1,0,0,response3disk,,4,-4.799988627,2.399993598,1,0,0,rectangle,-4.799988627,2.399993598,1,0,0,-4.799988627,2.399993598,1,0,0,0,12,12,98,1,,,,,,,,
,,,,,,,,,,,,,FF,,,,,,,,3.6815,,,,,,,,,,,,,,,,,,,,,,61030f79739dc11db7d01eeb,61036fa9810ea010637744c4,2021-07-29_20h21.58.992,Simcolourproject_2stim_asymm_v5,2020.2.10,Win32,60,61025ae37ef11b136ea224fe,,,,,,,,,1949,78.40001261,30.39999402,1,0,0,response1disk,,6,2.40001148,-2.400006473,1,0,0,rectangle,94.40001285,-33.60000694,1,0,0,6.400011539,-4.000006497,1,0,0,0,13,13,16,1,,response3disk_3,TRUE,5,5,"[188,285,76,72,220,166,89,194,63,138,211,169,253,133,2,308,28,14,203,77]",2.7319,rectangle
,,,,,,,,,,,,,FF,,,,,,,,1.1993,,,,,,,,,,,,,,,,,,,,,,61030f79739dc11db7d01eeb,61036fa9810ea010637744c4,2021-07-29_20h21.58.992,Simcolourproject_2stim_asymm_v5,2020.2.10,Win32,60,61025ae37ef11b136ea224fe,,,,,,,,,1191,-31.99998903,-99.20000792,1,0,0,response5disk,,3,-2.399939764,6.399993658,1,0,0,rectangle,-2.399939764,6.399993658,1,0,0,-2.399939764,6.399993658,1,0,0,0,14,14,159,1,,,,,,,,
,,,,,,,,,,,,,FF,,,,,,,,0.6332,,,,,,,,,,,,,,,,,,,,,,61030f79739dc11db7d01eeb,61036fa9810ea010637744c4,2021-07-29_20h21.58.992,Simcolourproject_2stim_asymm_v5,2020.2.10,Win32,60,61025ae37ef11b136ea224fe,,,,,,,,,4268,-84.79998982,-52.80000722,1,0,0,response5disk,,2,-7.999988675,-8.800006568,1,0,0,rectangle,-7.999988675,-8.800006568,1,0,0,-7.999988675,-8.800006568,1,0,0,0,15,15,87,1,,,,,,,,
,,,,,,,,,,,,,FF,,,,,,,,1.3498,,,,,,,,,,,,,,,,,,,,,,61030f79739dc11db7d01eeb,61036fa9810ea010637744c4,2021-07-29_20h21.58.992,Simcolourproject_2stim_asymm_v5,2020.2.10,Win32,60,61025ae37ef11b136ea224fe,,,,,,,,,2188,-32.79998904,-88.80000776,1,0,0,response5disk,,3,17.60006053,-0.800006449,1,0,0,rectangle,17.60006053,-0.800006449,1,0,0,17.60006053,-0.800006449,1,0,0,0,16,16,140,1,,,,,,,,
,,,,,,,,,,,,,FF,,,,,,,,0.9327,,,,,,,,,,,,,,,,,,,,,,61030f79739dc11db7d01eeb,61036fa9810ea010637744c4,2021-07-29_20h21.58.992,Simcolourproject_2stim_asymm_v5,2020.2.10,Win32,60,61025ae37ef11b136ea224fe,,,,,,,,,1236,36.80001199,-55.20000726,1,0,0,response3disk,,4,12.00001162,-4.000006497,1,0,0,rectangle,12.00001162,-4.000006497,1,0,0,12.00001162,-4.000006497,1,0,0,0,17,17,22,1,,,,,,,,
,,,,,,,,,,,,,FF,,,,,,,,0.6997,,,,,,,,,,,,,,,,,,,,,,61030f79739dc11db7d01eeb,61036fa9810ea010637744c4,2021-07-29_20h21.58.992,Simcolourproject_2stim_asymm_v5,2020.2.10,Win32,60,61025ae37ef11b136ea224fe,,,,,,,,,937,76.80001259,-32.00000691,1,0,0,response3disk,,5,1.14441E-05,0.799993575,1,0,0,rectangle,1.14441E-05,0.799993575,1,0,0,1.14441E-05,0.799993575,1,0,0,0,18,18,145,1,,,,,,,,
,,,,,,,,,,,,,FF,,,,,,,,0.7326,,,,,,,,,,,,,,,,,,,,,,61030f79739dc11db7d01eeb,61036fa9810ea010637744c4,2021-07-29_20h21.58.992,Simcolourproject_2stim_asymm_v5,2020.2.10,Win32,60,61025ae37ef11b136ea224fe,,,,,,,,,3747,-75.19998968,-31.2000069,1,0,0,response5disk,,2,1.600060296,-1.600006461,1,0,0,rectangle,1.600060296,-1.600006461,1,0,0,1.600060296,-1.600006461,1,0,0,0,19,19,155,1,,,,,,,,
,,,,,,,,,,,,,FF,,,,,,,,0.8672,,,,,,,,,,,,,,,,,,,,,,61030f79739dc11db7d01eeb,61036fa9810ea010637744c4,2021-07-29_20h21.58.992,Simcolourproject_2stim_asymm_v5,2020.2.10,Win32,60,61025ae37ef11b136ea224fe,,,,,,,,,1731,-33.59998906,-60.00000733,1,0,0,response5disk,,3,1.14441E-05,3.999993622,1,0,0,rectangle,1.14441E-05,3.999993622,1,0,0,1.14441E-05,3.999993622,1,0,0,0,20,20,6,1,,,,,,,,
,,,,,,,,,,,,,FF,,,,,,,,1.0492,,,,,,,,,,,,,,,,,,,,,,61030f79739dc11db7d01eeb,61036fa9810ea010637744c4,2021-07-29_20h21.58.992,Simcolourproject_2stim_asymm_v5,2020.2.10,Win32,60,61025ae37ef11b136ea224fe,,,,,,,,,4161,-75.99998969,38.39999413,1,0,0,response7disk,,1,8.000011563,3.19999361,1,0,0,rectangle,8.000011563,3.19999361,1,0,0,8.000011563,3.19999361,1,0,0,0,21,21,128,1,,,,,,,,
,,,,,,,,,,,,,FF,,,,,,,,0.9992,,,,,,,,,,,,,,,,,,,,,,61030f79739dc11db7d01eeb,61036fa9810ea010637744c4,2021-07-29_20h21.58.992,Simcolourproject_2stim_asymm_v5,2020.2.10,Win32,60,61025ae37ef11b136ea224fe,,,,,,,,,3223,76.80001259,-28.00000685,1,0,0,response3disk,,5,-2.399939764,-4.800006509,1,0,0,rectangle,-2.399939764,-4.800006509,1,0,0,-2.399939764,-4.800006509,1,0,0,0,22,22,158,1,,,,,,,,
,,,,,,,,,,,,,FF,,,,,,,,0.816,,,,,,,,,,,,,,,,,,,,,,61030f79739dc11db7d01eeb,61036fa9810ea010637744c4,2021-07-29_20h21.58.992,Simcolourproject_2stim_asymm_v5,2020.2.10,Win32,60,61025ae37ef11b136ea224fe,,,,,,,,,1021,72.80001253,30.39999402,1,0,0,response1disk,,6,3.200011492,-6.4373E-06,1,0,0,rectangle,3.200011492,-6.4373E-06,1,0,0,3.200011492,-6.4373E-06,1,0,0,0,23,23,1,1,,,,,,,,
,,,,,,,,,,,,,FF,,,,,,,,0.9496,,,,,,,,,,,,,,,,,,,,,,61030f79739dc11db7d01eeb,61036fa9810ea010637744c4,2021-07-29_20h21.58.992,Simcolourproject_2stim_asymm_v5,2020.2.10,Win32,60,61025ae37ef11b136ea224fe,,,,,,,,,745,47.20001215,81.59999478,1,0,0,response1disk,,7,1.600060296,-4.000006497,1,0,0,rectangle,1.600060296,-4.000006497,1,0,0,1.600060296,-4.000006497,1,0,0,0,24,24,21,1,,,,,,,,
,,,,,,,,,,,,,FF,,,,,,,,0.9169,,,,,,,,,,,,,,,,,,,,,,61030f79739dc11db7d01eeb,61036fa9810ea010637744c4,2021-07-29_20h21.58.992,Simcolourproject_2stim_asymm_v5,2020.2.10,Win32,60,61025ae37ef11b136ea224fe,,,,,,,,,1527,-30.39994018,-61.60000736,1,0,0,response5disk,,3,-9.599988699,11.99999374,1,0,0,rectangle,-9.599988699,11.99999374,1,0,0,-9.599988699,11.99999374,1,0,0,0,25,25,36,1,,,,,,,,
,,,,,,,,,,,,,FF,,,,,,,,0.6162,,,,,,,,,,,,,,,,,,,,,,61030f79739dc11db7d01eeb,61036fa9810ea010637744c4,2021-07-29_20h21.58.992,Simcolourproject_2stim_asymm_v5,2020.2.10,Win32,60,61025ae37ef11b136ea224fe,,,,,,,,,3039,-63.99998951,-28.80000687,1,0,0,response5disk,,2,-0.799988568,1.599993587,1,0,0,rectangle,-0.799988568,1.599993587,1,0,0,-0.799988568,1.599993587,1,0,0,0,26,26,125,1,,,,,,,,
,,,,,,,,,,,,,FF,,,,,,,,1.1994,,,,,,,,,,,,,,,,,,,,,,61030f79739dc11db7d01eeb,61036fa9810ea010637744c4,2021-07-29_20h21.58.992,Simcolourproject_2stim_asymm_v5,2020.2.10,Win32,60,61025ae37ef11b136ea224fe,,,,,,,,,619,-76.7999897,-28.00000685,1,0,0,response5disk,,2,-1.59998858,-4.800006509,1,0,0,rectangle,38.40001202,93.59999496,1,0,0,3.200011492,0.799993575,1,0,0,0,27,27,157,1,,response1disk_3,TRUE,7,7,"[188,285,76,72,220,166,89,194,63,138,211,169,253,133,2,308,28,14,203,77]",1.9999,rectangle
,,,,,,,,,,,,,FF,,,,,,,,1.1496,,,,,,,,,,,,,,,,,,,,,,61030f79739dc11db7d01eeb,61036fa9810ea010637744c4,2021-07-29_20h21.58.992,Simcolourproject_2stim_asymm_v5,2020.2.10,Win32,60,61025ae37ef11b136ea224fe,,,,,,,,,656,-50.39994048,-80.80000764,1,0,0,response5disk,,3,-3.999988616,-5.600006521,1,0,0,rectangle,-3.999988616,-5.600006521,1,0,0,-3.999988616,-5.600006521,1,0,0,0,28,28,61,1,,,,,,,,
,,,,,,,,,,,,,FF,,,,,,,,0.7989,,,,,,,,,,,,,,,,,,,,,,61030f79739dc11db7d01eeb,61036fa9810ea010637744c4,2021-07-29_20h21.58.992,Simcolourproject_2stim_asymm_v5,2020.2.10,Win32,60,61025ae37ef11b136ea224fe,,,,,,,,,3027,81.60001266,-44.8000071,1,0,0,response3disk,,5,13.60006047,-4.000006497,1,0,0,rectangle,13.60006047,-4.000006497,1,0,0,13.60006047,-4.000006497,1,0,0,0,29,29,62,1,,,,,,,,
,,,,,,,,,,,,,FF,,,,,,,,0.8495,,,,,,,,,,,,,,,,,,,,,,61030f79739dc11db7d01eeb,61036fa9810ea010637744c4,2021-07-29_20h21.58.992,Simcolourproject_2stim_asymm_v5,2020.2.10,Win32,60,61025ae37ef11b136ea224fe,,,,,,,,,374,-47.19998926,-76.80000758,1,0,0,response5disk,,3,-27.19998896,-2.400006473,1,0,0,rectangle,-27.19998896,-2.400006473,1,0,0,-27.19998896,-2.400006473,1,0,0,0,30,30,139,1,,,,,,,,
,,,,,,,,,,,,,FF,,,,,,,,0.6493,,,,,,,,,,,,,,,,,,,,,,61030f79739dc11db7d01eeb,61036fa9810ea010637744c4,2021-07-29_20h21.58.992,Simcolourproject_2stim_asymm_v5,2020.2.10,Win32,60,61025ae37ef11b136ea224fe,,,,,,,,,2109,-62.39994066,-35.20000696,1,0,0,response5disk,,2,1.14441E-05,3.19999361,1,0,0,rectangle,1.14441E-05,3.19999361,1,0,0,1.14441E-05,3.19999361,1,0,0,0,31,31,28,1,,,,,,,,
,,,,,,,,,,,,,FF,,,,,,,,0.6999,,,,,,,,,,,,,,,,,,,,,,61030f79739dc11db7d01eeb,61036fa9810ea010637744c4,2021-07-29_20h21.58.992,Simcolourproject_2stim_asymm_v5,2020.2.10,Win32,60,61025ae37ef11b136ea224fe,,,,,,,,,4190,-63.99998951,27.19996955,1,0,0,response7disk,,1,6.400011539,-4.000006497,1,0,0,rectangle,6.400011539,-4.000006497,1,0,0,6.400011539,-4.000006497,1,0,0,0,32,32,58,1,,,,,,,,
,,,,,,,,,,,,,FF,,,,,,,,0.7937,,,,,,,,,,,,,,,,,,,,,,61030f79739dc11db7d01eeb,61036fa9810ea010637744c4,2021-07-29_20h21.58.992,Simcolourproject_2stim_asymm_v5,2020.2.10,Win32,60,61025ae37ef11b136ea224fe,,,,,,,,,3074,50.4000122,-61.60000736,1,0,0,response3disk,,4,4.800011516,-2.400006473,1,0,0,rectangle,4.800011516,-2.400006473,1,0,0,4.800011516,-2.400006473,1,0,0,0,33,33,95,1,,,,,,,,
,,,,,,,,,,,,,FF,,,,,,,,1.3331,,,,,,,,,,,,,,,,,,,,,,61030f79739dc11db7d01eeb,61036fa9810ea010637744c4,2021-07-29_20h21.58.992,Simcolourproject_2stim_asymm_v5,2020.2.10,Win32,60,61025ae37ef11b136ea224fe,,,,,,,,,3546,-35.19998908,-76.80000758,1,0,0,response5disk,,3,-7.999988675,4.799993634,1,0,0,rectangle,-7.999988675,4.799993634,1,0,0,-7.999988675,4.799993634,1,0,0,0,34,34,117,1,,,,,,,,
,,,,,,,,,,,,,FF,,,,,,,,2.1324,,,,,,,,,,,,,,,,,,,,,,61030f79739dc11db7d01eeb,61036fa9810ea010637744c4,2021-07-29_20h21.58.992,Simcolourproject_2stim_asymm_v5,2020.2.10,Win32,60,61025ae37ef11b136ea224fe,,,,,,,,,2988,27.20001185,-49.60000718,1,0,0,response3disk,,4,3.200011492,-10.40000659,1,0,0,rectangle,3.200011492,-10.40000659,1,0,0,3.200011492,-10.40000659,1,0,0,0,35,35,27,1,,,,,,,,
,,,,,,,,,,,,,FF,,,,,,,,0.8838,,,,,,,,,,,,,,,,,,,,,,61030f79739dc11db7d01eeb,61036fa9810ea010637744c4,2021-07-29_20h21.58.992,Simcolourproject_2stim_asymm_v5,2020.2.10,Win32,60,61025ae37ef11b136ea224fe,,,,,,,,,1499,79.20001262,40.79999417,1,0,0,response1disk,,6,13.60006047,2.399993598,1,0,0,rectangle,13.60006047,2.399993598,1,0,0,13.60006047,2.399993598,1,0,0,0,36,36,153,1,,,,,,,,
,,,,,,,,,,,,,FF,,,,,,,,1.4661,,,,,,,,,,,,,,,,,,,,,,61030f79739dc11db7d01eeb,61036fa9810ea010637744c4,2021-07-29_20h21.58.992,Simcolourproject_2stim_asymm_v5,2020.2.10,Win32,60,61025ae37ef11b136ea224fe,,,,,,,,,3666,62.40001237,-32.80000693,1,0,0,response3disk,,5,-6.399939823,-6.400006533,1,0,0,rectangle,-6.399939823,-6.400006533,1,0,0,-6.399939823,-6.400006533,1,0,0,0,37,37,78,1,,,,,,,,
,,,,,,,,,,,,,FF,,,,,,,,1.3327,,,,,,,,,,,,,,,,,,,,,,61030f79739dc11db7d01eeb,61036fa9810ea010637744c4,2021-07-29_20h21.58.992,Simcolourproject_2stim_asymm_v5,2020.2.10,Win32,60,61025ae37ef11b136ea224fe,,,,,,,,,858,73.60001254,-24.00000679,1,0,0,response3disk,,5,7.200011551,3.999993622,1,0,0,rectangle,7.200011551,3.999993622,1,0,0,7.200011551,3.999993622,1,0,0,0,38,38,135,1,,,,,,,,
,,,,,,,,,,,,,FF,,,,,,,,0.6164,,,,,,,,,,,,,,,,,,,,,,61030f79739dc11db7d01eeb,61036fa9810ea010637744c4,2021-07-29_20h21.58.992,Simcolourproject_2stim_asymm_v5,2020.2.10,Win32,60,61025ae37ef11b136ea224fe,,,,,,,,,1400,52.00001222,32.79999405,1,0,0,response1disk,,6,-2.399939764,-14.40000665,1,0,0,rectangle,-2.399939764,-14.40000665,1,0,0,-2.399939764,-14.40000665,1,0,0,0,39,39,72,1,,,,,,,,
,,,,,,,,,,,,,FF,,,,,,,,0.8827,,,,,,,,,,,,,,,,,,,,,,61030f79739dc11db7d01eeb,61036fa9810ea010637744c4,2021-07-29_20h21.58.992,Simcolourproject_2stim_asymm_v5,2020.2.10,Win32,60,61025ae37ef11b136ea224fe,,,,,,,,,1728,73.60001254,31.19996961,1,0,0,response1disk,,6,19.20001173,-6.4373E-06,1,0,0,rectangle,19.20001173,-6.4373E-06,1,0,0,19.20001173,-6.4373E-06,1,0,0,0,40,40,5,1,,,,,,,,
,,,,,,,,,,,,,FF,,,,,,,,0.5332,,,,,,,,,,,,,,,,,,,,,,61030f79739dc11db7d01eeb,61036fa9810ea010637744c4,2021-07-29_20h21.58.992,Simcolourproject_2stim_asymm_v5,2020.2.10,Win32,60,61025ae37ef11b136ea224fe,,,,,,,,,1875,65.60001242,32.79999405,1,0,0,response1disk,,6,19.20001173,6.399993658,1,0,0,rectangle,19.20001173,6.399993658,1,0,0,19.20001173,6.399993658,1,0,0,0,41,41,35,1,,,,,,,,
,,,,,,,,,,,,,FF,,,,,,,,0.7663,,,,,,,,,,,,,,,,,,,,,,61030f79739dc11db7d01eeb,61036fa9810ea010637744c4,2021-07-29_20h21.58.992,Simcolourproject_2stim_asymm_v5,2020.2.10,Win32,60,61025ae37ef11b136ea224fe,,,,,,,,,800,64.0000124,28.79999399,1,0,0,response1disk,,6,9.600060415,0.799993575,1,0,0,rectangle,9.600060415,0.799993575,1,0,0,9.600060415,0.799993575,1,0,0,0,42,42,75,1,,,,,,,,
,,,,,,,,,,,,,FF,,,,,,,,0.8663,,,,,,,,,,,,,,,,,,,,,,61030f79739dc11db7d01eeb,61036fa9810ea010637744c4,2021-07-29_20h21.58.992,Simcolourproject_2stim_asymm_v5,2020.2.10,Win32,60,61025ae37ef11b136ea224fe,,,,,,,,,4237,-50.39994048,30.39999402,1,0,0,response7disk,,1,-3.999988616,3.999993622,1,0,0,rectangle,-3.999988616,3.999993622,1,0,0,-3.999988616,3.999993622,1,0,0,0,43,43,30,1,,,,,,,,
,,,,,,,,,,,,,FF,,,,,,,,0.8843,,,,,,,,,,,,,,,,,,,,,,61030f79739dc11db7d01eeb,61036fa9810ea010637744c4,2021-07-29_20h21.58.992,Simcolourproject_2stim_asymm_v5,2020.2.10,Win32,60,61025ae37ef11b136ea224fe,,,,,,,,,3123,84.0000127,30.39999402,1,0,0,response1disk,,6,23.20001179,7.999993682,1,0,0,rectangle,23.20001179,7.999993682,1,0,0,23.20001179,7.999993682,1,0,0,0,44,44,56,1,,,,,,,,
,,,,,,,,,,,,,FF,,,,,,,,0.5174,,,,,,,,,,,,,,,,,,,,,,61030f79739dc11db7d01eeb,61036fa9810ea010637744c4,2021-07-29_20h21.58.992,Simcolourproject_2stim_asymm_v5,2020.2.10,Win32,60,61025ae37ef11b136ea224fe,,,,,,,,,4017,58.40001231,38.39999413,1,0,0,response1disk,,6,20.00001174,6.399993658,1,0,0,rectangle,20.00001174,6.399993658,1,0,0,20.00001174,6.399993658,1,0,0,0,45,45,108,1,,,,,,,,
,,,,,,,,,,,,,FF,,,,,,,,0.5496,,,,,,,,,,,,,,,,,,,,,,61030f79739dc11db7d01eeb,61036fa9810ea010637744c4,2021-07-29_20h21.58.992,Simcolourproject_2stim_asymm_v5,2020.2.10,Win32,60,61025ae37ef11b136ea224fe,,,,,,,,,1568,56.80001229,23.19996949,1,0,0,response1disk,,6,12.80001163,-7.200006545,1,0,0,rectangle,12.80001163,-7.200006545,1,0,0,12.80001163,-7.200006545,1,0,0,0,46,46,93,1,,,,,,,,
,,,,,,,,,,,,,FF,,,,,,,,0.7157,,,,,,,,,,,,,,,,,,,,,,61030f79739dc11db7d01eeb,61036fa9810ea010637744c4,2021-07-29_20h21.58.992,Simcolourproject_2stim_asymm_v5,2020.2.10,Win32,60,61025ae37ef11b136ea224fe,,,,,,,,,4282,-52.79998934,-28.80000687,1,0,0,response5disk,,2,4.800011516,-4.000006497,1,0,0,rectangle,4.800011516,-4.000006497,1,0,0,4.800011516,-4.000006497,1,0,0,0,47,47,32,1,,,,,,,,
,,,,,,,,,,,,,FF,,,,,,,,1.0657,,,,,,,,,,,,,,,,,,,,,,61030f79739dc11db7d01eeb,61036fa9810ea010637744c4,2021-07-29_20h21.58.992,Simcolourproject_2stim_asymm_v5,2020.2.10,Win32,60,61025ae37ef11b136ea224fe,,,,,,,,,2241,-58.3999406,35.9999941,1,0,0,response7disk,,1,2.40001148,3.999993622,1,0,0,rectangle,2.40001148,3.999993622,1,0,0,2.40001148,3.999993622,1,0,0,0,48,48,156,1,,,,,,,,
,,,,,,,,,,,,,FF,,,,,,,,0.9171,,,,,,,,,,,,,,,,,,,,,,61030f79739dc11db7d01eeb,61036fa9810ea010637744c4,2021-07-29_20h21.58.992,Simcolourproject_2stim_asymm_v5,2020.2.10,Win32,60,61025ae37ef11b136ea224fe,,,,,,,,,627,67.20001245,-28.80000687,1,0,0,response3disk,,5,-16.79998881,10.39999372,1,0,0,rectangle,-16.79998881,10.39999372,1,0,0,-16.79998881,10.39999372,1,0,0,0,49,49,52,1,,,,,,,,
,,,,,,,,,,,,,FF,,,,,,,,0.6331,,,,,,,,,,,,,,,,,,,,,,61030f79739dc11db7d01eeb,61036fa9810ea010637744c4,2021-07-29_20h21.58.992,Simcolourproject_2stim_asymm_v5,2020.2.10,Win32,60,61025ae37ef11b136ea224fe,,,,,,,,,1645,47.20001215,27.99999398,1,0,0,response1disk,,6,3.200011492,-1.600006461,1,0,0,rectangle,3.200011492,-1.600006461,1,0,0,3.200011492,-1.600006461,1,0,0,0,50,50,119,1,,,,,,,,
,,,,,,,,,,,,,FF,,,,,,,,0.7492,,,,,,,,,,,,,,,,,,,,,,61030f79739dc11db7d01eeb,61036fa9810ea010637744c4,2021-07-29_20h21.58.992,Simcolourproject_2stim_asymm_v5,2020.2.10,Win32,60,61025ae37ef11b136ea224fe,,,,,,,,,1544,56.00001228,27.19996955,1,0,0,response1disk,,6,23.20001179,-8.800006568,1,0,0,rectangle,23.20001179,-8.800006568,1,0,0,23.20001179,-8.800006568,1,0,0,0,51,51,137,1,,,,,,,,
,,,,,,,,,,,,,FF,,,,,,,,0.7295,,,,,,,,,,,,,,,,,,,,,,61030f79739dc11db7d01eeb,61036fa9810ea010637744c4,2021-07-29_20h21.58.992,Simcolourproject_2stim_asymm_v5,2020.2.10,Win32,60,61025ae37ef11b136ea224fe,,,,,,,,,4213,64.0000124,27.99999398,1,0,0,response1disk,,6,15.20001167,-2.400006473,1,0,0,rectangle,15.20001167,-2.400006473,1,0,0,15.20001167,-2.400006473,1,0,0,0,52,52,111,1,,,,,,,,
,,,,,,,,,,,,,FF,,,,,,,,0.7836,,,,,,,,,,,,,,,,,,,,,,61030f79739dc11db7d01eeb,61036fa9810ea010637744c4,2021-07-29_20h21.58.992,Simcolourproject_2stim_asymm_v5,2020.2.10,Win32,60,61025ae37ef11b136ea224fe,,,,,,,,,1523,-36.7999891,-54.40000725,1,0,0,response5disk,,3,2.40001148,-5.600006521,1,0,0,rectangle,2.40001148,-5.600006521,1,0,0,2.40001148,-5.600006521,1,0,0,0,53,53,83,1,,,,,,,,
,,,,,,,,,,,,,FF,,,,,,,,0.8339,,,,,,,,,,,,,,,,,,,,,,61030f79739dc11db7d01eeb,61036fa9810ea010637744c4,2021-07-29_20h21.58.992,Simcolourproject_2stim_asymm_v5,2020.2.10,Win32,60,61025ae37ef11b136ea224fe,,,,,,,,,1942,79.20001262,-35.20000696,1,0,0,response3disk,,5,-6.399939823,-3.200006485,1,0,0,rectangle,-6.399939823,-3.200006485,1,0,0,-6.399939823,-3.200006485,1,0,0,0,54,54,107,1,,,,,,,,
,,,,,,,,,,,,,FF,,,,,,,,0.8506,,,,,,,,,,,,,,,,,,,,,,61030f79739dc11db7d01eeb,61036fa9810ea010637744c4,2021-07-29_20h21.58.992,Simcolourproject_2stim_asymm_v5,2020.2.10,Win32,60,61025ae37ef11b136ea224fe,,,,,,,,,2596,33.60006077,-59.20000732,1,0,0,response3disk,,4,11.20001161,-14.40000665,1,0,0,rectangle,11.20001161,-14.40000665,1,0,0,11.20001161,-14.40000665,1,0,0,0,55,55,129,1,,,,,,,,
,,,,,,,,,,,,,FF,,,,,,,,0.6664,,,,,,,,,,,,,,,,,,,,,,61030f79739dc11db7d01eeb,61036fa9810ea010637744c4,2021-07-29_20h21.58.992,Simcolourproject_2stim_asymm_v5,2020.2.10,Win32,60,61025ae37ef11b136ea224fe,,,,,,,,,653,64.0000124,24.79999393,1,0,0,response1disk,,6,13.60006047,-2.400006473,1,0,0,rectangle,13.60006047,-2.400006473,1,0,0,13.60006047,-2.400006473,1,0,0,0,56,56,150,1,,,,,,,,
,,,,,,,,,,,,,FF,,,,,,,,0.9668,,,,,,,,,,,,,,,,,,,,,,61030f79739dc11db7d01eeb,61036fa9810ea010637744c4,2021-07-29_20h21.58.992,Simcolourproject_2stim_asymm_v5,2020.2.10,Win32,60,61025ae37ef11b136ea224fe,,,,,,,,,767,27.20001185,-45.60000712,1,0,0,response3disk,,4,-7.199988663,-7.200006545,1,0,0,rectangle,-7.199988663,-7.200006545,1,0,0,-7.199988663,-7.200006545,1,0,0,0,57,57,132,1,,,,,,,,
,,,,,,,,,,,,,FF,,,,,,,,0.9163,,,,,,,,,,,,,,,,,,,,,,61030f79739dc11db7d01eeb,61036fa9810ea010637744c4,2021-07-29_20h21.58.992,Simcolourproject_2stim_asymm_v5,2020.2.10,Win32,60,61025ae37ef11b136ea224fe,,,,,,,,,1370,-73.59998965,35.9999941,1,0,0,response7disk,,1,2.40001148,3.999993622,1,0,0,rectangle,2.40001148,3.999993622,1,0,0,2.40001148,3.999993622,1,0,0,0,58,58,53,1,,,,,,,,
,,,,,,,,,,,,,FF,,,,,,,,0.5666,,,,,,,,,,,,,,,,,,,,,,61030f79739dc11db7d01eeb,61036fa9810ea010637744c4,2021-07-29_20h21.58.992,Simcolourproject_2stim_asymm_v5,2020.2.10,Win32,60,61025ae37ef11b136ea224fe,,,,,,,,,1359,60.00001234,34.39999408,1,0,0,response1disk,,6,18.40001172,0.799993575,1,0,0,rectangle,18.40001172,0.799993575,1,0,0,18.40001172,0.799993575,1,0,0,0,59,59,42,1,,,,,,,,
,,,,,,,,,,,,,FF,,,,,,,,0.6498,,,,,,,,,,,,,,,,,,,,,,61030f79739dc11db7d01eeb,61036fa9810ea010637744c4,2021-07-29_20h21.58.992,Simcolourproject_2stim_asymm_v5,2020.2.10,Win32,60,61025ae37ef11b136ea224fe,,,,,,,,,327,32.00001192,-54.40000725,1,0,0,response3disk,,4,6.400011539,9.599993706,1,0,0,rectangle,6.400011539,9.599993706,1,0,0,6.400011539,9.599993706,1,0,0,0,60,60,49,1,,,,,,,,
,,,,,,,,,,,,,FF,,,,,,,,0.8332,,,,,,,,,,,,,,,,,,,,,,61030f79739dc11db7d01eeb,61036fa9810ea010637744c4,2021-07-29_20h21.58.992,Simcolourproject_2stim_asymm_v5,2020.2.10,Win32,60,61025ae37ef11b136ea224fe,,,,,,,,,1790,67.20001245,34.39999408,1,0,0,response1disk,,6,24.0000118,-1.600006461,1,0,0,rectangle,24.0000118,-1.600006461,1,0,0,24.0000118,-1.600006461,1,0,0,0,61,61,127,1,,,,,,,,
,,,,,,,,,,,,,FF,,,,,,,,0.5829,,,,,,,,,,,,,,,,,,,,,,61030f79739dc11db7d01eeb,61036fa9810ea010637744c4,2021-07-29_20h21.58.992,Simcolourproject_2stim_asymm_v5,2020.2.10,Win32,60,61025ae37ef11b136ea224fe,,,,,,,,,3801,59.20001233,35.9999941,1,0,0,response1disk,,6,13.60006047,-1.600006461,1,0,0,rectangle,61.60001236,43.19996979,1,0,0,16.80001169,1.599993587,1,0,0,0,62,62,104,1,,response1disk_3,TRUE,6,6,"[188,285,76,72,220,166,89,194,63,138,211,169,253,133,2,308,28,14,203,77]",1.9489,rectangle
,,,,,,,,,,,,,FF,,,,,,,,0.7167,,,,,,,,,,,,,,,,,,,,,,61030f79739dc11db7d01eeb,61036fa9810ea010637744c4,2021-07-29_20h21.58.992,Simcolourproject_2stim_asymm_v5,2020.2.10,Win32,60,61025ae37ef11b136ea224fe,,,,,,,,,4297,34.40001196,67.19997015,1,0,0,response1disk,,7,2.40001148,7.19999367,1,0,0,rectangle,2.40001148,7.19999367,1,0,0,2.40001148,7.19999367,1,0,0,0,63,63,69,1,,,,,,,,
,,,,,,,,,,,,,FF,,,,,,,,0.8165,,,,,,,,,,,,,,,,,,,,,,61030f79739dc11db7d01eeb,61036fa9810ea010637744c4,2021-07-29_20h21.58.992,Simcolourproject_2stim_asymm_v5,2020.2.10,Win32,60,61025ae37ef11b136ea224fe,,,,,,,,,795,40.00001204,70.39999461,1,0,0,response1disk,,7,16.00001168,-6.4373E-06,1,0,0,rectangle,16.00001168,-6.4373E-06,1,0,0,16.00001168,-6.4373E-06,1,0,0,0,64,64,92,1,,,,,,,,
,,,,,,,,,,,,,FF,,,,,,,,0.6837,,,,,,,,,,,,,,,,,,,,,,61030f79739dc11db7d01eeb,61036fa9810ea010637744c4,2021-07-29_20h21.58.992,Simcolourproject_2stim_asymm_v5,2020.2.10,Win32,60,61025ae37ef11b136ea224fe,,,,,,,,,2870,30.4000119,71.19997021,1,0,0,response1disk,,7,6.400011539,-8.800006568,1,0,0,rectangle,6.400011539,-8.800006568,1,0,0,6.400011539,-8.800006568,1,0,0,0,65,65,113,1,,,,,,,,
,,,,,,,,,,,,,FF,,,,,,,,1.5493,,,,,,,,,,,,,,,,,,,,,,61030f79739dc11db7d01eeb,61036fa9810ea010637744c4,2021-07-29_20h21.58.992,Simcolourproject_2stim_asymm_v5,2020.2.10,Win32,60,61025ae37ef11b136ea224fe,,,,,,,,,3054,-53.59998935,-31.2000069,1,0,0,response5disk,,2,-1.59998858,-1.600006461,1,0,0,rectangle,-1.59998858,-1.600006461,1,0,0,-1.59998858,-1.600006461,1,0,0,0,66,66,151,1,,,,,,,,
,,,,,,,,,,,,,FF,,,,,,,,1.3156,,,,,,,,,,,,,,,,,,,,,,61030f79739dc11db7d01eeb,61036fa9810ea010637744c4,2021-07-29_20h21.58.992,Simcolourproject_2stim_asymm_v5,2020.2.10,Win32,60,61025ae37ef11b136ea224fe,,,,,,,,,4233,84.0000127,43.19996979,1,0,0,response1disk,,6,23.20001179,9.599993706,1,0,0,rectangle,23.20001179,9.599993706,1,0,0,23.20001179,9.599993706,1,0,0,0,67,67,8,1,,,,,,,,
,,,,,,,,,,,,,FF,,,,,,,,1.1823,,,,,,,,,,,,,,,,,,,,,,61030f79739dc11db7d01eeb,61036fa9810ea010637744c4,2021-07-29_20h21.58.992,Simcolourproject_2stim_asymm_v5,2020.2.10,Win32,60,61025ae37ef11b136ea224fe,,,,,,,,,3683,-79.19998974,-29.60000688,1,0,0,response5disk,,2,-3.999988616,-4.000006497,1,0,0,rectangle,-3.999988616,-4.000006497,1,0,0,-3.999988616,-4.000006497,1,0,0,0,68,68,63,1,,,,,,,,
,,,,,,,,,,,,,FF,,,,,,,,1.7799,,,,,,,,,,,,,,,,,,,,,,61030f79739dc11db7d01eeb,61036fa9810ea010637744c4,2021-07-29_20h21.58.992,Simcolourproject_2stim_asymm_v5,2020.2.10,Win32,60,61025ae37ef11b136ea224fe,,,,,,,,,3480,61.60001236,36.79999411,1,0,0,response1disk,,6,14.40001166,-6.400006533,1,0,0,rectangle,14.40001166,-6.400006533,1,0,0,14.40001166,-6.400006533,1,0,0,0,69,69,118,1,,,,,,,,
,,,,,,,,,,,,,FF,,,,,,,,1.8986,,,,,,,,,,,,,,,,,,,,,,61030f79739dc11db7d01eeb,61036fa9810ea010637744c4,2021-07-29_20h21.58.992,Simcolourproject_2stim_asymm_v5,2020.2.10,Win32,60,61025ae37ef11b136ea224fe,,,,,,,,,1610,-38.3999403,67.99999458,1,0,0,response7disk,,0,5.600060356,0.799993575,1,0,0,rectangle,5.600060356,0.799993575,1,0,0,5.600060356,0.799993575,1,0,0,0,70,70,136,1,,,,,,,,
,,,,,,,,,,,,,FF,,,,,,,,1.4158,,,,,,,,,,,,,,,,,,,,,,61030f79739dc11db7d01eeb,61036fa9810ea010637744c4,2021-07-29_20h21.58.992,Simcolourproject_2stim_asymm_v5,2020.2.10,Win32,60,61025ae37ef11b136ea224fe,,,,,,,,,1509,57.6000123,30.39999402,1,0,0,response1disk,,6,3.200011492,-1.600006461,1,0,0,rectangle,-75.99998969,39.19996973,1,0,0,-12.79998875,7.19999367,1,0,0,0,71,71,48,1,,response7disk_3,TRUE,1,1,"[188,285,76,72,220,166,89,194,63,138,211,169,253,133,2,308,28,14,203,77]",1.8662,rectangle
,,,,,,,,,,,,,FF,,,,,,,,1.2339,,,,,,,,,,,,,,,,,,,,,,61030f79739dc11db7d01eeb,61036fa9810ea010637744c4,2021-07-29_20h21.58.992,Simcolourproject_2stim_asymm_v5,2020.2.10,Win32,60,61025ae37ef11b136ea224fe,,,,,,,,,1337,72.80001253,40.79999417,1,0,0,response1disk,,6,-11.19998872,-0.800006449,1,0,0,rectangle,-11.19998872,-0.800006449,1,0,0,-11.19998872,-0.800006449,1,0,0,0,72,72,47,1,,,,,,,,
,,,,,,,,,,,,,FF,,,,,,,,0.9495,,,,,,,,,,,,,,,,,,,,,,61030f79739dc11db7d01eeb,61036fa9810ea010637744c4,2021-07-29_20h21.58.992,Simcolourproject_2stim_asymm_v5,2020.2.10,Win32,60,61025ae37ef11b136ea224fe,,,,,,,,,3146,-63.99998951,105.5999951,1,0,0,response7disk,,0,-11.99998873,4.799993634,1,0,0,rectangle,-11.99998873,4.799993634,1,0,0,-11.99998873,4.799993634,1,0,0,0,73,73,50,1,,,,,,,,
,,,,,,,,,,,,,FF,,,,,,,,0.7492,,,,,,,,,,,,,,,,,,,,,,61030f79739dc11db7d01eeb,61036fa9810ea010637744c4,2021-07-29_20h21.58.992,Simcolourproject_2stim_asymm_v5,2020.2.10,Win32,60,61025ae37ef11b136ea224fe,,,,,,,,,1365,62.40001237,51.19996991,1,0,0,response1disk,,6,25.60006065,3.999993622,1,0,0,rectangle,25.60006065,3.999993622,1,0,0,25.60006065,3.999993622,1,0,0,0,74,74,148,1,,,,,,,,
,,,,,,,,,,,,,FF,,,,,,,,1.1185,,,,,,,,,,,,,,,,,,,,,,61030f79739dc11db7d01eeb,61036fa9810ea010637744c4,2021-07-29_20h21.58.992,Simcolourproject_2stim_asymm_v5,2020.2.10,Win32,60,61025ae37ef11b136ea224fe,,,,,,,,,980,-63.1999895,-36.00000697,1,0,0,response5disk,,2,3.200011492,-4.800006509,1,0,0,rectangle,-20.79998887,-71.2000075,1,0,0,9.600060415,11.99999374,1,0,0,0,75,75,86,1,,response5disk_3,TRUE,3,3,"[188,285,76,72,220,166,89,194,63,138,211,169,253,133,2,308,28,14,203,77]",3.5806,rectangle
,,,,,,,,,,,,,FF,,,,,,,,0.9009,,,,,,,,,,,,,,,,,,,,,,61030f79739dc11db7d01eeb,61036fa9810ea010637744c4,2021-07-29_20h21.58.992,Simcolourproject_2stim_asymm_v5,2020.2.10,Win32,60,61025ae37ef11b136ea224fe,,,,,,,,,3886,59.20001233,41.59999418,1,0,0,response1disk,,6,-0.799988568,-10.40000659,1,0,0,rectangle,76.80001259,-33.60000694,1,0,0,4.000011504,6.399993658,1,0,0,0,76,76,39,1,,response3disk_3,TRUE,5,5,"[188,285,76,72,220,166,89,194,63,138,211,169,253,133,2,308,28,14,203,77]",2.7489,rectangle
,,,,,,,,,,,,,FF,,,,,,,,1.0319,,,,,,,,,,,,,,,,,,,,,,61030f79739dc11db7d01eeb,61036fa9810ea010637744c4,2021-07-29_20h21.58.992,Simcolourproject_2stim_asymm_v5,2020.2.10,Win32,60,61025ae37ef11b136ea224fe,,,,,,,,,2132,69.60001248,31.99999404,1,0,0,response1disk,,6,-24.79998893,-2.400006473,1,0,0,rectangle,-24.79998893,-2.400006473,1,0,0,-24.79998893,-2.400006473,1,0,0,0,77,77,2,1,,,,,,,,
,,,,,,,,,,,,,FF,,,,,,,,0.7834,,,,,,,,,,,,,,,,,,,,,,61030f79739dc11db7d01eeb,61036fa9810ea010637744c4,2021-07-29_20h21.58.992,Simcolourproject_2stim_asymm_v5,2020.2.10,Win32,60,61025ae37ef11b136ea224fe,,,,,,,,,2534,72.00001252,31.99999404,1,0,0,response1disk,,6,-27.99998897,-6.400006533,1,0,0,rectangle,-27.99998897,-6.400006533,1,0,0,-27.99998897,-6.400006533,1,0,0,0,78,78,143,1,,,,,,,,
,,,,,,,,,,,,,FF,,,,,,,,0.6464,,,,,,,,,,,,,,,,,,,,,,61030f79739dc11db7d01eeb,61036fa9810ea010637744c4,2021-07-29_20h21.58.992,Simcolourproject_2stim_asymm_v5,2020.2.10,Win32,60,61025ae37ef11b136ea224fe,,,,,,,,,226,80.00001264,-35.20000696,1,0,0,response3disk,,5,24.0000118,0.799993575,1,0,0,rectangle,24.0000118,0.799993575,1,0,0,24.0000118,0.799993575,1,0,0,0,79,79,138,1,,,,,,,,
,,,,,,,,,,,,,FF,,,,,,,,0.7844,,,,,,,,,,,,,,,,,,,,,,61030f79739dc11db7d01eeb,61036fa9810ea010637744c4,2021-07-29_20h21.58.992,Simcolourproject_2stim_asymm_v5,2020.2.10,Win32,60,61025ae37ef11b136ea224fe,,,,,,,,,3702,48.80001217,-32.00000691,1,0,0,response3disk,,5,9.600060415,-5.600006521,1,0,0,rectangle,9.600060415,-5.600006521,1,0,0,9.600060415,-5.600006521,1,0,0,0,80,80,51,1,,,,,,,,
,,,,,,,,,,,,,FF,,,,,,,,0.5001,,,,,,,,,,,,,,,,,,,,,,61030f79739dc11db7d01eeb,61036fa9810ea010637744c4,2021-07-29_20h21.58.992,Simcolourproject_2stim_asymm_v5,2020.2.10,Win32,60,61025ae37ef11b136ea224fe,,,,,,,,,1011,60.00001234,-28.80000687,1,0,0,response3disk,,5,14.40001166,-0.800006449,1,0,0,rectangle,14.40001166,-0.800006449,1,0,0,14.40001166,-0.800006449,1,0,0,0,81,81,14,1,,,,,,,,
,,,,,,,,,,,,,FF,,,,,,,,0.6995,,,,,,,,,,,,,,,,,,,,,,61030f79739dc11db7d01eeb,61036fa9810ea010637744c4,2021-07-29_20h21.58.992,Simcolourproject_2stim_asymm_v5,2020.2.10,Win32,60,61025ae37ef11b136ea224fe,,,,,,,,,376,28.80001187,-62.40000737,1,0,0,response3disk,,4,3.200011492,-6.400006533,1,0,0,rectangle,3.200011492,-6.400006533,1,0,0,3.200011492,-6.400006533,1,0,0,0,82,82,73,1,,,,,,,,
,,,,,,,,,,,,,FF,,,,,,,,0.6514,,,,,,,,,,,,,,,,,,,,,,61030f79739dc11db7d01eeb,61036fa9810ea010637744c4,2021-07-29_20h21.58.992,Simcolourproject_2stim_asymm_v5,2020.2.10,Win32,60,61025ae37ef11b136ea224fe,,,,,,,,,3891,87.20001274,32.79999405,1,0,0,response1disk,,6,18.40001172,3.999993622,1,0,0,rectangle,18.40001172,3.999993622,1,0,0,18.40001172,3.999993622,1,0,0,0,83,83,115,1,,,,,,,,
,,,,,,,,,,,,,FF,,,,,,,,0.6358,,,,,,,,,,,,,,,,,,,,,,61030f79739dc11db7d01eeb,61036fa9810ea010637744c4,2021-07-29_20h21.58.992,Simcolourproject_2stim_asymm_v5,2020.2.10,Win32,60,61025ae37ef11b136ea224fe,,,,,,,,,364,59.20001233,34.39999408,1,0,0,response1disk,,6,12.00001162,4.799993634,1,0,0,rectangle,12.00001162,4.799993634,1,0,0,12.00001162,4.799993634,1,0,0,0,84,84,45,1,,,,,,,,
,,,,,,,,,,,,,FF,,,,,,,,0.6828,,,,,,,,,,,,,,,,,,,,,,61030f79739dc11db7d01eeb,61036fa9810ea010637744c4,2021-07-29_20h21.58.992,Simcolourproject_2stim_asymm_v5,2020.2.10,Win32,60,61025ae37ef11b136ea224fe,,,,,,,,,40,31.20001191,72.79999465,1,0,0,response1disk,,7,4.000011504,11.19999373,1,0,0,rectangle,4.000011504,11.19999373,1,0,0,4.000011504,11.19999373,1,0,0,0,85,85,54,1,,,,,,,,
,,,,,,,,,,,,,FF,,,,,,,,0.5999,,,,,,,,,,,,,,,,,,,,,,61030f79739dc11db7d01eeb,61036fa9810ea010637744c4,2021-07-29_20h21.58.992,Simcolourproject_2stim_asymm_v5,2020.2.10,Win32,60,61025ae37ef11b136ea224fe,,,,,,,,,2018,41.60006089,68.79999459,1,0,0,response1disk,,7,-13.59998876,-4.000006497,1,0,0,rectangle,-13.59998876,-4.000006497,1,0,0,-13.59998876,-4.000006497,1,0,0,0,86,86,134,1,,,,,,,,
,,,,,,,,,,,,,FF,,,,,,,,1.0499,,,,,,,,,,,,,,,,,,,,,,61030f79739dc11db7d01eeb,61036fa9810ea010637744c4,2021-07-29_20h21.58.992,Simcolourproject_2stim_asymm_v5,2020.2.10,Win32,60,61025ae37ef11b136ea224fe,,,,,,,,,2180,-35.99998909,-67.20000744,1,0,0,response5disk,,3,-17.59998882,-9.60000658,1,0,0,rectangle,-17.59998882,-9.60000658,1,0,0,-17.59998882,-9.60000658,1,0,0,0,87,87,55,1,,,,,,,,
,,,,,,,,,,,,,FF,,,,,,,,0.9176,,,,,,,,,,,,,,,,,,,,,,61030f79739dc11db7d01eeb,61036fa9810ea010637744c4,2021-07-29_20h21.58.992,Simcolourproject_2stim_asymm_v5,2020.2.10,Win32,60,61025ae37ef11b136ea224fe,,,,,,,,,1452,-77.59998971,51.19996991,1,0,0,response7disk,,1,7.200011551,-4.800006509,1,0,0,rectangle,-85.59998983,-37.600007,1,0,0,-20.79998887,0.799993575,1,0,0,0,88,88,31,1,,response5disk_3,TRUE,2,2,"[188,285,76,72,220,166,89,194,63,138,211,169,253,133,2,308,28,14,203,77]",2.0988,rectangle
,,,,,,,,,,,,,FF,,,,,,,,1.6984,,,,,,,,,,,,,,,,,,,,,,61030f79739dc11db7d01eeb,61036fa9810ea010637744c4,2021-07-29_20h21.58.992,Simcolourproject_2stim_asymm_v5,2020.2.10,Win32,60,61025ae37ef11b136ea224fe,,,,,,,,,1467,-67.19998956,-24.00000679,1,0,0,response5disk,,2,-11.99998873,-4.800006509,1,0,0,rectangle,-11.99998873,-4.800006509,1,0,0,-11.99998873,-4.800006509,1,0,0,0,89,89,90,1,,,,,,,,
,,,,,,,,,,,,,FF,,,,,,,,0.8335,,,,,,,,,,,,,,,,,,,,,,61030f79739dc11db7d01eeb,61036fa9810ea010637744c4,2021-07-29_20h21.58.992,Simcolourproject_2stim_asymm_v5,2020.2.10,Win32,60,61025ae37ef11b136ea224fe,,,,,,,,,613,-90.39994107,-39.20000702,1,0,0,response5disk,,2,-7.199988663,1.599993587,1,0,0,rectangle,-7.199988663,1.599993587,1,0,0,-7.199988663,1.599993587,1,0,0,0,90,90,142,1,,,,,,,,
,,,,,,,,,,,,,FF,,,,,,,,0.9827,,,,,,,,,,,,,,,,,,,,,,61030f79739dc11db7d01eeb,61036fa9810ea010637744c4,2021-07-29_20h21.58.992,Simcolourproject_2stim_asymm_v5,2020.2.10,Win32,60,61025ae37ef11b136ea224fe,,,,,,,,,4065,27.20001185,-59.20000732,1,0,0,response3disk,,4,-7.199988663,-4.800006509,1,0,0,rectangle,-7.199988663,-4.800006509,1,0,0,-7.199988663,-4.800006509,1,0,0,0,91,91,121,1,,,,,,,,
,,,,,,,,,,,,,FF,,,,,,,,0.6992,,,,,,,,,,,,,,,,,,,,,,61030f79739dc11db7d01eeb,61036fa9810ea010637744c4,2021-07-29_20h21.58.992,Simcolourproject_2stim_asymm_v5,2020.2.10,Win32,60,61025ae37ef11b136ea224fe,,,,,,,,,794,-38.3999403,-53.60000724,1,0,0,response5disk,,3,-23.99998891,2.399993598,1,0,0,rectangle,-23.99998891,2.399993598,1,0,0,-23.99998891,2.399993598,1,0,0,0,92,92,12,1,,,,,,,,
,,,,,,,,,,,,,FF,,,,,,,,0.6997,,,,,,,,,,,,,,,,,,,,,,61030f79739dc11db7d01eeb,61036fa9810ea010637744c4,2021-07-29_20h21.58.992,Simcolourproject_2stim_asymm_v5,2020.2.10,Win32,60,61025ae37ef11b136ea224fe,,,,,,,,,1647,44.0000121,71.19997021,1,0,0,response1disk,,7,20.80001175,-6.400006533,1,0,0,rectangle,20.80001175,-6.400006533,1,0,0,20.80001175,-6.400006533,1,0,0,0,93,93,146,1,,,,,,,,
,,,,,,,,,,,,,FF,,,,,,,,0.6847,,,,,,,,,,,,,,,,,,,,,,61030f79739dc11db7d01eeb,61036fa9810ea010637744c4,2021-07-29_20h21.58.992,Simcolourproject_2stim_asymm_v5,2020.2.10,Win32,60,61025ae37ef11b136ea224fe,,,,,,,,,1783,80.80001265,38.39999413,1,0,0,response1disk,,6,18.40001172,-2.400006473,1,0,0,rectangle,18.40001172,-2.400006473,1,0,0,18.40001172,-2.400006473,1,0,0,0,94,94,123,1,,,,,,,,
,,,,,,,,,,,,,FF,,,,,,,,0.8332,,,,,,,,,,,,,,,,,,,,,,61030f79739dc11db7d01eeb,61036fa9810ea010637744c4,2021-07-29_20h21.58.992,Simcolourproject_2stim_asymm_v5,2020.2.10,Win32,60,61025ae37ef11b136ea224fe,,,,,,,,,3205,-79.19998974,-28.00000685,1,0,0,response5disk,,2,-3.999988616,2.399993598,1,0,0,rectangle,-3.999988616,2.399993598,1,0,0,-3.999988616,2.399993598,1,0,0,0,95,95,80,1,,,,,,,,
,,,,,,,,,,,,,FF,,,,,,,,0.7664,,,,,,,,,,,,,,,,,,,,,,61030f79739dc11db7d01eeb,61036fa9810ea010637744c4,2021-07-29_20h21.58.992,Simcolourproject_2stim_asymm_v5,2020.2.10,Win32,60,61025ae37ef11b136ea224fe,,,,,,,,,3028,28.00001186,-64.8000074,1,0,0,response3disk,,4,-3.999988616,-7.200006545,1,0,0,rectangle,-3.999988616,-7.200006545,1,0,0,-3.999988616,-7.200006545,1,0,0,0,96,96,144,1,,,,,,,,
,,,,,,,,,,,,,FF,,,,,,,,0.8981,,,,,,,,,,,,,,,,,,,,,,61030f79739dc11db7d01eeb,61036fa9810ea010637744c4,2021-07-29_20h21.58.992,Simcolourproject_2stim_asymm_v5,2020.2.10,Win32,60,61025ae37ef11b136ea224fe,,,,,,,,,1674,-70.39994078,-37.600007,1,0,0,response5disk,,2,-6.399939823,-5.600006521,1,0,0,rectangle,-6.399939823,-5.600006521,1,0,0,-6.399939823,-5.600006521,1,0,0,0,97,97,26,1,,,,,,,,
,,,,,,,,,,,,,FF,,,,,,,,1.1005,,,,,,,,,,,,,,,,,,,,,,61030f79739dc11db7d01eeb,61036fa9810ea010637744c4,2021-07-29_20h21.58.992,Simcolourproject_2stim_asymm_v5,2020.2.10,Win32,60,61025ae37ef11b136ea224fe,,,,,,,,,4279,64.80001241,33.59999406,1,0,0,response1disk,,6,17.60006053,5.599993646,1,0,0,rectangle,17.60006053,5.599993646,1,0,0,17.60006053,5.599993646,1,0,0,0,98,98,23,1,,,,,,,,
,,,,,,,,,,,,,FF,,,,,,,,0.8841,,,,,,,,,,,,,,,,,,,,,,61030f79739dc11db7d01eeb,61036fa9810ea010637744c4,2021-07-29_20h21.58.992,Simcolourproject_2stim_asymm_v5,2020.2.10,Win32,60,61025ae37ef11b136ea224fe,,,,,,,,,3689,61.60001236,32.79999405,1,0,0,response1disk,,6,4.000011504,-5.600006521,1,0,0,rectangle,4.000011504,-5.600006521,1,0,0,4.000011504,-5.600006521,1,0,0,0,99,99,82,1,,,,,,,,
,,,,,,,,,,,,,FF,,,,,,,,0.5835,,,,,,,,,,,,,,,,,,,,,,61030f79739dc11db7d01eeb,61036fa9810ea010637744c4,2021-07-29_20h21.58.992,Simcolourproject_2stim_asymm_v5,2020.2.10,Win32,60,61025ae37ef11b136ea224fe,,,,,,,,,1646,60.00001234,38.39999413,1,0,0,response1disk,,6,18.40001172,3.999993622,1,0,0,rectangle,18.40001172,3.999993622,1,0,0,18.40001172,3.999993622,1,0,0,0,100,100,65,1,,,,,,,,
,,,,,,,,,,,,,FF,,,,,,,,0.5325,,,,,,,,,,,,,,,,,,,,,,61030f79739dc11db7d01eeb,61036fa9810ea010637744c4,2021-07-29_20h21.58.992,Simcolourproject_2stim_asymm_v5,2020.2.10,Win32,60,61025ae37ef11b136ea224fe,,,,,,,,,222,67.20001245,27.99999398,1,0,0,response1disk,,6,23.20001179,3.999993622,1,0,0,rectangle,23.20001179,3.999993622,1,0,0,23.20001179,3.999993622,1,0,0,0,101,101,20,1,,,,,,,,
,,,,,,,,,,,,,FF,,,,,,,,0.4506,,,,,,,,,,,,,,,,,,,,,,61030f79739dc11db7d01eeb,61036fa9810ea010637744c4,2021-07-29_20h21.58.992,Simcolourproject_2stim_asymm_v5,2020.2.10,Win32,60,61025ae37ef11b136ea224fe,,,,,,,,,1104,67.20001245,29.599994,1,0,0,response1disk,,6,16.80001169,1.599993587,1,0,0,rectangle,16.80001169,1.599993587,1,0,0,16.80001169,1.599993587,1,0,0,0,102,102,59,1,,,,,,,,
,,,,,,,,,,,,,FF,,,,,,,,0.8828,,,,,,,,,,,,,,,,,,,,,,61030f79739dc11db7d01eeb,61036fa9810ea010637744c4,2021-07-29_20h21.58.992,Simcolourproject_2stim_asymm_v5,2020.2.10,Win32,60,61025ae37ef11b136ea224fe,,,,,,,,,2890,-66.39994072,35.19996967,1,0,0,response7disk,,1,28.00001186,-5.600006521,1,0,0,rectangle,28.00001186,-5.600006521,1,0,0,28.00001186,-5.600006521,1,0,0,0,103,103,24,1,,,,,,,,
,,,,,,,,,,,,,FF,,,,,,,,0.8202,,,,,,,,,,,,,,,,,,,,,,61030f79739dc11db7d01eeb,61036fa9810ea010637744c4,2021-07-29_20h21.58.992,Simcolourproject_2stim_asymm_v5,2020.2.10,Win32,60,61025ae37ef11b136ea224fe,,,,,,,,,1317,56.80001229,42.39999419,1,0,0,response1disk,,6,5.600060356,5.599993646,1,0,0,rectangle,5.600060356,5.599993646,1,0,0,5.600060356,5.599993646,1,0,0,0,104,104,101,1,,,,,,,,
,,,,,,,,,,,,,FF,,,,,,,,0.7008,,,,,,,,,,,,,,,,,,,,,,61030f79739dc11db7d01eeb,61036fa9810ea010637744c4,2021-07-29_20h21.58.992,Simcolourproject_2stim_asymm_v5,2020.2.10,Win32,60,61025ae37ef11b136ea224fe,,,,,,,,,320,53.60001224,37.59999412,1,0,0,response1disk,,6,15.20001167,4.799993634,1,0,0,rectangle,15.20001167,4.799993634,1,0,0,15.20001167,4.799993634,1,0,0,0,105,105,29,1,,,,,,,,
,,,,,,,,,,,,,FF,,,,,,,,0.6001,,,,,,,,,,,,,,,,,,,,,,61030f79739dc11db7d01eeb,61036fa9810ea010637744c4,2021-07-29_20h21.58.992,Simcolourproject_2stim_asymm_v5,2020.2.10,Win32,60,61025ae37ef11b136ea224fe,,,,,,,,,883,55.20001227,-25.60000682,1,0,0,response3disk,,5,-14.39993994,8.799993694,1,0,0,rectangle,-14.39993994,8.799993694,1,0,0,-14.39993994,8.799993694,1,0,0,0,106,106,114,1,,,,,,,,
,,,,,,,,,,,,,FF,,,,,,,,1.3159,,,,,,,,,,,,,,,,,,,,,,61030f79739dc11db7d01eeb,61036fa9810ea010637744c4,2021-07-29_20h21.58.992,Simcolourproject_2stim_asymm_v5,2020.2.10,Win32,60,61025ae37ef11b136ea224fe,,,,,,,,,2764,48.00001216,76.79999471,1,0,0,response1disk,,7,19.20001173,13.59999377,1,0,0,rectangle,19.20001173,13.59999377,1,0,0,19.20001173,13.59999377,1,0,0,0,107,107,76,1,,,,,,,,
,,,,,,,,,,,,,FF,,,,,,,,1.3671,,,,,,,,,,,,,,,,,,,,,,61030f79739dc11db7d01eeb,61036fa9810ea010637744c4,2021-07-29_20h21.58.992,Simcolourproject_2stim_asymm_v5,2020.2.10,Win32,60,61025ae37ef11b136ea224fe,,,,,,,,,3600,40.00001204,-53.60000724,1,0,0,response3disk,,4,5.600060356,-7.200006545,1,0,0,rectangle,5.600060356,-7.200006545,1,0,0,5.600060356,-7.200006545,1,0,0,0,108,108,40,1,,,,,,,,
,,,,,,,,,,,,,FF,,,,,,,,0.8498,,,,,,,,,,,,,,,,,,,,,,61030f79739dc11db7d01eeb,61036fa9810ea010637744c4,2021-07-29_20h21.58.992,Simcolourproject_2stim_asymm_v5,2020.2.10,Win32,60,61025ae37ef11b136ea224fe,,,,,,,,,4195,64.0000124,35.19996967,1,0,0,response1disk,,6,24.80001181,5.599993646,1,0,0,rectangle,24.80001181,5.599993646,1,0,0,24.80001181,5.599993646,1,0,0,0,109,109,103,1,,,,,,,,
,,,,,,,,,,,,,FF,,,,,,,,1.2992,,,,,,,,,,,,,,,,,,,,,,61030f79739dc11db7d01eeb,61036fa9810ea010637744c4,2021-07-29_20h21.58.992,Simcolourproject_2stim_asymm_v5,2020.2.10,Win32,60,61025ae37ef11b136ea224fe,,,,,,,,,3813,-31.19998902,-64.00000739,1,0,0,response5disk,,3,13.60006047,-6.4373E-06,1,0,0,rectangle,13.60006047,-6.4373E-06,1,0,0,13.60006047,-6.4373E-06,1,0,0,0,110,110,33,1,,,,,,,,
,,,,,,,,,,,,,FF,,,,,,,,0.9499,,,,,,,,,,,,,,,,,,,,,,61030f79739dc11db7d01eeb,61036fa9810ea010637744c4,2021-07-29_20h21.58.992,Simcolourproject_2stim_asymm_v5,2020.2.10,Win32,60,61025ae37ef11b136ea224fe,,,,,,,,,3056,-39.19998914,-60.80000734,1,0,0,response5disk,,3,-5.599988639,-6.400006533,1,0,0,rectangle,-5.599988639,-6.400006533,1,0,0,-5.599988639,-6.400006533,1,0,0,0,111,111,120,1,,,,,,,,
,,,,,,,,,,,,,FF,,,,,,,,0.9664,,,,,,,,,,,,,,,,,,,,,,61030f79739dc11db7d01eeb,61036fa9810ea010637744c4,2021-07-29_20h21.58.992,Simcolourproject_2stim_asymm_v5,2020.2.10,Win32,60,61025ae37ef11b136ea224fe,,,,,,,,,4265,47.20001215,47.99999428,1,0,0,response1disk,,7,12.80001163,3.999993622,1,0,0,rectangle,12.80001163,3.999993622,1,0,0,12.80001163,3.999993622,1,0,0,0,112,112,85,1,,,,,,,,
,,,,,,,,,,,,,FF,,,,,,,,0.6662,,,,,,,,,,,,,,,,,,,,,,61030f79739dc11db7d01eeb,61036fa9810ea010637744c4,2021-07-29_20h21.58.992,Simcolourproject_2stim_asymm_v5,2020.2.10,Win32,60,61025ae37ef11b136ea224fe,,,,,,,,,850,59.20001233,29.599994,1,0,0,response1disk,,6,19.20001173,-2.400006473,1,0,0,rectangle,19.20001173,-2.400006473,1,0,0,19.20001173,-2.400006473,1,0,0,0,113,113,130,1,,,,,,,,
,,,,,,,,,,,,,FF,,,,,,,,1.1342,,,,,,,,,,,,,,,,,,,,,,61030f79739dc11db7d01eeb,61036fa9810ea010637744c4,2021-07-29_20h21.58.992,Simcolourproject_2stim_asymm_v5,2020.2.10,Win32,60,61025ae37ef11b136ea224fe,,,,,,,,,1368,-31.99998903,72.79999465,1,0,0,response7disk,,0,-2.399939764,4.799993634,1,0,0,rectangle,-2.399939764,4.799993634,1,0,0,-2.399939764,4.799993634,1,0,0,0,114,114,70,1,,,,,,,,
,,,,,,,,,,,,,FF,,,,,,,,0.6017,,,,,,,,,,,,,,,,,,,,,,61030f79739dc11db7d01eeb,61036fa9810ea010637744c4,2021-07-29_20h21.58.992,Simcolourproject_2stim_asymm_v5,2020.2.10,Win32,60,61025ae37ef11b136ea224fe,,,,,,,,,393,51.20001221,33.59999406,1,0,0,response1disk,,6,18.40001172,4.799993634,1,0,0,rectangle,18.40001172,4.799993634,1,0,0,18.40001172,4.799993634,1,0,0,0,115,115,131,1,,,,,,,,
,,,,,,,,,,,,,FF,,,,,,,,1.5324,,,,,,,,,,,,,,,,,,,,,,61030f79739dc11db7d01eeb,61036fa9810ea010637744c4,2021-07-29_20h21.58.992,Simcolourproject_2stim_asymm_v5,2020.2.10,Win32,60,61025ae37ef11b136ea224fe,,,,,,,,,4271,29.60006071,49.5999943,1,0,0,response1disk,,7,16.00001168,3.19999361,1,0,0,rectangle,16.00001168,3.19999361,1,0,0,16.00001168,3.19999361,1,0,0,0,116,116,79,1,,,,,,,,
,,,,,,,,,,,,,FF,,,,,,,,1.1137,,,,,,,,,,,,,,,,,,,,,,61030f79739dc11db7d01eeb,61036fa9810ea010637744c4,2021-07-29_20h21.58.992,Simcolourproject_2stim_asymm_v5,2020.2.10,Win32,60,61025ae37ef11b136ea224fe,,,,,,,,,291,31.20001191,-40.80000705,1,0,0,response3disk,,4,1.14441E-05,14.39999378,1,0,0,rectangle,1.14441E-05,14.39999378,1,0,0,1.14441E-05,14.39999378,1,0,0,0,117,117,81,1,,,,,,,,
,,,,,,,,,,,,,FF,,,,,,,,1.0825,,,,,,,,,,,,,,,,,,,,,,61030f79739dc11db7d01eeb,61036fa9810ea010637744c4,2021-07-29_20h21.58.992,Simcolourproject_2stim_asymm_v5,2020.2.10,Win32,60,61025ae37ef11b136ea224fe,,,,,,,,,746,-29.599989,-54.40000725,1,0,0,response5disk,,3,-0.799988568,-4.000006497,1,0,0,rectangle,-0.799988568,-4.000006497,1,0,0,-0.799988568,-4.000006497,1,0,0,0,118,118,112,1,,,,,,,,
,,,,,,,,,,,,,FF,,,,,,,,1.0163,,,,,,,,,,,,,,,,,,,,,,61030f79739dc11db7d01eeb,61036fa9810ea010637744c4,2021-07-29_20h21.58.992,Simcolourproject_2stim_asymm_v5,2020.2.10,Win32,60,61025ae37ef11b136ea224fe,,,,,,,,,933,61.60001236,36.79999411,1,0,0,response1disk,,6,6.400011539,7.999993682,1,0,0,rectangle,6.400011539,7.999993682,1,0,0,6.400011539,7.999993682,1,0,0,0,119,119,66,1,,,,,,,,
,,,,,,,,,,,,,FF,,,,,,,,0.7164,,,,,,,,,,,,,,,,,,,,,,61030f79739dc11db7d01eeb,61036fa9810ea010637744c4,2021-07-29_20h21.58.992,Simcolourproject_2stim_asymm_v5,2020.2.10,Win32,60,61025ae37ef11b136ea224fe,,,,,,,,,1871,60.00001234,35.19996967,1,0,0,response1disk,,6,18.40001172,-0.800006449,1,0,0,rectangle,18.40001172,-0.800006449,1,0,0,18.40001172,-0.800006449,1,0,0,0,120,120,57,1,,,,,,,,
,,,,,,,,,,,,,FF,,,,,,,,0.5502,,,,,,,,,,,,,,,,,,,,,,61030f79739dc11db7d01eeb,61036fa9810ea010637744c4,2021-07-29_20h21.58.992,Simcolourproject_2stim_asymm_v5,2020.2.10,Win32,60,61025ae37ef11b136ea224fe,,,,,,,,,2150,47.20001215,32.79999405,1,0,0,response1disk,,6,11.20001161,1.599993587,1,0,0,rectangle,11.20001161,1.599993587,1,0,0,11.20001161,1.599993587,1,0,0,0,121,121,43,1,,,,,,,,
,,,,,,,,,,,,,FF,,,,,,,,0.6996,,,,,,,,,,,,,,,,,,,,,,61030f79739dc11db7d01eeb,61036fa9810ea010637744c4,2021-07-29_20h21.58.992,Simcolourproject_2stim_asymm_v5,2020.2.10,Win32,60,61025ae37ef11b136ea224fe,,,,,,,,,2566,68.00001246,29.599994,1,0,0,response1disk,,6,27.20001185,0.799993575,1,0,0,rectangle,27.20001185,0.799993575,1,0,0,27.20001185,0.799993575,1,0,0,0,122,122,96,1,,,,,,,,
,,,,,,,,,,,,,FF,,,,,,,,0.7837,,,,,,,,,,,,,,,,,,,,,,61030f79739dc11db7d01eeb,61036fa9810ea010637744c4,2021-07-29_20h21.58.992,Simcolourproject_2stim_asymm_v5,2020.2.10,Win32,60,61025ae37ef11b136ea224fe,,,,,,,,,4281,-64.79998952,-30.40000689,1,0,0,response5disk,,2,4.800011516,-6.4373E-06,1,0,0,rectangle,4.800011516,-6.4373E-06,1,0,0,4.800011516,-6.4373E-06,1,0,0,0,123,123,15,1,,,,,,,,
,,,,,,,,,,,,,FF,,,,,,,,0.6669,,,,,,,,,,,,,,,,,,,,,,61030f79739dc11db7d01eeb,61036fa9810ea010637744c4,2021-07-29_20h21.58.992,Simcolourproject_2stim_asymm_v5,2020.2.10,Win32,60,61025ae37ef11b136ea224fe,,,,,,,,,610,68.00001246,-23.20000678,1,0,0,response3disk,,5,18.40001172,-6.4373E-06,1,0,0,rectangle,18.40001172,-6.4373E-06,1,0,0,18.40001172,-6.4373E-06,1,0,0,0,124,124,106,1,,,,,,,,
,,,,,,,,,,,,,FF,,,,,,,,0.9326,,,,,,,,,,,,,,,,,,,,,,61030f79739dc11db7d01eeb,61036fa9810ea010637744c4,2021-07-29_20h21.58.992,Simcolourproject_2stim_asymm_v5,2020.2.10,Win32,60,61025ae37ef11b136ea224fe,,,,,,,,,2226,-34.39994024,59.99999446,1,0,0,response7disk,,0,8.000011563,1.599993587,1,0,0,rectangle,8.000011563,1.599993587,1,0,0,8.000011563,1.599993587,1,0,0,0,125,125,4,1,,,,,,,,
,,,,,,,,,,,,,FF,,,,,,,,0.7325,,,,,,,,,,,,,,,,,,,,,,61030f79739dc11db7d01eeb,61036fa9810ea010637744c4,2021-07-29_20h21.58.992,Simcolourproject_2stim_asymm_v5,2020.2.10,Win32,60,61025ae37ef11b136ea224fe,,,,,,,,,2216,48.80001217,24.79999393,1,0,0,response1disk,,6,28.80001187,3.19999361,1,0,0,rectangle,28.80001187,3.19999361,1,0,0,28.80001187,3.19999361,1,0,0,0,126,126,74,1,,,,,,,,
,,,,,,,,,,,,,FF,,,,,,,,0.8664,,,,,,,,,,,,,,,,,,,,,,61030f79739dc11db7d01eeb,61036fa9810ea010637744c4,2021-07-29_20h21.58.992,Simcolourproject_2stim_asymm_v5,2020.2.10,Win32,60,61025ae37ef11b136ea224fe,,,,,,,,,1295,47.20001215,-26.40000683,1,0,0,response3disk,,5,2.40001148,-3.200006485,1,0,0,rectangle,2.40001148,-3.200006485,1,0,0,2.40001148,-3.200006485,1,0,0,0,127,127,64,1,,,,,,,,
,,,,,,,,,,,,,FF,,,,,,,,1.5792,,,,,,,,,,,,,,,,,,,,,,61030f79739dc11db7d01eeb,61036fa9810ea010637744c4,2021-07-29_20h21.58.992,Simcolourproject_2stim_asymm_v5,2020.2.10,Win32,60,61025ae37ef11b136ea224fe,,,,,,,,,577,56.80001229,33.59999406,1,0,0,response1disk,,6,24.0000118,4.799993634,1,0,0,rectangle,24.0000118,4.799993634,1,0,0,24.0000118,4.799993634,1,0,0,0,128,128,154,1,,,,,,,,
,,,,,,,,,,,,,FF,,,,,,,,0.6983,,,,,,,,,,,,,,,,,,,,,,61030f79739dc11db7d01eeb,61036fa9810ea010637744c4,2021-07-29_20h21.58.992,Simcolourproject_2stim_asymm_v5,2020.2.10,Win32,60,61025ae37ef11b136ea224fe,,,,,,,,,1026,40.00001204,-30.40000689,1,0,0,response3disk,,5,-0.799988568,-5.600006521,1,0,0,rectangle,-0.799988568,-5.600006521,1,0,0,-0.799988568,-5.600006521,1,0,0,0,129,129,10,1,,,,,,,,
,,,,,,,,,,,,,FF,,,,,,,,0.766,,,,,,,,,,,,,,,,,,,,,,61030f79739dc11db7d01eeb,61036fa9810ea010637744c4,2021-07-29_20h21.58.992,Simcolourproject_2stim_asymm_v5,2020.2.10,Win32,60,61025ae37ef11b136ea224fe,,,,,,,,,1734,-58.3999406,-27.20000684,1,0,0,response5disk,,2,6.400011539,5.599993646,1,0,0,rectangle,6.400011539,5.599993646,1,0,0,6.400011539,5.599993646,1,0,0,0,130,130,126,1,,,,,,,,
,,,,,,,,,,,,,FF,,,,,,,,0.7166,,,,,,,,,,,,,,,,,,,,,,61030f79739dc11db7d01eeb,61036fa9810ea010637744c4,2021-07-29_20h21.58.992,Simcolourproject_2stim_asymm_v5,2020.2.10,Win32,60,61025ae37ef11b136ea224fe,,,,,,,,,3764,78.40001261,-27.20000684,1,0,0,response3disk,,5,24.80001181,-3.200006485,1,0,0,rectangle,24.80001181,-3.200006485,1,0,0,24.80001181,-3.200006485,1,0,0,0,131,131,99,1,,,,,,,,
,,,,,,,,,,,,,FF,,,,,,,,0.4663,,,,,,,,,,,,,,,,,,,,,,61030f79739dc11db7d01eeb,61036fa9810ea010637744c4,2021-07-29_20h21.58.992,Simcolourproject_2stim_asymm_v5,2020.2.10,Win32,60,61025ae37ef11b136ea224fe,,,,,,,,,1981,49.60006101,-28.00000685,1,0,0,response3disk,,5,23.20001179,-4.800006509,1,0,0,rectangle,-71.99998963,36.79999411,1,0,0,-11.99998873,2.399993598,1,0,0,0,132,132,147,1,,response7disk_3,TRUE,1,1,"[188,285,76,72,220,166,89,194,63,138,211,169,253,133,2,308,28,14,203,77]",2.1804,rectangle
,,,,,,,,,,,,,FF,,,,,,,,1.7165,,,,,,,,,,,,,,,,,,,,,,61030f79739dc11db7d01eeb,61036fa9810ea010637744c4,2021-07-29_20h21.58.992,Simcolourproject_2stim_asymm_v5,2020.2.10,Win32,60,61025ae37ef11b136ea224fe,,,,,,,,,1584,26.40001184,-66.40000743,1,0,0,response3disk,,4,-8.799988687,-12.80000663,1,0,0,rectangle,-8.799988687,-12.80000663,1,0,0,-8.799988687,-12.80000663,1,0,0,0,133,133,109,1,,,,,,,,
,,,,,,,,,,,,,FF,,,,,,,,0.8665,,,,,,,,,,,,,,,,,,,,,,61030f79739dc11db7d01eeb,61036fa9810ea010637744c4,2021-07-29_20h21.58.992,Simcolourproject_2stim_asymm_v5,2020.2.10,Win32,60,61025ae37ef11b136ea224fe,,,,,,,,,2836,-55.19998938,40.79999417,1,0,0,response7disk,,1,-8.799988687,2.399993598,1,0,0,rectangle,-8.799988687,2.399993598,1,0,0,-8.799988687,2.399993598,1,0,0,0,134,134,11,1,,,,,,,,
,,,,,,,,,,,,,FF,,,,,,,,0.7177,,,,,,,,,,,,,,,,,,,,,,61030f79739dc11db7d01eeb,61036fa9810ea010637744c4,2021-07-29_20h21.58.992,Simcolourproject_2stim_asymm_v5,2020.2.10,Win32,60,61025ae37ef11b136ea224fe,,,,,,,,,823,81.60001266,27.99999398,1,0,0,response1disk,,6,24.80001181,3.999993622,1,0,0,rectangle,24.80001181,3.999993622,1,0,0,24.80001181,3.999993622,1,0,0,0,135,135,84,1,,,,,,,,
,,,,,,,,,,,,,FF,,,,,,,,0.7499,,,,,,,,,,,,,,,,,,,,,,61030f79739dc11db7d01eeb,61036fa9810ea010637744c4,2021-07-29_20h21.58.992,Simcolourproject_2stim_asymm_v5,2020.2.10,Win32,60,61025ae37ef11b136ea224fe,,,,,,,,,2095,-35.19998908,-52.00000721,1,0,0,response5disk,,3,-16.79998881,-7.200006545,1,0,0,rectangle,-16.79998881,-7.200006545,1,0,0,-16.79998881,-7.200006545,1,0,0,0,136,136,97,1,,,,,,,,
,,,,,,,,,,,,,FF,,,,,,,,2.7159,,,,,,,,,,,,,,,,,,,,,,61030f79739dc11db7d01eeb,61036fa9810ea010637744c4,2021-07-29_20h21.58.992,Simcolourproject_2stim_asymm_v5,2020.2.10,Win32,60,61025ae37ef11b136ea224fe,,,,,,,,,397,54.40001225,-30.40000689,1,0,0,response3disk,,5,-1.59998858,3.999993622,1,0,0,rectangle,-27.99998897,72.79999465,1,0,0,-8.799988687,6.399993658,1,0,0,0,137,137,37,1,,response7disk_3,TRUE,0,0,"[188,285,76,72,220,166,89,194,63,138,211,169,253,133,2,308,28,14,203,77]",2.2149,rectangle
,,,,,,,,,,,,,FF,,,,,,,,0.8174,,,,,,,,,,,,,,,,,,,,,,61030f79739dc11db7d01eeb,61036fa9810ea010637744c4,2021-07-29_20h21.58.992,Simcolourproject_2stim_asymm_v5,2020.2.10,Win32,60,61025ae37ef11b136ea224fe,,,,,,,,,351,-54.39994054,-26.40000683,1,0,0,response5disk,,2,-6.399939823,-2.400006473,1,0,0,rectangle,-6.399939823,-2.400006473,1,0,0,-6.399939823,-2.400006473,1,0,0,0,138,138,0,1,,,,,,,,
,,,,,,,,,,,,,FF,,,,,,,,0.7162,,,,,,,,,,,,,,,,,,,,,,61030f79739dc11db7d01eeb,61036fa9810ea010637744c4,2021-07-29_20h21.58.992,Simcolourproject_2stim_asymm_v5,2020.2.10,Win32,60,61025ae37ef11b136ea224fe,,,,,,,,,3965,-32.79998904,75.19997027,1,0,0,response7disk,,0,-3.199988604,12.79999375,1,0,0,rectangle,-3.199988604,12.79999375,1,0,0,-3.199988604,12.79999375,1,0,0,0,139,139,77,1,,,,,,,,
,,,,,,,,,,,,,FF,,,,,,,,1.3148,,,,,,,,,,,,,,,,,,,,,,61030f79739dc11db7d01eeb,61036fa9810ea010637744c4,2021-07-29_20h21.58.992,Simcolourproject_2stim_asymm_v5,2020.2.10,Win32,60,61025ae37ef11b136ea224fe,,,,,,,,,614,-63.99998951,-24.00000679,1,0,0,response5disk,,2,-6.399939823,-4.800006509,1,0,0,rectangle,-6.399939823,-4.800006509,1,0,0,-6.399939823,-4.800006509,1,0,0,0,140,140,152,1,,,,,,,,
,,,,,,,,,,,,,FF,,,,,,,,0.8162,,,,,,,,,,,,,,,,,,,,,,61030f79739dc11db7d01eeb,61036fa9810ea010637744c4,2021-07-29_20h21.58.992,Simcolourproject_2stim_asymm_v5,2020.2.10,Win32,60,61025ae37ef11b136ea224fe,,,,,,,,,1581,-31.19998902,-46.40000713,1,0,0,response5disk,,3,-10.39993988,-2.400006473,1,0,0,rectangle,-10.39993988,-2.400006473,1,0,0,-10.39993988,-2.400006473,1,0,0,0,141,141,67,1,,,,,,,,
,,,,,,,,,,,,,FF,,,,,,,,0.9493,,,,,,,,,,,,,,,,,,,,,,61030f79739dc11db7d01eeb,61036fa9810ea010637744c4,2021-07-29_20h21.58.992,Simcolourproject_2stim_asymm_v5,2020.2.10,Win32,60,61025ae37ef11b136ea224fe,,,,,,,,,4050,72.00001252,31.19996961,1,0,0,response1disk,,6,3.200011492,5.599993646,1,0,0,rectangle,3.200011492,5.599993646,1,0,0,3.200011492,5.599993646,1,0,0,0,142,142,110,1,,,,,,,,
,,,,,,,,,,,,,FF,,,,,,,,0.783,,,,,,,,,,,,,,,,,,,,,,61030f79739dc11db7d01eeb,61036fa9810ea010637744c4,2021-07-29_20h21.58.992,Simcolourproject_2stim_asymm_v5,2020.2.10,Win32,60,61025ae37ef11b136ea224fe,,,,,,,,,1593,54.40001225,30.39999402,1,0,0,response1disk,,6,14.40001166,1.599993587,1,0,0,rectangle,14.40001166,1.599993587,1,0,0,14.40001166,1.599993587,1,0,0,0,143,143,133,1,,,,,,,,
,,,,,,,,,,,,,FF,,,,,,,,0.8503,,,,,,,,,,,,,,,,,,,,,,61030f79739dc11db7d01eeb,61036fa9810ea010637744c4,2021-07-29_20h21.58.992,Simcolourproject_2stim_asymm_v5,2020.2.10,Win32,60,61025ae37ef11b136ea224fe,,,,,,,,,1918,62.40001237,29.599994,1,0,0,response1disk,,6,16.80001169,1.599993587,1,0,0,rectangle,16.80001169,1.599993587,1,0,0,16.80001169,1.599993587,1,0,0,0,144,144,17,1,,,,,,,,
,,,,,,,,,,,,,FF,,,,,,,,1.216,,,,,,,,,,,,,,,,,,,,,,61030f79739dc11db7d01eeb,61036fa9810ea010637744c4,2021-07-29_20h21.58.992,Simcolourproject_2stim_asymm_v5,2020.2.10,Win32,60,61025ae37ef11b136ea224fe,,,,,,,,,1959,-69.59998959,43.99999422,1,0,0,response7disk,,1,-7.999988675,11.19999373,1,0,0,rectangle,-7.999988675,11.19999373,1,0,0,-7.999988675,11.19999373,1,0,0,0,145,145,18,1,,,,,,,,
,,,,,,,,,,,,,FF,,,,,,,,2.4653,,,,,,,,,,,,,,,,,,,,,,61030f79739dc11db7d01eeb,61036fa9810ea010637744c4,2021-07-29_20h21.58.992,Simcolourproject_2stim_asymm_v5,2020.2.10,Win32,60,61025ae37ef11b136ea224fe,,,,,,,,,2140,88.80001277,49.5999943,1,0,0,response1disk,,6,23.20001179,0.799993575,1,0,0,rectangle,23.20001179,0.799993575,1,0,0,23.20001179,0.799993575,1,0,0,0,146,146,124,1,,,,,,,,
,,,,,,,,,,,,,FF,,,,,,,,1.1689,,,,,,,,,,,,,,,,,,,,,,61030f79739dc11db7d01eeb,61036fa9810ea010637744c4,2021-07-29_20h21.58.992,Simcolourproject_2stim_asymm_v5,2020.2.10,Win32,60,61025ae37ef11b136ea224fe,,,,,,,,,210,58.40001231,-34.40000695,1,0,0,response3disk,,5,-0.799988568,-1.600006461,1,0,0,rectangle,-0.799988568,-1.600006461,1,0,0,-0.799988568,-1.600006461,1,0,0,0,147,147,94,1,,,,,,,,
,,,,,,,,,,,,,FF,,,,,,,,0.8828,,,,,,,,,,,,,,,,,,,,,,61030f79739dc11db7d01eeb,61036fa9810ea010637744c4,2021-07-29_20h21.58.992,Simcolourproject_2stim_asymm_v5,2020.2.10,Win32,60,61025ae37ef11b136ea224fe,,,,,,,,,4354,-47.99998927,-73.60000753,1,0,0,response5disk,,3,-15.19998878,7.999993682,1,0,0,rectangle,-15.19998878,7.999993682,1,0,0,-15.19998878,7.999993682,1,0,0,0,148,148,44,1,,,,,,,,
,,,,,,,,,,,,,FF,,,,,,,,1.0825,,,,,,,,,,,,,,,,,,,,,,61030f79739dc11db7d01eeb,61036fa9810ea010637744c4,2021-07-29_20h21.58.992,Simcolourproject_2stim_asymm_v5,2020.2.10,Win32,60,61025ae37ef11b136ea224fe,,,,,,,,,2950,-73.59998965,-45.60000712,1,0,0,response5disk,,2,6.400011539,11.19999373,1,0,0,rectangle,6.400011539,11.19999373,1,0,0,6.400011539,11.19999373,1,0,0,0,149,149,13,1,,,,,,,,
,,,,,,,,,,,,,FF,,,,,,,,0.9665,,,,,,,,,,,,,,,,,,,,,,61030f79739dc11db7d01eeb,61036fa9810ea010637744c4,2021-07-29_20h21.58.992,Simcolourproject_2stim_asymm_v5,2020.2.10,Win32,60,61025ae37ef11b136ea224fe,,,,,,,,,2433,40.00001204,-55.20000726,1,0,0,response3disk,,4,7.200011551,-4.000006497,1,0,0,rectangle,7.200011551,-4.000006497,1,0,0,7.200011551,-4.000006497,1,0,0,0,150,150,141,1,,,,,,,,
,,,,,,,,,,,,,FF,,,,,,,,0.7506,,,,,,,,,,,,,,,,,,,,,,61030f79739dc11db7d01eeb,61036fa9810ea010637744c4,2021-07-29_20h21.58.992,Simcolourproject_2stim_asymm_v5,2020.2.10,Win32,60,61025ae37ef11b136ea224fe,,,,,,,,,2196,56.80001229,28.79999399,1,0,0,response1disk,,6,35.20001197,11.99999374,1,0,0,rectangle,35.20001197,11.99999374,1,0,0,35.20001197,11.99999374,1,0,0,0,151,151,38,1,,,,,,,,
,,,,,,,,,,,,,FF,,,,,,,,0.7329,,,,,,,,,,,,,,,,,,,,,,61030f79739dc11db7d01eeb,61036fa9810ea010637744c4,2021-07-29_20h21.58.992,Simcolourproject_2stim_asymm_v5,2020.2.10,Win32,60,61025ae37ef11b136ea224fe,,,,,,,,,3794,54.40001225,30.39999402,1,0,0,response1disk,,6,25.60006065,11.99999374,1,0,0,rectangle,25.60006065,11.99999374,1,0,0,25.60006065,11.99999374,1,0,0,0,152,152,3,1,,,,,,,,
,,,,,,,,,,,,,FF,,,,,,,,1.3491,,,,,,,,,,,,,,,,,,,,,,61030f79739dc11db7d01eeb,61036fa9810ea010637744c4,2021-07-29_20h21.58.992,Simcolourproject_2stim_asymm_v5,2020.2.10,Win32,60,61025ae37ef11b136ea224fe,,,,,,,,,3746,-67.19998956,-29.60000688,1,0,0,response5disk,,2,-31.19998902,-8.000006557,1,0,0,rectangle,-31.19998902,-8.000006557,1,0,0,-31.19998902,-8.000006557,1,0,0,0,153,153,116,1,,,,,,,,
,,,,,,,,,,,,,FF,,,,,,,,1.0834,,,,,,,,,,,,,,,,,,,,,,61030f79739dc11db7d01eeb,61036fa9810ea010637744c4,2021-07-29_20h21.58.992,Simcolourproject_2stim_asymm_v5,2020.2.10,Win32,60,61025ae37ef11b136ea224fe,,,,,,,,,1013,-23.99998891,-53.60000724,1,0,0,response5disk,,3,-7.999988675,-12.80000663,1,0,0,rectangle,-7.999988675,-12.80000663,1,0,0,-7.999988675,-12.80000663,1,0,0,0,154,154,149,1,,,,,,,,
,,,,,,,,,,,,,FF,,,,,,,,0.9333,,,,,,,,,,,,,,,,,,,,,,61030f79739dc11db7d01eeb,61036fa9810ea010637744c4,2021-07-29_20h21.58.992,Simcolourproject_2stim_asymm_v5,2020.2.10,Win32,60,61025ae37ef11b136ea224fe,,,,,,,,,2462,32.00001192,-47.20000714,1,0,0,response3disk,,4,25.60006065,2.399993598,1,0,0,rectangle,25.60006065,2.399993598,1,0,0,25.60006065,2.399993598,1,0,0,0,155,155,89,1,,,,,,,,
,,,,,,,,,,,,,FF,,,,,,,,0.7835,,,,,,,,,,,,,,,,,,,,,,61030f79739dc11db7d01eeb,61036fa9810ea010637744c4,2021-07-29_20h21.58.992,Simcolourproject_2stim_asymm_v5,2020.2.10,Win32,60,61025ae37ef11b136ea224fe,,,,,,,,,3024,63.20001239,53.59999436,1,0,0,response1disk,,6,13.60006047,12.79999375,1,0,0,rectangle,13.60006047,12.79999375,1,0,0,13.60006047,12.79999375,1,0,0,0,156,156,7,1,,,,,,,,
,,,,,,,,,,,,,FF,,,,,,,,1.0666,,,,,,,,,,,,,,,,,,,,,,61030f79739dc11db7d01eeb,61036fa9810ea010637744c4,2021-07-29_20h21.58.992,Simcolourproject_2stim_asymm_v5,2020.2.10,Win32,60,61025ae37ef11b136ea224fe,,,,,,,,,2107,-35.19998908,-57.6000073,1,0,0,response5disk,,3,-3.999988616,4.799993634,1,0,0,rectangle,-3.999988616,4.799993634,1,0,0,-3.999988616,4.799993634,1,0,0,0,157,157,46,1,,,,,,,,
,,,,,,,,,,,,,FF,,,,,,,,1,,,,,,,,,,,,,,,,,,,,,,61030f79739dc11db7d01eeb,61036fa9810ea010637744c4,2021-07-29_20h21.58.992,Simcolourproject_2stim_asymm_v5,2020.2.10,Win32,60,61025ae37ef11b136ea224fe,,,,,,,,,2947,-83.99998981,45.59999424,1,0,0,response7disk,,1,-27.19998896,15.19999379,1,0,0,rectangle,-27.19998896,15.19999379,1,0,0,-27.19998896,15.19999379,1,0,0,0,158,158,91,1,,,,,,,,
,,,,,,,,,,,,,FF,,,,,,,,0.9497,,,,,,,,,,,,,,,,,,,,,,61030f79739dc11db7d01eeb,61036fa9810ea010637744c4,2021-07-29_20h21.58.992,Simcolourproject_2stim_asymm_v5,2020.2.10,Win32,60,61025ae37ef11b136ea224fe,,,,,,,,,4236,-51.99998933,41.59999418,1,0,0,response7disk,,1,-1.59998858,7.19999367,1,0,0,rectangle,-1.59998858,7.19999367,1,0,0,-1.59998858,7.19999367,1,0,0,0,159,159,122,1,,,,,,,,
,,,,,,,,,,,,,FF,,,,,,,,0.7829,,,,,,,,,,,,,,,,,,,,,,61030f79739dc11db7d01eeb,61036fa9810ea010637744c4,2021-07-29_20h21.58.992,Simcolourproject_2stim_asymm_v5,2020.2.10,Win32,60,61025ae37ef11b136ea224fe,,,,,,,,,1991,59.20001233,29.599994,1,0,0,response1disk,,6,16.00001168,-6.4373E-06,1,0,0,rectangle,16.00001168,-6.4373E-06,1,0,0,16.00001168,-6.4373E-06,1,0,0,1,0,160,63,1,,,,,,,,
,,,,,,,,,,,,,FF,,,,,,,,0.8661,,,,,,,,,,,,,,,,,,,,,,61030f79739dc11db7d01eeb,61036fa9810ea010637744c4,2021-07-29_20h21.58.992,Simcolourproject_2stim_asymm_v5,2020.2.10,Win32,60,61025ae37ef11b136ea224fe,,,,,,,,,1548,40.00001204,18.39999384,1,0,0,response1disk,,6,31.20001191,8.799993694,1,0,0,rectangle,31.20001191,8.799993694,1,0,0,31.20001191,8.799993694,1,0,0,1,1,161,138,1,,,,,,,,
,,,,,,,,,,,,,FF,,,,,,,,0.9163,,,,,,,,,,,,,,,,,,,,,,61030f79739dc11db7d01eeb,61036fa9810ea010637744c4,2021-07-29_20h21.58.992,Simcolourproject_2stim_asymm_v5,2020.2.10,Win32,60,61025ae37ef11b136ea224fe,,,,,,,,,2212,53.60001224,-32.80000693,1,0,0,response3disk,,5,4.800011516,-4.000006497,1,0,0,rectangle,4.800011516,-4.000006497,1,0,0,4.800011516,-4.000006497,1,0,0,1,2,162,136,1,,,,,,,,
,,,,,,,,,,,,,FF,,,,,,,,0.8162,,,,,,,,,,,,,,,,,,,,,,61030f79739dc11db7d01eeb,61036fa9810ea010637744c4,2021-07-29_20h21.58.992,Simcolourproject_2stim_asymm_v5,2020.2.10,Win32,60,61025ae37ef11b136ea224fe,,,,,,,,,1706,56.80001229,27.19996955,1,0,0,response1disk,,6,13.60006047,9.599993706,1,0,0,rectangle,13.60006047,9.599993706,1,0,0,13.60006047,9.599993706,1,0,0,1,3,163,147,1,,,,,,,,
,,,,,,,,,,,,,FF,,,,,,,,1.1837,,,,,,,,,,,,,,,,,,,,,,61030f79739dc11db7d01eeb,61036fa9810ea010637744c4,2021-07-29_20h21.58.992,Simcolourproject_2stim_asymm_v5,2020.2.10,Win32,60,61025ae37ef11b136ea224fe,,,,,,,,,1696,-26.39994012,-59.20000732,1,0,0,response5disk,,3,6.400011539,-6.400006533,1,0,0,rectangle,6.400011539,-6.400006533,1,0,0,6.400011539,-6.400006533,1,0,0,1,4,164,61,1,,,,,,,,
,,,,,,,,,,,,,FF,,,,,,,,1.949,,,,,,,,,,,,,,,,,,,,,,61030f79739dc11db7d01eeb,61036fa9810ea010637744c4,2021-07-29_20h21.58.992,Simcolourproject_2stim_asymm_v5,2020.2.10,Win32,60,61025ae37ef11b136ea224fe,,,,,,,,,2726,-83.1999898,34.39999408,1,0,0,response7disk,,1,-21.59998888,4.799993634,1,0,0,rectangle,85.60001272,55.19996997,1,0,0,16.00001168,0.799993575,1,0,0,1,5,165,29,1,,response1disk_3,TRUE,6,6,"[188,285,76,72,220,166,89,194,63,138,211,169,253,133,2,308,28,14,203,77]",2.1494,rectangle
,,,,,,,,,,,,,FF,,,,,,,,1.1156,,,,,,,,,,,,,,,,,,,,,,61030f79739dc11db7d01eeb,61036fa9810ea010637744c4,2021-07-29_20h21.58.992,Simcolourproject_2stim_asymm_v5,2020.2.10,Win32,60,61025ae37ef11b136ea224fe,,,,,,,,,3592,-49.5999893,77.59999472,1,0,0,response7disk,,0,-7.199988663,10.39999372,1,0,0,rectangle,-7.199988663,10.39999372,1,0,0,-7.199988663,10.39999372,1,0,0,1,6,166,84,1,,,,,,,,
,,,,,,,,,,,,,FF,,,,,,,,1,,,,,,,,,,,,,,,,,,,,,,61030f79739dc11db7d01eeb,61036fa9810ea010637744c4,2021-07-29_20h21.58.992,Simcolourproject_2stim_asymm_v5,2020.2.10,Win32,60,61025ae37ef11b136ea224fe,,,,,,,,,1025,53.60001224,39.99999416,1,0,0,response1disk,,6,22.40001178,8.799993694,1,0,0,rectangle,22.40001178,8.799993694,1,0,0,22.40001178,8.799993694,1,0,0,1,7,167,6,1,,,,,,,,
,,,,,,,,,,,,,FF,,,,,,,,0.9171,,,,,,,,,,,,,,,,,,,,,,61030f79739dc11db7d01eeb,61036fa9810ea010637744c4,2021-07-29_20h21.58.992,Simcolourproject_2stim_asymm_v5,2020.2.10,Win32,60,61025ae37ef11b136ea224fe,,,,,,,,,2104,-68.79998958,-36.00000697,1,0,0,response5disk,,2,-28.79998899,-15.20000666,1,0,0,rectangle,44.0000121,-76.00000757,1,0,0,2.40001148,2.399993598,1,0,0,1,8,168,128,1,,response3disk_3,TRUE,4,4,"[188,285,76,72,220,166,89,194,63,138,211,169,253,133,2,308,28,14,203,77]",1.5004,rectangle
,,,,,,,,,,,,,FF,,,,,,,,0.9491,,,,,,,,,,,,,,,,,,,,,,61030f79739dc11db7d01eeb,61036fa9810ea010637744c4,2021-07-29_20h21.58.992,Simcolourproject_2stim_asymm_v5,2020.2.10,Win32,60,61025ae37ef11b136ea224fe,,,,,,,,,1560,55.20001227,23.99999392,1,0,0,response1disk,,6,20.80001175,9.599993706,1,0,0,rectangle,20.80001175,9.599993706,1,0,0,20.80001175,9.599993706,1,0,0,1,9,169,155,1,,,,,,,,
,,,,,,,,,,,,,FF,,,,,,,,1.1339,,,,,,,,,,,,,,,,,,,,,,61030f79739dc11db7d01eeb,61036fa9810ea010637744c4,2021-07-29_20h21.58.992,Simcolourproject_2stim_asymm_v5,2020.2.10,Win32,60,61025ae37ef11b136ea224fe,,,,,,,,,1526,-57.59998941,-28.00000685,1,0,0,response5disk,,2,-3.199988604,0.799993575,1,0,0,rectangle,-3.199988604,0.799993575,1,0,0,-3.199988604,0.799993575,1,0,0,1,10,170,3,1,,,,,,,,
,,,,,,,,,,,,,FF,,,,,,,,0.9661,,,,,,,,,,,,,,,,,,,,,,61030f79739dc11db7d01eeb,61036fa9810ea010637744c4,2021-07-29_20h21.58.992,Simcolourproject_2stim_asymm_v5,2020.2.10,Win32,60,61025ae37ef11b136ea224fe,,,,,,,,,3197,-80.79998976,36.79999411,1,0,0,response7disk,,1,-15.19998878,-0.800006449,1,0,0,rectangle,-15.19998878,-0.800006449,1,0,0,-15.19998878,-0.800006449,1,0,0,1,11,171,46,1,,,,,,,,
,,,,,,,,,,,,,FF,,,,,,,,0.9494,,,,,,,,,,,,,,,,,,,,,,61030f79739dc11db7d01eeb,61036fa9810ea010637744c4,2021-07-29_20h21.58.992,Simcolourproject_2stim_asymm_v5,2020.2.10,Win32,60,61025ae37ef11b136ea224fe,,,,,,,,,4194,57.6000123,51.99999434,1,0,0,response1disk,,6,4.800011516,3.999993622,1,0,0,rectangle,4.800011516,3.999993622,1,0,0,4.800011516,3.999993622,1,0,0,1,12,172,35,1,,,,,,,,
,,,,,,,,,,,,,FF,,,,,,,,0.8995,,,,,,,,,,,,,,,,,,,,,,61030f79739dc11db7d01eeb,61036fa9810ea010637744c4,2021-07-29_20h21.58.992,Simcolourproject_2stim_asymm_v5,2020.2.10,Win32,60,61025ae37ef11b136ea224fe,,,,,,,,,1949,67.20001245,36.79999411,1,0,0,response1disk,,6,21.60006059,12.79999375,1,0,0,rectangle,21.60006059,12.79999375,1,0,0,21.60006059,12.79999375,1,0,0,1,13,173,90,1,,,,,,,,
,,,,,,,,,,,,,FF,,,,,,,,0.6817,,,,,,,,,,,,,,,,,,,,,,61030f79739dc11db7d01eeb,61036fa9810ea010637744c4,2021-07-29_20h21.58.992,Simcolourproject_2stim_asymm_v5,2020.2.10,Win32,60,61025ae37ef11b136ea224fe,,,,,,,,,1191,43.20001209,27.19996955,1,0,0,response1disk,,6,14.40001166,9.599993706,1,0,0,rectangle,14.40001166,9.599993706,1,0,0,14.40001166,9.599993706,1,0,0,1,14,174,112,1,,,,,,,,
,,,,,,,,,,,,,FF,,,,,,,,0.9832,,,,,,,,,,,,,,,,,,,,,,61030f79739dc11db7d01eeb,61036fa9810ea010637744c4,2021-07-29_20h21.58.992,Simcolourproject_2stim_asymm_v5,2020.2.10,Win32,60,61025ae37ef11b136ea224fe,,,,,,,,,4268,-42.39994036,-63.20000738,1,0,0,response5disk,,3,-15.19998878,-6.400006533,1,0,0,rectangle,-15.19998878,-6.400006533,1,0,0,-15.19998878,-6.400006533,1,0,0,1,15,175,13,1,,,,,,,,
,,,,,,,,,,,,,FF,,,,,,,,0.8995,,,,,,,,,,,,,,,,,,,,,,61030f79739dc11db7d01eeb,61036fa9810ea010637744c4,2021-07-29_20h21.58.992,Simcolourproject_2stim_asymm_v5,2020.2.10,Win32,60,61025ae37ef11b136ea224fe,,,,,,,,,2188,-44.79998922,-27.20000684,1,0,0,response5disk,,2,-1.59998858,-4.800006509,1,0,0,rectangle,-1.59998858,-4.800006509,1,0,0,-1.59998858,-4.800006509,1,0,0,1,16,176,49,1,,,,,,,,
,,,,,,,,,,,,,FF,,,,,,,,0.8991,,,,,,,,,,,,,,,,,,,,,,61030f79739dc11db7d01eeb,61036fa9810ea010637744c4,2021-07-29_20h21.58.992,Simcolourproject_2stim_asymm_v5,2020.2.10,Win32,60,61025ae37ef11b136ea224fe,,,,,,,,,1236,65.60001242,-40.00000703,1,0,0,response3disk,,5,12.00001162,4.799993634,1,0,0,rectangle,12.00001162,4.799993634,1,0,0,12.00001162,4.799993634,1,0,0,1,17,177,7,1,,,,,,,,
,,,,,,,,,,,,,FF,,,,,,,,0.8964,,,,,,,,,,,,,,,,,,,,,,61030f79739dc11db7d01eeb,61036fa9810ea010637744c4,2021-07-29_20h21.58.992,Simcolourproject_2stim_asymm_v5,2020.2.10,Win32,60,61025ae37ef11b136ea224fe,,,,,,,,,937,27.20001185,57.59999442,1,0,0,response1disk,,7,4.800011516,11.19999373,1,0,0,rectangle,4.800011516,11.19999373,1,0,0,4.800011516,11.19999373,1,0,0,1,18,178,11,1,,,,,,,,
,,,,,,,,,,,,,FF,,,,,,,,0.9327,,,,,,,,,,,,,,,,,,,,,,61030f79739dc11db7d01eeb,61036fa9810ea010637744c4,2021-07-29_20h21.58.992,Simcolourproject_2stim_asymm_v5,2020.2.10,Win32,60,61025ae37ef11b136ea224fe,,,,,,,,,3747,-33.59998906,-42.40000707,1,0,0,response5disk,,3,-16.79998881,-3.200006485,1,0,0,rectangle,-16.79998881,-3.200006485,1,0,0,-16.79998881,-3.200006485,1,0,0,1,19,179,53,1,,,,,,,,
,,,,,,,,,,,,,FF,,,,,,,,0.8997,,,,,,,,,,,,,,,,,,,,,,61030f79739dc11db7d01eeb,61036fa9810ea010637744c4,2021-07-29_20h21.58.992,Simcolourproject_2stim_asymm_v5,2020.2.10,Win32,60,61025ae37ef11b136ea224fe,,,,,,,,,1731,53.60001224,-40.80000705,1,0,0,response3disk,,5,8.000011563,-0.800006449,1,0,0,rectangle,8.000011563,-0.800006449,1,0,0,8.000011563,-0.800006449,1,0,0,1,20,180,25,1,,,,,,,,
,,,,,,,,,,,,,FF,,,,,,,,0.9502,,,,,,,,,,,,,,,,,,,,,,61030f79739dc11db7d01eeb,61036fa9810ea010637744c4,2021-07-29_20h21.58.992,Simcolourproject_2stim_asymm_v5,2020.2.10,Win32,60,61025ae37ef11b136ea224fe,,,,,,,,,4161,-63.1999895,31.19996961,1,0,0,response7disk,,1,-6.399939823,6.399993658,1,0,0,rectangle,-6.399939823,6.399993658,1,0,0,-6.399939823,6.399993658,1,0,0,1,21,181,66,1,,,,,,,,
,,,,,,,,,,,,,FF,,,,,,,,0.7486,,,,,,,,,,,,,,,,,,,,,,61030f79739dc11db7d01eeb,61036fa9810ea010637744c4,2021-07-29_20h21.58.992,Simcolourproject_2stim_asymm_v5,2020.2.10,Win32,60,61025ae37ef11b136ea224fe,,,,,,,,,3223,68.80001247,50.39999431,1,0,0,response1disk,,6,3.200011492,2.399993598,1,0,0,rectangle,3.200011492,2.399993598,1,0,0,3.200011492,2.399993598,1,0,0,1,22,182,19,1,,,,,,,,
,,,,,,,,,,,,,FF,,,,,,,,0.7174,,,,,,,,,,,,,,,,,,,,,,61030f79739dc11db7d01eeb,61036fa9810ea010637744c4,2021-07-29_20h21.58.992,Simcolourproject_2stim_asymm_v5,2020.2.10,Win32,60,61025ae37ef11b136ea224fe,,,,,,,,,1021,23.20001179,68.79999459,1,0,0,response1disk,,7,2.40001148,4.799993634,1,0,0,rectangle,2.40001148,4.799993634,1,0,0,2.40001148,4.799993634,1,0,0,1,23,183,125,1,,,,,,,,
,,,,,,,,,,,,,FF,,,,,,,,0.7165,,,,,,,,,,,,,,,,,,,,,,61030f79739dc11db7d01eeb,61036fa9810ea010637744c4,2021-07-29_20h21.58.992,Simcolourproject_2stim_asymm_v5,2020.2.10,Win32,60,61025ae37ef11b136ea224fe,,,,,,,,,745,73.60001254,48.79999429,1,0,0,response1disk,,6,20.80001175,15.19999379,1,0,0,rectangle,20.80001175,15.19999379,1,0,0,20.80001175,15.19999379,1,0,0,1,24,184,80,1,,,,,,,,
,,,,,,,,,,,,,FF,,,,,,,,0.9994,,,,,,,,,,,,,,,,,,,,,,61030f79739dc11db7d01eeb,61036fa9810ea010637744c4,2021-07-29_20h21.58.992,Simcolourproject_2stim_asymm_v5,2020.2.10,Win32,60,61025ae37ef11b136ea224fe,,,,,,,,,1527,-28.79998899,-72.00000751,1,0,0,response5disk,,3,-2.399939764,-9.60000658,1,0,0,rectangle,-2.399939764,-9.60000658,1,0,0,-2.399939764,-9.60000658,1,0,0,1,25,185,142,1,,,,,,,,
,,,,,,,,,,,,,FF,,,,,,,,0.7672,,,,,,,,,,,,,,,,,,,,,,61030f79739dc11db7d01eeb,61036fa9810ea010637744c4,2021-07-29_20h21.58.992,Simcolourproject_2stim_asymm_v5,2020.2.10,Win32,60,61025ae37ef11b136ea224fe,,,,,,,,,3039,-58.3999406,-27.20000684,1,0,0,response5disk,,2,-17.59998882,-6.400006533,1,0,0,rectangle,-17.59998882,-6.400006533,1,0,0,-17.59998882,-6.400006533,1,0,0,1,26,186,154,1,,,,,,,,
,,,,,,,,,,,,,FF,,,,,,,,0.8827,,,,,,,,,,,,,,,,,,,,,,61030f79739dc11db7d01eeb,61036fa9810ea010637744c4,2021-07-29_20h21.58.992,Simcolourproject_2stim_asymm_v5,2020.2.10,Win32,60,61025ae37ef11b136ea224fe,,,,,,,,,619,-55.19998938,-31.2000069,1,0,0,response5disk,,2,-10.39993988,-4.000006497,1,0,0,rectangle,-61.59998947,-34.40000695,1,0,0,-17.59998882,-4.800006509,1,0,0,1,27,187,69,1,,response5disk_3,TRUE,2,2,"[188,285,76,72,220,166,89,194,63,138,211,169,253,133,2,308,28,14,203,77]",2.216,rectangle
,,,,,,,,,,,,,FF,,,,,,,,1.0693,,,,,,,,,,,,,,,,,,,,,,61030f79739dc11db7d01eeb,61036fa9810ea010637744c4,2021-07-29_20h21.58.992,Simcolourproject_2stim_asymm_v5,2020.2.10,Win32,60,61025ae37ef11b136ea224fe,,,,,,,,,656,19.20001173,-48.00000715,1,0,0,response3disk,,4,-3.199988604,-8.000006557,1,0,0,rectangle,-3.199988604,-8.000006557,1,0,0,-3.199988604,-8.000006557,1,0,0,1,28,188,135,1,,,,,,,,
,,,,,,,,,,,,,FF,,,,,,,,1.0491,,,,,,,,,,,,,,,,,,,,,,61030f79739dc11db7d01eeb,61036fa9810ea010637744c4,2021-07-29_20h21.58.992,Simcolourproject_2stim_asymm_v5,2020.2.10,Win32,60,61025ae37ef11b136ea224fe,,,,,,,,,3027,66.40001243,37.59999412,1,0,0,response1disk,,6,-9.599988699,-7.200006545,1,0,0,rectangle,-9.599988699,-7.200006545,1,0,0,-9.599988699,-7.200006545,1,0,0,1,29,189,93,1,,,,,,,,
,,,,,,,,,,,,,FF,,,,,,,,1.3679,,,,,,,,,,,,,,,,,,,,,,61030f79739dc11db7d01eeb,61036fa9810ea010637744c4,2021-07-29_20h21.58.992,Simcolourproject_2stim_asymm_v5,2020.2.10,Win32,60,61025ae37ef11b136ea224fe,,,,,,,,,374,-23.99998891,-65.60000741,1,0,0,response5disk,,3,6.400011539,3.19999361,1,0,0,rectangle,6.400011539,3.19999361,1,0,0,6.400011539,3.19999361,1,0,0,1,30,190,157,1,,,,,,,,
,,,,,,,,,,,,,FF,,,,,,,,0.8826,,,,,,,,,,,,,,,,,,,,,,61030f79739dc11db7d01eeb,61036fa9810ea010637744c4,2021-07-29_20h21.58.992,Simcolourproject_2stim_asymm_v5,2020.2.10,Win32,60,61025ae37ef11b136ea224fe,,,,,,,,,2109,-23.1999889,-65.60000741,1,0,0,response5disk,,3,6.400011539,-6.400006533,1,0,0,rectangle,6.400011539,-6.400006533,1,0,0,6.400011539,-6.400006533,1,0,0,1,31,191,30,1,,,,,,,,
,,,,,,,,,,,,,FF,,,,,,,,1.481,,,,,,,,,,,,,,,,,,,,,,61030f79739dc11db7d01eeb,61036fa9810ea010637744c4,2021-07-29_20h21.58.992,Simcolourproject_2stim_asymm_v5,2020.2.10,Win32,60,61025ae37ef11b136ea224fe,,,,,,,,,4190,-45.59998924,29.599994,1,0,0,response7disk,,1,-10.39993988,10.39999372,1,0,0,rectangle,-10.39993988,10.39999372,1,0,0,-10.39993988,10.39999372,1,0,0,1,32,192,111,1,,,,,,,,
,,,,,,,,,,,,,FF,,,,,,,,0.8016,,,,,,,,,,,,,,,,,,,,,,61030f79739dc11db7d01eeb,61036fa9810ea010637744c4,2021-07-29_20h21.58.992,Simcolourproject_2stim_asymm_v5,2020.2.10,Win32,60,61025ae37ef11b136ea224fe,,,,,,,,,3074,57.6000123,33.59999406,1,0,0,response1disk,,6,-3.999988616,1.599993587,1,0,0,rectangle,62.40001237,-28.80000687,1,0,0,-3.999988616,2.399993598,1,0,0,1,33,193,54,1,,response3disk_3,TRUE,5,5,"[188,285,76,72,220,166,89,194,63,138,211,169,253,133,2,308,28,14,203,77]",2.049,rectangle
,,,,,,,,,,,,,FF,,,,,,,,1.5987,,,,,,,,,,,,,,,,,,,,,,61030f79739dc11db7d01eeb,61036fa9810ea010637744c4,2021-07-29_20h21.58.992,Simcolourproject_2stim_asymm_v5,2020.2.10,Win32,60,61025ae37ef11b136ea224fe,,,,,,,,,3546,-21.59998888,-73.60000753,1,0,0,response5disk,,3,9.600060415,10.39999372,1,0,0,rectangle,9.600060415,10.39999372,1,0,0,9.600060415,10.39999372,1,0,0,1,34,194,10,1,,,,,,,,
,,,,,,,,,,,,,FF,,,,,,,,0.9829,,,,,,,,,,,,,,,,,,,,,,61030f79739dc11db7d01eeb,61036fa9810ea010637744c4,2021-07-29_20h21.58.992,Simcolourproject_2stim_asymm_v5,2020.2.10,Win32,60,61025ae37ef11b136ea224fe,,,,,,,,,2988,-24.79998893,-73.60000753,1,0,0,response5disk,,3,6.400011539,-3.200006485,1,0,0,rectangle,6.400011539,-3.200006485,1,0,0,6.400011539,-3.200006485,1,0,0,1,35,195,56,1,,,,,,,,
,,,,,,,,,,,,,FF,,,,,,,,0.833,,,,,,,,,,,,,,,,,,,,,,61030f79739dc11db7d01eeb,61036fa9810ea010637744c4,2021-07-29_20h21.58.992,Simcolourproject_2stim_asymm_v5,2020.2.10,Win32,60,61025ae37ef11b136ea224fe,,,,,,,,,1499,73.60001254,-25.60000682,1,0,0,response3disk,,5,8.000011563,1.599993587,1,0,0,rectangle,8.000011563,1.599993587,1,0,0,8.000011563,1.599993587,1,0,0,1,36,196,108,1,,,,,,,,
,,,,,,,,,,,,,FF,,,,,,,,1.132,,,,,,,,,,,,,,,,,,,,,,61030f79739dc11db7d01eeb,61036fa9810ea010637744c4,2021-07-29_20h21.58.992,Simcolourproject_2stim_asymm_v5,2020.2.10,Win32,60,61025ae37ef11b136ea224fe,,,,,,,,,3666,-32.79998904,-36.00000697,1,0,0,response5disk,,3,-15.99998879,-3.200006485,1,0,0,rectangle,-15.99998879,-3.200006485,1,0,0,-15.99998879,-3.200006485,1,0,0,1,37,197,24,1,,,,,,,,
,,,,,,,,,,,,,FF,,,,,,,,0.8495,,,,,,,,,,,,,,,,,,,,,,61030f79739dc11db7d01eeb,61036fa9810ea010637744c4,2021-07-29_20h21.58.992,Simcolourproject_2stim_asymm_v5,2020.2.10,Win32,60,61025ae37ef11b136ea224fe,,,,,,,,,858,41.60006089,30.39999402,1,0,0,response1disk,,6,-5.599988639,6.399993658,1,0,0,rectangle,-5.599988639,6.399993658,1,0,0,-5.599988639,6.399993658,1,0,0,1,38,198,133,1,,,,,,,,
,,,,,,,,,,,,,FF,,,,,,,,0.7331,,,,,,,,,,,,,,,,,,,,,,61030f79739dc11db7d01eeb,61036fa9810ea010637744c4,2021-07-29_20h21.58.992,Simcolourproject_2stim_asymm_v5,2020.2.10,Win32,60,61025ae37ef11b136ea224fe,,,,,,,,,1400,51.20001221,38.39999413,1,0,0,response1disk,,6,9.600060415,16.79999381,1,0,0,rectangle,9.600060415,16.79999381,1,0,0,9.600060415,16.79999381,1,0,0,1,39,199,102,1,,,,,,,,
,,,,,,,,,,,,,FF,,,,,,,,0.6831,,,,,,,,,,,,,,,,,,,,,,61030f79739dc11db7d01eeb,61036fa9810ea010637744c4,2021-07-29_20h21.58.992,Simcolourproject_2stim_asymm_v5,2020.2.10,Win32,60,61025ae37ef11b136ea224fe,,,,,,,,,1728,64.80001241,39.99999416,1,0,0,response1disk,,6,-4.799988627,-6.400006533,1,0,0,rectangle,-4.799988627,-6.400006533,1,0,0,-4.799988627,-6.400006533,1,0,0,1,40,200,44,1,,,,,,,,
,,,,,,,,,,,,,FF,,,,,,,,0.7674,,,,,,,,,,,,,,,,,,,,,,61030f79739dc11db7d01eeb,61036fa9810ea010637744c4,2021-07-29_20h21.58.992,Simcolourproject_2stim_asymm_v5,2020.2.10,Win32,60,61025ae37ef11b136ea224fe,,,,,,,,,1875,65.60001242,36.79999411,1,0,0,response1disk,,6,1.14441E-05,-6.4373E-06,1,0,0,rectangle,1.14441E-05,-6.4373E-06,1,0,0,1.14441E-05,-6.4373E-06,1,0,0,1,41,201,121,1,,,,,,,,
,,,,,,,,,,,,,FF,,,,,,,,0.6995,,,,,,,,,,,,,,,,,,,,,,61030f79739dc11db7d01eeb,61036fa9810ea010637744c4,2021-07-29_20h21.58.992,Simcolourproject_2stim_asymm_v5,2020.2.10,Win32,60,61025ae37ef11b136ea224fe,,,,,,,,,800,50.4000122,32.79999405,1,0,0,response1disk,,6,8.000011563,6.399993658,1,0,0,rectangle,-79.99998975,37.59999412,1,0,0,3.200011492,-7.200006545,1,0,0,1,42,202,113,1,,response7disk_3,TRUE,1,1,"[188,285,76,72,220,166,89,194,63,138,211,169,253,133,2,308,28,14,203,77]",1.815,rectangle
,,,,,,,,,,,,,FF,,,,,,,,1.9007,,,,,,,,,,,,,,,,,,,,,,61030f79739dc11db7d01eeb,61036fa9810ea010637744c4,2021-07-29_20h21.58.992,Simcolourproject_2stim_asymm_v5,2020.2.10,Win32,60,61025ae37ef11b136ea224fe,,,,,,,,,4237,-79.19998974,-40.80000705,1,0,0,response5disk,,2,-23.1999889,-13.60000664,1,0,0,rectangle,-23.1999889,-13.60000664,1,0,0,-23.1999889,-13.60000664,1,0,0,1,43,203,62,1,,,,,,,,
,,,,,,,,,,,,,FF,,,,,,,,0.8333,,,,,,,,,,,,,,,,,,,,,,61030f79739dc11db7d01eeb,61036fa9810ea010637744c4,2021-07-29_20h21.58.992,Simcolourproject_2stim_asymm_v5,2020.2.10,Win32,60,61025ae37ef11b136ea224fe,,,,,,,,,3123,23.20001179,-55.20000726,1,0,0,response3disk,,4,-3.199988604,8.799993694,1,0,0,rectangle,-3.199988604,8.799993694,1,0,0,-3.199988604,8.799993694,1,0,0,1,44,204,146,1,,,,,,,,
,,,,,,,,,,,,,FF,,,,,,,,0.9,,,,,,,,,,,,,,,,,,,,,,61030f79739dc11db7d01eeb,61036fa9810ea010637744c4,2021-07-29_20h21.58.992,Simcolourproject_2stim_asymm_v5,2020.2.10,Win32,60,61025ae37ef11b136ea224fe,,,,,,,,,4017,60.80001235,36.79999411,1,0,0,response1disk,,6,12.00001162,15.9999938,1,0,0,rectangle,12.00001162,15.9999938,1,0,0,12.00001162,15.9999938,1,0,0,1,45,205,8,1,,,,,,,,
,,,,,,,,,,,,,FF,,,,,,,,0.7833,,,,,,,,,,,,,,,,,,,,,,61030f79739dc11db7d01eeb,61036fa9810ea010637744c4,2021-07-29_20h21.58.992,Simcolourproject_2stim_asymm_v5,2020.2.10,Win32,60,61025ae37ef11b136ea224fe,,,,,,,,,1568,55.20001227,40.79999417,1,0,0,response1disk,,6,-0.799988568,2.399993598,1,0,0,rectangle,-0.799988568,2.399993598,1,0,0,-0.799988568,2.399993598,1,0,0,1,46,206,2,1,,,,,,,,
,,,,,,,,,,,,,FF,,,,,,,,1.0829,,,,,,,,,,,,,,,,,,,,,,61030f79739dc11db7d01eeb,61036fa9810ea010637744c4,2021-07-29_20h21.58.992,Simcolourproject_2stim_asymm_v5,2020.2.10,Win32,60,61025ae37ef11b136ea224fe,,,,,,,,,4282,-61.59998947,47.99999428,1,0,0,response7disk,,1,9.600060415,-5.600006521,1,0,0,rectangle,9.600060415,-5.600006521,1,0,0,9.600060415,-5.600006521,1,0,0,1,47,207,51,1,,,,,,,,
,,,,,,,,,,,,,FF,,,,,,,,1.3826,,,,,,,,,,,,,,,,,,,,,,61030f79739dc11db7d01eeb,61036fa9810ea010637744c4,2021-07-29_20h21.58.992,Simcolourproject_2stim_asymm_v5,2020.2.10,Win32,60,61025ae37ef11b136ea224fe,,,,,,,,,2241,-27.19998896,-66.40000743,1,0,0,response5disk,,3,-3.999988616,-1.600006461,1,0,0,rectangle,-3.999988616,-1.600006461,1,0,0,-3.999988616,-1.600006461,1,0,0,1,48,208,144,1,,,,,,,,
,,,,,,,,,,,,,FF,,,,,,,,0.8663,,,,,,,,,,,,,,,,,,,,,,61030f79739dc11db7d01eeb,61036fa9810ea010637744c4,2021-07-29_20h21.58.992,Simcolourproject_2stim_asymm_v5,2020.2.10,Win32,60,61025ae37ef11b136ea224fe,,,,,,,,,627,44.80001211,24.79999393,1,0,0,response1disk,,6,4.800011516,-0.800006449,1,0,0,rectangle,4.800011516,-0.800006449,1,0,0,4.800011516,-0.800006449,1,0,0,1,49,209,34,1,,,,,,,,
,,,,,,,,,,,,,FF,,,,,,,,0.8327,,,,,,,,,,,,,,,,,,,,,,61030f79739dc11db7d01eeb,61036fa9810ea010637744c4,2021-07-29_20h21.58.992,Simcolourproject_2stim_asymm_v5,2020.2.10,Win32,60,61025ae37ef11b136ea224fe,,,,,,,,,1645,51.20001221,42.39999419,1,0,0,response1disk,,6,1.600060296,11.19999373,1,0,0,rectangle,32.80001193,58.39999443,1,0,0,5.600060356,5.599993646,1,0,0,1,50,210,58,1,,response1disk_3,TRUE,7,7,"[188,285,76,72,220,166,89,194,63,138,211,169,253,133,2,308,28,14,203,77]",2.0649,rectangle
,,,,,,,,,,,,,FF,,,,,,,,0.9018,,,,,,,,,,,,,,,,,,,,,,61030f79739dc11db7d01eeb,61036fa9810ea010637744c4,2021-07-29_20h21.58.992,Simcolourproject_2stim_asymm_v5,2020.2.10,Win32,60,61025ae37ef11b136ea224fe,,,,,,,,,1544,76.80001259,-48.80000716,1,0,0,response3disk,,5,8.000011563,-3.200006485,1,0,0,rectangle,8.000011563,-3.200006485,1,0,0,8.000011563,-3.200006485,1,0,0,1,51,211,134,1,,,,,,,,
,,,,,,,,,,,,,FF,,,,,,,,0.866,,,,,,,,,,,,,,,,,,,,,,61030f79739dc11db7d01eeb,61036fa9810ea010637744c4,2021-07-29_20h21.58.992,Simcolourproject_2stim_asymm_v5,2020.2.10,Win32,60,61025ae37ef11b136ea224fe,,,,,,,,,4213,68.00001246,36.79999411,1,0,0,response1disk,,6,-7.999988675,5.599993646,1,0,0,rectangle,-7.999988675,5.599993646,1,0,0,-7.999988675,5.599993646,1,0,0,1,52,212,40,1,,,,,,,,
,,,,,,,,,,,,,FF,,,,,,,,0.866,,,,,,,,,,,,,,,,,,,,,,61030f79739dc11db7d01eeb,61036fa9810ea010637744c4,2021-07-29_20h21.58.992,Simcolourproject_2stim_asymm_v5,2020.2.10,Win32,60,61025ae37ef11b136ea224fe,,,,,,,,,1523,-41.59998918,-60.00000733,1,0,0,response5disk,,3,-19.99998885,7.999993682,1,0,0,rectangle,-19.99998885,7.999993682,1,0,0,-19.99998885,7.999993682,1,0,0,1,53,213,17,1,,,,,,,,
,,,,,,,,,,,,,FF,,,,,,,,0.7831,,,,,,,,,,,,,,,,,,,,,,61030f79739dc11db7d01eeb,61036fa9810ea010637744c4,2021-07-29_20h21.58.992,Simcolourproject_2stim_asymm_v5,2020.2.10,Win32,60,61025ae37ef11b136ea224fe,,,,,,,,,1942,41.60006089,-57.6000073,1,0,0,response3disk,,4,10.4000116,-1.600006461,1,0,0,rectangle,10.4000116,-1.600006461,1,0,0,10.4000116,-1.600006461,1,0,0,1,54,214,22,1,,,,,,,,
,,,,,,,,,,,,,FF,,,,,,,,0.8178,,,,,,,,,,,,,,,,,,,,,,61030f79739dc11db7d01eeb,61036fa9810ea010637744c4,2021-07-29_20h21.58.992,Simcolourproject_2stim_asymm_v5,2020.2.10,Win32,60,61025ae37ef11b136ea224fe,,,,,,,,,2596,64.0000124,-30.40000689,1,0,0,response3disk,,5,20.80001175,-6.4373E-06,1,0,0,rectangle,20.80001175,-6.4373E-06,1,0,0,20.80001175,-6.4373E-06,1,0,0,1,55,215,27,1,,,,,,,,
,,,,,,,,,,,,,FF,,,,,,,,0.7332,,,,,,,,,,,,,,,,,,,,,,61030f79739dc11db7d01eeb,61036fa9810ea010637744c4,2021-07-29_20h21.58.992,Simcolourproject_2stim_asymm_v5,2020.2.10,Win32,60,61025ae37ef11b136ea224fe,,,,,,,,,653,-31.99998903,-56.80000728,1,0,0,response5disk,,3,-11.99998873,-7.200006545,1,0,0,rectangle,-11.99998873,-7.200006545,1,0,0,-11.99998873,-7.200006545,1,0,0,1,56,216,43,1,,,,,,,,
,,,,,,,,,,,,,FF,,,,,,,,0.7501,,,,,,,,,,,,,,,,,,,,,,61030f79739dc11db7d01eeb,61036fa9810ea010637744c4,2021-07-29_20h21.58.992,Simcolourproject_2stim_asymm_v5,2020.2.10,Win32,60,61025ae37ef11b136ea224fe,,,,,,,,,767,36.80001199,79.19997033,1,0,0,response1disk,,7,8.000011563,15.9999938,1,0,0,rectangle,8.000011563,15.9999938,1,0,0,8.000011563,15.9999938,1,0,0,1,57,217,85,1,,,,,,,,
,,,,,,,,,,,,,FF,,,,,,,,0.8993,,,,,,,,,,,,,,,,,,,,,,61030f79739dc11db7d01eeb,61036fa9810ea010637744c4,2021-07-29_20h21.58.992,Simcolourproject_2stim_asymm_v5,2020.2.10,Win32,60,61025ae37ef11b136ea224fe,,,,,,,,,1370,-69.59998959,39.19996973,1,0,0,response7disk,,1,-3.199988604,-5.600006521,1,0,0,rectangle,-3.199988604,-5.600006521,1,0,0,-3.199988604,-5.600006521,1,0,0,1,58,218,131,1,,,,,,,,
,,,,,,,,,,,,,FF,,,,,,,,0.8488,,,,,,,,,,,,,,,,,,,,,,61030f79739dc11db7d01eeb,61036fa9810ea010637744c4,2021-07-29_20h21.58.992,Simcolourproject_2stim_asymm_v5,2020.2.10,Win32,60,61025ae37ef11b136ea224fe,,,,,,,,,1359,41.60006089,67.19997015,1,0,0,response1disk,,7,8.000011563,3.19999361,1,0,0,rectangle,24.80001181,64.79999453,1,0,0,3.200011492,7.19999367,1,0,0,1,59,219,18,1,,response1disk_3,TRUE,7,7,"[188,285,76,72,220,166,89,194,63,138,211,169,253,133,2,308,28,14,203,77]",1.8654,rectangle
,,,,,,,,,,,,,FF,,,,,,,,0.8994,,,,,,,,,,,,,,,,,,,,,,61030f79739dc11db7d01eeb,61036fa9810ea010637744c4,2021-07-29_20h21.58.992,Simcolourproject_2stim_asymm_v5,2020.2.10,Win32,60,61025ae37ef11b136ea224fe,,,,,,,,,327,47.20001215,-28.80000687,1,0,0,response3disk,,5,5.600060356,1.599993587,1,0,0,rectangle,5.600060356,1.599993587,1,0,0,5.600060356,1.599993587,1,0,0,1,60,220,12,1,,,,,,,,
,,,,,,,,,,,,,FF,,,,,,,,0.7491,,,,,,,,,,,,,,,,,,,,,,61030f79739dc11db7d01eeb,61036fa9810ea010637744c4,2021-07-29_20h21.58.992,Simcolourproject_2stim_asymm_v5,2020.2.10,Win32,60,61025ae37ef11b136ea224fe,,,,,,,,,1790,60.80001235,-36.00000697,1,0,0,response3disk,,5,15.20001167,-8.000006557,1,0,0,rectangle,15.20001167,-8.000006557,1,0,0,15.20001167,-8.000006557,1,0,0,1,61,221,122,1,,,,,,,,
,,,,,,,,,,,,,FF,,,,,,,,0.7328,,,,,,,,,,,,,,,,,,,,,,61030f79739dc11db7d01eeb,61036fa9810ea010637744c4,2021-07-29_20h21.58.992,Simcolourproject_2stim_asymm_v5,2020.2.10,Win32,60,61025ae37ef11b136ea224fe,,,,,,,,,3801,79.20001262,51.99999434,1,0,0,response1disk,,6,-2.399939764,-0.800006449,1,0,0,rectangle,-2.399939764,-0.800006449,1,0,0,-2.399939764,-0.800006449,1,0,0,1,62,222,23,1,,,,,,,,
,,,,,,,,,,,,,FF,,,,,,,,0.8175,,,,,,,,,,,,,,,,,,,,,,61030f79739dc11db7d01eeb,61036fa9810ea010637744c4,2021-07-29_20h21.58.992,Simcolourproject_2stim_asymm_v5,2020.2.10,Win32,60,61025ae37ef11b136ea224fe,,,,,,,,,4297,64.80001241,33.59999406,1,0,0,response1disk,,6,13.60006047,0.799993575,1,0,0,rectangle,13.60006047,0.799993575,1,0,0,13.60006047,0.799993575,1,0,0,1,63,223,72,1,,,,,,,,
,,,,,,,,,,,,,FF,,,,,,,,0.7493,,,,,,,,,,,,,,,,,,,,,,61030f79739dc11db7d01eeb,61036fa9810ea010637744c4,2021-07-29_20h21.58.992,Simcolourproject_2stim_asymm_v5,2020.2.10,Win32,60,61025ae37ef11b136ea224fe,,,,,,,,,795,85.60001272,45.59999424,1,0,0,response1disk,,6,22.40001178,-6.4373E-06,1,0,0,rectangle,22.40001178,-6.4373E-06,1,0,0,22.40001178,-6.4373E-06,1,0,0,1,64,224,76,1,,,,,,,,
,,,,,,,,,,,,,FF,,,,,,,,0.6835,,,,,,,,,,,,,,,,,,,,,,61030f79739dc11db7d01eeb,61036fa9810ea010637744c4,2021-07-29_20h21.58.992,Simcolourproject_2stim_asymm_v5,2020.2.10,Win32,60,61025ae37ef11b136ea224fe,,,,,,,,,2870,72.00001252,32.79999405,1,0,0,response1disk,,6,22.40001178,10.39999372,1,0,0,rectangle,22.40001178,10.39999372,1,0,0,22.40001178,10.39999372,1,0,0,1,65,225,114,1,,,,,,,,
,,,,,,,,,,,,,FF,,,,,,,,0.9165,,,,,,,,,,,,,,,,,,,,,,61030f79739dc11db7d01eeb,61036fa9810ea010637744c4,2021-07-29_20h21.58.992,Simcolourproject_2stim_asymm_v5,2020.2.10,Win32,60,61025ae37ef11b136ea224fe,,,,,,,,,3054,-68.79998958,-35.20000696,1,0,0,response5disk,,2,-5.599988639,3.999993622,1,0,0,rectangle,-5.599988639,3.999993622,1,0,0,-5.599988639,3.999993622,1,0,0,1,66,226,64,1,,,,,,,,
,,,,,,,,,,,,,FF,,,,,,,,0.7122,,,,,,,,,,,,,,,,,,,,,,61030f79739dc11db7d01eeb,61036fa9810ea010637744c4,2021-07-29_20h21.58.992,Simcolourproject_2stim_asymm_v5,2020.2.10,Win32,60,61025ae37ef11b136ea224fe,,,,,,,,,4233,-22.39994006,-63.20000738,1,0,0,response5disk,,3,2.40001148,2.399993598,1,0,0,rectangle,2.40001148,2.399993598,1,0,0,2.40001148,2.399993598,1,0,0,1,67,227,130,1,,,,,,,,
,,,,,,,,,,,,,FF,,,,,,,,0.9827,,,,,,,,,,,,,,,,,,,,,,61030f79739dc11db7d01eeb,61036fa9810ea010637744c4,2021-07-29_20h21.58.992,Simcolourproject_2stim_asymm_v5,2020.2.10,Win32,60,61025ae37ef11b136ea224fe,,,,,,,,,3683,-29.599989,-68.00000745,1,0,0,response5disk,,3,-7.199988663,-11.2000066,1,0,0,rectangle,-7.199988663,-11.2000066,1,0,0,-7.199988663,-11.2000066,1,0,0,1,68,228,74,1,,,,,,,,
,,,,,,,,,,,,,FF,,,,,,,,0.8668,,,,,,,,,,,,,,,,,,,,,,61030f79739dc11db7d01eeb,61036fa9810ea010637744c4,2021-07-29_20h21.58.992,Simcolourproject_2stim_asymm_v5,2020.2.10,Win32,60,61025ae37ef11b136ea224fe,,,,,,,,,3480,17.60006053,-50.40000719,1,0,0,response3disk,,4,7.200011551,5.599993646,1,0,0,rectangle,7.200011551,5.599993646,1,0,0,7.200011551,5.599993646,1,0,0,1,69,229,37,1,,,,,,,,
,,,,,,,,,,,,,FF,,,,,,,,0.7829,,,,,,,,,,,,,,,,,,,,,,61030f79739dc11db7d01eeb,61036fa9810ea010637744c4,2021-07-29_20h21.58.992,Simcolourproject_2stim_asymm_v5,2020.2.10,Win32,60,61025ae37ef11b136ea224fe,,,,,,,,,1610,-64.79998952,50.39999431,1,0,0,response7disk,,1,-18.39994,5.599993646,1,0,0,rectangle,-18.39994,5.599993646,1,0,0,-18.39994,5.599993646,1,0,0,1,70,230,16,1,,,,,,,,
,,,,,,,,,,,,,FF,,,,,,,,0.7161,,,,,,,,,,,,,,,,,,,,,,61030f79739dc11db7d01eeb,61036fa9810ea010637744c4,2021-07-29_20h21.58.992,Simcolourproject_2stim_asymm_v5,2020.2.10,Win32,60,61025ae37ef11b136ea224fe,,,,,,,,,1509,44.80001211,35.9999941,1,0,0,response1disk,,6,-2.399939764,4.799993634,1,0,0,rectangle,-2.399939764,4.799993634,1,0,0,-2.399939764,4.799993634,1,0,0,1,71,231,48,1,,,,,,,,
,,,,,,,,,,,,,FF,,,,,,,,0.75,,,,,,,,,,,,,,,,,,,,,,61030f79739dc11db7d01eeb,61036fa9810ea010637744c4,2021-07-29_20h21.58.992,Simcolourproject_2stim_asymm_v5,2020.2.10,Win32,60,61025ae37ef11b136ea224fe,,,,,,,,,1337,68.00001246,39.99999416,1,0,0,response1disk,,6,-5.599988639,1.599993587,1,0,0,rectangle,-5.599988639,1.599993587,1,0,0,-5.599988639,1.599993587,1,0,0,1,72,232,127,1,,,,,,,,
,,,,,,,,,,,,,FF,,,,,,,,0.9995,,,,,,,,,,,,,,,,,,,,,,61030f79739dc11db7d01eeb,61036fa9810ea010637744c4,2021-07-29_20h21.58.992,Simcolourproject_2stim_asymm_v5,2020.2.10,Win32,60,61025ae37ef11b136ea224fe,,,,,,,,,3146,-43.1999892,77.59999472,1,0,0,response7disk,,0,8.000011563,13.59999377,1,0,0,rectangle,8.000011563,13.59999377,1,0,0,8.000011563,13.59999377,1,0,0,1,73,233,119,1,,,,,,,,
,,,,,,,,,,,,,FF,,,,,,,,1.5155,,,,,,,,,,,,,,,,,,,,,,61030f79739dc11db7d01eeb,61036fa9810ea010637744c4,2021-07-29_20h21.58.992,Simcolourproject_2stim_asymm_v5,2020.2.10,Win32,60,61025ae37ef11b136ea224fe,,,,,,,,,1365,34.40001196,-65.60000741,1,0,0,response3disk,,4,3.200011492,-10.40000659,1,0,0,rectangle,3.200011492,-10.40000659,1,0,0,3.200011492,-10.40000659,1,0,0,1,74,234,71,1,,,,,,,,
,,,,,,,,,,,,,FF,,,,,,,,0.9505,,,,,,,,,,,,,,,,,,,,,,61030f79739dc11db7d01eeb,61036fa9810ea010637744c4,2021-07-29_20h21.58.992,Simcolourproject_2stim_asymm_v5,2020.2.10,Win32,60,61025ae37ef11b136ea224fe,,,,,,,,,980,-41.59998918,-108.8000081,1,0,0,response5disk,,3,-13.59998876,-6.400006533,1,0,0,rectangle,-13.59998876,-6.400006533,1,0,0,-13.59998876,-6.400006533,1,0,0,1,75,235,100,1,,,,,,,,
,,,,,,,,,,,,,FF,,,,,,,,0.7499,,,,,,,,,,,,,,,,,,,,,,61030f79739dc11db7d01eeb,61036fa9810ea010637744c4,2021-07-29_20h21.58.992,Simcolourproject_2stim_asymm_v5,2020.2.10,Win32,60,61025ae37ef11b136ea224fe,,,,,,,,,3886,40.00001204,26.39999396,1,0,0,response1disk,,6,13.60006047,7.19999367,1,0,0,rectangle,13.60006047,7.19999367,1,0,0,13.60006047,7.19999367,1,0,0,1,76,236,39,1,,,,,,,,
,,,,,,,,,,,,,FF,,,,,,,,0.7341,,,,,,,,,,,,,,,,,,,,,,61030f79739dc11db7d01eeb,61036fa9810ea010637744c4,2021-07-29_20h21.58.992,Simcolourproject_2stim_asymm_v5,2020.2.10,Win32,60,61025ae37ef11b136ea224fe,,,,,,,,,2132,52.80001223,35.19996967,1,0,0,response1disk,,6,21.60006059,14.39999378,1,0,0,rectangle,21.60006059,14.39999378,1,0,0,21.60006059,14.39999378,1,0,0,1,77,237,77,1,,,,,,,,
,,,,,,,,,,,,,FF,,,,,,,,1.4659,,,,,,,,,,,,,,,,,,,,,,61030f79739dc11db7d01eeb,61036fa9810ea010637744c4,2021-07-29_20h21.58.992,Simcolourproject_2stim_asymm_v5,2020.2.10,Win32,60,61025ae37ef11b136ea224fe,,,,,,,,,2534,42.40001208,-63.20000738,1,0,0,response3disk,,4,8.000011563,-13.60000664,1,0,0,rectangle,8.000011563,-13.60000664,1,0,0,8.000011563,-13.60000664,1,0,0,1,78,238,0,1,,,,,,,,
,,,,,,,,,,,,,FF,,,,,,,,0.753,,,,,,,,,,,,,,,,,,,,,,61030f79739dc11db7d01eeb,61036fa9810ea010637744c4,2021-07-29_20h21.58.992,Simcolourproject_2stim_asymm_v5,2020.2.10,Win32,60,61025ae37ef11b136ea224fe,,,,,,,,,226,61.60001236,36.79999411,1,0,0,response1disk,,6,12.00001162,10.39999372,1,0,0,rectangle,12.00001162,10.39999372,1,0,0,12.00001162,10.39999372,1,0,0,1,79,239,106,1,,,,,,,,
,,,,,,,,,,,,,FF,,,,,,,,1.2981,,,,,,,,,,,,,,,,,,,,,,61030f79739dc11db7d01eeb,61036fa9810ea010637744c4,2021-07-29_20h21.58.992,Simcolourproject_2stim_asymm_v5,2020.2.10,Win32,60,61025ae37ef11b136ea224fe,,,,,,,,,3702,-68.79998958,-28.00000685,1,0,0,response5disk,,2,-23.99998891,-9.60000658,1,0,0,rectangle,-23.99998891,-9.60000658,1,0,0,-23.99998891,-9.60000658,1,0,0,1,80,240,99,1,,,,,,,,
,,,,,,,,,,,,,FF,,,,,,,,1.0495,,,,,,,,,,,,,,,,,,,,,,61030f79739dc11db7d01eeb,61036fa9810ea010637744c4,2021-07-29_20h21.58.992,Simcolourproject_2stim_asymm_v5,2020.2.10,Win32,60,61025ae37ef11b136ea224fe,,,,,,,,,1011,44.0000121,82.39999479,1,0,0,response1disk,,7,0.800011456,-0.800006449,1,0,0,rectangle,0.800011456,-0.800006449,1,0,0,0.800011456,-0.800006449,1,0,0,1,81,241,97,1,,,,,,,,
,,,,,,,,,,,,,FF,,,,,,,,1.1827,,,,,,,,,,,,,,,,,,,,,,61030f79739dc11db7d01eeb,61036fa9810ea010637744c4,2021-07-29_20h21.58.992,Simcolourproject_2stim_asymm_v5,2020.2.10,Win32,60,61025ae37ef11b136ea224fe,,,,,,,,,376,-63.99998951,-32.00000691,1,0,0,response5disk,,2,-21.59998888,-9.60000658,1,0,0,rectangle,-21.59998888,-9.60000658,1,0,0,-21.59998888,-9.60000658,1,0,0,1,82,242,141,1,,,,,,,,
