key_resp.keys,key_resp.rt,key_resp_14.keys,key_resp_14.rt,key_resp_15.keys,key_resp_15.rt,key_resp_17.keys,key_resp_17.rt,key_resp_9.keys,key_resp_9.rt,key_resp_10.keys,key_resp_10.rt,practice_comparison,Ecc,mouse_5.x,mouse_5.y,mouse_5.leftButton,mouse_5.midButton,mouse_5.rightButton,mouse_5.clicked_name,pracsimilarity,response_time,mouse_10.x,mouse_10.y,mouse_10.leftButton,mouse_10.midButton,mouse_10.rightButton,mouse_10.clicked_name,mouse_7.x,mouse_7.y,mouse_7.leftButton,mouse_7.midButton,mouse_7.rightButton,mouse_6.x,mouse_6.y,mouse_6.leftButton,mouse_6.midButton,mouse_6.rightButton,duringprac.thisRepN,duringprac.thisTrialN,duringprac.thisN,duringprac.thisIndex,duringprac.ran,participant,session,date,expName,psychopyVersion,OS,frameRate,study_id,mouse_7.clicked_name,catchpracsimilarity,catch_response_time,catchnumberprac,catchtrialorderprac,mouse_6.clicked_name,key_resp_22.keys,key_resp_22.rt,realcomparison,mouse.x,mouse.y,mouse.leftButton,mouse.midButton,mouse.rightButton,mouse.clicked_name,Colour2,similarity,mouse_2.x,mouse_2.y,mouse_2.leftButton,mouse_2.midButton,mouse_2.rightButton,mouse_2.clicked_name,mouse_3.x,mouse_3.y,mouse_3.leftButton,mouse_3.midButton,mouse_3.rightButton,mouse_11.x,mouse_11.y,mouse_11.leftButton,mouse_11.midButton,mouse_11.rightButton,trials_2.thisRepN,trials_2.thisTrialN,trials_2.thisN,trials_2.thisIndex,trials_2.ran,Colour1,mouse_3.clicked_name,catchornah,catchsimilarity,catchnumber,catchtrialorder,catchRT,mouse_11.clicked_name
space,1.9172,space,4.23,space,21.257,space,4.9214,space,1.8849,space,4.3789,88,FF,62,130,1,0,0,response1disk_5,7,13.1825,-15,0,1,0,0,rectangle_8,-15,0,1,0,0,-15,0,1,0,0,0,0,0,3,1,61036745d2053b82e13f7eed,61036f60061b4b80f4c7fb38,2021-07-29_22h18.31.964,Simcolourproject_2stim_asymm_v5,2020.2.10,Win32,60,61025ae37ef11b136ea224fe,,,,,,,,,,,,,,,,,,,,,,,,,,,,,,,,,,,,,,,,,,,,,,
,,,,,,,,,,,,40,PF,41,113,1,0,0,response1disk_5,7,2.953,1,4,1,0,0,rectangle_8,-57,84,1,0,0,-3,-12,1,0,0,0,1,1,6,1,61036745d2053b82e13f7eed,61036f60061b4b80f4c7fb38,2021-07-29_22h18.31.964,Simcolourproject_2stim_asymm_v5,2020.2.10,Win32,60,61025ae37ef11b136ea224fe,response7disk_7,0,2.6531,2,"[2,5]",rectangle_4,,,,,,,,,,,,,,,,,,,,,,,,,,,,,,,,,,,,,,,,
,,,,,,,,,,,,131,FF,69,141,1,0,0,response1disk_5,7,1.4837,9,-1,1,0,0,rectangle_8,9,-1,1,0,0,9,-1,1,0,0,0,2,2,5,1,61036745d2053b82e13f7eed,61036f60061b4b80f4c7fb38,2021-07-29_22h18.31.964,Simcolourproject_2stim_asymm_v5,2020.2.10,Win32,60,61025ae37ef11b136ea224fe,,,,,,,,,,,,,,,,,,,,,,,,,,,,,,,,,,,,,,,,,,,,,,
,,,,,,,,,,,,20,PF,-64,-122,1,0,0,response5disk_5,3,2.4701,20,-2,1,0,0,rectangle_8,20,-2,1,0,0,20,-2,1,0,0,0,3,3,2,1,61036745d2053b82e13f7eed,61036f60061b4b80f4c7fb38,2021-07-29_22h18.31.964,Simcolourproject_2stim_asymm_v5,2020.2.10,Win32,60,61025ae37ef11b136ea224fe,,,,,,,,,,,,,,,,,,,,,,,,,,,,,,,,,,,,,,,,,,,,,,
,,,,,,,,,,,,145,PF,76,-133,1,0,0,response3disk_5,4,1.6505,13,-1,1,0,0,rectangle_8,-93,-39,1,0,0,-19,6,1,0,0,0,4,4,4,1,61036745d2053b82e13f7eed,61036f60061b4b80f4c7fb38,2021-07-29_22h18.31.964,Simcolourproject_2stim_asymm_v5,2020.2.10,Win32,60,61025ae37ef11b136ea224fe,response5disk_7,2,3.4531,2,"[2,5]",rectangle_4,,,,,,,,,,,,,,,,,,,,,,,,,,,,,,,,,,,,,,,,
,,,,,,,,,,,,136,PF,-57,-131,1,0,0,response5disk_5,3,1.7026,0,0,1,0,0,rectangle_8,0,0,1,0,0,0,0,1,0,0,0,5,5,1,1,61036745d2053b82e13f7eed,61036f60061b4b80f4c7fb38,2021-07-29_22h18.31.964,Simcolourproject_2stim_asymm_v5,2020.2.10,Win32,60,61025ae37ef11b136ea224fe,,,,,,,,,,,,,,,,,,,,,,,,,,,,,,,,,,,,,,,,,,,,,,
,,,,,,,,,,,,130,FF,57,-106,1,0,0,response3disk_5,4,1.2172,14,-2,1,0,0,rectangle_8,14,-2,1,0,0,14,-2,1,0,0,0,6,6,0,1,61036745d2053b82e13f7eed,61036f60061b4b80f4c7fb38,2021-07-29_22h18.31.964,Simcolourproject_2stim_asymm_v5,2020.2.10,Win32,60,61025ae37ef11b136ea224fe,,,,,,,,,,,,,,,,,,,,,,,,,,,,,,,,,,,,,,,,,,,,,,
,,,,,,,,,,,,,FF,,,,,,,,2.6178,,,,,,,,,,,,,,,,,,,,,,61036745d2053b82e13f7eed,61036f60061b4b80f4c7fb38,2021-07-29_22h18.31.964,Simcolourproject_2stim_asymm_v5,2020.2.10,Win32,60,61025ae37ef11b136ea224fe,,,,,,,space,5.2144,341,68,-124,1,0,0,response3disk,,4,-6,3,1,0,0,rectangle,-6,3,1,0,0,-6,3,1,0,0,0,0,0,74,1,,,,,,,,
,,,,,,,,,,,,,FF,,,,,,,,1.0682,,,,,,,,,,,,,,,,,,,,,,61036745d2053b82e13f7eed,61036f60061b4b80f4c7fb38,2021-07-29_22h18.31.964,Simcolourproject_2stim_asymm_v5,2020.2.10,Win32,60,61025ae37ef11b136ea224fe,,,,,,,,,1359,65,133,1,0,0,response1disk,,7,16,-6,1,0,0,rectangle,16,-6,1,0,0,16,-6,1,0,0,0,1,1,141,1,,,,,,,,
,,,,,,,,,,,,,FF,,,,,,,,1.0678,,,,,,,,,,,,,,,,,,,,,,61036745d2053b82e13f7eed,61036f60061b4b80f4c7fb38,2021-07-29_22h18.31.964,Simcolourproject_2stim_asymm_v5,2020.2.10,Win32,60,61025ae37ef11b136ea224fe,,,,,,,,,133,97,55,1,0,0,response1disk,,6,19,-4,1,0,0,rectangle,19,-4,1,0,0,19,-4,1,0,0,0,2,2,109,1,,,,,,,,
,,,,,,,,,,,,,FF,,,,,,,,2.286,,,,,,,,,,,,,,,,,,,,,,61036745d2053b82e13f7eed,61036f60061b4b80f4c7fb38,2021-07-29_22h18.31.964,Simcolourproject_2stim_asymm_v5,2020.2.10,Win32,60,61025ae37ef11b136ea224fe,,,,,,,,,3507,57,-121,1,0,0,response3disk,,4,14,-8,1,0,0,rectangle,14,-8,1,0,0,14,-8,1,0,0,0,3,3,9,1,,,,,,,,
,,,,,,,,,,,,,FF,,,,,,,,1.5183,,,,,,,,,,,,,,,,,,,,,,61036745d2053b82e13f7eed,61036f60061b4b80f4c7fb38,2021-07-29_22h18.31.964,Simcolourproject_2stim_asymm_v5,2020.2.10,Win32,60,61025ae37ef11b136ea224fe,,,,,,,,,3005,-97,-78,1,0,0,response5disk,,2,-30,4,1,0,0,rectangle,-30,4,1,0,0,-30,4,1,0,0,0,4,4,90,1,,,,,,,,
,,,,,,,,,,,,,FF,,,,,,,,1.602,,,,,,,,,,,,,,,,,,,,,,61036745d2053b82e13f7eed,61036f60061b4b80f4c7fb38,2021-07-29_22h18.31.964,Simcolourproject_2stim_asymm_v5,2020.2.10,Win32,60,61025ae37ef11b136ea224fe,,,,,,,,,257,-154,54,1,0,0,response7disk,,1,6,3,1,0,0,rectangle,6,3,1,0,0,6,3,1,0,0,0,5,5,152,1,,,,,,,,
,,,,,,,,,,,,,FF,,,,,,,,0.834,,,,,,,,,,,,,,,,,,,,,,61036745d2053b82e13f7eed,61036f60061b4b80f4c7fb38,2021-07-29_22h18.31.964,Simcolourproject_2stim_asymm_v5,2020.2.10,Win32,60,61025ae37ef11b136ea224fe,,,,,,,,,1489,141,-79,1,0,0,response3disk,,5,0,-2,1,0,0,rectangle,0,-2,1,0,0,0,-2,1,0,0,0,6,6,97,1,,,,,,,,
,,,,,,,,,,,,,FF,,,,,,,,1.1173,,,,,,,,,,,,,,,,,,,,,,61036745d2053b82e13f7eed,61036f60061b4b80f4c7fb38,2021-07-29_22h18.31.964,Simcolourproject_2stim_asymm_v5,2020.2.10,Win32,60,61025ae37ef11b136ea224fe,,,,,,,,,3222,160,68,1,0,0,response1disk,,6,23,14,1,0,0,rectangle,23,14,1,0,0,23,14,1,0,0,0,7,7,39,1,,,,,,,,
,,,,,,,,,,,,,FF,,,,,,,,1.3351,,,,,,,,,,,,,,,,,,,,,,61036745d2053b82e13f7eed,61036f60061b4b80f4c7fb38,2021-07-29_22h18.31.964,Simcolourproject_2stim_asymm_v5,2020.2.10,Win32,60,61025ae37ef11b136ea224fe,,,,,,,,,2609,-66,-77,1,0,0,response5disk,,3,-15,3,1,0,0,rectangle,-15,3,1,0,0,-15,3,1,0,0,0,8,8,102,1,,,,,,,,
,,,,,,,,,,,,,FF,,,,,,,,1.7013,,,,,,,,,,,,,,,,,,,,,,61036745d2053b82e13f7eed,61036f60061b4b80f4c7fb38,2021-07-29_22h18.31.964,Simcolourproject_2stim_asymm_v5,2020.2.10,Win32,60,61025ae37ef11b136ea224fe,,,,,,,,,662,118,-55,1,0,0,response3disk,,5,-13,-1,1,0,0,rectangle,-13,-1,1,0,0,-13,-1,1,0,0,0,9,9,95,1,,,,,,,,
,,,,,,,,,,,,,FF,,,,,,,,1.1521,,,,,,,,,,,,,,,,,,,,,,61036745d2053b82e13f7eed,61036f60061b4b80f4c7fb38,2021-07-29_22h18.31.964,Simcolourproject_2stim_asymm_v5,2020.2.10,Win32,60,61025ae37ef11b136ea224fe,,,,,,,,,2137,85,46,1,0,0,response1disk,,6,31,3,1,0,0,rectangle,31,3,1,0,0,31,3,1,0,0,0,10,10,147,1,,,,,,,,
,,,,,,,,,,,,,FF,,,,,,,,2.4186,,,,,,,,,,,,,,,,,,,,,,61036745d2053b82e13f7eed,61036f60061b4b80f4c7fb38,2021-07-29_22h18.31.964,Simcolourproject_2stim_asymm_v5,2020.2.10,Win32,60,61025ae37ef11b136ea224fe,,,,,,,,,1119,98,-114,1,0,0,response3disk,,4,30,-9,1,0,0,rectangle,30,-9,1,0,0,30,-9,1,0,0,0,11,11,56,1,,,,,,,,
,,,,,,,,,,,,,FF,,,,,,,,1.8693,,,,,,,,,,,,,,,,,,,,,,61036745d2053b82e13f7eed,61036f60061b4b80f4c7fb38,2021-07-29_22h18.31.964,Simcolourproject_2stim_asymm_v5,2020.2.10,Win32,60,61025ae37ef11b136ea224fe,,,,,,,,,3813,-110,-61,1,0,0,response5disk,,2,-32,-2,1,0,0,rectangle,-32,-2,1,0,0,-32,-2,1,0,0,0,12,12,144,1,,,,,,,,
,,,,,,,,,,,,,FF,,,,,,,,1.118,,,,,,,,,,,,,,,,,,,,,,61036745d2053b82e13f7eed,61036f60061b4b80f4c7fb38,2021-07-29_22h18.31.964,Simcolourproject_2stim_asymm_v5,2020.2.10,Win32,60,61025ae37ef11b136ea224fe,,,,,,,,,1028,105,-61,1,0,0,response3disk,,5,25,-13,1,0,0,rectangle,-61,136,1,0,0,-20,-9,1,0,0,0,13,13,38,1,,response7disk_3,TRUE,0,0,"[100,83,231,14,143,97,201,188,110,14,141,146,172,276,26,123,160,168,293,110]",1.8684,rectangle
,,,,,,,,,,,,,FF,,,,,,,,4.9883,,,,,,,,,,,,,,,,,,,,,,61036745d2053b82e13f7eed,61036f60061b4b80f4c7fb38,2021-07-29_22h18.31.964,Simcolourproject_2stim_asymm_v5,2020.2.10,Win32,60,61025ae37ef11b136ea224fe,,,,,,,,,3536,58,-82,1,0,0,response3disk,,4,17,-9,1,0,0,rectangle,17,-9,1,0,0,17,-9,1,0,0,0,14,14,67,1,,,,,,,,
,,,,,,,,,,,,,FF,,,,,,,,3.7373,,,,,,,,,,,,,,,,,,,,,,61036745d2053b82e13f7eed,61036f60061b4b80f4c7fb38,2021-07-29_22h18.31.964,Simcolourproject_2stim_asymm_v5,2020.2.10,Win32,60,61025ae37ef11b136ea224fe,,,,,,,,,1732,-52,-121,1,0,0,response5disk,,3,28,-7,1,0,0,rectangle,28,-7,1,0,0,28,-7,1,0,0,0,15,15,50,1,,,,,,,,
,,,,,,,,,,,,,FF,,,,,,,,1.1343,,,,,,,,,,,,,,,,,,,,,,61036745d2053b82e13f7eed,61036f60061b4b80f4c7fb38,2021-07-29_22h18.31.964,Simcolourproject_2stim_asymm_v5,2020.2.10,Win32,60,61025ae37ef11b136ea224fe,,,,,,,,,169,-73,38,1,0,0,response7disk,,1,29,3,1,0,0,rectangle,29,3,1,0,0,29,3,1,0,0,0,16,16,54,1,,,,,,,,
,,,,,,,,,,,,,FF,,,,,,,,1.1012,,,,,,,,,,,,,,,,,,,,,,61036745d2053b82e13f7eed,61036f60061b4b80f4c7fb38,2021-07-29_22h18.31.964,Simcolourproject_2stim_asymm_v5,2020.2.10,Win32,60,61025ae37ef11b136ea224fe,,,,,,,,,2998,-76,35,1,0,0,response7disk,,1,-26,5,1,0,0,rectangle,-26,5,1,0,0,-26,5,1,0,0,0,17,17,107,1,,,,,,,,
,,,,,,,,,,,,,FF,,,,,,,,1.4516,,,,,,,,,,,,,,,,,,,,,,61036745d2053b82e13f7eed,61036f60061b4b80f4c7fb38,2021-07-29_22h18.31.964,Simcolourproject_2stim_asymm_v5,2020.2.10,Win32,60,61025ae37ef11b136ea224fe,,,,,,,,,409,113,-69,1,0,0,response3disk,,5,3,6,1,0,0,rectangle,3,6,1,0,0,3,6,1,0,0,0,18,18,116,1,,,,,,,,
,,,,,,,,,,,,,FF,,,,,,,,2.9697,,,,,,,,,,,,,,,,,,,,,,61036745d2053b82e13f7eed,61036f60061b4b80f4c7fb38,2021-07-29_22h18.31.964,Simcolourproject_2stim_asymm_v5,2020.2.10,Win32,60,61025ae37ef11b136ea224fe,,,,,,,,,1922,127,41,1,0,0,response1disk,,6,-1,-17,1,0,0,rectangle,-1,-17,1,0,0,-1,-17,1,0,0,0,19,19,96,1,,,,,,,,
,,,,,,,,,,,,,FF,,,,,,,,1.4681,,,,,,,,,,,,,,,,,,,,,,61036745d2053b82e13f7eed,61036f60061b4b80f4c7fb38,2021-07-29_22h18.31.964,Simcolourproject_2stim_asymm_v5,2020.2.10,Win32,60,61025ae37ef11b136ea224fe,,,,,,,,,1472,101,-126,1,0,0,response3disk,,4,23,-2,1,0,0,rectangle,23,-2,1,0,0,23,-2,1,0,0,0,20,20,46,1,,,,,,,,
,,,,,,,,,,,,,FF,,,,,,,,0.9176,,,,,,,,,,,,,,,,,,,,,,61036745d2053b82e13f7eed,61036f60061b4b80f4c7fb38,2021-07-29_22h18.31.964,Simcolourproject_2stim_asymm_v5,2020.2.10,Win32,60,61025ae37ef11b136ea224fe,,,,,,,,,3293,-74,-129,1,0,0,response5disk,,3,-4,-4,1,0,0,rectangle,-4,-4,1,0,0,-4,-4,1,0,0,0,21,21,120,1,,,,,,,,
,,,,,,,,,,,,,FF,,,,,,,,2.5191,,,,,,,,,,,,,,,,,,,,,,61036745d2053b82e13f7eed,61036f60061b4b80f4c7fb38,2021-07-29_22h18.31.964,Simcolourproject_2stim_asymm_v5,2020.2.10,Win32,60,61025ae37ef11b136ea224fe,,,,,,,,,4227,-53,-107,1,0,0,response5disk,,3,7,-3,1,0,0,rectangle,7,-3,1,0,0,7,-3,1,0,0,0,22,22,104,1,,,,,,,,
,,,,,,,,,,,,,FF,,,,,,,,0.818,,,,,,,,,,,,,,,,,,,,,,61036745d2053b82e13f7eed,61036f60061b4b80f4c7fb38,2021-07-29_22h18.31.964,Simcolourproject_2stim_asymm_v5,2020.2.10,Win32,60,61025ae37ef11b136ea224fe,,,,,,,,,3516,-66,38,1,0,0,response7disk,,1,16,18,1,0,0,rectangle,16,18,1,0,0,16,18,1,0,0,0,23,23,59,1,,,,,,,,
,,,,,,,,,,,,,FF,,,,,,,,0.7337,,,,,,,,,,,,,,,,,,,,,,61036745d2053b82e13f7eed,61036f60061b4b80f4c7fb38,2021-07-29_22h18.31.964,Simcolourproject_2stim_asymm_v5,2020.2.10,Win32,60,61025ae37ef11b136ea224fe,,,,,,,,,4310,113,-52,1,0,0,response3disk,,5,14,-5,1,0,0,rectangle,14,-5,1,0,0,14,-5,1,0,0,0,24,24,42,1,,,,,,,,
,,,,,,,,,,,,,FF,,,,,,,,3.8702,,,,,,,,,,,,,,,,,,,,,,61036745d2053b82e13f7eed,61036f60061b4b80f4c7fb38,2021-07-29_22h18.31.964,Simcolourproject_2stim_asymm_v5,2020.2.10,Win32,60,61025ae37ef11b136ea224fe,,,,,,,,,1466,-69,-108,1,0,0,response5disk,,3,9,3,1,0,0,rectangle,-59,103,1,0,0,-15,9,1,0,0,0,25,25,79,1,,response7disk_3,TRUE,0,0,"[100,83,231,14,143,97,201,188,110,14,141,146,172,276,26,123,160,168,293,110]",1.9011,rectangle
,,,,,,,,,,,,,FF,,,,,,,,1.0349,,,,,,,,,,,,,,,,,,,,,,61036745d2053b82e13f7eed,61036f60061b4b80f4c7fb38,2021-07-29_22h18.31.964,Simcolourproject_2stim_asymm_v5,2020.2.10,Win32,60,61025ae37ef11b136ea224fe,,,,,,,,,3250,-129,-41,1,0,0,response5disk,,2,7,-3,1,0,0,rectangle,7,-3,1,0,0,7,-3,1,0,0,0,26,26,13,1,,,,,,,,
,,,,,,,,,,,,,FF,,,,,,,,1.0344,,,,,,,,,,,,,,,,,,,,,,61036745d2053b82e13f7eed,61036f60061b4b80f4c7fb38,2021-07-29_22h18.31.964,Simcolourproject_2stim_asymm_v5,2020.2.10,Win32,60,61025ae37ef11b136ea224fe,,,,,,,,,631,-107,-28,1,0,0,response5disk,,2,-14,15,1,0,0,rectangle,-14,15,1,0,0,-14,15,1,0,0,0,27,27,129,1,,,,,,,,
,,,,,,,,,,,,,FF,,,,,,,,0.8511,,,,,,,,,,,,,,,,,,,,,,61036745d2053b82e13f7eed,61036f60061b4b80f4c7fb38,2021-07-29_22h18.31.964,Simcolourproject_2stim_asymm_v5,2020.2.10,Win32,60,61025ae37ef11b136ea224fe,,,,,,,,,3049,-79,-52,1,0,0,response5disk,,2,21,-8,1,0,0,rectangle,21,-8,1,0,0,21,-8,1,0,0,0,28,28,24,1,,,,,,,,
,,,,,,,,,,,,,FF,,,,,,,,0.934,,,,,,,,,,,,,,,,,,,,,,61036745d2053b82e13f7eed,61036f60061b4b80f4c7fb38,2021-07-29_22h18.31.964,Simcolourproject_2stim_asymm_v5,2020.2.10,Win32,60,61025ae37ef11b136ea224fe,,,,,,,,,2093,-75,124,1,0,0,response7disk,,0,8,5,1,0,0,rectangle,8,5,1,0,0,8,5,1,0,0,0,29,29,53,1,,,,,,,,
,,,,,,,,,,,,,FF,,,,,,,,1.8855,,,,,,,,,,,,,,,,,,,,,,61036745d2053b82e13f7eed,61036f60061b4b80f4c7fb38,2021-07-29_22h18.31.964,Simcolourproject_2stim_asymm_v5,2020.2.10,Win32,60,61025ae37ef11b136ea224fe,,,,,,,,,2163,-39,-141,1,0,0,response5disk,,3,21,9,1,0,0,rectangle,21,9,1,0,0,21,9,1,0,0,0,30,30,84,1,,,,,,,,
,,,,,,,,,,,,,FF,,,,,,,,1.2351,,,,,,,,,,,,,,,,,,,,,,61036745d2053b82e13f7eed,61036f60061b4b80f4c7fb38,2021-07-29_22h18.31.964,Simcolourproject_2stim_asymm_v5,2020.2.10,Win32,60,61025ae37ef11b136ea224fe,,,,,,,,,4195,125,44,1,0,0,response1disk,,6,20,-2,1,0,0,rectangle,20,-2,1,0,0,20,-2,1,0,0,0,31,31,113,1,,,,,,,,
,,,,,,,,,,,,,FF,,,,,,,,0.9353,,,,,,,,,,,,,,,,,,,,,,61036745d2053b82e13f7eed,61036f60061b4b80f4c7fb38,2021-07-29_22h18.31.964,Simcolourproject_2stim_asymm_v5,2020.2.10,Win32,60,61025ae37ef11b136ea224fe,,,,,,,,,4335,-126,50,1,0,0,response7disk,,1,-38,11,1,0,0,rectangle,-38,11,1,0,0,-38,11,1,0,0,0,32,32,132,1,,,,,,,,
,,,,,,,,,,,,,FF,,,,,,,,1.7352,,,,,,,,,,,,,,,,,,,,,,61036745d2053b82e13f7eed,61036f60061b4b80f4c7fb38,2021-07-29_22h18.31.964,Simcolourproject_2stim_asymm_v5,2020.2.10,Win32,60,61025ae37ef11b136ea224fe,,,,,,,,,3349,40,-120,1,0,0,response3disk,,4,-3,-6,1,0,0,rectangle,-3,-6,1,0,0,-3,-6,1,0,0,0,33,33,6,1,,,,,,,,
,,,,,,,,,,,,,FF,,,,,,,,1.3347,,,,,,,,,,,,,,,,,,,,,,61036745d2053b82e13f7eed,61036f60061b4b80f4c7fb38,2021-07-29_22h18.31.964,Simcolourproject_2stim_asymm_v5,2020.2.10,Win32,60,61025ae37ef11b136ea224fe,,,,,,,,,1807,39,-131,1,0,0,response3disk,,4,-29,13,1,0,0,rectangle,-29,13,1,0,0,-29,13,1,0,0,0,34,34,148,1,,,,,,,,
,,,,,,,,,,,,,FF,,,,,,,,1.118,,,,,,,,,,,,,,,,,,,,,,61036745d2053b82e13f7eed,61036f60061b4b80f4c7fb38,2021-07-29_22h18.31.964,Simcolourproject_2stim_asymm_v5,2020.2.10,Win32,60,61025ae37ef11b136ea224fe,,,,,,,,,296,137,-89,1,0,0,response3disk,,5,-17,-3,1,0,0,rectangle,-17,-3,1,0,0,-17,-3,1,0,0,0,35,35,14,1,,,,,,,,
,,,,,,,,,,,,,FF,,,,,,,,1.9022,,,,,,,,,,,,,,,,,,,,,,61036745d2053b82e13f7eed,61036f60061b4b80f4c7fb38,2021-07-29_22h18.31.964,Simcolourproject_2stim_asymm_v5,2020.2.10,Win32,60,61025ae37ef11b136ea224fe,,,,,,,,,708,77,106,1,0,0,response1disk,,7,6,-7,1,0,0,rectangle,6,-7,1,0,0,6,-7,1,0,0,0,36,36,0,1,,,,,,,,
,,,,,,,,,,,,,FF,,,,,,,,1.3006,,,,,,,,,,,,,,,,,,,,,,61036745d2053b82e13f7eed,61036f60061b4b80f4c7fb38,2021-07-29_22h18.31.964,Simcolourproject_2stim_asymm_v5,2020.2.10,Win32,60,61025ae37ef11b136ea224fe,,,,,,,,,203,150,56,1,0,0,response1disk,,6,31,-1,1,0,0,rectangle,31,-1,1,0,0,31,-1,1,0,0,0,37,37,62,1,,,,,,,,
,,,,,,,,,,,,,FF,,,,,,,,0.7678,,,,,,,,,,,,,,,,,,,,,,61036745d2053b82e13f7eed,61036f60061b4b80f4c7fb38,2021-07-29_22h18.31.964,Simcolourproject_2stim_asymm_v5,2020.2.10,Win32,60,61025ae37ef11b136ea224fe,,,,,,,,,3313,81,44,1,0,0,response1disk,,6,11,-1,1,0,0,rectangle,11,-1,1,0,0,11,-1,1,0,0,0,38,38,1,1,,,,,,,,
,,,,,,,,,,,,,FF,,,,,,,,1.4352,,,,,,,,,,,,,,,,,,,,,,61036745d2053b82e13f7eed,61036f60061b4b80f4c7fb38,2021-07-29_22h18.31.964,Simcolourproject_2stim_asymm_v5,2020.2.10,Win32,60,61025ae37ef11b136ea224fe,,,,,,,,,3924,-55,-150,1,0,0,response5disk,,3,-7,3,1,0,0,rectangle,-7,3,1,0,0,-7,3,1,0,0,0,39,39,93,1,,,,,,,,
,,,,,,,,,,,,,FF,,,,,,,,1.185,,,,,,,,,,,,,,,,,,,,,,61036745d2053b82e13f7eed,61036f60061b4b80f4c7fb38,2021-07-29_22h18.31.964,Simcolourproject_2stim_asymm_v5,2020.2.10,Win32,60,61025ae37ef11b136ea224fe,,,,,,,,,2277,60,-112,1,0,0,response3disk,,4,31,-3,1,0,0,rectangle,31,-3,1,0,0,31,-3,1,0,0,0,40,40,33,1,,,,,,,,
,,,,,,,,,,,,,FF,,,,,,,,1.6353,,,,,,,,,,,,,,,,,,,,,,61036745d2053b82e13f7eed,61036f60061b4b80f4c7fb38,2021-07-29_22h18.31.964,Simcolourproject_2stim_asymm_v5,2020.2.10,Win32,60,61025ae37ef11b136ea224fe,,,,,,,,,900,-40,-61,1,0,0,response5disk,,3,-36,10,1,0,0,rectangle,-36,10,1,0,0,-36,10,1,0,0,0,41,41,76,1,,,,,,,,
,,,,,,,,,,,,,FF,,,,,,,,0.8,,,,,,,,,,,,,,,,,,,,,,61036745d2053b82e13f7eed,61036f60061b4b80f4c7fb38,2021-07-29_22h18.31.964,Simcolourproject_2stim_asymm_v5,2020.2.10,Win32,60,61025ae37ef11b136ea224fe,,,,,,,,,2416,127,-32,1,0,0,response3disk,,5,-14,8,1,0,0,rectangle,-14,8,1,0,0,-14,8,1,0,0,0,42,42,26,1,,,,,,,,
,,,,,,,,,,,,,FF,,,,,,,,1.5179,,,,,,,,,,,,,,,,,,,,,,61036745d2053b82e13f7eed,61036f60061b4b80f4c7fb38,2021-07-29_22h18.31.964,Simcolourproject_2stim_asymm_v5,2020.2.10,Win32,60,61025ae37ef11b136ea224fe,,,,,,,,,2308,114,-84,1,0,0,response3disk,,5,33,-17,1,0,0,rectangle,33,-17,1,0,0,33,-17,1,0,0,0,43,43,111,1,,,,,,,,
,,,,,,,,,,,,,FF,,,,,,,,1.3186,,,,,,,,,,,,,,,,,,,,,,61036745d2053b82e13f7eed,61036f60061b4b80f4c7fb38,2021-07-29_22h18.31.964,Simcolourproject_2stim_asymm_v5,2020.2.10,Win32,60,61025ae37ef11b136ea224fe,,,,,,,,,3833,74,-44,1,0,0,response3disk,,5,-4,-8,1,0,0,rectangle,-4,-8,1,0,0,-4,-8,1,0,0,0,44,44,124,1,,,,,,,,
,,,,,,,,,,,,,FF,,,,,,,,1.2338,,,,,,,,,,,,,,,,,,,,,,61036745d2053b82e13f7eed,61036f60061b4b80f4c7fb38,2021-07-29_22h18.31.964,Simcolourproject_2stim_asymm_v5,2020.2.10,Win32,60,61025ae37ef11b136ea224fe,,,,,,,,,3634,132,65,1,0,0,response1disk,,6,-3,2,1,0,0,rectangle,-3,2,1,0,0,-3,2,1,0,0,0,45,45,112,1,,,,,,,,
,,,,,,,,,,,,,FF,,,,,,,,2.369,,,,,,,,,,,,,,,,,,,,,,61036745d2053b82e13f7eed,61036f60061b4b80f4c7fb38,2021-07-29_22h18.31.964,Simcolourproject_2stim_asymm_v5,2020.2.10,Win32,60,61025ae37ef11b136ea224fe,,,,,,,,,1916,113,47,1,0,0,response1disk,,6,11,12,1,0,0,rectangle,11,12,1,0,0,11,12,1,0,0,0,46,46,133,1,,,,,,,,
,,,,,,,,,,,,,FF,,,,,,,,1.4848,,,,,,,,,,,,,,,,,,,,,,61036745d2053b82e13f7eed,61036f60061b4b80f4c7fb38,2021-07-29_22h18.31.964,Simcolourproject_2stim_asymm_v5,2020.2.10,Win32,60,61025ae37ef11b136ea224fe,,,,,,,,,2834,73,-91,1,0,0,response3disk,,4,21,-13,1,0,0,rectangle,21,-13,1,0,0,21,-13,1,0,0,0,47,47,41,1,,,,,,,,
,,,,,,,,,,,,,FF,,,,,,,,1.118,,,,,,,,,,,,,,,,,,,,,,61036745d2053b82e13f7eed,61036f60061b4b80f4c7fb38,2021-07-29_22h18.31.964,Simcolourproject_2stim_asymm_v5,2020.2.10,Win32,60,61025ae37ef11b136ea224fe,,,,,,,,,4281,-99,-35,1,0,0,response5disk,,2,12,-1,1,0,0,rectangle,12,-1,1,0,0,12,-1,1,0,0,0,48,48,110,1,,,,,,,,
,,,,,,,,,,,,,FF,,,,,,,,1.3673,,,,,,,,,,,,,,,,,,,,,,61036745d2053b82e13f7eed,61036f60061b4b80f4c7fb38,2021-07-29_22h18.31.964,Simcolourproject_2stim_asymm_v5,2020.2.10,Win32,60,61025ae37ef11b136ea224fe,,,,,,,,,3288,151,58,1,0,0,response1disk,,6,19,9,1,0,0,rectangle,19,9,1,0,0,19,9,1,0,0,0,49,49,100,1,,,,,,,,
,,,,,,,,,,,,,FF,,,,,,,,1.0681,,,,,,,,,,,,,,,,,,,,,,61036745d2053b82e13f7eed,61036f60061b4b80f4c7fb38,2021-07-29_22h18.31.964,Simcolourproject_2stim_asymm_v5,2020.2.10,Win32,60,61025ae37ef11b136ea224fe,,,,,,,,,2948,-79,-99,1,0,0,response5disk,,3,-21,-9,1,0,0,rectangle,-21,-9,1,0,0,-21,-9,1,0,0,0,50,50,85,1,,,,,,,,
,,,,,,,,,,,,,FF,,,,,,,,0.9845,,,,,,,,,,,,,,,,,,,,,,61036745d2053b82e13f7eed,61036f60061b4b80f4c7fb38,2021-07-29_22h18.31.964,Simcolourproject_2stim_asymm_v5,2020.2.10,Win32,60,61025ae37ef11b136ea224fe,,,,,,,,,2173,-82,-94,1,0,0,response5disk,,3,-42,-2,1,0,0,rectangle,-42,-2,1,0,0,-42,-2,1,0,0,0,51,51,118,1,,,,,,,,
,,,,,,,,,,,,,FF,,,,,,,,0.8504,,,,,,,,,,,,,,,,,,,,,,61036745d2053b82e13f7eed,61036f60061b4b80f4c7fb38,2021-07-29_22h18.31.964,Simcolourproject_2stim_asymm_v5,2020.2.10,Win32,60,61025ae37ef11b136ea224fe,,,,,,,,,4156,161,47,1,0,0,response1disk,,6,-7,-11,1,0,0,rectangle,-7,-11,1,0,0,-7,-11,1,0,0,0,52,52,94,1,,,,,,,,
,,,,,,,,,,,,,FF,,,,,,,,0.785,,,,,,,,,,,,,,,,,,,,,,61036745d2053b82e13f7eed,61036f60061b4b80f4c7fb38,2021-07-29_22h18.31.964,Simcolourproject_2stim_asymm_v5,2020.2.10,Win32,60,61025ae37ef11b136ea224fe,,,,,,,,,4257,69,93,1,0,0,response1disk,,7,38,3,1,0,0,rectangle,38,3,1,0,0,38,3,1,0,0,0,53,53,145,1,,,,,,,,
,,,,,,,,,,,,,FF,,,,,,,,1.2172,,,,,,,,,,,,,,,,,,,,,,61036745d2053b82e13f7eed,61036f60061b4b80f4c7fb38,2021-07-29_22h18.31.964,Simcolourproject_2stim_asymm_v5,2020.2.10,Win32,60,61025ae37ef11b136ea224fe,,,,,,,,,2879,138,-71,1,0,0,response3disk,,5,22,15,1,0,0,rectangle,22,15,1,0,0,22,15,1,0,0,0,54,54,47,1,,,,,,,,
,,,,,,,,,,,,,FF,,,,,,,,7.2069,,,,,,,,,,,,,,,,,,,,,,61036745d2053b82e13f7eed,61036f60061b4b80f4c7fb38,2021-07-29_22h18.31.964,Simcolourproject_2stim_asymm_v5,2020.2.10,Win32,60,61025ae37ef11b136ea224fe,,,,,,,,,1046,97,-159,1,0,0,response3disk,,4,2,-8,1,0,0,rectangle,2,-8,1,0,0,2,-8,1,0,0,0,55,55,34,1,,,,,,,,
,,,,,,,,,,,,,FF,,,,,,,,0.6999,,,,,,,,,,,,,,,,,,,,,,61036745d2053b82e13f7eed,61036f60061b4b80f4c7fb38,2021-07-29_22h18.31.964,Simcolourproject_2stim_asymm_v5,2020.2.10,Win32,60,61025ae37ef11b136ea224fe,,,,,,,,,747,114,-77,1,0,0,response3disk,,5,43,-2,1,0,0,rectangle,43,-2,1,0,0,43,-2,1,0,0,0,56,56,12,1,,,,,,,,
,,,,,,,,,,,,,FF,,,,,,,,3.3374,,,,,,,,,,,,,,,,,,,,,,61036745d2053b82e13f7eed,61036f60061b4b80f4c7fb38,2021-07-29_22h18.31.964,Simcolourproject_2stim_asymm_v5,2020.2.10,Win32,60,61025ae37ef11b136ea224fe,,,,,,,,,1490,131,-49,1,0,0,response3disk,,5,35,16,1,0,0,rectangle,35,16,1,0,0,35,16,1,0,0,0,57,57,135,1,,,,,,,,
,,,,,,,,,,,,,FF,,,,,,,,2.2353,,,,,,,,,,,,,,,,,,,,,,61036745d2053b82e13f7eed,61036f60061b4b80f4c7fb38,2021-07-29_22h18.31.964,Simcolourproject_2stim_asymm_v5,2020.2.10,Win32,60,61025ae37ef11b136ea224fe,,,,,,,,,737,66,-112,1,0,0,response3disk,,4,32,-13,1,0,0,rectangle,32,-13,1,0,0,32,-13,1,0,0,0,58,58,60,1,,,,,,,,
,,,,,,,,,,,,,FF,,,,,,,,1.1686,,,,,,,,,,,,,,,,,,,,,,61036745d2053b82e13f7eed,61036f60061b4b80f4c7fb38,2021-07-29_22h18.31.964,Simcolourproject_2stim_asymm_v5,2020.2.10,Win32,60,61025ae37ef11b136ea224fe,,,,,,,,,1483,121,81,1,0,0,response1disk,,6,36,-2,1,0,0,rectangle,36,-2,1,0,0,36,-2,1,0,0,0,59,59,98,1,,,,,,,,
,,,,,,,,,,,,,FF,,,,,,,,0.7838,,,,,,,,,,,,,,,,,,,,,,61036745d2053b82e13f7eed,61036f60061b4b80f4c7fb38,2021-07-29_22h18.31.964,Simcolourproject_2stim_asymm_v5,2020.2.10,Win32,60,61025ae37ef11b136ea224fe,,,,,,,,,2023,87,44,1,0,0,response1disk,,6,-14,13,1,0,0,rectangle,-14,13,1,0,0,-14,13,1,0,0,0,60,60,99,1,,,,,,,,
,,,,,,,,,,,,,FF,,,,,,,,1.7354,,,,,,,,,,,,,,,,,,,,,,61036745d2053b82e13f7eed,61036f60061b4b80f4c7fb38,2021-07-29_22h18.31.964,Simcolourproject_2stim_asymm_v5,2020.2.10,Win32,60,61025ae37ef11b136ea224fe,,,,,,,,,1244,141,-52,1,0,0,response3disk,,5,14,-6,1,0,0,rectangle,14,-6,1,0,0,14,-6,1,0,0,0,61,61,119,1,,,,,,,,
,,,,,,,,,,,,,FF,,,,,,,,2.1182,,,,,,,,,,,,,,,,,,,,,,61036745d2053b82e13f7eed,61036f60061b4b80f4c7fb38,2021-07-29_22h18.31.964,Simcolourproject_2stim_asymm_v5,2020.2.10,Win32,60,61025ae37ef11b136ea224fe,,,,,,,,,429,-37,-146,1,0,0,response5disk,,3,18,3,1,0,0,rectangle,18,3,1,0,0,18,3,1,0,0,0,62,62,159,1,,,,,,,,
,,,,,,,,,,,,,FF,,,,,,,,1.0672,,,,,,,,,,,,,,,,,,,,,,61036745d2053b82e13f7eed,61036f60061b4b80f4c7fb38,2021-07-29_22h18.31.964,Simcolourproject_2stim_asymm_v5,2020.2.10,Win32,60,61025ae37ef11b136ea224fe,,,,,,,,,2678,129,73,1,0,0,response1disk,,6,19,-6,1,0,0,rectangle,19,-6,1,0,0,19,-6,1,0,0,0,63,63,106,1,,,,,,,,
,,,,,,,,,,,,,FF,,,,,,,,1.3024,,,,,,,,,,,,,,,,,,,,,,61036745d2053b82e13f7eed,61036f60061b4b80f4c7fb38,2021-07-29_22h18.31.964,Simcolourproject_2stim_asymm_v5,2020.2.10,Win32,60,61025ae37ef11b136ea224fe,,,,,,,,,2040,61,-99,1,0,0,response3disk,,4,17,-4,1,0,0,rectangle,17,-4,1,0,0,17,-4,1,0,0,0,64,64,11,1,,,,,,,,
,,,,,,,,,,,,,FF,,,,,,,,1.3181,,,,,,,,,,,,,,,,,,,,,,61036745d2053b82e13f7eed,61036f60061b4b80f4c7fb38,2021-07-29_22h18.31.964,Simcolourproject_2stim_asymm_v5,2020.2.10,Win32,60,61025ae37ef11b136ea224fe,,,,,,,,,2743,76,63,1,0,0,response1disk,,6,-10,-14,1,0,0,rectangle,-10,-14,1,0,0,-10,-14,1,0,0,0,65,65,4,1,,,,,,,,
,,,,,,,,,,,,,FF,,,,,,,,0.8679,,,,,,,,,,,,,,,,,,,,,,61036745d2053b82e13f7eed,61036f60061b4b80f4c7fb38,2021-07-29_22h18.31.964,Simcolourproject_2stim_asymm_v5,2020.2.10,Win32,60,61025ae37ef11b136ea224fe,,,,,,,,,3401,68,123,1,0,0,response1disk,,7,18,0,1,0,0,rectangle,18,0,1,0,0,18,0,1,0,0,0,66,66,32,1,,,,,,,,
,,,,,,,,,,,,,FF,,,,,,,,1.0347,,,,,,,,,,,,,,,,,,,,,,61036745d2053b82e13f7eed,61036f60061b4b80f4c7fb38,2021-07-29_22h18.31.964,Simcolourproject_2stim_asymm_v5,2020.2.10,Win32,60,61025ae37ef11b136ea224fe,,,,,,,,,3868,64,71,1,0,0,response1disk,,7,21,-13,1,0,0,rectangle,21,-13,1,0,0,21,-13,1,0,0,0,67,67,10,1,,,,,,,,
,,,,,,,,,,,,,FF,,,,,,,,0.8679,,,,,,,,,,,,,,,,,,,,,,61036745d2053b82e13f7eed,61036f60061b4b80f4c7fb38,2021-07-29_22h18.31.964,Simcolourproject_2stim_asymm_v5,2020.2.10,Win32,60,61025ae37ef11b136ea224fe,,,,,,,,,717,-51,149,1,0,0,response7disk,,0,-24,-2,1,0,0,rectangle,-24,-2,1,0,0,-24,-2,1,0,0,0,68,68,78,1,,,,,,,,
,,,,,,,,,,,,,FF,,,,,,,,1.2007,,,,,,,,,,,,,,,,,,,,,,61036745d2053b82e13f7eed,61036f60061b4b80f4c7fb38,2021-07-29_22h18.31.964,Simcolourproject_2stim_asymm_v5,2020.2.10,Win32,60,61025ae37ef11b136ea224fe,,,,,,,,,2722,-68,-86,1,0,0,response5disk,,3,-33,9,1,0,0,rectangle,-33,9,1,0,0,-33,9,1,0,0,0,69,69,123,1,,,,,,,,
,,,,,,,,,,,,,FF,,,,,,,,2.1693,,,,,,,,,,,,,,,,,,,,,,61036745d2053b82e13f7eed,61036f60061b4b80f4c7fb38,2021-07-29_22h18.31.964,Simcolourproject_2stim_asymm_v5,2020.2.10,Win32,60,61025ae37ef11b136ea224fe,,,,,,,,,2686,65,38,1,0,0,response1disk,,6,-32,14,1,0,0,rectangle,-32,14,1,0,0,-32,14,1,0,0,0,70,70,155,1,,,,,,,,
,,,,,,,,,,,,,FF,,,,,,,,0.8844,,,,,,,,,,,,,,,,,,,,,,61036745d2053b82e13f7eed,61036f60061b4b80f4c7fb38,2021-07-29_22h18.31.964,Simcolourproject_2stim_asymm_v5,2020.2.10,Win32,60,61025ae37ef11b136ea224fe,,,,,,,,,1954,146,-49,1,0,0,response3disk,,5,34,-6,1,0,0,rectangle,34,-6,1,0,0,34,-6,1,0,0,0,71,71,22,1,,,,,,,,
,,,,,,,,,,,,,FF,,,,,,,,0.8842,,,,,,,,,,,,,,,,,,,,,,61036745d2053b82e13f7eed,61036f60061b4b80f4c7fb38,2021-07-29_22h18.31.964,Simcolourproject_2stim_asymm_v5,2020.2.10,Win32,60,61025ae37ef11b136ea224fe,,,,,,,,,1881,83,109,1,0,0,response1disk,,7,35,-1,1,0,0,rectangle,35,-1,1,0,0,35,-1,1,0,0,0,72,72,134,1,,,,,,,,
,,,,,,,,,,,,,FF,,,,,,,,0.6681,,,,,,,,,,,,,,,,,,,,,,61036745d2053b82e13f7eed,61036f60061b4b80f4c7fb38,2021-07-29_22h18.31.964,Simcolourproject_2stim_asymm_v5,2020.2.10,Win32,60,61025ae37ef11b136ea224fe,,,,,,,,,154,61,132,1,0,0,response1disk,,7,8,14,1,0,0,rectangle,8,14,1,0,0,8,14,1,0,0,0,73,73,131,1,,,,,,,,
,,,,,,,,,,,,,FF,,,,,,,,1.4679,,,,,,,,,,,,,,,,,,,,,,61036745d2053b82e13f7eed,61036f60061b4b80f4c7fb38,2021-07-29_22h18.31.964,Simcolourproject_2stim_asymm_v5,2020.2.10,Win32,60,61025ae37ef11b136ea224fe,,,,,,,,,3350,-78,-120,1,0,0,response5disk,,3,-24,6,1,0,0,rectangle,-24,6,1,0,0,-24,6,1,0,0,0,74,74,30,1,,,,,,,,
,,,,,,,,,,,,,FF,,,,,,,,2.0689,,,,,,,,,,,,,,,,,,,,,,61036745d2053b82e13f7eed,61036f60061b4b80f4c7fb38,2021-07-29_22h18.31.964,Simcolourproject_2stim_asymm_v5,2020.2.10,Win32,60,61025ae37ef11b136ea224fe,,,,,,,,,2912,98,-48,1,0,0,response3disk,,5,30,1,1,0,0,rectangle,30,1,1,0,0,30,1,1,0,0,0,75,75,63,1,,,,,,,,
,,,,,,,,,,,,,FF,,,,,,,,0.8837,,,,,,,,,,,,,,,,,,,,,,61036745d2053b82e13f7eed,61036f60061b4b80f4c7fb38,2021-07-29_22h18.31.964,Simcolourproject_2stim_asymm_v5,2020.2.10,Win32,60,61025ae37ef11b136ea224fe,,,,,,,,,1376,-93,-102,1,0,0,response5disk,,3,-14,-1,1,0,0,rectangle,-14,-1,1,0,0,-14,-1,1,0,0,0,76,76,101,1,,,,,,,,
,,,,,,,,,,,,,FF,,,,,,,,1.1514,,,,,,,,,,,,,,,,,,,,,,61036745d2053b82e13f7eed,61036f60061b4b80f4c7fb38,2021-07-29_22h18.31.964,Simcolourproject_2stim_asymm_v5,2020.2.10,Win32,60,61025ae37ef11b136ea224fe,,,,,,,,,1008,113,-57,1,0,0,response3disk,,5,25,5,1,0,0,rectangle,25,5,1,0,0,25,5,1,0,0,0,77,77,73,1,,,,,,,,
,,,,,,,,,,,,,FF,,,,,,,,1.9521,,,,,,,,,,,,,,,,,,,,,,61036745d2053b82e13f7eed,61036f60061b4b80f4c7fb38,2021-07-29_22h18.31.964,Simcolourproject_2stim_asymm_v5,2020.2.10,Win32,60,61025ae37ef11b136ea224fe,,,,,,,,,285,42,-120,1,0,0,response3disk,,4,26,-20,1,0,0,rectangle,26,-20,1,0,0,26,-20,1,0,0,0,78,78,121,1,,,,,,,,
,,,,,,,,,,,,,FF,,,,,,,,1.1008,,,,,,,,,,,,,,,,,,,,,,61036745d2053b82e13f7eed,61036f60061b4b80f4c7fb38,2021-07-29_22h18.31.964,Simcolourproject_2stim_asymm_v5,2020.2.10,Win32,60,61025ae37ef11b136ea224fe,,,,,,,,,3426,-89,-116,1,0,0,response5disk,,3,39,-2,1,0,0,rectangle,39,-2,1,0,0,39,-2,1,0,0,0,79,79,55,1,,,,,,,,
,,,,,,,,,,,,,FF,,,,,,,,0.8836,,,,,,,,,,,,,,,,,,,,,,61036745d2053b82e13f7eed,61036f60061b4b80f4c7fb38,2021-07-29_22h18.31.964,Simcolourproject_2stim_asymm_v5,2020.2.10,Win32,60,61025ae37ef11b136ea224fe,,,,,,,,,3089,-55,-114,1,0,0,response5disk,,3,-26,-9,1,0,0,rectangle,-26,-9,1,0,0,-26,-9,1,0,0,0,80,80,64,1,,,,,,,,
,,,,,,,,,,,,,FF,,,,,,,,1.0729,,,,,,,,,,,,,,,,,,,,,,61036745d2053b82e13f7eed,61036f60061b4b80f4c7fb38,2021-07-29_22h18.31.964,Simcolourproject_2stim_asymm_v5,2020.2.10,Win32,60,61025ae37ef11b136ea224fe,,,,,,,,,1461,-22,-116,1,0,0,response5disk,,3,28,-5,1,0,0,rectangle,28,-5,1,0,0,28,-5,1,0,0,0,81,81,17,1,,,,,,,,
,,,,,,,,,,,,,FF,,,,,,,,0.7514,,,,,,,,,,,,,,,,,,,,,,61036745d2053b82e13f7eed,61036f60061b4b80f4c7fb38,2021-07-29_22h18.31.964,Simcolourproject_2stim_asymm_v5,2020.2.10,Win32,60,61025ae37ef11b136ea224fe,,,,,,,,,1214,-38,-97,1,0,0,response5disk,,3,29,-2,1,0,0,rectangle,67,116,1,0,0,23,-8,1,0,0,0,82,82,154,1,,response1disk_3,TRUE,7,7,"[100,83,231,14,143,97,201,188,110,14,141,146,172,276,26,123,160,168,293,110]",1.9365,rectangle
,,,,,,,,,,,,,FF,,,,,,,,3.4543,,,,,,,,,,,,,,,,,,,,,,61036745d2053b82e13f7eed,61036f60061b4b80f4c7fb38,2021-07-29_22h18.31.964,Simcolourproject_2stim_asymm_v5,2020.2.10,Win32,60,61025ae37ef11b136ea224fe,,,,,,,,,1842,117,-62,1,0,0,response3disk,,5,27,12,1,0,0,rectangle,27,12,1,0,0,27,12,1,0,0,0,83,83,103,1,,,,,,,,
,,,,,,,,,,,,,FF,,,,,,,,1.1349,,,,,,,,,,,,,,,,,,,,,,61036745d2053b82e13f7eed,61036f60061b4b80f4c7fb38,2021-07-29_22h18.31.964,Simcolourproject_2stim_asymm_v5,2020.2.10,Win32,60,61025ae37ef11b136ea224fe,,,,,,,,,3589,87,-39,1,0,0,response3disk,,5,26,-6,1,0,0,rectangle,26,-6,1,0,0,26,-6,1,0,0,0,84,84,23,1,,,,,,,,
,,,,,,,,,,,,,FF,,,,,,,,1.6523,,,,,,,,,,,,,,,,,,,,,,61036745d2053b82e13f7eed,61036f60061b4b80f4c7fb38,2021-07-29_22h18.31.964,Simcolourproject_2stim_asymm_v5,2020.2.10,Win32,60,61025ae37ef11b136ea224fe,,,,,,,,,2730,50,-121,1,0,0,response3disk,,4,16,-14,1,0,0,rectangle,16,-14,1,0,0,16,-14,1,0,0,0,85,85,151,1,,,,,,,,
,,,,,,,,,,,,,FF,,,,,,,,0.7333,,,,,,,,,,,,,,,,,,,,,,61036745d2053b82e13f7eed,61036f60061b4b80f4c7fb38,2021-07-29_22h18.31.964,Simcolourproject_2stim_asymm_v5,2020.2.10,Win32,60,61025ae37ef11b136ea224fe,,,,,,,,,4137,111,63,1,0,0,response1disk,,6,0,15,1,0,0,rectangle,0,15,1,0,0,0,15,1,0,0,0,86,86,51,1,,,,,,,,
,,,,,,,,,,,,,FF,,,,,,,,0.8503,,,,,,,,,,,,,,,,,,,,,,61036745d2053b82e13f7eed,61036f60061b4b80f4c7fb38,2021-07-29_22h18.31.964,Simcolourproject_2stim_asymm_v5,2020.2.10,Win32,60,61025ae37ef11b136ea224fe,,,,,,,,,4216,97,69,1,0,0,response1disk,,6,34,8,1,0,0,rectangle,34,8,1,0,0,34,8,1,0,0,0,87,87,49,1,,,,,,,,
,,,,,,,,,,,,,FF,,,,,,,,1.8686,,,,,,,,,,,,,,,,,,,,,,61036745d2053b82e13f7eed,61036f60061b4b80f4c7fb38,2021-07-29_22h18.31.964,Simcolourproject_2stim_asymm_v5,2020.2.10,Win32,60,61025ae37ef11b136ea224fe,,,,,,,,,1846,116,43,1,0,0,response1disk,,6,38,2,1,0,0,rectangle,38,2,1,0,0,38,2,1,0,0,0,88,88,37,1,,,,,,,,
,,,,,,,,,,,,,FF,,,,,,,,1.1343,,,,,,,,,,,,,,,,,,,,,,61036745d2053b82e13f7eed,61036f60061b4b80f4c7fb38,2021-07-29_22h18.31.964,Simcolourproject_2stim_asymm_v5,2020.2.10,Win32,60,61025ae37ef11b136ea224fe,,,,,,,,,530,42,-104,1,0,0,response3disk,,4,1,-7,1,0,0,rectangle,1,-7,1,0,0,1,-7,1,0,0,0,89,89,15,1,,,,,,,,
,,,,,,,,,,,,,FF,,,,,,,,1.2507,,,,,,,,,,,,,,,,,,,,,,61036745d2053b82e13f7eed,61036f60061b4b80f4c7fb38,2021-07-29_22h18.31.964,Simcolourproject_2stim_asymm_v5,2020.2.10,Win32,60,61025ae37ef11b136ea224fe,,,,,,,,,3212,89,73,1,0,0,response1disk,,6,42,-7,1,0,0,rectangle,42,-7,1,0,0,42,-7,1,0,0,0,90,90,127,1,,,,,,,,
,,,,,,,,,,,,,FF,,,,,,,,1.1854,,,,,,,,,,,,,,,,,,,,,,61036745d2053b82e13f7eed,61036f60061b4b80f4c7fb38,2021-07-29_22h18.31.964,Simcolourproject_2stim_asymm_v5,2020.2.10,Win32,60,61025ae37ef11b136ea224fe,,,,,,,,,742,134,65,1,0,0,response1disk,,6,22,-9,1,0,0,rectangle,22,-9,1,0,0,22,-9,1,0,0,0,91,91,18,1,,,,,,,,
,,,,,,,,,,,,,FF,,,,,,,,1.2009,,,,,,,,,,,,,,,,,,,,,,61036745d2053b82e13f7eed,61036f60061b4b80f4c7fb38,2021-07-29_22h18.31.964,Simcolourproject_2stim_asymm_v5,2020.2.10,Win32,60,61025ae37ef11b136ea224fe,,,,,,,,,763,93,-56,1,0,0,response3disk,,5,26,3,1,0,0,rectangle,26,3,1,0,0,26,3,1,0,0,0,92,92,8,1,,,,,,,,
,,,,,,,,,,,,,FF,,,,,,,,1.1674,,,,,,,,,,,,,,,,,,,,,,61036745d2053b82e13f7eed,61036f60061b4b80f4c7fb38,2021-07-29_22h18.31.964,Simcolourproject_2stim_asymm_v5,2020.2.10,Win32,60,61025ae37ef11b136ea224fe,,,,,,,,,2839,32,-116,1,0,0,response3disk,,4,15,7,1,0,0,rectangle,15,7,1,0,0,15,7,1,0,0,0,93,93,153,1,,,,,,,,
,,,,,,,,,,,,,FF,,,,,,,,5.1047,,,,,,,,,,,,,,,,,,,,,,61036745d2053b82e13f7eed,61036f60061b4b80f4c7fb38,2021-07-29_22h18.31.964,Simcolourproject_2stim_asymm_v5,2020.2.10,Win32,60,61025ae37ef11b136ea224fe,,,,,,,,,748,-61,-132,1,0,0,response5disk,,3,0,-21,1,0,0,rectangle,0,-21,1,0,0,0,-21,1,0,0,0,94,94,58,1,,,,,,,,
,,,,,,,,,,,,,FF,,,,,,,,1.5012,,,,,,,,,,,,,,,,,,,,,,61036745d2053b82e13f7eed,61036f60061b4b80f4c7fb38,2021-07-29_22h18.31.964,Simcolourproject_2stim_asymm_v5,2020.2.10,Win32,60,61025ae37ef11b136ea224fe,,,,,,,,,493,132,61,1,0,0,response1disk,,6,15,-3,1,0,0,rectangle,15,-3,1,0,0,15,-3,1,0,0,0,95,95,80,1,,,,,,,,
,,,,,,,,,,,,,FF,,,,,,,,0.9178,,,,,,,,,,,,,,,,,,,,,,61036745d2053b82e13f7eed,61036f60061b4b80f4c7fb38,2021-07-29_22h18.31.964,Simcolourproject_2stim_asymm_v5,2020.2.10,Win32,60,61025ae37ef11b136ea224fe,,,,,,,,,1898,-60,-119,1,0,0,response5disk,,3,-21,-5,1,0,0,rectangle,49,-150,1,0,0,12,-2,1,0,0,0,96,96,5,1,,response3disk_3,TRUE,4,4,"[100,83,231,14,143,97,201,188,110,14,141,146,172,276,26,123,160,168,293,110]",2.4359,rectangle
,,,,,,,,,,,,,FF,,,,,,,,1.5019,,,,,,,,,,,,,,,,,,,,,,61036745d2053b82e13f7eed,61036f60061b4b80f4c7fb38,2021-07-29_22h18.31.964,Simcolourproject_2stim_asymm_v5,2020.2.10,Win32,60,61025ae37ef11b136ea224fe,,,,,,,,,2162,-39,-127,1,0,0,response5disk,,3,-18,5,1,0,0,rectangle,-18,5,1,0,0,-18,5,1,0,0,0,97,97,52,1,,,,,,,,
,,,,,,,,,,,,,FF,,,,,,,,1.202,,,,,,,,,,,,,,,,,,,,,,61036745d2053b82e13f7eed,61036f60061b4b80f4c7fb38,2021-07-29_22h18.31.964,Simcolourproject_2stim_asymm_v5,2020.2.10,Win32,60,61025ae37ef11b136ea224fe,,,,,,,,,3864,100,-28,1,0,0,response3disk,,5,32,-7,1,0,0,rectangle,32,-7,1,0,0,32,-7,1,0,0,0,98,98,40,1,,,,,,,,
,,,,,,,,,,,,,FF,,,,,,,,1.067,,,,,,,,,,,,,,,,,,,,,,61036745d2053b82e13f7eed,61036f60061b4b80f4c7fb38,2021-07-29_22h18.31.964,Simcolourproject_2stim_asymm_v5,2020.2.10,Win32,60,61025ae37ef11b136ea224fe,,,,,,,,,1961,-59,-108,1,0,0,response5disk,,3,-35,7,1,0,0,rectangle,60,-115,1,0,0,35,9,1,0,0,0,99,99,44,1,,response3disk_3,TRUE,4,4,"[100,83,231,14,143,97,201,188,110,14,141,146,172,276,26,123,160,168,293,110]",1.8846,rectangle
,,,,,,,,,,,,,FF,,,,,,,,6.9572,,,,,,,,,,,,,,,,,,,,,,61036745d2053b82e13f7eed,61036f60061b4b80f4c7fb38,2021-07-29_22h18.31.964,Simcolourproject_2stim_asymm_v5,2020.2.10,Win32,60,61025ae37ef11b136ea224fe,,,,,,,,,2885,134,73,1,0,0,response1disk,,6,-2,18,1,0,0,rectangle,-2,18,1,0,0,-2,18,1,0,0,0,100,100,43,1,,,,,,,,
,,,,,,,,,,,,,FF,,,,,,,,0.634,,,,,,,,,,,,,,,,,,,,,,61036745d2053b82e13f7eed,61036f60061b4b80f4c7fb38,2021-07-29_22h18.31.964,Simcolourproject_2stim_asymm_v5,2020.2.10,Win32,60,61025ae37ef11b136ea224fe,,,,,,,,,959,38,119,1,0,0,response1disk,,7,5,2,1,0,0,rectangle,5,2,1,0,0,5,2,1,0,0,0,101,101,82,1,,,,,,,,
,,,,,,,,,,,,,FF,,,,,,,,1.4841,,,,,,,,,,,,,,,,,,,,,,61036745d2053b82e13f7eed,61036f60061b4b80f4c7fb38,2021-07-29_22h18.31.964,Simcolourproject_2stim_asymm_v5,2020.2.10,Win32,60,61025ae37ef11b136ea224fe,,,,,,,,,4250,50,-123,1,0,0,response3disk,,4,10,0,1,0,0,rectangle,10,0,1,0,0,10,0,1,0,0,0,102,102,139,1,,,,,,,,
,,,,,,,,,,,,,FF,,,,,,,,0.8673,,,,,,,,,,,,,,,,,,,,,,61036745d2053b82e13f7eed,61036f60061b4b80f4c7fb38,2021-07-29_22h18.31.964,Simcolourproject_2stim_asymm_v5,2020.2.10,Win32,60,61025ae37ef11b136ea224fe,,,,,,,,,3330,-50,-94,1,0,0,response5disk,,3,9,1,1,0,0,rectangle,9,1,1,0,0,9,1,1,0,0,0,103,103,138,1,,,,,,,,
,,,,,,,,,,,,,FF,,,,,,,,1.0341,,,,,,,,,,,,,,,,,,,,,,61036745d2053b82e13f7eed,61036f60061b4b80f4c7fb38,2021-07-29_22h18.31.964,Simcolourproject_2stim_asymm_v5,2020.2.10,Win32,60,61025ae37ef11b136ea224fe,,,,,,,,,865,159,47,1,0,0,response1disk,,6,17,1,1,0,0,rectangle,17,1,1,0,0,17,1,1,0,0,0,104,104,88,1,,,,,,,,
,,,,,,,,,,,,,FF,,,,,,,,1.4681,,,,,,,,,,,,,,,,,,,,,,61036745d2053b82e13f7eed,61036f60061b4b80f4c7fb38,2021-07-29_22h18.31.964,Simcolourproject_2stim_asymm_v5,2020.2.10,Win32,60,61025ae37ef11b136ea224fe,,,,,,,,,1229,-71,-102,1,0,0,response5disk,,3,-27,14,1,0,0,rectangle,-27,14,1,0,0,-27,14,1,0,0,0,105,105,28,1,,,,,,,,
,,,,,,,,,,,,,FF,,,,,,,,1.3352,,,,,,,,,,,,,,,,,,,,,,61036745d2053b82e13f7eed,61036f60061b4b80f4c7fb38,2021-07-29_22h18.31.964,Simcolourproject_2stim_asymm_v5,2020.2.10,Win32,60,61025ae37ef11b136ea224fe,,,,,,,,,2222,152,39,1,0,0,response1disk,,6,23,-4,1,0,0,rectangle,23,-4,1,0,0,23,-4,1,0,0,0,106,106,150,1,,,,,,,,
,,,,,,,,,,,,,FF,,,,,,,,0.8847,,,,,,,,,,,,,,,,,,,,,,61036745d2053b82e13f7eed,61036f60061b4b80f4c7fb38,2021-07-29_22h18.31.964,Simcolourproject_2stim_asymm_v5,2020.2.10,Win32,60,61025ae37ef11b136ea224fe,,,,,,,,,313,120,44,1,0,0,response1disk,,6,9,-9,1,0,0,rectangle,9,-9,1,0,0,9,-9,1,0,0,0,107,107,21,1,,,,,,,,
,,,,,,,,,,,,,FF,,,,,,,,1.1347,,,,,,,,,,,,,,,,,,,,,,61036745d2053b82e13f7eed,61036f60061b4b80f4c7fb38,2021-07-29_22h18.31.964,Simcolourproject_2stim_asymm_v5,2020.2.10,Win32,60,61025ae37ef11b136ea224fe,,,,,,,,,406,107,50,1,0,0,response1disk,,6,3,0,1,0,0,rectangle,3,0,1,0,0,3,0,1,0,0,0,108,108,158,1,,,,,,,,
,,,,,,,,,,,,,FF,,,,,,,,0.6181,,,,,,,,,,,,,,,,,,,,,,61036745d2053b82e13f7eed,61036f60061b4b80f4c7fb38,2021-07-29_22h18.31.964,Simcolourproject_2stim_asymm_v5,2020.2.10,Win32,60,61025ae37ef11b136ea224fe,,,,,,,,,3562,129,-63,1,0,0,response3disk,,5,-12,15,1,0,0,rectangle,-105,67,1,0,0,0,-6,1,0,0,0,109,109,146,1,,response7disk_3,TRUE,1,1,"[100,83,231,14,143,97,201,188,110,14,141,146,172,276,26,123,160,168,293,110]",1.3189,rectangle
,,,,,,,,,,,,,FF,,,,,,,,1.3846,,,,,,,,,,,,,,,,,,,,,,61036745d2053b82e13f7eed,61036f60061b4b80f4c7fb38,2021-07-29_22h18.31.964,Simcolourproject_2stim_asymm_v5,2020.2.10,Win32,60,61025ae37ef11b136ea224fe,,,,,,,,,2633,143,-47,1,0,0,response3disk,,5,-16,8,1,0,0,rectangle,-16,8,1,0,0,-16,8,1,0,0,0,110,110,125,1,,,,,,,,
,,,,,,,,,,,,,FF,,,,,,,,0.9837,,,,,,,,,,,,,,,,,,,,,,61036745d2053b82e13f7eed,61036f60061b4b80f4c7fb38,2021-07-29_22h18.31.964,Simcolourproject_2stim_asymm_v5,2020.2.10,Win32,60,61025ae37ef11b136ea224fe,,,,,,,,,2711,70,-130,1,0,0,response3disk,,4,2,5,1,0,0,rectangle,2,5,1,0,0,2,5,1,0,0,0,111,111,72,1,,,,,,,,
,,,,,,,,,,,,,FF,,,,,,,,0.8841,,,,,,,,,,,,,,,,,,,,,,61036745d2053b82e13f7eed,61036f60061b4b80f4c7fb38,2021-07-29_22h18.31.964,Simcolourproject_2stim_asymm_v5,2020.2.10,Win32,60,61025ae37ef11b136ea224fe,,,,,,,,,1977,29,-103,1,0,0,response3disk,,4,-10,10,1,0,0,rectangle,-10,10,1,0,0,-10,10,1,0,0,0,112,112,69,1,,,,,,,,
,,,,,,,,,,,,,FF,,,,,,,,0.6842,,,,,,,,,,,,,,,,,,,,,,61036745d2053b82e13f7eed,61036f60061b4b80f4c7fb38,2021-07-29_22h18.31.964,Simcolourproject_2stim_asymm_v5,2020.2.10,Win32,60,61025ae37ef11b136ea224fe,,,,,,,,,3466,127,50,1,0,0,response1disk,,6,21,-9,1,0,0,rectangle,21,-9,1,0,0,21,-9,1,0,0,0,113,113,140,1,,,,,,,,
,,,,,,,,,,,,,FF,,,,,,,,1.6174,,,,,,,,,,,,,,,,,,,,,,61036745d2053b82e13f7eed,61036f60061b4b80f4c7fb38,2021-07-29_22h18.31.964,Simcolourproject_2stim_asymm_v5,2020.2.10,Win32,60,61025ae37ef11b136ea224fe,,,,,,,,,603,124,-30,1,0,0,response3disk,,5,46,9,1,0,0,rectangle,46,9,1,0,0,46,9,1,0,0,0,114,114,142,1,,,,,,,,
,,,,,,,,,,,,,FF,,,,,,,,1.435,,,,,,,,,,,,,,,,,,,,,,61036745d2053b82e13f7eed,61036f60061b4b80f4c7fb38,2021-07-29_22h18.31.964,Simcolourproject_2stim_asymm_v5,2020.2.10,Win32,60,61025ae37ef11b136ea224fe,,,,,,,,,3183,86,-49,1,0,0,response3disk,,5,18,-12,1,0,0,rectangle,18,-12,1,0,0,18,-12,1,0,0,0,115,115,108,1,,,,,,,,
,,,,,,,,,,,,,FF,,,,,,,,1.4516,,,,,,,,,,,,,,,,,,,,,,61036745d2053b82e13f7eed,61036f60061b4b80f4c7fb38,2021-07-29_22h18.31.964,Simcolourproject_2stim_asymm_v5,2020.2.10,Win32,60,61025ae37ef11b136ea224fe,,,,,,,,,696,-31,-101,1,0,0,response5disk,,3,12,4,1,0,0,rectangle,12,4,1,0,0,12,4,1,0,0,0,116,116,126,1,,,,,,,,
,,,,,,,,,,,,,FF,,,,,,,,0.7336,,,,,,,,,,,,,,,,,,,,,,61036745d2053b82e13f7eed,61036f60061b4b80f4c7fb38,2021-07-29_22h18.31.964,Simcolourproject_2stim_asymm_v5,2020.2.10,Win32,60,61025ae37ef11b136ea224fe,,,,,,,,,1821,-40,-88,1,0,0,response5disk,,3,-3,-11,1,0,0,rectangle,-3,-11,1,0,0,-3,-11,1,0,0,0,117,117,114,1,,,,,,,,
,,,,,,,,,,,,,FF,,,,,,,,0.7499,,,,,,,,,,,,,,,,,,,,,,61036745d2053b82e13f7eed,61036f60061b4b80f4c7fb38,2021-07-29_22h18.31.964,Simcolourproject_2stim_asymm_v5,2020.2.10,Win32,60,61025ae37ef11b136ea224fe,,,,,,,,,1397,161,-63,1,0,0,response3disk,,5,1,-5,1,0,0,rectangle,1,-5,1,0,0,1,-5,1,0,0,0,118,118,3,1,,,,,,,,
,,,,,,,,,,,,,FF,,,,,,,,1.1182,,,,,,,,,,,,,,,,,,,,,,61036745d2053b82e13f7eed,61036f60061b4b80f4c7fb38,2021-07-29_22h18.31.964,Simcolourproject_2stim_asymm_v5,2020.2.10,Win32,60,61025ae37ef11b136ea224fe,,,,,,,,,3696,45,103,1,0,0,response1disk,,7,18,-10,1,0,0,rectangle,18,-10,1,0,0,18,-10,1,0,0,0,119,119,91,1,,,,,,,,
,,,,,,,,,,,,,FF,,,,,,,,1.1345,,,,,,,,,,,,,,,,,,,,,,61036745d2053b82e13f7eed,61036f60061b4b80f4c7fb38,2021-07-29_22h18.31.964,Simcolourproject_2stim_asymm_v5,2020.2.10,Win32,60,61025ae37ef11b136ea224fe,,,,,,,,,2491,59,-136,1,0,0,response3disk,,4,-13,0,1,0,0,rectangle,-13,0,1,0,0,-13,0,1,0,0,0,120,120,66,1,,,,,,,,
,,,,,,,,,,,,,FF,,,,,,,,4.9219,,,,,,,,,,,,,,,,,,,,,,61036745d2053b82e13f7eed,61036f60061b4b80f4c7fb38,2021-07-29_22h18.31.964,Simcolourproject_2stim_asymm_v5,2020.2.10,Win32,60,61025ae37ef11b136ea224fe,,,,,,,,,27,84,-151,1,0,0,response3disk,,4,-14,-11,1,0,0,rectangle,-14,-11,1,0,0,-14,-11,1,0,0,0,121,121,143,1,,,,,,,,
,,,,,,,,,,,,,FF,,,,,,,,1.585,,,,,,,,,,,,,,,,,,,,,,61036745d2053b82e13f7eed,61036f60061b4b80f4c7fb38,2021-07-29_22h18.31.964,Simcolourproject_2stim_asymm_v5,2020.2.10,Win32,60,61025ae37ef11b136ea224fe,,,,,,,,,1126,158,62,1,0,0,response1disk,,6,-4,10,1,0,0,rectangle,73,128,1,0,0,1,-2,1,0,0,0,122,122,20,1,,response1disk_3,TRUE,7,7,"[100,83,231,14,143,97,201,188,110,14,141,146,172,276,26,123,160,168,293,110]",1.3661,rectangle
,,,,,,,,,,,,,FF,,,,,,,,1.1176,,,,,,,,,,,,,,,,,,,,,,61036745d2053b82e13f7eed,61036f60061b4b80f4c7fb38,2021-07-29_22h18.31.964,Simcolourproject_2stim_asymm_v5,2020.2.10,Win32,60,61025ae37ef11b136ea224fe,,,,,,,,,1967,-62,-128,1,0,0,response5disk,,3,-19,-5,1,0,0,rectangle,-19,-5,1,0,0,-19,-5,1,0,0,0,123,123,86,1,,,,,,,,
,,,,,,,,,,,,,FF,,,,,,,,1.2351,,,,,,,,,,,,,,,,,,,,,,61036745d2053b82e13f7eed,61036f60061b4b80f4c7fb38,2021-07-29_22h18.31.964,Simcolourproject_2stim_asymm_v5,2020.2.10,Win32,60,61025ae37ef11b136ea224fe,,,,,,,,,2229,-58,-119,1,0,0,response5disk,,3,-3,3,1,0,0,rectangle,-3,3,1,0,0,-3,3,1,0,0,0,124,124,61,1,,,,,,,,
,,,,,,,,,,,,,FF,,,,,,,,1.0177,,,,,,,,,,,,,,,,,,,,,,61036745d2053b82e13f7eed,61036f60061b4b80f4c7fb38,2021-07-29_22h18.31.964,Simcolourproject_2stim_asymm_v5,2020.2.10,Win32,60,61025ae37ef11b136ea224fe,,,,,,,,,332,136,-63,1,0,0,response3disk,,5,12,-4,1,0,0,rectangle,12,-4,1,0,0,12,-4,1,0,0,0,125,125,87,1,,,,,,,,
,,,,,,,,,,,,,FF,,,,,,,,3.8044,,,,,,,,,,,,,,,,,,,,,,61036745d2053b82e13f7eed,61036f60061b4b80f4c7fb38,2021-07-29_22h18.31.964,Simcolourproject_2stim_asymm_v5,2020.2.10,Win32,60,61025ae37ef11b136ea224fe,,,,,,,,,1231,108,-48,1,0,0,response3disk,,5,44,6,1,0,0,rectangle,44,6,1,0,0,44,6,1,0,0,0,126,126,137,1,,,,,,,,
,,,,,,,,,,,,,FF,,,,,,,,1.5517,,,,,,,,,,,,,,,,,,,,,,61036745d2053b82e13f7eed,61036f60061b4b80f4c7fb38,2021-07-29_22h18.31.964,Simcolourproject_2stim_asymm_v5,2020.2.10,Win32,60,61025ae37ef11b136ea224fe,,,,,,,,,376,57,-148,1,0,0,response3disk,,4,-10,-6,1,0,0,rectangle,-10,-6,1,0,0,-10,-6,1,0,0,0,127,127,149,1,,,,,,,,
,,,,,,,,,,,,,FF,,,,,,,,0.8845,,,,,,,,,,,,,,,,,,,,,,61036745d2053b82e13f7eed,61036f60061b4b80f4c7fb38,2021-07-29_22h18.31.964,Simcolourproject_2stim_asymm_v5,2020.2.10,Win32,60,61025ae37ef11b136ea224fe,,,,,,,,,3707,-44,116,1,0,0,response7disk,,0,-5,10,1,0,0,rectangle,-5,10,1,0,0,-5,10,1,0,0,0,128,128,89,1,,,,,,,,
,,,,,,,,,,,,,FF,,,,,,,,1.8353,,,,,,,,,,,,,,,,,,,,,,61036745d2053b82e13f7eed,61036f60061b4b80f4c7fb38,2021-07-29_22h18.31.964,Simcolourproject_2stim_asymm_v5,2020.2.10,Win32,60,61025ae37ef11b136ea224fe,,,,,,,,,1749,-48,-127,1,0,0,response5disk,,3,-15,10,1,0,0,rectangle,-15,10,1,0,0,-15,10,1,0,0,0,129,129,128,1,,,,,,,,
,,,,,,,,,,,,,FF,,,,,,,,0.85,,,,,,,,,,,,,,,,,,,,,,61036745d2053b82e13f7eed,61036f60061b4b80f4c7fb38,2021-07-29_22h18.31.964,Simcolourproject_2stim_asymm_v5,2020.2.10,Win32,60,61025ae37ef11b136ea224fe,,,,,,,,,2838,-46,-130,1,0,0,response5disk,,3,-2,-3,1,0,0,rectangle,-2,-3,1,0,0,-2,-3,1,0,0,0,130,130,48,1,,,,,,,,
,,,,,,,,,,,,,FF,,,,,,,,0.9011,,,,,,,,,,,,,,,,,,,,,,61036745d2053b82e13f7eed,61036f60061b4b80f4c7fb38,2021-07-29_22h18.31.964,Simcolourproject_2stim_asymm_v5,2020.2.10,Win32,60,61025ae37ef11b136ea224fe,,,,,,,,,4109,42,149,1,0,0,response1disk,,7,-6,-10,1,0,0,rectangle,-6,-10,1,0,0,-6,-10,1,0,0,0,131,131,68,1,,,,,,,,
,,,,,,,,,,,,,FF,,,,,,,,1.418,,,,,,,,,,,,,,,,,,,,,,61036745d2053b82e13f7eed,61036f60061b4b80f4c7fb38,2021-07-29_22h18.31.964,Simcolourproject_2stim_asymm_v5,2020.2.10,Win32,60,61025ae37ef11b136ea224fe,,,,,,,,,1907,65,-126,1,0,0,response3disk,,4,16,-14,1,0,0,rectangle,16,-14,1,0,0,16,-14,1,0,0,0,132,132,2,1,,,,,,,,
,,,,,,,,,,,,,FF,,,,,,,,1.3354,,,,,,,,,,,,,,,,,,,,,,61036745d2053b82e13f7eed,61036f60061b4b80f4c7fb38,2021-07-29_22h18.31.964,Simcolourproject_2stim_asymm_v5,2020.2.10,Win32,60,61025ae37ef11b136ea224fe,,,,,,,,,2148,144,-28,1,0,0,response3disk,,5,8,16,1,0,0,rectangle,8,16,1,0,0,8,16,1,0,0,0,133,133,136,1,,,,,,,,
,,,,,,,,,,,,,FF,,,,,,,,1.0676,,,,,,,,,,,,,,,,,,,,,,61036745d2053b82e13f7eed,61036f60061b4b80f4c7fb38,2021-07-29_22h18.31.964,Simcolourproject_2stim_asymm_v5,2020.2.10,Win32,60,61025ae37ef11b136ea224fe,,,,,,,,,3061,-33,-104,1,0,0,response5disk,,3,11,-3,1,0,0,rectangle,11,-3,1,0,0,11,-3,1,0,0,0,134,134,117,1,,,,,,,,
,,,,,,,,,,,,,FF,,,,,,,,1.0171,,,,,,,,,,,,,,,,,,,,,,61036745d2053b82e13f7eed,61036f60061b4b80f4c7fb38,2021-07-29_22h18.31.964,Simcolourproject_2stim_asymm_v5,2020.2.10,Win32,60,61025ae37ef11b136ea224fe,,,,,,,,,634,-28,-99,1,0,0,response5disk,,3,-3,-1,1,0,0,rectangle,-3,-1,1,0,0,-3,-1,1,0,0,0,135,135,157,1,,,,,,,,
,,,,,,,,,,,,,FF,,,,,,,,1.7855,,,,,,,,,,,,,,,,,,,,,,61036745d2053b82e13f7eed,61036f60061b4b80f4c7fb38,2021-07-29_22h18.31.964,Simcolourproject_2stim_asymm_v5,2020.2.10,Win32,60,61025ae37ef11b136ea224fe,,,,,,,,,3393,69,-103,1,0,0,response3disk,,4,25,6,1,0,0,rectangle,25,6,1,0,0,25,6,1,0,0,0,136,136,65,1,,,,,,,,
,,,,,,,,,,,,,FF,,,,,,,,1.5022,,,,,,,,,,,,,,,,,,,,,,61036745d2053b82e13f7eed,61036f60061b4b80f4c7fb38,2021-07-29_22h18.31.964,Simcolourproject_2stim_asymm_v5,2020.2.10,Win32,60,61025ae37ef11b136ea224fe,,,,,,,,,1469,29,-112,1,0,0,response3disk,,4,14,-5,1,0,0,rectangle,14,-5,1,0,0,14,-5,1,0,0,0,137,137,25,1,,,,,,,,
,,,,,,,,,,,,,FF,,,,,,,,1.068,,,,,,,,,,,,,,,,,,,,,,61036745d2053b82e13f7eed,61036f60061b4b80f4c7fb38,2021-07-29_22h18.31.964,Simcolourproject_2stim_asymm_v5,2020.2.10,Win32,60,61025ae37ef11b136ea224fe,,,,,,,,,164,-102,-45,1,0,0,response5disk,,2,-12,-8,1,0,0,rectangle,-12,-8,1,0,0,-12,-8,1,0,0,0,138,138,36,1,,,,,,,,
,,,,,,,,,,,,,FF,,,,,,,,1.6845,,,,,,,,,,,,,,,,,,,,,,61036745d2053b82e13f7eed,61036f60061b4b80f4c7fb38,2021-07-29_22h18.31.964,Simcolourproject_2stim_asymm_v5,2020.2.10,Win32,60,61025ae37ef11b136ea224fe,,,,,,,,,2472,73,-116,1,0,0,response3disk,,4,41,-11,1,0,0,rectangle,41,-11,1,0,0,41,-11,1,0,0,0,139,139,16,1,,,,,,,,
,,,,,,,,,,,,,FF,,,,,,,,1.3521,,,,,,,,,,,,,,,,,,,,,,61036745d2053b82e13f7eed,61036f60061b4b80f4c7fb38,2021-07-29_22h18.31.964,Simcolourproject_2stim_asymm_v5,2020.2.10,Win32,60,61025ae37ef11b136ea224fe,,,,,,,,,2373,-50,-126,1,0,0,response5disk,,3,-6,5,1,0,0,rectangle,-46,128,1,0,0,8,-1,1,0,0,0,140,140,27,1,,response7disk_3,TRUE,0,0,"[100,83,231,14,143,97,201,188,110,14,141,146,172,276,26,123,160,168,293,110]",1.6017,rectangle
,,,,,,,,,,,,,FF,,,,,,,,3.2206,,,,,,,,,,,,,,,,,,,,,,61036745d2053b82e13f7eed,61036f60061b4b80f4c7fb38,2021-07-29_22h18.31.964,Simcolourproject_2stim_asymm_v5,2020.2.10,Win32,60,61025ae37ef11b136ea224fe,,,,,,,,,1322,74,53,1,0,0,response1disk,,6,-1,5,1,0,0,rectangle,-1,5,1,0,0,-1,5,1,0,0,0,141,141,45,1,,,,,,,,
,,,,,,,,,,,,,FF,,,,,,,,1.0513,,,,,,,,,,,,,,,,,,,,,,61036745d2053b82e13f7eed,61036f60061b4b80f4c7fb38,2021-07-29_22h18.31.964,Simcolourproject_2stim_asymm_v5,2020.2.10,Win32,60,61025ae37ef11b136ea224fe,,,,,,,,,2212,156,-61,1,0,0,response3disk,,5,22,-10,1,0,0,rectangle,138,67,1,0,0,11,-6,1,0,0,0,142,142,71,1,,response1disk_3,TRUE,6,6,"[100,83,231,14,143,97,201,188,110,14,141,146,172,276,26,123,160,168,293,110]",1.6859,rectangle
,,,,,,,,,,,,,FF,,,,,,,,0.9513,,,,,,,,,,,,,,,,,,,,,,61036745d2053b82e13f7eed,61036f60061b4b80f4c7fb38,2021-07-29_22h18.31.964,Simcolourproject_2stim_asymm_v5,2020.2.10,Win32,60,61025ae37ef11b136ea224fe,,,,,,,,,4260,96,44,1,0,0,response1disk,,6,26,-3,1,0,0,rectangle,26,-3,1,0,0,26,-3,1,0,0,0,143,143,83,1,,,,,,,,
,,,,,,,,,,,,,FF,,,,,,,,1.0013,,,,,,,,,,,,,,,,,,,,,,61036745d2053b82e13f7eed,61036f60061b4b80f4c7fb38,2021-07-29_22h18.31.964,Simcolourproject_2stim_asymm_v5,2020.2.10,Win32,60,61025ae37ef11b136ea224fe,,,,,,,,,3709,-146,-41,1,0,0,response5disk,,2,-17,9,1,0,0,rectangle,-17,9,1,0,0,-17,9,1,0,0,0,144,144,105,1,,,,,,,,
,,,,,,,,,,,,,FF,,,,,,,,0.9843,,,,,,,,,,,,,,,,,,,,,,61036745d2053b82e13f7eed,61036f60061b4b80f4c7fb38,2021-07-29_22h18.31.964,Simcolourproject_2stim_asymm_v5,2020.2.10,Win32,60,61025ae37ef11b136ea224fe,,,,,,,,,3918,78,113,1,0,0,response1disk,,7,20,0,1,0,0,rectangle,-81,-122,1,0,0,-15,-4,1,0,0,0,145,145,57,1,,response5disk_3,TRUE,3,3,"[100,83,231,14,143,97,201,188,110,14,141,146,172,276,26,123,160,168,293,110]",1.7675,rectangle
,,,,,,,,,,,,,FF,,,,,,,,1.6349,,,,,,,,,,,,,,,,,,,,,,61036745d2053b82e13f7eed,61036f60061b4b80f4c7fb38,2021-07-29_22h18.31.964,Simcolourproject_2stim_asymm_v5,2020.2.10,Win32,60,61025ae37ef11b136ea224fe,,,,,,,,,2816,72,-118,1,0,0,response3disk,,4,12,-3,1,0,0,rectangle,12,-3,1,0,0,12,-3,1,0,0,0,146,146,156,1,,,,,,,,
,,,,,,,,,,,,,FF,,,,,,,,1.1513,,,,,,,,,,,,,,,,,,,,,,61036745d2053b82e13f7eed,61036f60061b4b80f4c7fb38,2021-07-29_22h18.31.964,Simcolourproject_2stim_asymm_v5,2020.2.10,Win32,60,61025ae37ef11b136ea224fe,,,,,,,,,2234,-104,60,1,0,0,response7disk,,1,-28,-10,1,0,0,rectangle,-28,-10,1,0,0,-28,-10,1,0,0,0,147,147,35,1,,,,,,,,
,,,,,,,,,,,,,FF,,,,,,,,0.7679,,,,,,,,,,,,,,,,,,,,,,61036745d2053b82e13f7eed,61036f60061b4b80f4c7fb38,2021-07-29_22h18.31.964,Simcolourproject_2stim_asymm_v5,2020.2.10,Win32,60,61025ae37ef11b136ea224fe,,,,,,,,,3243,-55,83,1,0,0,response7disk,,0,8,11,1,0,0,rectangle,8,11,1,0,0,8,11,1,0,0,0,148,148,122,1,,,,,,,,
,,,,,,,,,,,,,FF,,,,,,,,0.8505,,,,,,,,,,,,,,,,,,,,,,61036745d2053b82e13f7eed,61036f60061b4b80f4c7fb38,2021-07-29_22h18.31.964,Simcolourproject_2stim_asymm_v5,2020.2.10,Win32,60,61025ae37ef11b136ea224fe,,,,,,,,,2019,114,107,1,0,0,response1disk,,6,30,-12,1,0,0,rectangle,30,-12,1,0,0,30,-12,1,0,0,0,149,149,31,1,,,,,,,,
,,,,,,,,,,,,,FF,,,,,,,,1.2677,,,,,,,,,,,,,,,,,,,,,,61036745d2053b82e13f7eed,61036f60061b4b80f4c7fb38,2021-07-29_22h18.31.964,Simcolourproject_2stim_asymm_v5,2020.2.10,Win32,60,61025ae37ef11b136ea224fe,,,,,,,,,1299,-71,-80,1,0,0,response5disk,,3,-43,-5,1,0,0,rectangle,-43,-5,1,0,0,-43,-5,1,0,0,0,150,150,81,1,,,,,,,,
,,,,,,,,,,,,,FF,,,,,,,,0.8182,,,,,,,,,,,,,,,,,,,,,,61036745d2053b82e13f7eed,61036f60061b4b80f4c7fb38,2021-07-29_22h18.31.964,Simcolourproject_2stim_asymm_v5,2020.2.10,Win32,60,61025ae37ef11b136ea224fe,,,,,,,,,4173,96,80,1,0,0,response1disk,,6,28,7,1,0,0,rectangle,28,7,1,0,0,28,7,1,0,0,0,151,151,115,1,,,,,,,,
,,,,,,,,,,,,,FF,,,,,,,,0.8007,,,,,,,,,,,,,,,,,,,,,,61036745d2053b82e13f7eed,61036f60061b4b80f4c7fb38,2021-07-29_22h18.31.964,Simcolourproject_2stim_asymm_v5,2020.2.10,Win32,60,61025ae37ef11b136ea224fe,,,,,,,,,3706,-88,57,1,0,0,response7disk,,1,6,-3,1,0,0,rectangle,6,-3,1,0,0,6,-3,1,0,0,0,152,152,19,1,,,,,,,,
,,,,,,,,,,,,,FF,,,,,,,,1.2678,,,,,,,,,,,,,,,,,,,,,,61036745d2053b82e13f7eed,61036f60061b4b80f4c7fb38,2021-07-29_22h18.31.964,Simcolourproject_2stim_asymm_v5,2020.2.10,Win32,60,61025ae37ef11b136ea224fe,,,,,,,,,3310,103,59,1,0,0,response1disk,,6,34,2,1,0,0,rectangle,34,2,1,0,0,34,2,1,0,0,0,153,153,77,1,,,,,,,,
,,,,,,,,,,,,,FF,,,,,,,,1.0681,,,,,,,,,,,,,,,,,,,,,,61036745d2053b82e13f7eed,61036f60061b4b80f4c7fb38,2021-07-29_22h18.31.964,Simcolourproject_2stim_asymm_v5,2020.2.10,Win32,60,61025ae37ef11b136ea224fe,,,,,,,,,2254,-31,-104,1,0,0,response5disk,,3,19,-9,1,0,0,rectangle,19,-9,1,0,0,19,-9,1,0,0,0,154,154,29,1,,,,,,,,
,,,,,,,,,,,,,FF,,,,,,,,1.6855,,,,,,,,,,,,,,,,,,,,,,61036745d2053b82e13f7eed,61036f60061b4b80f4c7fb38,2021-07-29_22h18.31.964,Simcolourproject_2stim_asymm_v5,2020.2.10,Win32,60,61025ae37ef11b136ea224fe,,,,,,,,,2710,89,112,1,0,0,response1disk,,7,12,2,1,0,0,rectangle,12,2,1,0,0,12,2,1,0,0,0,155,155,92,1,,,,,,,,
,,,,,,,,,,,,,FF,,,,,,,,1.1845,,,,,,,,,,,,,,,,,,,,,,61036745d2053b82e13f7eed,61036f60061b4b80f4c7fb38,2021-07-29_22h18.31.964,Simcolourproject_2stim_asymm_v5,2020.2.10,Win32,60,61025ae37ef11b136ea224fe,,,,,,,,,2466,117,48,1,0,0,response1disk,,6,17,-3,1,0,0,rectangle,17,-3,1,0,0,17,-3,1,0,0,0,156,156,7,1,,,,,,,,
,,,,,,,,,,,,,FF,,,,,,,,1.3177,,,,,,,,,,,,,,,,,,,,,,61036745d2053b82e13f7eed,61036f60061b4b80f4c7fb38,2021-07-29_22h18.31.964,Simcolourproject_2stim_asymm_v5,2020.2.10,Win32,60,61025ae37ef11b136ea224fe,,,,,,,,,2810,88,-67,1,0,0,response3disk,,5,-14,1,1,0,0,rectangle,-14,1,1,0,0,-14,1,1,0,0,0,157,157,75,1,,,,,,,,
,,,,,,,,,,,,,FF,,,,,,,,1.2352,,,,,,,,,,,,,,,,,,,,,,61036745d2053b82e13f7eed,61036f60061b4b80f4c7fb38,2021-07-29_22h18.31.964,Simcolourproject_2stim_asymm_v5,2020.2.10,Win32,60,61025ae37ef11b136ea224fe,,,,,,,,,1217,57,-114,1,0,0,response3disk,,4,19,-5,1,0,0,rectangle,19,-5,1,0,0,19,-5,1,0,0,0,158,158,130,1,,,,,,,,
,,,,,,,,,,,,,FF,,,,,,,,1.6685,,,,,,,,,,,,,,,,,,,,,,61036745d2053b82e13f7eed,61036f60061b4b80f4c7fb38,2021-07-29_22h18.31.964,Simcolourproject_2stim_asymm_v5,2020.2.10,Win32,60,61025ae37ef11b136ea224fe,,,,,,,,,1638,61,-30,1,0,0,response3disk,,5,-3,-1,1,0,0,rectangle,-128,65,1,0,0,-14,6,1,0,0,0,159,159,70,1,,response7disk_3,TRUE,1,1,"[100,83,231,14,143,97,201,188,110,14,141,146,172,276,26,123,160,168,293,110]",1.4681,rectangle
,,,,,,,,,,,,,FF,,,,,,,,0.7836,,,,,,,,,,,,,,,,,,,,,,61036745d2053b82e13f7eed,61036f60061b4b80f4c7fb38,2021-07-29_22h18.31.964,Simcolourproject_2stim_asymm_v5,2020.2.10,Win32,60,61025ae37ef11b136ea224fe,,,,,,,,,341,122,53,1,0,0,response1disk,,6,40,-6,1,0,0,rectangle,40,-6,1,0,0,40,-6,1,0,0,1,0,160,13,1,,,,,,,,
,,,,,,,,,,,,,FF,,,,,,,,0.7843,,,,,,,,,,,,,,,,,,,,,,61036745d2053b82e13f7eed,61036f60061b4b80f4c7fb38,2021-07-29_22h18.31.964,Simcolourproject_2stim_asymm_v5,2020.2.10,Win32,60,61025ae37ef11b136ea224fe,,,,,,,,,1359,47,90,1,0,0,response1disk,,7,12,-8,1,0,0,rectangle,12,-8,1,0,0,12,-8,1,0,0,1,1,161,84,1,,,,,,,,
,,,,,,,,,,,,,FF,,,,,,,,1.5343,,,,,,,,,,,,,,,,,,,,,,61036745d2053b82e13f7eed,61036f60061b4b80f4c7fb38,2021-07-29_22h18.31.964,Simcolourproject_2stim_asymm_v5,2020.2.10,Win32,60,61025ae37ef11b136ea224fe,,,,,,,,,133,138,-54,1,0,0,response3disk,,5,-4,12,1,0,0,rectangle,-4,12,1,0,0,-4,12,1,0,0,1,2,162,87,1,,,,,,,,
,,,,,,,,,,,,,FF,,,,,,,,0.9844,,,,,,,,,,,,,,,,,,,,,,61036745d2053b82e13f7eed,61036f60061b4b80f4c7fb38,2021-07-29_22h18.31.964,Simcolourproject_2stim_asymm_v5,2020.2.10,Win32,60,61025ae37ef11b136ea224fe,,,,,,,,,3507,-67,-99,1,0,0,response5disk,,3,-31,-1,1,0,0,rectangle,-31,-1,1,0,0,-31,-1,1,0,0,1,3,163,55,1,,,,,,,,
,,,,,,,,,,,,,FF,,,,,,,,0.7504,,,,,,,,,,,,,,,,,,,,,,61036745d2053b82e13f7eed,61036f60061b4b80f4c7fb38,2021-07-29_22h18.31.964,Simcolourproject_2stim_asymm_v5,2020.2.10,Win32,60,61025ae37ef11b136ea224fe,,,,,,,,,3005,-57,-105,1,0,0,response5disk,,3,-17,8,1,0,0,rectangle,-17,8,1,0,0,-17,8,1,0,0,1,4,164,131,1,,,,,,,,
,,,,,,,,,,,,,FF,,,,,,,,1.4512,,,,,,,,,,,,,,,,,,,,,,61036745d2053b82e13f7eed,61036f60061b4b80f4c7fb38,2021-07-29_22h18.31.964,Simcolourproject_2stim_asymm_v5,2020.2.10,Win32,60,61025ae37ef11b136ea224fe,,,,,,,,,257,-64,-91,1,0,0,response5disk,,3,-12,3,1,0,0,rectangle,-12,3,1,0,0,-12,3,1,0,0,1,5,165,107,1,,,,,,,,
,,,,,,,,,,,,,FF,,,,,,,,1.6782,,,,,,,,,,,,,,,,,,,,,,61036745d2053b82e13f7eed,61036f60061b4b80f4c7fb38,2021-07-29_22h18.31.964,Simcolourproject_2stim_asymm_v5,2020.2.10,Win32,60,61025ae37ef11b136ea224fe,,,,,,,,,1489,72,-107,1,0,0,response3disk,,4,16,-11,1,0,0,rectangle,16,-11,1,0,0,16,-11,1,0,0,1,6,166,5,1,,,,,,,,
,,,,,,,,,,,,,FF,,,,,,,,0.8342,,,,,,,,,,,,,,,,,,,,,,61036745d2053b82e13f7eed,61036f60061b4b80f4c7fb38,2021-07-29_22h18.31.964,Simcolourproject_2stim_asymm_v5,2020.2.10,Win32,60,61025ae37ef11b136ea224fe,,,,,,,,,3222,118,51,1,0,0,response1disk,,6,9,-17,1,0,0,rectangle,136,43,1,0,0,24,-1,1,0,0,1,7,167,36,1,,response1disk_3,TRUE,6,6,"[100,83,231,14,143,97,201,188,110,14,141,146,172,276,26,123,160,168,293,110]",1.4019,rectangle
,,,,,,,,,,,,,FF,,,,,,,,1.6009,,,,,,,,,,,,,,,,,,,,,,61036745d2053b82e13f7eed,61036f60061b4b80f4c7fb38,2021-07-29_22h18.31.964,Simcolourproject_2stim_asymm_v5,2020.2.10,Win32,60,61025ae37ef11b136ea224fe,,,,,,,,,2609,67,-117,1,0,0,response3disk,,4,-24,0,1,0,0,rectangle,-24,0,1,0,0,-24,0,1,0,0,1,8,168,82,1,,,,,,,,
,,,,,,,,,,,,,FF,,,,,,,,0.8005,,,,,,,,,,,,,,,,,,,,,,61036745d2053b82e13f7eed,61036f60061b4b80f4c7fb38,2021-07-29_22h18.31.964,Simcolourproject_2stim_asymm_v5,2020.2.10,Win32,60,61025ae37ef11b136ea224fe,,,,,,,,,662,67,-127,1,0,0,response3disk,,4,-16,9,1,0,0,rectangle,-16,9,1,0,0,-16,9,1,0,0,1,9,169,3,1,,,,,,,,
,,,,,,,,,,,,,FF,,,,,,,,0.9676,,,,,,,,,,,,,,,,,,,,,,61036745d2053b82e13f7eed,61036f60061b4b80f4c7fb38,2021-07-29_22h18.31.964,Simcolourproject_2stim_asymm_v5,2020.2.10,Win32,60,61025ae37ef11b136ea224fe,,,,,,,,,2137,127,-40,1,0,0,response3disk,,5,2,17,1,0,0,rectangle,2,17,1,0,0,2,17,1,0,0,1,10,170,129,1,,,,,,,,
,,,,,,,,,,,,,FF,,,,,,,,1.1518,,,,,,,,,,,,,,,,,,,,,,61036745d2053b82e13f7eed,61036f60061b4b80f4c7fb38,2021-07-29_22h18.31.964,Simcolourproject_2stim_asymm_v5,2020.2.10,Win32,60,61025ae37ef11b136ea224fe,,,,,,,,,1119,116,51,1,0,0,response1disk,,6,-7,4,1,0,0,rectangle,127,-43,1,0,0,12,-5,1,0,0,1,11,171,151,1,,response3disk_3,TRUE,5,5,"[100,83,231,14,143,97,201,188,110,14,141,146,172,276,26,123,160,168,293,110]",1.5013,rectangle
,,,,,,,,,,,,,FF,,,,,,,,1.0181,,,,,,,,,,,,,,,,,,,,,,61036745d2053b82e13f7eed,61036f60061b4b80f4c7fb38,2021-07-29_22h18.31.964,Simcolourproject_2stim_asymm_v5,2020.2.10,Win32,60,61025ae37ef11b136ea224fe,,,,,,,,,3813,-88,-135,1,0,0,response5disk,,3,-30,8,1,0,0,rectangle,-30,8,1,0,0,-30,8,1,0,0,1,12,172,156,1,,,,,,,,
,,,,,,,,,,,,,FF,,,,,,,,9.5422,,,,,,,,,,,,,,,,,,,,,,61036745d2053b82e13f7eed,61036f60061b4b80f4c7fb38,2021-07-29_22h18.31.964,Simcolourproject_2stim_asymm_v5,2020.2.10,Win32,60,61025ae37ef11b136ea224fe,,,,,,,,,1028,-88,-146,1,0,0,response5disk,,3,-30,-7,1,0,0,rectangle,-30,-7,1,0,0,-30,-7,1,0,0,1,13,173,127,1,,,,,,,,
,,,,,,,,,,,,,FF,,,,,,,,1.5518,,,,,,,,,,,,,,,,,,,,,,61036745d2053b82e13f7eed,61036f60061b4b80f4c7fb38,2021-07-29_22h18.31.964,Simcolourproject_2stim_asymm_v5,2020.2.10,Win32,60,61025ae37ef11b136ea224fe,,,,,,,,,3536,133,-35,1,0,0,response3disk,,5,-4,-1,1,0,0,rectangle,-4,-1,1,0,0,-4,-1,1,0,0,1,14,174,116,1,,,,,,,,
,,,,,,,,,,,,,FF,,,,,,,,0.7832,,,,,,,,,,,,,,,,,,,,,,61036745d2053b82e13f7eed,61036f60061b4b80f4c7fb38,2021-07-29_22h18.31.964,Simcolourproject_2stim_asymm_v5,2020.2.10,Win32,60,61025ae37ef11b136ea224fe,,,,,,,,,1732,151,99,1,0,0,response1disk,,6,-9,-3,1,0,0,rectangle,-9,-3,1,0,0,-9,-3,1,0,0,1,15,175,81,1,,,,,,,,
,,,,,,,,,,,,,FF,,,,,,,,0.7181,,,,,,,,,,,,,,,,,,,,,,61036745d2053b82e13f7eed,61036f60061b4b80f4c7fb38,2021-07-29_22h18.31.964,Simcolourproject_2stim_asymm_v5,2020.2.10,Win32,60,61025ae37ef11b136ea224fe,,,,,,,,,169,-126,-84,1,0,0,response5disk,,2,-28,12,1,0,0,rectangle,-28,12,1,0,0,-28,12,1,0,0,1,16,176,14,1,,,,,,,,
,,,,,,,,,,,,,FF,,,,,,,,0.668,,,,,,,,,,,,,,,,,,,,,,61036745d2053b82e13f7eed,61036f60061b4b80f4c7fb38,2021-07-29_22h18.31.964,Simcolourproject_2stim_asymm_v5,2020.2.10,Win32,60,61025ae37ef11b136ea224fe,,,,,,,,,2998,-135,-42,1,0,0,response5disk,,2,14,-2,1,0,0,rectangle,14,-2,1,0,0,14,-2,1,0,0,1,17,177,39,1,,,,,,,,
,,,,,,,,,,,,,FF,,,,,,,,0.7513,,,,,,,,,,,,,,,,,,,,,,61036745d2053b82e13f7eed,61036f60061b4b80f4c7fb38,2021-07-29_22h18.31.964,Simcolourproject_2stim_asymm_v5,2020.2.10,Win32,60,61025ae37ef11b136ea224fe,,,,,,,,,409,130,-75,1,0,0,response3disk,,5,-23,7,1,0,0,rectangle,-23,7,1,0,0,-23,7,1,0,0,1,18,178,12,1,,,,,,,,
,,,,,,,,,,,,,FF,,,,,,,,0.901,,,,,,,,,,,,,,,,,,,,,,61036745d2053b82e13f7eed,61036f60061b4b80f4c7fb38,2021-07-29_22h18.31.964,Simcolourproject_2stim_asymm_v5,2020.2.10,Win32,60,61025ae37ef11b136ea224fe,,,,,,,,,1922,-72,-98,1,0,0,response5disk,,3,-36,-5,1,0,0,rectangle,-36,-5,1,0,0,-36,-5,1,0,0,1,19,179,62,1,,,,,,,,
,,,,,,,,,,,,,FF,,,,,,,,2.9024,,,,,,,,,,,,,,,,,,,,,,61036745d2053b82e13f7eed,61036f60061b4b80f4c7fb38,2021-07-29_22h18.31.964,Simcolourproject_2stim_asymm_v5,2020.2.10,Win32,60,61025ae37ef11b136ea224fe,,,,,,,,,1472,99,77,1,0,0,response1disk,,6,20,15,1,0,0,rectangle,20,15,1,0,0,20,15,1,0,0,1,20,180,78,1,,,,,,,,
,,,,,,,,,,,,,FF,,,,,,,,0.7338,,,,,,,,,,,,,,,,,,,,,,61036745d2053b82e13f7eed,61036f60061b4b80f4c7fb38,2021-07-29_22h18.31.964,Simcolourproject_2stim_asymm_v5,2020.2.10,Win32,60,61025ae37ef11b136ea224fe,,,,,,,,,3293,-88,-64,1,0,0,response5disk,,2,8,4,1,0,0,rectangle,8,4,1,0,0,8,4,1,0,0,1,21,181,128,1,,,,,,,,
,,,,,,,,,,,,,FF,,,,,,,,1.0173,,,,,,,,,,,,,,,,,,,,,,61036745d2053b82e13f7eed,61036f60061b4b80f4c7fb38,2021-07-29_22h18.31.964,Simcolourproject_2stim_asymm_v5,2020.2.10,Win32,60,61025ae37ef11b136ea224fe,,,,,,,,,4227,-34,-126,1,0,0,response5disk,,3,27,-6,1,0,0,rectangle,27,-6,1,0,0,27,-6,1,0,0,1,22,182,135,1,,,,,,,,
,,,,,,,,,,,,,FF,,,,,,,,0.7347,,,,,,,,,,,,,,,,,,,,,,61036745d2053b82e13f7eed,61036f60061b4b80f4c7fb38,2021-07-29_22h18.31.964,Simcolourproject_2stim_asymm_v5,2020.2.10,Win32,60,61025ae37ef11b136ea224fe,,,,,,,,,3516,-99,-59,1,0,0,response5disk,,2,-28,12,1,0,0,rectangle,-28,12,1,0,0,-28,12,1,0,0,1,23,183,60,1,,,,,,,,
,,,,,,,,,,,,,FF,,,,,,,,0.8507,,,,,,,,,,,,,,,,,,,,,,61036745d2053b82e13f7eed,61036f60061b4b80f4c7fb38,2021-07-29_22h18.31.964,Simcolourproject_2stim_asymm_v5,2020.2.10,Win32,60,61025ae37ef11b136ea224fe,,,,,,,,,4310,133,59,1,0,0,response1disk,,6,33,-7,1,0,0,rectangle,33,-7,1,0,0,33,-7,1,0,0,1,24,184,103,1,,,,,,,,
,,,,,,,,,,,,,FF,,,,,,,,0.8345,,,,,,,,,,,,,,,,,,,,,,61036745d2053b82e13f7eed,61036f60061b4b80f4c7fb38,2021-07-29_22h18.31.964,Simcolourproject_2stim_asymm_v5,2020.2.10,Win32,60,61025ae37ef11b136ea224fe,,,,,,,,,1466,-69,-84,1,0,0,response5disk,,3,-44,9,1,0,0,rectangle,-44,9,1,0,0,-44,9,1,0,0,1,25,185,61,1,,,,,,,,
,,,,,,,,,,,,,FF,,,,,,,,2.0016,,,,,,,,,,,,,,,,,,,,,,61036745d2053b82e13f7eed,61036f60061b4b80f4c7fb38,2021-07-29_22h18.31.964,Simcolourproject_2stim_asymm_v5,2020.2.10,Win32,60,61025ae37ef11b136ea224fe,,,,,,,,,3250,-64,-77,1,0,0,response5disk,,3,-28,-7,1,0,0,rectangle,-28,-7,1,0,0,-28,-7,1,0,0,1,26,186,110,1,,,,,,,,
,,,,,,,,,,,,,FF,,,,,,,,0.7666,,,,,,,,,,,,,,,,,,,,,,61036745d2053b82e13f7eed,61036f60061b4b80f4c7fb38,2021-07-29_22h18.31.964,Simcolourproject_2stim_asymm_v5,2020.2.10,Win32,60,61025ae37ef11b136ea224fe,,,,,,,,,631,-62,-29,1,0,0,response5disk,,2,-20,4,1,0,0,rectangle,-100,-66,1,0,0,-16,6,1,0,0,1,27,187,148,1,,response5disk_3,TRUE,2,2,"[100,83,231,14,143,97,201,188,110,14,141,146,172,276,26,123,160,168,293,110]",2.1011,rectangle
,,,,,,,,,,,,,FF,,,,,,,,0.7345,,,,,,,,,,,,,,,,,,,,,,61036745d2053b82e13f7eed,61036f60061b4b80f4c7fb38,2021-07-29_22h18.31.964,Simcolourproject_2stim_asymm_v5,2020.2.10,Win32,60,61025ae37ef11b136ea224fe,,,,,,,,,3049,-36,-84,1,0,0,response5disk,,3,-2,-3,1,0,0,rectangle,-2,-3,1,0,0,-2,-3,1,0,0,1,28,188,142,1,,,,,,,,
,,,,,,,,,,,,,FF,,,,,,,,0.7504,,,,,,,,,,,,,,,,,,,,,,61036745d2053b82e13f7eed,61036f60061b4b80f4c7fb38,2021-07-29_22h18.31.964,Simcolourproject_2stim_asymm_v5,2020.2.10,Win32,60,61025ae37ef11b136ea224fe,,,,,,,,,2093,-81,113,1,0,0,response7disk,,0,-4,12,1,0,0,rectangle,-4,12,1,0,0,-4,12,1,0,0,1,29,189,90,1,,,,,,,,
,,,,,,,,,,,,,FF,,,,,,,,1.5687,,,,,,,,,,,,,,,,,,,,,,61036745d2053b82e13f7eed,61036f60061b4b80f4c7fb38,2021-07-29_22h18.31.964,Simcolourproject_2stim_asymm_v5,2020.2.10,Win32,60,61025ae37ef11b136ea224fe,,,,,,,,,2163,-58,-72,1,0,0,response5disk,,3,-23,-5,1,0,0,rectangle,-23,-5,1,0,0,-23,-5,1,0,0,1,30,190,106,1,,,,,,,,
,,,,,,,,,,,,,FF,,,,,,,,0.7684,,,,,,,,,,,,,,,,,,,,,,61036745d2053b82e13f7eed,61036f60061b4b80f4c7fb38,2021-07-29_22h18.31.964,Simcolourproject_2stim_asymm_v5,2020.2.10,Win32,60,61025ae37ef11b136ea224fe,,,,,,,,,4195,101,65,1,0,0,response1disk,,6,16,3,1,0,0,rectangle,16,3,1,0,0,16,3,1,0,0,1,31,191,80,1,,,,,,,,
,,,,,,,,,,,,,FF,,,,,,,,0.7339,,,,,,,,,,,,,,,,,,,,,,61036745d2053b82e13f7eed,61036f60061b4b80f4c7fb38,2021-07-29_22h18.31.964,Simcolourproject_2stim_asymm_v5,2020.2.10,Win32,60,61025ae37ef11b136ea224fe,,,,,,,,,4335,-70,127,1,0,0,response7disk,,0,3,1,1,0,0,rectangle,3,1,1,0,0,3,1,1,0,0,1,32,192,76,1,,,,,,,,
,,,,,,,,,,,,,FF,,,,,,,,2.136,,,,,,,,,,,,,,,,,,,,,,61036745d2053b82e13f7eed,61036f60061b4b80f4c7fb38,2021-07-29_22h18.31.964,Simcolourproject_2stim_asymm_v5,2020.2.10,Win32,60,61025ae37ef11b136ea224fe,,,,,,,,,3349,82,40,1,0,0,response1disk,,6,-12,10,1,0,0,rectangle,-12,10,1,0,0,-12,10,1,0,0,1,33,193,130,1,,,,,,,,
,,,,,,,,,,,,,FF,,,,,,,,0.7847,,,,,,,,,,,,,,,,,,,,,,61036745d2053b82e13f7eed,61036f60061b4b80f4c7fb38,2021-07-29_22h18.31.964,Simcolourproject_2stim_asymm_v5,2020.2.10,Win32,60,61025ae37ef11b136ea224fe,,,,,,,,,1807,103,75,1,0,0,response1disk,,6,-6,13,1,0,0,rectangle,-6,13,1,0,0,-6,13,1,0,0,1,34,194,59,1,,,,,,,,
,,,,,,,,,,,,,FF,,,,,,,,0.6835,,,,,,,,,,,,,,,,,,,,,,61036745d2053b82e13f7eed,61036f60061b4b80f4c7fb38,2021-07-29_22h18.31.964,Simcolourproject_2stim_asymm_v5,2020.2.10,Win32,60,61025ae37ef11b136ea224fe,,,,,,,,,296,76,46,1,0,0,response1disk,,6,-14,1,1,0,0,rectangle,-14,1,1,0,0,-14,1,1,0,0,1,35,195,75,1,,,,,,,,
,,,,,,,,,,,,,FF,,,,,,,,0.8516,,,,,,,,,,,,,,,,,,,,,,61036745d2053b82e13f7eed,61036f60061b4b80f4c7fb38,2021-07-29_22h18.31.964,Simcolourproject_2stim_asymm_v5,2020.2.10,Win32,60,61025ae37ef11b136ea224fe,,,,,,,,,708,104,54,1,0,0,response1disk,,6,14,3,1,0,0,rectangle,14,3,1,0,0,14,3,1,0,0,1,36,196,67,1,,,,,,,,
,,,,,,,,,,,,,FF,,,,,,,,0.7676,,,,,,,,,,,,,,,,,,,,,,61036745d2053b82e13f7eed,61036f60061b4b80f4c7fb38,2021-07-29_22h18.31.964,Simcolourproject_2stim_asymm_v5,2020.2.10,Win32,60,61025ae37ef11b136ea224fe,,,,,,,,,203,92,-46,1,0,0,response3disk,,5,-3,14,1,0,0,rectangle,-3,14,1,0,0,-3,14,1,0,0,1,37,197,58,1,,,,,,,,
,,,,,,,,,,,,,FF,,,,,,,,1.6513,,,,,,,,,,,,,,,,,,,,,,61036745d2053b82e13f7eed,61036f60061b4b80f4c7fb38,2021-07-29_22h18.31.964,Simcolourproject_2stim_asymm_v5,2020.2.10,Win32,60,61025ae37ef11b136ea224fe,,,,,,,,,3313,74,124,1,0,0,response1disk,,7,32,2,1,0,0,rectangle,32,2,1,0,0,32,2,1,0,0,1,38,198,124,1,,,,,,,,
,,,,,,,,,,,,,FF,,,,,,,,1.7858,,,,,,,,,,,,,,,,,,,,,,61036745d2053b82e13f7eed,61036f60061b4b80f4c7fb38,2021-07-29_22h18.31.964,Simcolourproject_2stim_asymm_v5,2020.2.10,Win32,60,61025ae37ef11b136ea224fe,,,,,,,,,3924,62,86,1,0,0,response1disk,,7,21,-2,1,0,0,rectangle,21,-2,1,0,0,21,-2,1,0,0,1,39,199,73,1,,,,,,,,
,,,,,,,,,,,,,FF,,,,,,,,0.7008,,,,,,,,,,,,,,,,,,,,,,61036745d2053b82e13f7eed,61036f60061b4b80f4c7fb38,2021-07-29_22h18.31.964,Simcolourproject_2stim_asymm_v5,2020.2.10,Win32,60,61025ae37ef11b136ea224fe,,,,,,,,,2277,118,39,1,0,0,response1disk,,6,20,-11,1,0,0,rectangle,90,-65,1,0,0,36,-6,1,0,0,1,40,200,125,1,,response3disk_3,TRUE,5,5,"[100,83,231,14,143,97,201,188,110,14,141,146,172,276,26,123,160,168,293,110]",1.3844,rectangle
,,,,,,,,,,,,,FF,,,,,,,,5.9554,,,,,,,,,,,,,,,,,,,,,,61036745d2053b82e13f7eed,61036f60061b4b80f4c7fb38,2021-07-29_22h18.31.964,Simcolourproject_2stim_asymm_v5,2020.2.10,Win32,60,61025ae37ef11b136ea224fe,,,,,,,,,900,-81,-165,1,0,0,response5disk,,3,-31,1,1,0,0,rectangle,-31,1,1,0,0,-31,1,1,0,0,1,41,201,49,1,,,,,,,,
,,,,,,,,,,,,,FF,,,,,,,,0.7514,,,,,,,,,,,,,,,,,,,,,,61036745d2053b82e13f7eed,61036f60061b4b80f4c7fb38,2021-07-29_22h18.31.964,Simcolourproject_2stim_asymm_v5,2020.2.10,Win32,60,61025ae37ef11b136ea224fe,,,,,,,,,2416,-64,-95,1,0,0,response5disk,,3,23,-10,1,0,0,rectangle,23,-10,1,0,0,23,-10,1,0,0,1,42,202,122,1,,,,,,,,
,,,,,,,,,,,,,FF,,,,,,,,0.8169,,,,,,,,,,,,,,,,,,,,,,61036745d2053b82e13f7eed,61036f60061b4b80f4c7fb38,2021-07-29_22h18.31.964,Simcolourproject_2stim_asymm_v5,2020.2.10,Win32,60,61025ae37ef11b136ea224fe,,,,,,,,,2308,82,-118,1,0,0,response3disk,,4,43,1,1,0,0,rectangle,43,1,1,0,0,43,1,1,0,0,1,43,203,41,1,,,,,,,,
,,,,,,,,,,,,,FF,,,,,,,,1.4518,,,,,,,,,,,,,,,,,,,,,,61036745d2053b82e13f7eed,61036f60061b4b80f4c7fb38,2021-07-29_22h18.31.964,Simcolourproject_2stim_asymm_v5,2020.2.10,Win32,60,61025ae37ef11b136ea224fe,,,,,,,,,3833,99,96,1,0,0,response1disk,,6,23,-5,1,0,0,rectangle,23,-5,1,0,0,23,-5,1,0,0,1,44,204,133,1,,,,,,,,
,,,,,,,,,,,,,FF,,,,,,,,1.7356,,,,,,,,,,,,,,,,,,,,,,61036745d2053b82e13f7eed,61036f60061b4b80f4c7fb38,2021-07-29_22h18.31.964,Simcolourproject_2stim_asymm_v5,2020.2.10,Win32,60,61025ae37ef11b136ea224fe,,,,,,,,,3634,117,-75,1,0,0,response3disk,,5,-17,9,1,0,0,rectangle,-17,9,1,0,0,-17,9,1,0,0,1,45,205,8,1,,,,,,,,
,,,,,,,,,,,,,FF,,,,,,,,0.8347,,,,,,,,,,,,,,,,,,,,,,61036745d2053b82e13f7eed,61036f60061b4b80f4c7fb38,2021-07-29_22h18.31.964,Simcolourproject_2stim_asymm_v5,2020.2.10,Win32,60,61025ae37ef11b136ea224fe,,,,,,,,,1916,94,-22,1,0,0,response3disk,,5,-5,19,1,0,0,rectangle,-5,19,1,0,0,-5,19,1,0,0,1,46,206,15,1,,,,,,,,
,,,,,,,,,,,,,FF,,,,,,,,1.018,,,,,,,,,,,,,,,,,,,,,,61036745d2053b82e13f7eed,61036f60061b4b80f4c7fb38,2021-07-29_22h18.31.964,Simcolourproject_2stim_asymm_v5,2020.2.10,Win32,60,61025ae37ef11b136ea224fe,,,,,,,,,2834,-25,-110,1,0,0,response5disk,,3,13,-14,1,0,0,rectangle,13,-14,1,0,0,13,-14,1,0,0,1,47,207,123,1,,,,,,,,
,,,,,,,,,,,,,FF,,,,,,,,0.7184,,,,,,,,,,,,,,,,,,,,,,61036745d2053b82e13f7eed,61036f60061b4b80f4c7fb38,2021-07-29_22h18.31.964,Simcolourproject_2stim_asymm_v5,2020.2.10,Win32,60,61025ae37ef11b136ea224fe,,,,,,,,,4281,-76,-41,1,0,0,response5disk,,2,-1,-12,1,0,0,rectangle,-1,-12,1,0,0,-1,-12,1,0,0,1,48,208,47,1,,,,,,,,
,,,,,,,,,,,,,FF,,,,,,,,0.8198,,,,,,,,,,,,,,,,,,,,,,61036745d2053b82e13f7eed,61036f60061b4b80f4c7fb38,2021-07-29_22h18.31.964,Simcolourproject_2stim_asymm_v5,2020.2.10,Win32,60,61025ae37ef11b136ea224fe,,,,,,,,,3288,137,54,1,0,0,response1disk,,6,6,17,1,0,0,rectangle,6,17,1,0,0,6,17,1,0,0,1,49,209,121,1,,,,,,,,
,,,,,,,,,,,,,FF,,,,,,,,1.1521,,,,,,,,,,,,,,,,,,,,,,61036745d2053b82e13f7eed,61036f60061b4b80f4c7fb38,2021-07-29_22h18.31.964,Simcolourproject_2stim_asymm_v5,2020.2.10,Win32,60,61025ae37ef11b136ea224fe,,,,,,,,,2948,-27,-114,1,0,0,response5disk,,3,-6,-16,1,0,0,rectangle,-6,-16,1,0,0,-6,-16,1,0,0,1,50,210,22,1,,,,,,,,
,,,,,,,,,,,,,FF,,,,,,,,0.7842,,,,,,,,,,,,,,,,,,,,,,61036745d2053b82e13f7eed,61036f60061b4b80f4c7fb38,2021-07-29_22h18.31.964,Simcolourproject_2stim_asymm_v5,2020.2.10,Win32,60,61025ae37ef11b136ea224fe,,,,,,,,,2173,-52,-101,1,0,0,response5disk,,3,11,0,1,0,0,rectangle,11,0,1,0,0,11,0,1,0,0,1,51,211,111,1,,,,,,,,
,,,,,,,,,,,,,FF,,,,,,,,0.9172,,,,,,,,,,,,,,,,,,,,,,61036745d2053b82e13f7eed,61036f60061b4b80f4c7fb38,2021-07-29_22h18.31.964,Simcolourproject_2stim_asymm_v5,2020.2.10,Win32,60,61025ae37ef11b136ea224fe,,,,,,,,,4156,69,-29,1,0,0,response3disk,,5,27,-10,1,0,0,rectangle,27,-10,1,0,0,27,-10,1,0,0,1,52,212,88,1,,,,,,,,
,,,,,,,,,,,,,FF,,,,,,,,0.7839,,,,,,,,,,,,,,,,,,,,,,61036745d2053b82e13f7eed,61036f60061b4b80f4c7fb38,2021-07-29_22h18.31.964,Simcolourproject_2stim_asymm_v5,2020.2.10,Win32,60,61025ae37ef11b136ea224fe,,,,,,,,,4257,53,108,1,0,0,response1disk,,7,5,15,1,0,0,rectangle,5,15,1,0,0,5,15,1,0,0,1,53,213,93,1,,,,,,,,
,,,,,,,,,,,,,FF,,,,,,,,1.7021,,,,,,,,,,,,,,,,,,,,,,61036745d2053b82e13f7eed,61036f60061b4b80f4c7fb38,2021-07-29_22h18.31.964,Simcolourproject_2stim_asymm_v5,2020.2.10,Win32,60,61025ae37ef11b136ea224fe,,,,,,,,,2879,125,-49,1,0,0,response3disk,,5,-26,11,1,0,0,rectangle,-26,11,1,0,0,-26,11,1,0,0,1,54,214,70,1,,,,,,,,
,,,,,,,,,,,,,FF,,,,,,,,0.8511,,,,,,,,,,,,,,,,,,,,,,61036745d2053b82e13f7eed,61036f60061b4b80f4c7fb38,2021-07-29_22h18.31.964,Simcolourproject_2stim_asymm_v5,2020.2.10,Win32,60,61025ae37ef11b136ea224fe,,,,,,,,,1046,96,45,1,0,0,response1disk,,6,2,-1,1,0,0,rectangle,2,-1,1,0,0,2,-1,1,0,0,1,55,215,69,1,,,,,,,,
,,,,,,,,,,,,,FF,,,,,,,,1.251,,,,,,,,,,,,,,,,,,,,,,61036745d2053b82e13f7eed,61036f60061b4b80f4c7fb38,2021-07-29_22h18.31.964,Simcolourproject_2stim_asymm_v5,2020.2.10,Win32,60,61025ae37ef11b136ea224fe,,,,,,,,,747,136,-86,1,0,0,response3disk,,5,13,5,1,0,0,rectangle,13,5,1,0,0,13,5,1,0,0,1,56,216,42,1,,,,,,,,
,,,,,,,,,,,,,FF,,,,,,,,1.2013,,,,,,,,,,,,,,,,,,,,,,61036745d2053b82e13f7eed,61036f60061b4b80f4c7fb38,2021-07-29_22h18.31.964,Simcolourproject_2stim_asymm_v5,2020.2.10,Win32,60,61025ae37ef11b136ea224fe,,,,,,,,,1490,136,56,1,0,0,response1disk,,6,26,-1,1,0,0,rectangle,26,-1,1,0,0,26,-1,1,0,0,1,57,217,141,1,,,,,,,,
,,,,,,,,,,,,,FF,,,,,,,,1.0679,,,,,,,,,,,,,,,,,,,,,,61036745d2053b82e13f7eed,61036f60061b4b80f4c7fb38,2021-07-29_22h18.31.964,Simcolourproject_2stim_asymm_v5,2020.2.10,Win32,60,61025ae37ef11b136ea224fe,,,,,,,,,737,-32,-112,1,0,0,response5disk,,3,-1,-10,1,0,0,rectangle,-1,-10,1,0,0,-1,-10,1,0,0,1,58,218,24,1,,,,,,,,
,,,,,,,,,,,,,FF,,,,,,,,1.4179,,,,,,,,,,,,,,,,,,,,,,61036745d2053b82e13f7eed,61036f60061b4b80f4c7fb38,2021-07-29_22h18.31.964,Simcolourproject_2stim_asymm_v5,2020.2.10,Win32,60,61025ae37ef11b136ea224fe,,,,,,,,,1483,121,42,1,0,0,response1disk,,6,5,-4,1,0,0,rectangle,5,-4,1,0,0,5,-4,1,0,0,1,59,219,25,1,,,,,,,,
,,,,,,,,,,,,,FF,,,,,,,,1.2009,,,,,,,,,,,,,,,,,,,,,,61036745d2053b82e13f7eed,61036f60061b4b80f4c7fb38,2021-07-29_22h18.31.964,Simcolourproject_2stim_asymm_v5,2020.2.10,Win32,60,61025ae37ef11b136ea224fe,,,,,,,,,2023,62,86,1,0,0,response1disk,,7,9,-6,1,0,0,rectangle,9,-6,1,0,0,9,-6,1,0,0,1,60,220,112,1,,,,,,,,
,,,,,,,,,,,,,FF,,,,,,,,1.5349,,,,,,,,,,,,,,,,,,,,,,61036745d2053b82e13f7eed,61036f60061b4b80f4c7fb38,2021-07-29_22h18.31.964,Simcolourproject_2stim_asymm_v5,2020.2.10,Win32,60,61025ae37ef11b136ea224fe,,,,,,,,,1244,126,-88,1,0,0,response3disk,,5,-16,3,1,0,0,rectangle,-16,3,1,0,0,-16,3,1,0,0,1,61,221,83,1,,,,,,,,
,,,,,,,,,,,,,FF,,,,,,,,0.9504,,,,,,,,,,,,,,,,,,,,,,61036745d2053b82e13f7eed,61036f60061b4b80f4c7fb38,2021-07-29_22h18.31.964,Simcolourproject_2stim_asymm_v5,2020.2.10,Win32,60,61025ae37ef11b136ea224fe,,,,,,,,,429,-40,-86,1,0,0,response5disk,,3,-10,-3,1,0,0,rectangle,-10,-3,1,0,0,-10,-3,1,0,0,1,62,222,145,1,,,,,,,,
,,,,,,,,,,,,,FF,,,,,,,,1.1506,,,,,,,,,,,,,,,,,,,,,,61036745d2053b82e13f7eed,61036f60061b4b80f4c7fb38,2021-07-29_22h18.31.964,Simcolourproject_2stim_asymm_v5,2020.2.10,Win32,60,61025ae37ef11b136ea224fe,,,,,,,,,2678,124,-48,1,0,0,response3disk,,5,-11,11,1,0,0,rectangle,-11,11,1,0,0,-11,11,1,0,0,1,63,223,44,1,,,,,,,,
,,,,,,,,,,,,,FF,,,,,,,,0.7498,,,,,,,,,,,,,,,,,,,,,,61036745d2053b82e13f7eed,61036f60061b4b80f4c7fb38,2021-07-29_22h18.31.964,Simcolourproject_2stim_asymm_v5,2020.2.10,Win32,60,61025ae37ef11b136ea224fe,,,,,,,,,2040,-69,-55,1,0,0,response5disk,,2,-1,15,1,0,0,rectangle,-1,15,1,0,0,-1,15,1,0,0,1,64,224,157,1,,,,,,,,
,,,,,,,,,,,,,FF,,,,,,,,0.6836,,,,,,,,,,,,,,,,,,,,,,61036745d2053b82e13f7eed,61036f60061b4b80f4c7fb38,2021-07-29_22h18.31.964,Simcolourproject_2stim_asymm_v5,2020.2.10,Win32,60,61025ae37ef11b136ea224fe,,,,,,,,,2743,131,-73,1,0,0,response3disk,,5,42,-1,1,0,0,rectangle,42,-1,1,0,0,42,-1,1,0,0,1,65,225,155,1,,,,,,,,
,,,,,,,,,,,,,FF,,,,,,,,0.9018,,,,,,,,,,,,,,,,,,,,,,61036745d2053b82e13f7eed,61036f60061b4b80f4c7fb38,2021-07-29_22h18.31.964,Simcolourproject_2stim_asymm_v5,2020.2.10,Win32,60,61025ae37ef11b136ea224fe,,,,,,,,,3401,75,124,1,0,0,response1disk,,7,13,9,1,0,0,rectangle,13,9,1,0,0,13,9,1,0,0,1,66,226,150,1,,,,,,,,
,,,,,,,,,,,,,FF,,,,,,,,1.4184,,,,,,,,,,,,,,,,,,,,,,61036745d2053b82e13f7eed,61036f60061b4b80f4c7fb38,2021-07-29_22h18.31.964,Simcolourproject_2stim_asymm_v5,2020.2.10,Win32,60,61025ae37ef11b136ea224fe,,,,,,,,,3868,137,28,1,0,0,response1disk,,6,28,-9,1,0,0,rectangle,28,-9,1,0,0,28,-9,1,0,0,1,67,227,86,1,,,,,,,,
,,,,,,,,,,,,,FF,,,,,,,,0.7843,,,,,,,,,,,,,,,,,,,,,,61036745d2053b82e13f7eed,61036f60061b4b80f4c7fb38,2021-07-29_22h18.31.964,Simcolourproject_2stim_asymm_v5,2020.2.10,Win32,60,61025ae37ef11b136ea224fe,,,,,,,,,717,-56,103,1,0,0,response7disk,,0,-3,-16,1,0,0,rectangle,-3,-16,1,0,0,-3,-16,1,0,0,1,68,228,136,1,,,,,,,,
,,,,,,,,,,,,,FF,,,,,,,,1.051,,,,,,,,,,,,,,,,,,,,,,61036745d2053b82e13f7eed,61036f60061b4b80f4c7fb38,2021-07-29_22h18.31.964,Simcolourproject_2stim_asymm_v5,2020.2.10,Win32,60,61025ae37ef11b136ea224fe,,,,,,,,,2722,-61,-85,1,0,0,response5disk,,3,-16,-8,1,0,0,rectangle,-16,-8,1,0,0,-16,-8,1,0,0,1,69,229,30,1,,,,,,,,
,,,,,,,,,,,,,FF,,,,,,,,5.7228,,,,,,,,,,,,,,,,,,,,,,61036745d2053b82e13f7eed,61036f60061b4b80f4c7fb38,2021-07-29_22h18.31.964,Simcolourproject_2stim_asymm_v5,2020.2.10,Win32,60,61025ae37ef11b136ea224fe,,,,,,,,,2686,72,-36,1,0,0,response3disk,,5,-12,2,1,0,0,rectangle,155,-54,1,0,0,27,0,1,0,0,1,70,230,97,1,,response3disk_3,TRUE,5,5,"[100,83,231,14,143,97,201,188,110,14,141,146,172,276,26,123,160,168,293,110]",1.3339,rectangle
,,,,,,,,,,,,,FF,,,,,,,,0.9178,,,,,,,,,,,,,,,,,,,,,,61036745d2053b82e13f7eed,61036f60061b4b80f4c7fb38,2021-07-29_22h18.31.964,Simcolourproject_2stim_asymm_v5,2020.2.10,Win32,60,61025ae37ef11b136ea224fe,,,,,,,,,1954,91,44,1,0,0,response1disk,,6,3,-1,1,0,0,rectangle,3,-1,1,0,0,3,-1,1,0,0,1,71,231,9,1,,,,,,,,
,,,,,,,,,,,,,FF,,,,,,,,0.717,,,,,,,,,,,,,,,,,,,,,,61036745d2053b82e13f7eed,61036f60061b4b80f4c7fb38,2021-07-29_22h18.31.964,Simcolourproject_2stim_asymm_v5,2020.2.10,Win32,60,61025ae37ef11b136ea224fe,,,,,,,,,1881,84,57,1,0,0,response1disk,,6,-24,4,1,0,0,rectangle,-24,4,1,0,0,-24,4,1,0,0,1,72,232,120,1,,,,,,,,
,,,,,,,,,,,,,FF,,,,,,,,0.7366,,,,,,,,,,,,,,,,,,,,,,61036745d2053b82e13f7eed,61036f60061b4b80f4c7fb38,2021-07-29_22h18.31.964,Simcolourproject_2stim_asymm_v5,2020.2.10,Win32,60,61025ae37ef11b136ea224fe,,,,,,,,,154,85,107,1,0,0,response1disk,,7,1,-1,1,0,0,rectangle,1,-1,1,0,0,1,-1,1,0,0,1,73,233,64,1,,,,,,,,
,,,,,,,,,,,,,FF,,,,,,,,0.9845,,,,,,,,,,,,,,,,,,,,,,61036745d2053b82e13f7eed,61036f60061b4b80f4c7fb38,2021-07-29_22h18.31.964,Simcolourproject_2stim_asymm_v5,2020.2.10,Win32,60,61025ae37ef11b136ea224fe,,,,,,,,,3350,52,-99,1,0,0,response3disk,,4,22,-3,1,0,0,rectangle,22,-3,1,0,0,22,-3,1,0,0,1,74,234,144,1,,,,,,,,
,,,,,,,,,,,,,FF,,,,,,,,0.7008,,,,,,,,,,,,,,,,,,,,,,61036745d2053b82e13f7eed,61036f60061b4b80f4c7fb38,2021-07-29_22h18.31.964,Simcolourproject_2stim_asymm_v5,2020.2.10,Win32,60,61025ae37ef11b136ea224fe,,,,,,,,,2912,99,64,1,0,0,response1disk,,6,20,7,1,0,0,rectangle,20,7,1,0,0,20,7,1,0,0,1,75,235,117,1,,,,,,,,
,,,,,,,,,,,,,FF,,,,,,,,1.1685,,,,,,,,,,,,,,,,,,,,,,61036745d2053b82e13f7eed,61036f60061b4b80f4c7fb38,2021-07-29_22h18.31.964,Simcolourproject_2stim_asymm_v5,2020.2.10,Win32,60,61025ae37ef11b136ea224fe,,,,,,,,,1376,85,-50,1,0,0,response3disk,,5,13,5,1,0,0,rectangle,13,5,1,0,0,13,5,1,0,0,1,76,236,91,1,,,,,,,,
,,,,,,,,,,,,,FF,,,,,,,,0.55,,,,,,,,,,,,,,,,,,,,,,61036745d2053b82e13f7eed,61036f60061b4b80f4c7fb38,2021-07-29_22h18.31.964,Simcolourproject_2stim_asymm_v5,2020.2.10,Win32,60,61025ae37ef11b136ea224fe,,,,,,,,,1008,112,-57,1,0,0,response3disk,,5,-20,0,1,0,0,rectangle,-20,0,1,0,0,-20,0,1,0,0,1,77,237,143,1,,,,,,,,
,,,,,,,,,,,,,FF,,,,,,,,3.0533,,,,,,,,,,,,,,,,,,,,,,61036745d2053b82e13f7eed,61036f60061b4b80f4c7fb38,2021-07-29_22h18.31.964,Simcolourproject_2stim_asymm_v5,2020.2.10,Win32,60,61025ae37ef11b136ea224fe,,,,,,,,,285,-83,-135,1,0,0,response5disk,,3,-7,-1,1,0,0,rectangle,-7,-1,1,0,0,-7,-1,1,0,0,1,78,238,79,1,,,,,,,,
,,,,,,,,,,,,,FF,,,,,,,,1.8681,,,,,,,,,,,,,,,,,,,,,,61036745d2053b82e13f7eed,61036f60061b4b80f4c7fb38,2021-07-29_22h18.31.964,Simcolourproject_2stim_asymm_v5,2020.2.10,Win32,60,61025ae37ef11b136ea224fe,,,,,,,,,3426,-108,103,1,0,0,response7disk,,1,-6,6,1,0,0,rectangle,-6,6,1,0,0,-6,6,1,0,0,1,79,239,54,1,,,,,,,,
,,,,,,,,,,,,,FF,,,,,,,,2.0687,,,,,,,,,,,,,,,,,,,,,,61036745d2053b82e13f7eed,61036f60061b4b80f4c7fb38,2021-07-29_22h18.31.964,Simcolourproject_2stim_asymm_v5,2020.2.10,Win32,60,61025ae37ef11b136ea224fe,,,,,,,,,3089,80,-33,1,0,0,response3disk,,5,-4,13,1,0,0,rectangle,-4,13,1,0,0,-4,13,1,0,0,1,80,240,46,1,,,,,,,,
,,,,,,,,,,,,,FF,,,,,,,,1.1841,,,,,,,,,,,,,,,,,,,,,,61036745d2053b82e13f7eed,61036f60061b4b80f4c7fb38,2021-07-29_22h18.31.964,Simcolourproject_2stim_asymm_v5,2020.2.10,Win32,60,61025ae37ef11b136ea224fe,,,,,,,,,1461,-149,-64,1,0,0,response5disk,,2,34,-2,1,0,0,rectangle,34,-2,1,0,0,34,-2,1,0,0,1,81,241,98,1,,,,,,,,
,,,,,,,,,,,,,FF,,,,,,,,1.6189,,,,,,,,,,,,,,,,,,,,,,61036745d2053b82e13f7eed,61036f60061b4b80f4c7fb38,2021-07-29_22h18.31.964,Simcolourproject_2stim_asymm_v5,2020.2.10,Win32,60,61025ae37ef11b136ea224fe,,,,,,,,,1214,54,-114,1,0,0,response3disk,,4,28,-17,1,0,0,rectangle,28,-17,1,0,0,28,-17,1,0,0,1,82,242,159,1,,,,,,,,
,,,,,,,,,,,,,FF,,,,,,,,2.0349,,,,,,,,,,,,,,,,,,,,,,61036745d2053b82e13f7eed,61036f60061b4b80f4c7fb38,2021-07-29_22h18.31.964,Simcolourproject_2stim_asymm_v5,2020.2.10,Win32,60,61025ae37ef11b136ea224fe,,,,,,,,,1842,104,-62,1,0,0,response3disk,,5,-27,13,1,0,0,rectangle,-27,13,1,0,0,-27,13,1,0,0,1,83,243,66,1,,,,,,,,
,,,,,,,,,,,,,FF,,,,,,,,0.7672,,,,,,,,,,,,,,,,,,,,,,61036745d2053b82e13f7eed,61036f60061b4b80f4c7fb38,2021-07-29_22h18.31.964,Simcolourproject_2stim_asymm_v5,2020.2.10,Win32,60,61025ae37ef11b136ea224fe,,,,,,,,,3589,112,61,1,0,0,response1disk,,6,17,3,1,0,0,rectangle,17,3,1,0,0,17,3,1,0,0,1,84,244,56,1,,,,,,,,
,,,,,,,,,,,,,FF,,,,,,,,0.6677,,,,,,,,,,,,,,,,,,,,,,61036745d2053b82e13f7eed,61036f60061b4b80f4c7fb38,2021-07-29_22h18.31.964,Simcolourproject_2stim_asymm_v5,2020.2.10,Win32,60,61025ae37ef11b136ea224fe,,,,,,,,,2730,72,57,1,0,0,response1disk,,6,10,-11,1,0,0,rectangle,10,-11,1,0,0,10,-11,1,0,0,1,85,245,101,1,,,,,,,,
,,,,,,,,,,,,,FF,,,,,,,,3.1035,,,,,,,,,,,,,,,,,,,,,,61036745d2053b82e13f7eed,61036f60061b4b80f4c7fb38,2021-07-29_22h18.31.964,Simcolourproject_2stim_asymm_v5,2020.2.10,Win32,60,61025ae37ef11b136ea224fe,,,,,,,,,4137,46,91,1,0,0,response1disk,,7,-10,0,1,0,0,rectangle,-10,0,1,0,0,-10,0,1,0,0,1,86,246,104,1,,,,,,,,
,,,,,,,,,,,,,FF,,,,,,,,0.7332,,,,,,,,,,,,,,,,,,,,,,61036745d2053b82e13f7eed,61036f60061b4b80f4c7fb38,2021-07-29_22h18.31.964,Simcolourproject_2stim_asymm_v5,2020.2.10,Win32,60,61025ae37ef11b136ea224fe,,,,,,,,,4216,47,96,1,0,0,response1disk,,7,0,0,1,0,0,rectangle,0,0,1,0,0,0,0,1,0,0,1,87,247,32,1,,,,,,,,
,,,,,,,,,,,,,FF,,,,,,,,0.8837,,,,,,,,,,,,,,,,,,,,,,61036745d2053b82e13f7eed,61036f60061b4b80f4c7fb38,2021-07-29_22h18.31.964,Simcolourproject_2stim_asymm_v5,2020.2.10,Win32,60,61025ae37ef11b136ea224fe,,,,,,,,,1846,85,-49,1,0,0,response3disk,,5,22,-15,1,0,0,rectangle,22,-15,1,0,0,22,-15,1,0,0,1,88,248,11,1,,,,,,,,
,,,,,,,,,,,,,FF,,,,,,,,1.0514,,,,,,,,,,,,,,,,,,,,,,61036745d2053b82e13f7eed,61036f60061b4b80f4c7fb38,2021-07-29_22h18.31.964,Simcolourproject_2stim_asymm_v5,2020.2.10,Win32,60,61025ae37ef11b136ea224fe,,,,,,,,,530,70,-131,1,0,0,response3disk,,4,7,0,1,0,0,rectangle,7,0,1,0,0,7,0,1,0,0,1,89,249,132,1,,,,,,,,
,,,,,,,,,,,,,FF,,,,,,,,2.4854,,,,,,,,,,,,,,,,,,,,,,61036745d2053b82e13f7eed,61036f60061b4b80f4c7fb38,2021-07-29_22h18.31.964,Simcolourproject_2stim_asymm_v5,2020.2.10,Win32,60,61025ae37ef11b136ea224fe,,,,,,,,,3212,77,-33,1,0,0,response3disk,,5,-27,-8,1,0,0,rectangle,-27,-8,1,0,0,-27,-8,1,0,0,1,90,250,26,1,,,,,,,,
,,,,,,,,,,,,,FF,,,,,,,,0.8169,,,,,,,,,,,,,,,,,,,,,,61036745d2053b82e13f7eed,61036f60061b4b80f4c7fb38,2021-07-29_22h18.31.964,Simcolourproject_2stim_asymm_v5,2020.2.10,Win32,60,61025ae37ef11b136ea224fe,,,,,,,,,742,117,47,1,0,0,response1disk,,6,27,-20,1,0,0,rectangle,27,-20,1,0,0,27,-20,1,0,0,1,91,251,18,1,,,,,,,,
,,,,,,,,,,,,,FF,,,,,,,,0.784,,,,,,,,,,,,,,,,,,,,,,61036745d2053b82e13f7eed,61036f60061b4b80f4c7fb38,2021-07-29_22h18.31.964,Simcolourproject_2stim_asymm_v5,2020.2.10,Win32,60,61025ae37ef11b136ea224fe,,,,,,,,,763,105,57,1,0,0,response1disk,,6,24,-5,1,0,0,rectangle,24,-5,1,0,0,24,-5,1,0,0,1,92,252,10,1,,,,,,,,
,,,,,,,,,,,,,FF,,,,,,,,1.051,,,,,,,,,,,,,,,,,,,,,,61036745d2053b82e13f7eed,61036f60061b4b80f4c7fb38,2021-07-29_22h18.31.964,Simcolourproject_2stim_asymm_v5,2020.2.10,Win32,60,61025ae37ef11b136ea224fe,,,,,,,,,2839,55,-119,1,0,0,response3disk,,4,-23,-10,1,0,0,rectangle,-23,-10,1,0,0,-23,-10,1,0,0,1,93,253,77,1,,,,,,,,
,,,,,,,,,,,,,FF,,,,,,,,0.8673,,,,,,,,,,,,,,,,,,,,,,61036745d2053b82e13f7eed,61036f60061b4b80f4c7fb38,2021-07-29_22h18.31.964,Simcolourproject_2stim_asymm_v5,2020.2.10,Win32,60,61025ae37ef11b136ea224fe,,,,,,,,,748,103,-48,1,0,0,response3disk,,5,-11,-2,1,0,0,rectangle,-11,-2,1,0,0,-11,-2,1,0,0,1,94,254,7,1,,,,,,,,
,,,,,,,,,,,,,FF,,,,,,,,1.7193,,,,,,,,,,,,,,,,,,,,,,61036745d2053b82e13f7eed,61036f60061b4b80f4c7fb38,2021-07-29_22h18.31.964,Simcolourproject_2stim_asymm_v5,2020.2.10,Win32,60,61025ae37ef11b136ea224fe,,,,,,,,,493,75,118,1,0,0,response1disk,,7,29,4,1,0,0,rectangle,29,4,1,0,0,29,4,1,0,0,1,95,255,2,1,,,,,,,,
,,,,,,,,,,,,,FF,,,,,,,,1.2175,,,,,,,,,,,,,,,,,,,,,,61036745d2053b82e13f7eed,61036f60061b4b80f4c7fb38,2021-07-29_22h18.31.964,Simcolourproject_2stim_asymm_v5,2020.2.10,Win32,60,61025ae37ef11b136ea224fe,,,,,,,,,1898,-34,-134,1,0,0,response5disk,,3,-19,1,1,0,0,rectangle,-19,1,1,0,0,-19,1,1,0,0,1,96,256,51,1,,,,,,,,
,,,,,,,,,,,,,FF,,,,,,,,1.067,,,,,,,,,,,,,,,,,,,,,,61036745d2053b82e13f7eed,61036f60061b4b80f4c7fb38,2021-07-29_22h18.31.964,Simcolourproject_2stim_asymm_v5,2020.2.10,Win32,60,61025ae37ef11b136ea224fe,,,,,,,,,2162,106,78,1,0,0,response1disk,,6,11,-6,1,0,0,rectangle,11,-6,1,0,0,11,-6,1,0,0,1,97,257,94,1,,,,,,,,
,,,,,,,,,,,,,FF,,,,,,,,0.7507,,,,,,,,,,,,,,,,,,,,,,61036745d2053b82e13f7eed,61036f60061b4b80f4c7fb38,2021-07-29_22h18.31.964,Simcolourproject_2stim_asymm_v5,2020.2.10,Win32,60,61025ae37ef11b136ea224fe,,,,,,,,,3864,115,-46,1,0,0,response3disk,,5,-13,-2,1,0,0,rectangle,-13,-2,1,0,0,-13,-2,1,0,0,1,98,258,114,1,,,,,,,,
,,,,,,,,,,,,,FF,,,,,,,,0.9341,,,,,,,,,,,,,,,,,,,,,,61036745d2053b82e13f7eed,61036f60061b4b80f4c7fb38,2021-07-29_22h18.31.964,Simcolourproject_2stim_asymm_v5,2020.2.10,Win32,60,61025ae37ef11b136ea224fe,,,,,,,,,1961,-68,-129,1,0,0,response5disk,,3,-24,12,1,0,0,rectangle,-24,12,1,0,0,-24,12,1,0,0,1,99,259,99,1,,,,,,,,
,,,,,,,,,,,,,FF,,,,,,,,1.0674,,,,,,,,,,,,,,,,,,,,,,61036745d2053b82e13f7eed,61036f60061b4b80f4c7fb38,2021-07-29_22h18.31.964,Simcolourproject_2stim_asymm_v5,2020.2.10,Win32,60,61025ae37ef11b136ea224fe,,,,,,,,,2885,72,99,1,0,0,response1disk,,7,25,-15,1,0,0,rectangle,25,-15,1,0,0,25,-15,1,0,0,1,100,260,118,1,,,,,,,,
,,,,,,,,,,,,,FF,,,,,,,,0.7668,,,,,,,,,,,,,,,,,,,,,,61036745d2053b82e13f7eed,61036f60061b4b80f4c7fb38,2021-07-29_22h18.31.964,Simcolourproject_2stim_asymm_v5,2020.2.10,Win32,60,61025ae37ef11b136ea224fe,,,,,,,,,959,43,134,1,0,0,response1disk,,7,19,11,1,0,0,rectangle,19,11,1,0,0,19,11,1,0,0,1,101,261,33,1,,,,,,,,
,,,,,,,,,,,,,FF,,,,,,,,2.0187,,,,,,,,,,,,,,,,,,,,,,61036745d2053b82e13f7eed,61036f60061b4b80f4c7fb38,2021-07-29_22h18.31.964,Simcolourproject_2stim_asymm_v5,2020.2.10,Win32,60,61025ae37ef11b136ea224fe,,,,,,,,,4250,115,69,1,0,0,response1disk,,6,0,-12,1,0,0,rectangle,0,-12,1,0,0,0,-12,1,0,0,1,102,262,139,1,,,,,,,,
,,,,,,,,,,,,,FF,,,,,,,,0.9177,,,,,,,,,,,,,,,,,,,,,,61036745d2053b82e13f7eed,61036f60061b4b80f4c7fb38,2021-07-29_22h18.31.964,Simcolourproject_2stim_asymm_v5,2020.2.10,Win32,60,61025ae37ef11b136ea224fe,,,,,,,,,3330,-71,-113,1,0,0,response5disk,,3,-5,4,1,0,0,rectangle,-5,4,1,0,0,-5,4,1,0,0,1,103,263,37,1,,,,,,,,
,,,,,,,,,,,,,FF,,,,,,,,5.6223,,,,,,,,,,,,,,,,,,,,,,61036745d2053b82e13f7eed,61036f60061b4b80f4c7fb38,2021-07-29_22h18.31.964,Simcolourproject_2stim_asymm_v5,2020.2.10,Win32,60,61025ae37ef11b136ea224fe,,,,,,,,,865,22,-109,1,0,0,response3disk,,4,-11,16,1,0,0,rectangle,-11,16,1,0,0,-11,16,1,0,0,1,104,264,134,1,,,,,,,,
,,,,,,,,,,,,,FF,,,,,,,,1.502,,,,,,,,,,,,,,,,,,,,,,61036745d2053b82e13f7eed,61036f60061b4b80f4c7fb38,2021-07-29_22h18.31.964,Simcolourproject_2stim_asymm_v5,2020.2.10,Win32,60,61025ae37ef11b136ea224fe,,,,,,,,,1229,-76,-140,1,0,0,response5disk,,3,-2,15,1,0,0,rectangle,-2,15,1,0,0,-2,15,1,0,0,1,105,265,29,1,,,,,,,,
,,,,,,,,,,,,,FF,,,,,,,,0.7343,,,,,,,,,,,,,,,,,,,,,,61036745d2053b82e13f7eed,61036f60061b4b80f4c7fb38,2021-07-29_22h18.31.964,Simcolourproject_2stim_asymm_v5,2020.2.10,Win32,60,61025ae37ef11b136ea224fe,,,,,,,,,2222,62,-45,1,0,0,response3disk,,5,-1,-14,1,0,0,rectangle,-1,-14,1,0,0,-1,-14,1,0,0,1,106,266,89,1,,,,,,,,
,,,,,,,,,,,,,FF,,,,,,,,0.65,,,,,,,,,,,,,,,,,,,,,,61036745d2053b82e13f7eed,61036f60061b4b80f4c7fb38,2021-07-29_22h18.31.964,Simcolourproject_2stim_asymm_v5,2020.2.10,Win32,60,61025ae37ef11b136ea224fe,,,,,,,,,313,78,41,1,0,0,response1disk,,6,16,0,1,0,0,rectangle,16,0,1,0,0,16,0,1,0,0,1,107,267,96,1,,,,,,,,
,,,,,,,,,,,,,FF,,,,,,,,0.8675,,,,,,,,,,,,,,,,,,,,,,61036745d2053b82e13f7eed,61036f60061b4b80f4c7fb38,2021-07-29_22h18.31.964,Simcolourproject_2stim_asymm_v5,2020.2.10,Win32,60,61025ae37ef11b136ea224fe,,,,,,,,,406,41,99,1,0,0,response1disk,,7,14,13,1,0,0,rectangle,14,13,1,0,0,14,13,1,0,0,1,108,268,95,1,,,,,,,,
,,,,,,,,,,,,,FF,,,,,,,,0.835,,,,,,,,,,,,,,,,,,,,,,61036745d2053b82e13f7eed,61036f60061b4b80f4c7fb38,2021-07-29_22h18.31.964,Simcolourproject_2stim_asymm_v5,2020.2.10,Win32,60,61025ae37ef11b136ea224fe,,,,,,,,,3562,-68,-104,1,0,0,response5disk,,3,-33,-6,1,0,0,rectangle,-33,-6,1,0,0,-33,-6,1,0,0,1,109,269,40,1,,,,,,,,
,,,,,,,,,,,,,FF,,,,,,,,0.7507,,,,,,,,,,,,,,,,,,,,,,61036745d2053b82e13f7eed,61036f60061b4b80f4c7fb38,2021-07-29_22h18.31.964,Simcolourproject_2stim_asymm_v5,2020.2.10,Win32,60,61025ae37ef11b136ea224fe,,,,,,,,,2633,160,86,1,0,0,response1disk,,6,-8,11,1,0,0,rectangle,-8,11,1,0,0,-8,11,1,0,0,1,110,270,28,1,,,,,,,,
,,,,,,,,,,,,,FF,,,,,,,,0.7512,,,,,,,,,,,,,,,,,,,,,,61036745d2053b82e13f7eed,61036f60061b4b80f4c7fb38,2021-07-29_22h18.31.964,Simcolourproject_2stim_asymm_v5,2020.2.10,Win32,60,61025ae37ef11b136ea224fe,,,,,,,,,2711,89,62,1,0,0,response1disk,,6,25,7,1,0,0,rectangle,25,7,1,0,0,25,7,1,0,0,1,111,271,31,1,,,,,,,,
,,,,,,,,,,,,,FF,,,,,,,,1.3849,,,,,,,,,,,,,,,,,,,,,,61036745d2053b82e13f7eed,61036f60061b4b80f4c7fb38,2021-07-29_22h18.31.964,Simcolourproject_2stim_asymm_v5,2020.2.10,Win32,60,61025ae37ef11b136ea224fe,,,,,,,,,1977,49,-98,1,0,0,response3disk,,4,-19,4,1,0,0,rectangle,-19,4,1,0,0,-19,4,1,0,0,1,112,272,23,1,,,,,,,,
,,,,,,,,,,,,,FF,,,,,,,,0.8007,,,,,,,,,,,,,,,,,,,,,,61036745d2053b82e13f7eed,61036f60061b4b80f4c7fb38,2021-07-29_22h18.31.964,Simcolourproject_2stim_asymm_v5,2020.2.10,Win32,60,61025ae37ef11b136ea224fe,,,,,,,,,3466,137,88,1,0,0,response1disk,,6,46,11,1,0,0,rectangle,46,11,1,0,0,46,11,1,0,0,1,113,273,149,1,,,,,,,,
,,,,,,,,,,,,,FF,,,,,,,,0.5006,,,,,,,,,,,,,,,,,,,,,,61036745d2053b82e13f7eed,61036f60061b4b80f4c7fb38,2021-07-29_22h18.31.964,Simcolourproject_2stim_asymm_v5,2020.2.10,Win32,60,61025ae37ef11b136ea224fe,,,,,,,,,603,127,93,1,0,0,response1disk,,6,19,-21,1,0,0,rectangle,19,-21,1,0,0,19,-21,1,0,0,1,114,274,6,1,,,,,,,,
,,,,,,,,,,,,,FF,,,,,,,,0.6844,,,,,,,,,,,,,,,,,,,,,,61036745d2053b82e13f7eed,61036f60061b4b80f4c7fb38,2021-07-29_22h18.31.964,Simcolourproject_2stim_asymm_v5,2020.2.10,Win32,60,61025ae37ef11b136ea224fe,,,,,,,,,3183,101,49,1,0,0,response1disk,,6,38,-1,1,0,0,rectangle,158,77,1,0,0,16,-7,1,0,0,1,115,275,63,1,,response1disk_3,TRUE,6,6,"[100,83,231,14,143,97,201,188,110,14,141,146,172,276,26,123,160,168,293,110]",1.3514,rectangle
,,,,,,,,,,,,,FF,,,,,,,,1.2174,,,,,,,,,,,,,,,,,,,,,,61036745d2053b82e13f7eed,61036f60061b4b80f4c7fb38,2021-07-29_22h18.31.964,Simcolourproject_2stim_asymm_v5,2020.2.10,Win32,60,61025ae37ef11b136ea224fe,,,,,,,,,696,43,-136,1,0,0,response3disk,,4,-24,3,1,0,0,rectangle,-24,3,1,0,0,-24,3,1,0,0,1,116,276,138,1,,,,,,,,
,,,,,,,,,,,,,FF,,,,,,,,0.7179,,,,,,,,,,,,,,,,,,,,,,61036745d2053b82e13f7eed,61036f60061b4b80f4c7fb38,2021-07-29_22h18.31.964,Simcolourproject_2stim_asymm_v5,2020.2.10,Win32,60,61025ae37ef11b136ea224fe,,,,,,,,,1821,-107,-78,1,0,0,response5disk,,2,5,8,1,0,0,rectangle,5,8,1,0,0,5,8,1,0,0,1,117,277,52,1,,,,,,,,
,,,,,,,,,,,,,FF,,,,,,,,0.8182,,,,,,,,,,,,,,,,,,,,,,61036745d2053b82e13f7eed,61036f60061b4b80f4c7fb38,2021-07-29_22h18.31.964,Simcolourproject_2stim_asymm_v5,2020.2.10,Win32,60,61025ae37ef11b136ea224fe,,,,,,,,,1397,116,48,1,0,0,response1disk,,6,32,-9,1,0,0,rectangle,32,-9,1,0,0,32,-9,1,0,0,1,118,278,108,1,,,,,,,,
,,,,,,,,,,,,,FF,,,,,,,,0.6833,,,,,,,,,,,,,,,,,,,,,,61036745d2053b82e13f7eed,61036f60061b4b80f4c7fb38,2021-07-29_22h18.31.964,Simcolourproject_2stim_asymm_v5,2020.2.10,Win32,60,61025ae37ef11b136ea224fe,,,,,,,,,3696,46,105,1,0,0,response1disk,,7,27,4,1,0,0,rectangle,27,4,1,0,0,27,4,1,0,0,1,119,279,65,1,,,,,,,,
,,,,,,,,,,,,,FF,,,,,,,,1.6352,,,,,,,,,,,,,,,,,,,,,,61036745d2053b82e13f7eed,61036f60061b4b80f4c7fb38,2021-07-29_22h18.31.964,Simcolourproject_2stim_asymm_v5,2020.2.10,Win32,60,61025ae37ef11b136ea224fe,,,,,,,,,2491,43,-98,1,0,0,response3disk,,4,27,7,1,0,0,rectangle,27,7,1,0,0,27,7,1,0,0,1,120,280,1,1,,,,,,,,
,,,,,,,,,,,,,FF,,,,,,,,0.6509,,,,,,,,,,,,,,,,,,,,,,61036745d2053b82e13f7eed,61036f60061b4b80f4c7fb38,2021-07-29_22h18.31.964,Simcolourproject_2stim_asymm_v5,2020.2.10,Win32,60,61025ae37ef11b136ea224fe,,,,,,,,,27,105,-46,1,0,0,response3disk,,5,12,1,1,0,0,rectangle,12,1,1,0,0,12,1,1,0,0,1,121,281,34,1,,,,,,,,
,,,,,,,,,,,,,FF,,,,,,,,0.7341,,,,,,,,,,,,,,,,,,,,,,61036745d2053b82e13f7eed,61036f60061b4b80f4c7fb38,2021-07-29_22h18.31.964,Simcolourproject_2stim_asymm_v5,2020.2.10,Win32,60,61025ae37ef11b136ea224fe,,,,,,,,,1126,94,44,1,0,0,response1disk,,6,-7,9,1,0,0,rectangle,-7,9,1,0,0,-7,9,1,0,0,1,122,282,113,1,,,,,,,,
,,,,,,,,,,,,,FF,,,,,,,,0.6678,,,,,,,,,,,,,,,,,,,,,,61036745d2053b82e13f7eed,61036f60061b4b80f4c7fb38,2021-07-29_22h18.31.964,Simcolourproject_2stim_asymm_v5,2020.2.10,Win32,60,61025ae37ef11b136ea224fe,,,,,,,,,1967,-73,-103,1,0,0,response5disk,,3,-44,-8,1,0,0,rectangle,-44,-8,1,0,0,-44,-8,1,0,0,1,123,283,119,1,,,,,,,,
,,,,,,,,,,,,,FF,,,,,,,,0.6668,,,,,,,,,,,,,,,,,,,,,,61036745d2053b82e13f7eed,61036f60061b4b80f4c7fb38,2021-07-29_22h18.31.964,Simcolourproject_2stim_asymm_v5,2020.2.10,Win32,60,61025ae37ef11b136ea224fe,,,,,,,,,2229,-66,-106,1,0,0,response5disk,,3,-17,9,1,0,0,rectangle,-17,9,1,0,0,-17,9,1,0,0,1,124,284,147,1,,,,,,,,
,,,,,,,,,,,,,FF,,,,,,,,0.868,,,,,,,,,,,,,,,,,,,,,,61036745d2053b82e13f7eed,61036f60061b4b80f4c7fb38,2021-07-29_22h18.31.964,Simcolourproject_2stim_asymm_v5,2020.2.10,Win32,60,61025ae37ef11b136ea224fe,,,,,,,,,332,136,60,1,0,0,response1disk,,6,11,-14,1,0,0,rectangle,11,-14,1,0,0,11,-14,1,0,0,1,125,285,152,1,,,,,,,,
,,,,,,,,,,,,,FF,,,,,,,,1.1017,,,,,,,,,,,,,,,,,,,,,,61036745d2053b82e13f7eed,61036f60061b4b80f4c7fb38,2021-07-29_22h18.31.964,Simcolourproject_2stim_asymm_v5,2020.2.10,Win32,60,61025ae37ef11b136ea224fe,,,,,,,,,1231,130,-30,1,0,0,response3disk,,5,35,9,1,0,0,rectangle,35,9,1,0,0,35,9,1,0,0,1,126,286,115,1,,,,,,,,
,,,,,,,,,,,,,FF,,,,,,,,0.734,,,,,,,,,,,,,,,,,,,,,,61036745d2053b82e13f7eed,61036f60061b4b80f4c7fb38,2021-07-29_22h18.31.964,Simcolourproject_2stim_asymm_v5,2020.2.10,Win32,60,61025ae37ef11b136ea224fe,,,,,,,,,376,77,-51,1,0,0,response3disk,,5,21,0,1,0,0,rectangle,21,0,1,0,0,21,0,1,0,0,1,127,287,53,1,,,,,,,,
,,,,,,,,,,,,,FF,,,,,,,,0.7337,,,,,,,,,,,,,,,,,,,,,,61036745d2053b82e13f7eed,61036f60061b4b80f4c7fb38,2021-07-29_22h18.31.964,Simcolourproject_2stim_asymm_v5,2020.2.10,Win32,60,61025ae37ef11b136ea224fe,,,,,,,,,3707,-67,115,1,0,0,response7disk,,0,-15,15,1,0,0,rectangle,-15,15,1,0,0,-15,15,1,0,0,1,128,288,137,1,,,,,,,,
,,,,,,,,,,,,,FF,,,,,,,,0.8338,,,,,,,,,,,,,,,,,,,,,,61036745d2053b82e13f7eed,61036f60061b4b80f4c7fb38,2021-07-29_22h18.31.964,Simcolourproject_2stim_asymm_v5,2020.2.10,Win32,60,61025ae37ef11b136ea224fe,,,,,,,,,1749,119,-74,1,0,0,response3disk,,5,13,0,1,0,0,rectangle,13,0,1,0,0,13,0,1,0,0,1,129,289,16,1,,,,,,,,
,,,,,,,,,,,,,FF,,,,,,,,0.6175,,,,,,,,,,,,,,,,,,,,,,61036745d2053b82e13f7eed,61036f60061b4b80f4c7fb38,2021-07-29_22h18.31.964,Simcolourproject_2stim_asymm_v5,2020.2.10,Win32,60,61025ae37ef11b136ea224fe,,,,,,,,,2838,-29,-85,1,0,0,response5disk,,3,11,9,1,0,0,rectangle,11,9,1,0,0,11,9,1,0,0,1,130,290,92,1,,,,,,,,
,,,,,,,,,,,,,FF,,,,,,,,0.7011,,,,,,,,,,,,,,,,,,,,,,61036745d2053b82e13f7eed,61036f60061b4b80f4c7fb38,2021-07-29_22h18.31.964,Simcolourproject_2stim_asymm_v5,2020.2.10,Win32,60,61025ae37ef11b136ea224fe,,,,,,,,,4109,92,128,1,0,0,response1disk,,7,16,9,1,0,0,rectangle,16,9,1,0,0,16,9,1,0,0,1,131,291,4,1,,,,,,,,
,,,,,,,,,,,,,FF,,,,,,,,1.0013,,,,,,,,,,,,,,,,,,,,,,61036745d2053b82e13f7eed,61036f60061b4b80f4c7fb38,2021-07-29_22h18.31.964,Simcolourproject_2stim_asymm_v5,2020.2.10,Win32,60,61025ae37ef11b136ea224fe,,,,,,,,,1907,-28,-92,1,0,0,response5disk,,3,-5,-2,1,0,0,rectangle,-120,-76,1,0,0,-12,-6,1,0,0,1,132,292,21,1,,response5disk_3,TRUE,2,2,"[100,83,231,14,143,97,201,188,110,14,141,146,172,276,26,123,160,168,293,110]",1.6182,rectangle
,,,,,,,,,,,,,FF,,,,,,,,1.9351,,,,,,,,,,,,,,,,,,,,,,61036745d2053b82e13f7eed,61036f60061b4b80f4c7fb38,2021-07-29_22h18.31.964,Simcolourproject_2stim_asymm_v5,2020.2.10,Win32,60,61025ae37ef11b136ea224fe,,,,,,,,,2148,114,-142,1,0,0,response3disk,,4,13,-10,1,0,0,rectangle,13,-10,1,0,0,13,-10,1,0,0,1,133,293,72,1,,,,,,,,
,,,,,,,,,,,,,FF,,,,,,,,0.7842,,,,,,,,,,,,,,,,,,,,,,61036745d2053b82e13f7eed,61036f60061b4b80f4c7fb38,2021-07-29_22h18.31.964,Simcolourproject_2stim_asymm_v5,2020.2.10,Win32,60,61025ae37ef11b136ea224fe,,,,,,,,,3061,-61,-86,1,0,0,response5disk,,3,-40,-10,1,0,0,rectangle,-40,-10,1,0,0,-40,-10,1,0,0,1,134,294,48,1,,,,,,,,
,,,,,,,,,,,,,FF,,,,,,,,0.7338,,,,,,,,,,,,,,,,,,,,,,61036745d2053b82e13f7eed,61036f60061b4b80f4c7fb38,2021-07-29_22h18.31.964,Simcolourproject_2stim_asymm_v5,2020.2.10,Win32,60,61025ae37ef11b136ea224fe,,,,,,,,,634,-62,-103,1,0,0,response5disk,,3,-26,-4,1,0,0,rectangle,-26,-4,1,0,0,-26,-4,1,0,0,1,135,295,126,1,,,,,,,,
,,,,,,,,,,,,,FF,,,,,,,,0.8176,,,,,,,,,,,,,,,,,,,,,,61036745d2053b82e13f7eed,61036f60061b4b80f4c7fb38,2021-07-29_22h18.31.964,Simcolourproject_2stim_asymm_v5,2020.2.10,Win32,60,61025ae37ef11b136ea224fe,,,,,,,,,3393,-40,-92,1,0,0,response5disk,,3,-15,5,1,0,0,rectangle,-15,5,1,0,0,-15,5,1,0,0,1,136,296,0,1,,,,,,,,
,,,,,,,,,,,,,FF,,,,,,,,0.7179,,,,,,,,,,,,,,,,,,,,,,61036745d2053b82e13f7eed,61036f60061b4b80f4c7fb38,2021-07-29_22h18.31.964,Simcolourproject_2stim_asymm_v5,2020.2.10,Win32,60,61025ae37ef11b136ea224fe,,,,,,,,,1469,36,-101,1,0,0,response3disk,,4,18,14,1,0,0,rectangle,18,14,1,0,0,18,14,1,0,0,1,137,297,20,1,,,,,,,,
,,,,,,,,,,,,,FF,,,,,,,,0.9513,,,,,,,,,,,,,,,,,,,,,,61036745d2053b82e13f7eed,61036f60061b4b80f4c7fb38,2021-07-29_22h18.31.964,Simcolourproject_2stim_asymm_v5,2020.2.10,Win32,60,61025ae37ef11b136ea224fe,,,,,,,,,164,-26,-93,1,0,0,response5disk,,3,6,6,1,0,0,rectangle,6,6,1,0,0,6,6,1,0,0,1,138,298,35,1,,,,,,,,
,,,,,,,,,,,,,FF,,,,,,,,0.7507,,,,,,,,,,,,,,,,,,,,,,61036745d2053b82e13f7eed,61036f60061b4b80f4c7fb38,2021-07-29_22h18.31.964,Simcolourproject_2stim_asymm_v5,2020.2.10,Win32,60,61025ae37ef11b136ea224fe,,,,,,,,,2472,128,54,1,0,0,response1disk,,6,2,-15,1,0,0,rectangle,2,-15,1,0,0,2,-15,1,0,0,1,139,299,43,1,,,,,,,,
,,,,,,,,,,,,,FF,,,,,,,,0.8346,,,,,,,,,,,,,,,,,,,,,,61036745d2053b82e13f7eed,61036f60061b4b80f4c7fb38,2021-07-29_22h18.31.964,Simcolourproject_2stim_asymm_v5,2020.2.10,Win32,60,61025ae37ef11b136ea224fe,,,,,,,,,2373,40,69,1,0,0,response1disk,,7,-21,-19,1,0,0,rectangle,-21,-19,1,0,0,-21,-19,1,0,0,1,140,300,85,1,,,,,,,,
