key_resp.keys,key_resp.rt,key_resp_14.keys,key_resp_14.rt,key_resp_15.keys,key_resp_15.rt,key_resp_17.keys,key_resp_17.rt,key_resp_9.keys,key_resp_9.rt,key_resp_10.keys,key_resp_10.rt,practice_comparison,Ecc,mouse_5.x,mouse_5.y,mouse_5.leftButton,mouse_5.midButton,mouse_5.rightButton,mouse_5.clicked_name,pracsimilarity,response_time,mouse_10.x,mouse_10.y,mouse_10.leftButton,mouse_10.midButton,mouse_10.rightButton,mouse_10.clicked_name,mouse_7.x,mouse_7.y,mouse_7.leftButton,mouse_7.midButton,mouse_7.rightButton,mouse_6.x,mouse_6.y,mouse_6.leftButton,mouse_6.midButton,mouse_6.rightButton,duringprac.thisRepN,duringprac.thisTrialN,duringprac.thisN,duringprac.thisIndex,duringprac.ran,participant,session,date,expName,psychopyVersion,OS,frameRate,study_id,mouse_7.clicked_name,catchpracsimilarity,catch_response_time,catchnumberprac,catchtrialorderprac,mouse_6.clicked_name,key_resp_22.keys,key_resp_22.rt,realcomparison,mouse.x,mouse.y,mouse.leftButton,mouse.midButton,mouse.rightButton,mouse.clicked_name,Colour2,similarity,mouse_2.x,mouse_2.y,mouse_2.leftButton,mouse_2.midButton,mouse_2.rightButton,mouse_2.clicked_name,mouse_3.x,mouse_3.y,mouse_3.leftButton,mouse_3.midButton,mouse_3.rightButton,mouse_11.x,mouse_11.y,mouse_11.leftButton,mouse_11.midButton,mouse_11.rightButton,trials_2.thisRepN,trials_2.thisTrialN,trials_2.thisN,trials_2.thisIndex,trials_2.ran,Colour1,mouse_3.clicked_name,catchornah,catchsimilarity,catchnumber,catchtrialorder,catchRT,mouse_11.clicked_name
space,4.8477,space,7.2394,space,20.3329,space,7.6494,space,2.0394,space,2.2383,8,FF,-70.546875,40.8203125,1,0,0,response7disk_5,1,9.9358,-3.35546875,6.78125,1,0,0,rectangle_8,-3.35546875,6.78125,1,0,0,-3.35546875,6.78125,1,0,0,0,0,0,0,1,61032a35ae067e7ec879e70a,61036cd141e2aaa701adc00d,2021-07-29_20h08.41.185,Simcolourproject_2stim_asymm_v5,2020.2.10,MacIntel,60,61025ae37ef11b136ea224fe,,,,,,,,,,,,,,,,,,,,,,,,,,,,,,,,,,,,,,,,,,,,,,
,,,,,,,,,,,,47,PF,15.953125,-81.57421875,1,0,0,response3disk_5,4,7.617,0.796875,-1.69921875,1,0,0,rectangle_8,-35.9140625,-79.45703125,1,0,0,12.3984375,-1.1484375,1,0,0,0,1,1,4,1,61032a35ae067e7ec879e70a,61036cd141e2aaa701adc00d,2021-07-29_20h08.41.185,Simcolourproject_2stim_asymm_v5,2020.2.10,MacIntel,60,61025ae37ef11b136ea224fe,response5disk_7,3,3.5668,3,"[2,5]",rectangle_4,,,,,,,,,,,,,,,,,,,,,,,,,,,,,,,,,,,,,,,,
,,,,,,,,,,,,129,PF,-69.3203125,-103.828125,1,0,0,response5disk_5,3,3.234,13.19140625,5.609375,1,0,0,rectangle_8,13.19140625,5.609375,1,0,0,13.19140625,5.609375,1,0,0,0,2,2,1,1,61032a35ae067e7ec879e70a,61036cd141e2aaa701adc00d,2021-07-29_20h08.41.185,Simcolourproject_2stim_asymm_v5,2020.2.10,MacIntel,60,61025ae37ef11b136ea224fe,,,,,,,,,,,,,,,,,,,,,,,,,,,,,,,,,,,,,,,,,,,,,,
,,,,,,,,,,,,128,PF,-66.0234375,-42.69921875,1,0,0,response5disk_5,2,4.3333,9.51953125,2.609375,1,0,0,rectangle_8,9.51953125,2.609375,1,0,0,9.51953125,2.609375,1,0,0,0,3,3,6,1,61032a35ae067e7ec879e70a,61036cd141e2aaa701adc00d,2021-07-29_20h08.41.185,Simcolourproject_2stim_asymm_v5,2020.2.10,MacIntel,60,61025ae37ef11b136ea224fe,,,,,,,,,,,,,,,,,,,,,,,,,,,,,,,,,,,,,,,,,,,,,,
,,,,,,,,,,,,32,PF,-81.87109375,22.69140625,1,0,0,response7disk_5,1,1.0831,-14.1015625,0.80078125,1,0,0,rectangle_8,-41.80859375,-57.125,1,0,0,0.80859375,6.78125,1,0,0,0,4,4,2,1,61032a35ae067e7ec879e70a,61036cd141e2aaa701adc00d,2021-07-29_20h08.41.185,Simcolourproject_2stim_asymm_v5,2020.2.10,MacIntel,60,61025ae37ef11b136ea224fe,response5disk_7,3,1.9675,3,"[2,5]",rectangle_4,,,,,,,,,,,,,,,,,,,,,,,,,,,,,,,,,,,,,,,,
,,,,,,,,,,,,47,FF,101.1875,-64.125,1,0,0,response3disk_5,5,4.2011,-19.7109375,8.484375,1,0,0,rectangle_8,-19.7109375,8.484375,1,0,0,-19.7109375,8.484375,1,0,0,0,5,5,5,1,61032a35ae067e7ec879e70a,61036cd141e2aaa701adc00d,2021-07-29_20h08.41.185,Simcolourproject_2stim_asymm_v5,2020.2.10,MacIntel,60,61025ae37ef11b136ea224fe,,,,,,,,,,,,,,,,,,,,,,,,,,,,,,,,,,,,,,,,,,,,,,
,,,,,,,,,,,,119,FF,-65.9765625,-35.796875,1,0,0,response5disk_5,2,2.85,8.734375,-2.2265625,1,0,0,rectangle_8,8.734375,-2.2265625,1,0,0,8.734375,-2.2265625,1,0,0,0,6,6,3,1,61032a35ae067e7ec879e70a,61036cd141e2aaa701adc00d,2021-07-29_20h08.41.185,Simcolourproject_2stim_asymm_v5,2020.2.10,MacIntel,60,61025ae37ef11b136ea224fe,,,,,,,,,,,,,,,,,,,,,,,,,,,,,,,,,,,,,,,,,,,,,,
,,,,,,,,,,,,,FF,,,,,,,,1.9506,,,,,,,,,,,,,,,,,,,,,,61032a35ae067e7ec879e70a,61036cd141e2aaa701adc00d,2021-07-29_20h08.41.185,Simcolourproject_2stim_asymm_v5,2020.2.10,MacIntel,60,61025ae37ef11b136ea224fe,,,,,,,space,2.9062,3581,-50.46875,-82.46875,1,0,0,response5disk,,3,1.890625,6.56640625,1,0,0,rectangle,1.890625,6.56640625,1,0,0,1.890625,6.56640625,1,0,0,0,0,0,69,1,,,,,,,,
,,,,,,,,,,,,,FF,,,,,,,,1.2834,,,,,,,,,,,,,,,,,,,,,,61032a35ae067e7ec879e70a,61036cd141e2aaa701adc00d,2021-07-29_20h08.41.185,Simcolourproject_2stim_asymm_v5,2020.2.10,MacIntel,60,61025ae37ef11b136ea224fe,,,,,,,,,2418,42.62109375,68.2890625,1,0,0,response1disk,,7,-5.69921875,-0.609375,1,0,0,rectangle,-5.69921875,-0.609375,1,0,0,-5.69921875,-0.609375,1,0,0,0,1,1,30,1,,,,,,,,
,,,,,,,,,,,,,FF,,,,,,,,1.4162,,,,,,,,,,,,,,,,,,,,,,61032a35ae067e7ec879e70a,61036cd141e2aaa701adc00d,2021-07-29_20h08.41.185,Simcolourproject_2stim_asymm_v5,2020.2.10,MacIntel,60,61025ae37ef11b136ea224fe,,,,,,,,,1113,-48.33203125,-54.9140625,1,0,0,response5disk,,3,-3.73828125,-0.171875,1,0,0,rectangle,-33.79296875,-75.40234375,1,0,0,-3.953125,5.92578125,1,0,0,0,2,2,59,1,,response5disk_3,TRUE,3,3,"[51,136,275,163,128,45,187,124,119,127,205,3,316,261,47,249,258,216,273,314]",1.6662,rectangle
,,,,,,,,,,,,,FF,,,,,,,,1.5169,,,,,,,,,,,,,,,,,,,,,,61032a35ae067e7ec879e70a,61036cd141e2aaa701adc00d,2021-07-29_20h08.41.185,Simcolourproject_2stim_asymm_v5,2020.2.10,MacIntel,60,61025ae37ef11b136ea224fe,,,,,,,,,4298,-34.04296875,-64.20703125,1,0,0,response5disk,,3,8.2265625,5.18359375,1,0,0,rectangle,8.2265625,5.18359375,1,0,0,8.2265625,5.18359375,1,0,0,0,3,3,27,1,,,,,,,,
,,,,,,,,,,,,,FF,,,,,,,,1.2001,,,,,,,,,,,,,,,,,,,,,,61032a35ae067e7ec879e70a,61036cd141e2aaa701adc00d,2021-07-29_20h08.41.185,Simcolourproject_2stim_asymm_v5,2020.2.10,MacIntel,60,61025ae37ef11b136ea224fe,,,,,,,,,3539,-43.27734375,-104.09375,1,0,0,response5disk,,3,-13.8359375,-6.3125,1,0,0,rectangle,-13.8359375,-6.3125,1,0,0,-13.8359375,-6.3125,1,0,0,0,4,4,29,1,,,,,,,,
,,,,,,,,,,,,,FF,,,,,,,,1.8837,,,,,,,,,,,,,,,,,,,,,,61032a35ae067e7ec879e70a,61036cd141e2aaa701adc00d,2021-07-29_20h08.41.185,Simcolourproject_2stim_asymm_v5,2020.2.10,MacIntel,60,61025ae37ef11b136ea224fe,,,,,,,,,1752,101.1445313,37.3984375,1,0,0,response1disk,,6,8.4609375,0.9140625,1,0,0,rectangle,8.4609375,0.9140625,1,0,0,8.4609375,0.9140625,1,0,0,0,5,5,61,1,,,,,,,,
,,,,,,,,,,,,,FF,,,,,,,,1.3838,,,,,,,,,,,,,,,,,,,,,,61032a35ae067e7ec879e70a,61036cd141e2aaa701adc00d,2021-07-29_20h08.41.185,Simcolourproject_2stim_asymm_v5,2020.2.10,MacIntel,60,61025ae37ef11b136ea224fe,,,,,,,,,761,47,-71.58984375,1,0,0,response3disk,,4,-15.8125,0.87890625,1,0,0,rectangle,-15.8125,0.87890625,1,0,0,-15.8125,0.87890625,1,0,0,0,6,6,15,1,,,,,,,,
,,,,,,,,,,,,,FF,,,,,,,,1.184,,,,,,,,,,,,,,,,,,,,,,61032a35ae067e7ec879e70a,61036cd141e2aaa701adc00d,2021-07-29_20h08.41.185,Simcolourproject_2stim_asymm_v5,2020.2.10,MacIntel,60,61025ae37ef11b136ea224fe,,,,,,,,,4071,44.19140625,84.015625,1,0,0,response1disk,,7,-6.890625,-3.421875,1,0,0,rectangle,-6.890625,-3.421875,1,0,0,-6.890625,-3.421875,1,0,0,0,7,7,105,1,,,,,,,,
,,,,,,,,,,,,,FF,,,,,,,,6.5174,,,,,,,,,,,,,,,,,,,,,,61032a35ae067e7ec879e70a,61036cd141e2aaa701adc00d,2021-07-29_20h08.41.185,Simcolourproject_2stim_asymm_v5,2020.2.10,MacIntel,60,61025ae37ef11b136ea224fe,,,,,,,,,306,-58.70703125,-38.16796875,1,0,0,response5disk,,2,7.41796875,4.38671875,1,0,0,rectangle,7.41796875,4.38671875,1,0,0,7.41796875,4.38671875,1,0,0,0,8,8,157,1,,,,,,,,
,,,,,,,,,,,,,FF,,,,,,,,1.5334,,,,,,,,,,,,,,,,,,,,,,61032a35ae067e7ec879e70a,61036cd141e2aaa701adc00d,2021-07-29_20h08.41.185,Simcolourproject_2stim_asymm_v5,2020.2.10,MacIntel,60,61025ae37ef11b136ea224fe,,,,,,,,,1260,39.04296875,-58.50390625,1,0,0,response3disk,,4,9.265625,-0.359375,1,0,0,rectangle,9.265625,-0.359375,1,0,0,9.265625,-0.359375,1,0,0,0,9,9,136,1,,,,,,,,
,,,,,,,,,,,,,FF,,,,,,,,0.8838,,,,,,,,,,,,,,,,,,,,,,61032a35ae067e7ec879e70a,61036cd141e2aaa701adc00d,2021-07-29_20h08.41.185,Simcolourproject_2stim_asymm_v5,2020.2.10,MacIntel,60,61025ae37ef11b136ea224fe,,,,,,,,,3254,27.19921875,-52.8671875,1,0,0,response3disk,,4,8.4296875,9.0234375,1,0,0,rectangle,8.4296875,9.0234375,1,0,0,8.4296875,9.0234375,1,0,0,0,10,10,56,1,,,,,,,,
,,,,,,,,,,,,,FF,,,,,,,,0.4843,,,,,,,,,,,,,,,,,,,,,,61032a35ae067e7ec879e70a,61036cd141e2aaa701adc00d,2021-07-29_20h08.41.185,Simcolourproject_2stim_asymm_v5,2020.2.10,MacIntel,60,61025ae37ef11b136ea224fe,,,,,,,,,769,24.63671875,-46.4140625,1,0,0,response3disk,,4,0.41796875,3.0078125,1,0,0,rectangle,0.41796875,3.0078125,1,0,0,0.41796875,3.0078125,1,0,0,0,11,11,122,1,,,,,,,,
,,,,,,,,,,,,,FF,,,,,,,,1.3665,,,,,,,,,,,,,,,,,,,,,,61032a35ae067e7ec879e70a,61036cd141e2aaa701adc00d,2021-07-29_20h08.41.185,Simcolourproject_2stim_asymm_v5,2020.2.10,MacIntel,60,61025ae37ef11b136ea224fe,,,,,,,,,1733,42.78125,38.03125,1,0,0,response1disk,,6,-9.93359375,-4.98828125,1,0,0,rectangle,-9.93359375,-4.98828125,1,0,0,-9.93359375,-4.98828125,1,0,0,0,12,12,68,1,,,,,,,,
,,,,,,,,,,,,,FF,,,,,,,,0.95,,,,,,,,,,,,,,,,,,,,,,61032a35ae067e7ec879e70a,61036cd141e2aaa701adc00d,2021-07-29_20h08.41.185,Simcolourproject_2stim_asymm_v5,2020.2.10,MacIntel,60,61025ae37ef11b136ea224fe,,,,,,,,,3844,87.78125,32.9609375,1,0,0,response1disk,,6,1.14453125,10.15625,1,0,0,rectangle,1.14453125,10.15625,1,0,0,1.14453125,10.15625,1,0,0,0,13,13,145,1,,,,,,,,
,,,,,,,,,,,,,FF,,,,,,,,0.8998,,,,,,,,,,,,,,,,,,,,,,61032a35ae067e7ec879e70a,61036cd141e2aaa701adc00d,2021-07-29_20h08.41.185,Simcolourproject_2stim_asymm_v5,2020.2.10,MacIntel,60,61025ae37ef11b136ea224fe,,,,,,,,,1120,64.98828125,-75.0078125,1,0,0,response3disk,,4,-24.671875,3.3046875,1,0,0,rectangle,-24.671875,3.3046875,1,0,0,-24.671875,3.3046875,1,0,0,0,14,14,96,1,,,,,,,,
,,,,,,,,,,,,,FF,,,,,,,,0.9673,,,,,,,,,,,,,,,,,,,,,,61032a35ae067e7ec879e70a,61036cd141e2aaa701adc00d,2021-07-29_20h08.41.185,Simcolourproject_2stim_asymm_v5,2020.2.10,MacIntel,60,61025ae37ef11b136ea224fe,,,,,,,,,4193,-31.19921875,-78.390625,1,0,0,response5disk,,3,-13.41796875,3.421875,1,0,0,rectangle,-13.41796875,3.421875,1,0,0,-13.41796875,3.421875,1,0,0,0,15,15,53,1,,,,,,,,
,,,,,,,,,,,,,FF,,,,,,,,0.6654,,,,,,,,,,,,,,,,,,,,,,61032a35ae067e7ec879e70a,61036cd141e2aaa701adc00d,2021-07-29_20h08.41.185,Simcolourproject_2stim_asymm_v5,2020.2.10,MacIntel,60,61025ae37ef11b136ea224fe,,,,,,,,,488,-80.12109375,-25.91796875,1,0,0,response5disk,,2,3.5390625,1.94140625,1,0,0,rectangle,3.5390625,1.94140625,1,0,0,3.5390625,1.94140625,1,0,0,0,16,16,141,1,,,,,,,,
,,,,,,,,,,,,,FF,,,,,,,,0.9831,,,,,,,,,,,,,,,,,,,,,,61032a35ae067e7ec879e70a,61036cd141e2aaa701adc00d,2021-07-29_20h08.41.185,Simcolourproject_2stim_asymm_v5,2020.2.10,MacIntel,60,61025ae37ef11b136ea224fe,,,,,,,,,4119,104.4179688,38.4140625,1,0,0,response1disk,,6,0.1171875,0.171875,1,0,0,rectangle,0.1171875,0.171875,1,0,0,0.1171875,0.171875,1,0,0,0,17,17,84,1,,,,,,,,
,,,,,,,,,,,,,FF,,,,,,,,0.9836,,,,,,,,,,,,,,,,,,,,,,61032a35ae067e7ec879e70a,61036cd141e2aaa701adc00d,2021-07-29_20h08.41.185,Simcolourproject_2stim_asymm_v5,2020.2.10,MacIntel,60,61025ae37ef11b136ea224fe,,,,,,,,,99,73.2421875,24.90234375,1,0,0,response1disk,,6,-3.515625,-12.05078125,1,0,0,rectangle,-3.515625,-12.05078125,1,0,0,-3.515625,-12.05078125,1,0,0,0,18,18,67,1,,,,,,,,
,,,,,,,,,,,,,FF,,,,,,,,0.7828,,,,,,,,,,,,,,,,,,,,,,61032a35ae067e7ec879e70a,61036cd141e2aaa701adc00d,2021-07-29_20h08.41.185,Simcolourproject_2stim_asymm_v5,2020.2.10,MacIntel,60,61025ae37ef11b136ea224fe,,,,,,,,,2133,-86.39453125,-48.84765625,1,0,0,response5disk,,2,-15.08984375,-0.36328125,1,0,0,rectangle,-15.08984375,-0.36328125,1,0,0,-15.08984375,-0.36328125,1,0,0,0,19,19,46,1,,,,,,,,
,,,,,,,,,,,,,FF,,,,,,,,0.9165,,,,,,,,,,,,,,,,,,,,,,61032a35ae067e7ec879e70a,61036cd141e2aaa701adc00d,2021-07-29_20h08.41.185,Simcolourproject_2stim_asymm_v5,2020.2.10,MacIntel,60,61025ae37ef11b136ea224fe,,,,,,,,,1237,19.08203125,-48.09375,1,0,0,response3disk,,4,2.2734375,-6.515625,1,0,0,rectangle,2.2734375,-6.515625,1,0,0,2.2734375,-6.515625,1,0,0,0,20,20,86,1,,,,,,,,
,,,,,,,,,,,,,FF,,,,,,,,1.4824,,,,,,,,,,,,,,,,,,,,,,61032a35ae067e7ec879e70a,61036cd141e2aaa701adc00d,2021-07-29_20h08.41.185,Simcolourproject_2stim_asymm_v5,2020.2.10,MacIntel,60,61025ae37ef11b136ea224fe,,,,,,,,,4172,30.75390625,-72.171875,1,0,0,response3disk,,4,-0.00390625,0.30078125,1,0,0,rectangle,-0.00390625,0.30078125,1,0,0,-0.00390625,0.30078125,1,0,0,0,21,21,134,1,,,,,,,,
,,,,,,,,,,,,,FF,,,,,,,,2.3004,,,,,,,,,,,,,,,,,,,,,,61032a35ae067e7ec879e70a,61036cd141e2aaa701adc00d,2021-07-29_20h08.41.185,Simcolourproject_2stim_asymm_v5,2020.2.10,MacIntel,60,61025ae37ef11b136ea224fe,,,,,,,,,3456,-71.21875,-57.40234375,1,0,0,response5disk,,2,-9.35546875,1.91015625,1,0,0,rectangle,-9.35546875,1.91015625,1,0,0,-9.35546875,1.91015625,1,0,0,0,22,22,127,1,,,,,,,,
,,,,,,,,,,,,,FF,,,,,,,,0.6838,,,,,,,,,,,,,,,,,,,,,,61032a35ae067e7ec879e70a,61036cd141e2aaa701adc00d,2021-07-29_20h08.41.185,Simcolourproject_2stim_asymm_v5,2020.2.10,MacIntel,60,61025ae37ef11b136ea224fe,,,,,,,,,3449,-29.96484375,-74.83203125,1,0,0,response5disk,,3,-14.40625,6.40625,1,0,0,rectangle,-14.40625,6.40625,1,0,0,-14.40625,6.40625,1,0,0,0,23,23,139,1,,,,,,,,
,,,,,,,,,,,,,FF,,,,,,,,0.6321,,,,,,,,,,,,,,,,,,,,,,61032a35ae067e7ec879e70a,61036cd141e2aaa701adc00d,2021-07-29_20h08.41.185,Simcolourproject_2stim_asymm_v5,2020.2.10,MacIntel,60,61025ae37ef11b136ea224fe,,,,,,,,,878,-36.58203125,-57.046875,1,0,0,response5disk,,3,-1.44921875,-2.46875,1,0,0,rectangle,-1.44921875,-2.46875,1,0,0,-1.44921875,-2.46875,1,0,0,0,24,24,131,1,,,,,,,,
,,,,,,,,,,,,,FF,,,,,,,,0.6177,,,,,,,,,,,,,,,,,,,,,,61032a35ae067e7ec879e70a,61036cd141e2aaa701adc00d,2021-07-29_20h08.41.185,Simcolourproject_2stim_asymm_v5,2020.2.10,MacIntel,60,61025ae37ef11b136ea224fe,,,,,,,,,3786,-44.50390625,-90.79296875,1,0,0,response5disk,,3,-12.1171875,-5.19140625,1,0,0,rectangle,-12.1171875,-5.19140625,1,0,0,-12.1171875,-5.19140625,1,0,0,0,25,25,37,1,,,,,,,,
,,,,,,,,,,,,,FF,,,,,,,,1.8165,,,,,,,,,,,,,,,,,,,,,,61032a35ae067e7ec879e70a,61036cd141e2aaa701adc00d,2021-07-29_20h08.41.185,Simcolourproject_2stim_asymm_v5,2020.2.10,MacIntel,60,61025ae37ef11b136ea224fe,,,,,,,,,1190,-71.0546875,-42.06640625,1,0,0,response5disk,,2,-6.58984375,5.7265625,1,0,0,rectangle,-6.58984375,5.7265625,1,0,0,-6.58984375,5.7265625,1,0,0,0,26,26,63,1,,,,,,,,
,,,,,,,,,,,,,FF,,,,,,,,1.2005,,,,,,,,,,,,,,,,,,,,,,61032a35ae067e7ec879e70a,61036cd141e2aaa701adc00d,2021-07-29_20h08.41.185,Simcolourproject_2stim_asymm_v5,2020.2.10,MacIntel,60,61025ae37ef11b136ea224fe,,,,,,,,,3087,-40.49609375,-59.9921875,1,0,0,response5disk,,3,-18.3046875,-2.33984375,1,0,0,rectangle,-18.3046875,-2.33984375,1,0,0,-18.3046875,-2.33984375,1,0,0,0,27,27,38,1,,,,,,,,
,,,,,,,,,,,,,FF,,,,,,,,1.1831,,,,,,,,,,,,,,,,,,,,,,61032a35ae067e7ec879e70a,61036cd141e2aaa701adc00d,2021-07-29_20h08.41.185,Simcolourproject_2stim_asymm_v5,2020.2.10,MacIntel,60,61025ae37ef11b136ea224fe,,,,,,,,,2873,-57.515625,-36.71875,1,0,0,response5disk,,2,-0.2734375,10.67578125,1,0,0,rectangle,-0.2734375,10.67578125,1,0,0,-0.2734375,10.67578125,1,0,0,0,28,28,1,1,,,,,,,,
,,,,,,,,,,,,,FF,,,,,,,,0.9173,,,,,,,,,,,,,,,,,,,,,,61032a35ae067e7ec879e70a,61036cd141e2aaa701adc00d,2021-07-29_20h08.41.185,Simcolourproject_2stim_asymm_v5,2020.2.10,MacIntel,60,61025ae37ef11b136ea224fe,,,,,,,,,2209,76.55859375,-42.3359375,1,0,0,response3disk,,5,18.35546875,3.51953125,1,0,0,rectangle,18.35546875,3.51953125,1,0,0,18.35546875,3.51953125,1,0,0,0,29,29,39,1,,,,,,,,
,,,,,,,,,,,,,FF,,,,,,,,0.6339,,,,,,,,,,,,,,,,,,,,,,61032a35ae067e7ec879e70a,61036cd141e2aaa701adc00d,2021-07-29_20h08.41.185,Simcolourproject_2stim_asymm_v5,2020.2.10,MacIntel,60,61025ae37ef11b136ea224fe,,,,,,,,,1904,27.37109375,-60.30859375,1,0,0,response3disk,,4,-18.578125,0.9921875,1,0,0,rectangle,-18.578125,0.9921875,1,0,0,-18.578125,0.9921875,1,0,0,0,30,30,20,1,,,,,,,,
,,,,,,,,,,,,,FF,,,,,,,,0.8165,,,,,,,,,,,,,,,,,,,,,,61032a35ae067e7ec879e70a,61036cd141e2aaa701adc00d,2021-07-29_20h08.41.185,Simcolourproject_2stim_asymm_v5,2020.2.10,MacIntel,60,61025ae37ef11b136ea224fe,,,,,,,,,3608,-27.546875,-83.5,1,0,0,response5disk,,3,-3.296875,0.24609375,1,0,0,rectangle,-3.296875,0.24609375,1,0,0,-3.296875,0.24609375,1,0,0,0,31,31,43,1,,,,,,,,
,,,,,,,,,,,,,FF,,,,,,,,0.8012,,,,,,,,,,,,,,,,,,,,,,61032a35ae067e7ec879e70a,61036cd141e2aaa701adc00d,2021-07-29_20h08.41.185,Simcolourproject_2stim_asymm_v5,2020.2.10,MacIntel,60,61025ae37ef11b136ea224fe,,,,,,,,,2186,15.3828125,-61.4921875,1,0,0,response3disk,,4,1.05859375,-1.73828125,1,0,0,rectangle,1.05859375,-1.73828125,1,0,0,1.05859375,-1.73828125,1,0,0,0,32,32,137,1,,,,,,,,
,,,,,,,,,,,,,FF,,,,,,,,0.6665,,,,,,,,,,,,,,,,,,,,,,61032a35ae067e7ec879e70a,61036cd141e2aaa701adc00d,2021-07-29_20h08.41.185,Simcolourproject_2stim_asymm_v5,2020.2.10,MacIntel,60,61025ae37ef11b136ea224fe,,,,,,,,,3574,-44.1328125,-72.73828125,1,0,0,response5disk,,3,-12.01171875,0.29296875,1,0,0,rectangle,-12.01171875,0.29296875,1,0,0,-12.01171875,0.29296875,1,0,0,0,33,33,77,1,,,,,,,,
,,,,,,,,,,,,,FF,,,,,,,,0.7501,,,,,,,,,,,,,,,,,,,,,,61032a35ae067e7ec879e70a,61036cd141e2aaa701adc00d,2021-07-29_20h08.41.185,Simcolourproject_2stim_asymm_v5,2020.2.10,MacIntel,60,61025ae37ef11b136ea224fe,,,,,,,,,1730,-53.00390625,-57.08984375,1,0,0,response5disk,,3,-20.72265625,8.85546875,1,0,0,rectangle,-20.72265625,8.85546875,1,0,0,-20.72265625,8.85546875,1,0,0,0,34,34,22,1,,,,,,,,
,,,,,,,,,,,,,FF,,,,,,,,0.6826,,,,,,,,,,,,,,,,,,,,,,61032a35ae067e7ec879e70a,61036cd141e2aaa701adc00d,2021-07-29_20h08.41.185,Simcolourproject_2stim_asymm_v5,2020.2.10,MacIntel,60,61025ae37ef11b136ea224fe,,,,,,,,,110,46.75,-62.70703125,1,0,0,response3disk,,4,20.921875,-4.65234375,1,0,0,rectangle,20.921875,-4.65234375,1,0,0,20.921875,-4.65234375,1,0,0,0,35,35,44,1,,,,,,,,
,,,,,,,,,,,,,FF,,,,,,,,0.7342,,,,,,,,,,,,,,,,,,,,,,61032a35ae067e7ec879e70a,61036cd141e2aaa701adc00d,2021-07-29_20h08.41.185,Simcolourproject_2stim_asymm_v5,2020.2.10,MacIntel,60,61025ae37ef11b136ea224fe,,,,,,,,,3701,79.6171875,-30.984375,1,0,0,response3disk,,5,-4.19140625,11.109375,1,0,0,rectangle,-4.19140625,11.109375,1,0,0,-4.19140625,11.109375,1,0,0,0,36,36,31,1,,,,,,,,
,,,,,,,,,,,,,FF,,,,,,,,0.9492,,,,,,,,,,,,,,,,,,,,,,61032a35ae067e7ec879e70a,61036cd141e2aaa701adc00d,2021-07-29_20h08.41.185,Simcolourproject_2stim_asymm_v5,2020.2.10,MacIntel,60,61025ae37ef11b136ea224fe,,,,,,,,,448,67.375,-27.546875,1,0,0,response3disk,,5,-4.921875,9.35546875,1,0,0,rectangle,-4.921875,9.35546875,1,0,0,-4.921875,9.35546875,1,0,0,0,37,37,91,1,,,,,,,,
,,,,,,,,,,,,,FF,,,,,,,,0.6332,,,,,,,,,,,,,,,,,,,,,,61032a35ae067e7ec879e70a,61036cd141e2aaa701adc00d,2021-07-29_20h08.41.185,Simcolourproject_2stim_asymm_v5,2020.2.10,MacIntel,60,61025ae37ef11b136ea224fe,,,,,,,,,4346,80.37109375,-22.4453125,1,0,0,response3disk,,5,10.640625,-1.609375,1,0,0,rectangle,10.640625,-1.609375,1,0,0,10.640625,-1.609375,1,0,0,0,38,38,42,1,,,,,,,,
,,,,,,,,,,,,,FF,,,,,,,,0.5841,,,,,,,,,,,,,,,,,,,,,,61032a35ae067e7ec879e70a,61036cd141e2aaa701adc00d,2021-07-29_20h08.41.185,Simcolourproject_2stim_asymm_v5,2020.2.10,MacIntel,60,61025ae37ef11b136ea224fe,,,,,,,,,1333,29.48828125,-83.078125,1,0,0,response3disk,,4,-2.75,11.953125,1,0,0,rectangle,-2.75,11.953125,1,0,0,-2.75,11.953125,1,0,0,0,39,39,57,1,,,,,,,,
,,,,,,,,,,,,,FF,,,,,,,,0.6169,,,,,,,,,,,,,,,,,,,,,,61032a35ae067e7ec879e70a,61036cd141e2aaa701adc00d,2021-07-29_20h08.41.185,Simcolourproject_2stim_asymm_v5,2020.2.10,MacIntel,60,61025ae37ef11b136ea224fe,,,,,,,,,3884,-46.58984375,-75.25390625,1,0,0,response5disk,,3,-24.49609375,10.390625,1,0,0,rectangle,-24.49609375,10.390625,1,0,0,-24.49609375,10.390625,1,0,0,0,40,40,102,1,,,,,,,,
,,,,,,,,,,,,,FF,,,,,,,,0.5848,,,,,,,,,,,,,,,,,,,,,,61032a35ae067e7ec879e70a,61036cd141e2aaa701adc00d,2021-07-29_20h08.41.185,Simcolourproject_2stim_asymm_v5,2020.2.10,MacIntel,60,61025ae37ef11b136ea224fe,,,,,,,,,4196,-65.23046875,-40.08984375,1,0,0,response5disk,,2,-2.3671875,-10.53125,1,0,0,rectangle,-2.3671875,-10.53125,1,0,0,-2.3671875,-10.53125,1,0,0,0,41,41,16,1,,,,,,,,
,,,,,,,,,,,,,FF,,,,,,,,0.834,,,,,,,,,,,,,,,,,,,,,,61032a35ae067e7ec879e70a,61036cd141e2aaa701adc00d,2021-07-29_20h08.41.185,Simcolourproject_2stim_asymm_v5,2020.2.10,MacIntel,60,61025ae37ef11b136ea224fe,,,,,,,,,387,-53.703125,-78.44921875,1,0,0,response5disk,,3,-15.98828125,-4.94140625,1,0,0,rectangle,-15.98828125,-4.94140625,1,0,0,-15.98828125,-4.94140625,1,0,0,0,42,42,41,1,,,,,,,,
,,,,,,,,,,,,,FF,,,,,,,,0.9828,,,,,,,,,,,,,,,,,,,,,,61032a35ae067e7ec879e70a,61036cd141e2aaa701adc00d,2021-07-29_20h08.41.185,Simcolourproject_2stim_asymm_v5,2020.2.10,MacIntel,60,61025ae37ef11b136ea224fe,,,,,,,,,1162,-76.515625,-47.75390625,1,0,0,response5disk,,2,12.765625,-0.0625,1,0,0,rectangle,12.765625,-0.0625,1,0,0,12.765625,-0.0625,1,0,0,0,43,43,119,1,,,,,,,,
,,,,,,,,,,,,,FF,,,,,,,,1.0494,,,,,,,,,,,,,,,,,,,,,,61032a35ae067e7ec879e70a,61036cd141e2aaa701adc00d,2021-07-29_20h08.41.185,Simcolourproject_2stim_asymm_v5,2020.2.10,MacIntel,60,61025ae37ef11b136ea224fe,,,,,,,,,1535,77.76171875,60,1,0,0,response1disk,,6,-20.7109375,-1.640625,1,0,0,rectangle,-88.09375,-50.7265625,1,0,0,-13.97265625,0.2578125,1,0,0,0,44,44,58,1,,response5disk_3,TRUE,2,2,"[51,136,275,163,128,45,187,124,119,127,205,3,316,261,47,249,258,216,273,314]",2.4834,rectangle
,,,,,,,,,,,,,FF,,,,,,,,0.8504,,,,,,,,,,,,,,,,,,,,,,61032a35ae067e7ec879e70a,61036cd141e2aaa701adc00d,2021-07-29_20h08.41.185,Simcolourproject_2stim_asymm_v5,2020.2.10,MacIntel,60,61025ae37ef11b136ea224fe,,,,,,,,,4058,-47.90234375,-91.91796875,1,0,0,response5disk,,3,-15.6015625,-14.13671875,1,0,0,rectangle,-15.6015625,-14.13671875,1,0,0,-15.6015625,-14.13671875,1,0,0,0,45,45,155,1,,,,,,,,
,,,,,,,,,,,,,FF,,,,,,,,0.5498,,,,,,,,,,,,,,,,,,,,,,61032a35ae067e7ec879e70a,61036cd141e2aaa701adc00d,2021-07-29_20h08.41.185,Simcolourproject_2stim_asymm_v5,2020.2.10,MacIntel,60,61025ae37ef11b136ea224fe,,,,,,,,,1546,-45.53515625,-74.6171875,1,0,0,response5disk,,3,-2.96875,-3.02734375,1,0,0,rectangle,65.8671875,-56.453125,1,0,0,-2.8984375,1.328125,1,0,0,0,46,46,153,1,,response3disk_3,TRUE,5,4,"[51,136,275,163,128,45,187,124,119,127,205,3,316,261,47,249,258,216,273,314]",1.8013,rectangle
,,,,,,,,,,,,,FF,,,,,,,,0.849,,,,,,,,,,,,,,,,,,,,,,61032a35ae067e7ec879e70a,61036cd141e2aaa701adc00d,2021-07-29_20h08.41.185,Simcolourproject_2stim_asymm_v5,2020.2.10,MacIntel,60,61025ae37ef11b136ea224fe,,,,,,,,,83,-57.91015625,-117.4648438,1,0,0,response5disk,,3,-13.0234375,4.58984375,1,0,0,rectangle,-13.0234375,4.58984375,1,0,0,-13.0234375,4.58984375,1,0,0,0,47,47,88,1,,,,,,,,
,,,,,,,,,,,,,FF,,,,,,,,1.0683,,,,,,,,,,,,,,,,,,,,,,61032a35ae067e7ec879e70a,61036cd141e2aaa701adc00d,2021-07-29_20h08.41.185,Simcolourproject_2stim_asymm_v5,2020.2.10,MacIntel,60,61025ae37ef11b136ea224fe,,,,,,,,,3637,85.52734375,30.4453125,1,0,0,response1disk,,6,6.81640625,10.20703125,1,0,0,rectangle,6.81640625,10.20703125,1,0,0,6.81640625,10.20703125,1,0,0,0,48,48,114,1,,,,,,,,
,,,,,,,,,,,,,FF,,,,,,,,0.6832,,,,,,,,,,,,,,,,,,,,,,61032a35ae067e7ec879e70a,61036cd141e2aaa701adc00d,2021-07-29_20h08.41.185,Simcolourproject_2stim_asymm_v5,2020.2.10,MacIntel,60,61025ae37ef11b136ea224fe,,,,,,,,,3056,47.6484375,-32.64453125,1,0,0,response3disk,,5,12.171875,-3.3125,1,0,0,rectangle,12.171875,-3.3125,1,0,0,12.171875,-3.3125,1,0,0,0,49,49,117,1,,,,,,,,
,,,,,,,,,,,,,FF,,,,,,,,0.7992,,,,,,,,,,,,,,,,,,,,,,61032a35ae067e7ec879e70a,61036cd141e2aaa701adc00d,2021-07-29_20h08.41.185,Simcolourproject_2stim_asymm_v5,2020.2.10,MacIntel,60,61025ae37ef11b136ea224fe,,,,,,,,,3530,-46.37890625,-83.1015625,1,0,0,response5disk,,3,-12.9140625,8.0234375,1,0,0,rectangle,-43.35546875,-84.54296875,1,0,0,-7.91796875,-4.8203125,1,0,0,0,50,50,14,1,,response5disk_3,TRUE,3,3,"[51,136,275,163,128,45,187,124,119,127,205,3,316,261,47,249,258,216,273,314]",1.6822,rectangle
,,,,,,,,,,,,,FF,,,,,,,,1.1667,,,,,,,,,,,,,,,,,,,,,,61032a35ae067e7ec879e70a,61036cd141e2aaa701adc00d,2021-07-29_20h08.41.185,Simcolourproject_2stim_asymm_v5,2020.2.10,MacIntel,60,61025ae37ef11b136ea224fe,,,,,,,,,2078,-44.52734375,-83.359375,1,0,0,response5disk,,3,-1.83984375,-1.51953125,1,0,0,rectangle,-1.83984375,-1.51953125,1,0,0,-1.83984375,-1.51953125,1,0,0,0,51,51,18,1,,,,,,,,
,,,,,,,,,,,,,FF,,,,,,,,1.0508,,,,,,,,,,,,,,,,,,,,,,61032a35ae067e7ec879e70a,61036cd141e2aaa701adc00d,2021-07-29_20h08.41.185,Simcolourproject_2stim_asymm_v5,2020.2.10,MacIntel,60,61025ae37ef11b136ea224fe,,,,,,,,,646,54.34375,-35.39453125,1,0,0,response3disk,,5,13.8515625,-4.86328125,1,0,0,rectangle,13.8515625,-4.86328125,1,0,0,13.8515625,-4.86328125,1,0,0,0,52,52,112,1,,,,,,,,
,,,,,,,,,,,,,FF,,,,,,,,0.8677,,,,,,,,,,,,,,,,,,,,,,61032a35ae067e7ec879e70a,61036cd141e2aaa701adc00d,2021-07-29_20h08.41.185,Simcolourproject_2stim_asymm_v5,2020.2.10,MacIntel,60,61025ae37ef11b136ea224fe,,,,,,,,,3231,29.3515625,-98.40625,1,0,0,response3disk,,4,11.86328125,-7.49609375,1,0,0,rectangle,11.86328125,-7.49609375,1,0,0,11.86328125,-7.49609375,1,0,0,0,53,53,19,1,,,,,,,,
,,,,,,,,,,,,,FF,,,,,,,,0.8329,,,,,,,,,,,,,,,,,,,,,,61032a35ae067e7ec879e70a,61036cd141e2aaa701adc00d,2021-07-29_20h08.41.185,Simcolourproject_2stim_asymm_v5,2020.2.10,MacIntel,60,61025ae37ef11b136ea224fe,,,,,,,,,3315,35.125,-61.359375,1,0,0,response3disk,,4,7.8125,0.73828125,1,0,0,rectangle,7.8125,0.73828125,1,0,0,7.8125,0.73828125,1,0,0,0,54,54,118,1,,,,,,,,
,,,,,,,,,,,,,FF,,,,,,,,1.3507,,,,,,,,,,,,,,,,,,,,,,61032a35ae067e7ec879e70a,61036cd141e2aaa701adc00d,2021-07-29_20h08.41.185,Simcolourproject_2stim_asymm_v5,2020.2.10,MacIntel,60,61025ae37ef11b136ea224fe,,,,,,,,,1271,24.79296875,-56.76953125,1,0,0,response3disk,,4,13.50390625,-1.27734375,1,0,0,rectangle,13.50390625,-1.27734375,1,0,0,13.50390625,-1.27734375,1,0,0,0,55,55,92,1,,,,,,,,
,,,,,,,,,,,,,FF,,,,,,,,0.8489,,,,,,,,,,,,,,,,,,,,,,61032a35ae067e7ec879e70a,61036cd141e2aaa701adc00d,2021-07-29_20h08.41.185,Simcolourproject_2stim_asymm_v5,2020.2.10,MacIntel,60,61025ae37ef11b136ea224fe,,,,,,,,,4087,78.2109375,46.87890625,1,0,0,response1disk,,6,7.60546875,-2.52734375,1,0,0,rectangle,7.60546875,-2.52734375,1,0,0,7.60546875,-2.52734375,1,0,0,0,56,56,79,1,,,,,,,,
,,,,,,,,,,,,,FF,,,,,,,,0.6161,,,,,,,,,,,,,,,,,,,,,,61032a35ae067e7ec879e70a,61036cd141e2aaa701adc00d,2021-07-29_20h08.41.185,Simcolourproject_2stim_asymm_v5,2020.2.10,MacIntel,60,61025ae37ef11b136ea224fe,,,,,,,,,4285,28.65625,-89.77734375,1,0,0,response3disk,,4,7.0625,0.64453125,1,0,0,rectangle,7.0625,0.64453125,1,0,0,7.0625,0.64453125,1,0,0,0,57,57,71,1,,,,,,,,
,,,,,,,,,,,,,FF,,,,,,,,0.6836,,,,,,,,,,,,,,,,,,,,,,61032a35ae067e7ec879e70a,61036cd141e2aaa701adc00d,2021-07-29_20h08.41.185,Simcolourproject_2stim_asymm_v5,2020.2.10,MacIntel,60,61025ae37ef11b136ea224fe,,,,,,,,,4108,-36.53125,-61.62890625,1,0,0,response5disk,,3,-11.73828125,5.3359375,1,0,0,rectangle,-11.73828125,5.3359375,1,0,0,-11.73828125,5.3359375,1,0,0,0,58,58,146,1,,,,,,,,
,,,,,,,,,,,,,FF,,,,,,,,1.2992,,,,,,,,,,,,,,,,,,,,,,61032a35ae067e7ec879e70a,61036cd141e2aaa701adc00d,2021-07-29_20h08.41.185,Simcolourproject_2stim_asymm_v5,2020.2.10,MacIntel,60,61025ae37ef11b136ea224fe,,,,,,,,,4360,-38.55078125,-70.52734375,1,0,0,response5disk,,3,-8.92578125,0.21484375,1,0,0,rectangle,-8.92578125,0.21484375,1,0,0,-8.92578125,0.21484375,1,0,0,0,59,59,116,1,,,,,,,,
,,,,,,,,,,,,,FF,,,,,,,,2.0666,,,,,,,,,,,,,,,,,,,,,,61032a35ae067e7ec879e70a,61036cd141e2aaa701adc00d,2021-07-29_20h08.41.185,Simcolourproject_2stim_asymm_v5,2020.2.10,MacIntel,60,61025ae37ef11b136ea224fe,,,,,,,,,428,-40.15234375,-87.734375,1,0,0,response5disk,,3,-2.3515625,3.328125,1,0,0,rectangle,-2.3515625,3.328125,1,0,0,-2.3515625,3.328125,1,0,0,0,60,60,143,1,,,,,,,,
,,,,,,,,,,,,,FF,,,,,,,,0.9504,,,,,,,,,,,,,,,,,,,,,,61032a35ae067e7ec879e70a,61036cd141e2aaa701adc00d,2021-07-29_20h08.41.185,Simcolourproject_2stim_asymm_v5,2020.2.10,MacIntel,60,61025ae37ef11b136ea224fe,,,,,,,,,390,-35.859375,-74.49609375,1,0,0,response5disk,,3,-12.87890625,-5.38671875,1,0,0,rectangle,-12.87890625,-5.38671875,1,0,0,-12.87890625,-5.38671875,1,0,0,0,61,61,35,1,,,,,,,,
,,,,,,,,,,,,,FF,,,,,,,,0.6498,,,,,,,,,,,,,,,,,,,,,,61032a35ae067e7ec879e70a,61036cd141e2aaa701adc00d,2021-07-29_20h08.41.185,Simcolourproject_2stim_asymm_v5,2020.2.10,MacIntel,60,61025ae37ef11b136ea224fe,,,,,,,,,3108,77.2421875,-42.01171875,1,0,0,response3disk,,5,17.79296875,-12.33203125,1,0,0,rectangle,17.79296875,-12.33203125,1,0,0,17.79296875,-12.33203125,1,0,0,0,62,62,89,1,,,,,,,,
,,,,,,,,,,,,,FF,,,,,,,,0.5502,,,,,,,,,,,,,,,,,,,,,,61032a35ae067e7ec879e70a,61036cd141e2aaa701adc00d,2021-07-29_20h08.41.185,Simcolourproject_2stim_asymm_v5,2020.2.10,MacIntel,60,61025ae37ef11b136ea224fe,,,,,,,,,3482,60.73828125,-35.71484375,1,0,0,response3disk,,5,15.1640625,-5.19140625,1,0,0,rectangle,15.1640625,-5.19140625,1,0,0,15.1640625,-5.19140625,1,0,0,0,63,63,51,1,,,,,,,,
,,,,,,,,,,,,,FF,,,,,,,,0.5332,,,,,,,,,,,,,,,,,,,,,,61032a35ae067e7ec879e70a,61036cd141e2aaa701adc00d,2021-07-29_20h08.41.185,Simcolourproject_2stim_asymm_v5,2020.2.10,MacIntel,60,61025ae37ef11b136ea224fe,,,,,,,,,2422,35.765625,-90.64453125,1,0,0,response3disk,,4,3.0390625,-6.26953125,1,0,0,rectangle,3.0390625,-6.26953125,1,0,0,3.0390625,-6.26953125,1,0,0,0,64,64,93,1,,,,,,,,
,,,,,,,,,,,,,FF,,,,,,,,0.7155,,,,,,,,,,,,,,,,,,,,,,61032a35ae067e7ec879e70a,61036cd141e2aaa701adc00d,2021-07-29_20h08.41.185,Simcolourproject_2stim_asymm_v5,2020.2.10,MacIntel,60,61025ae37ef11b136ea224fe,,,,,,,,,2129,40.55078125,-23.3125,1,0,0,response3disk,,5,-3.35546875,-2.54296875,1,0,0,rectangle,-3.35546875,-2.54296875,1,0,0,-3.35546875,-2.54296875,1,0,0,0,65,65,113,1,,,,,,,,
,,,,,,,,,,,,,FF,,,,,,,,1.5502,,,,,,,,,,,,,,,,,,,,,,61032a35ae067e7ec879e70a,61036cd141e2aaa701adc00d,2021-07-29_20h08.41.185,Simcolourproject_2stim_asymm_v5,2020.2.10,MacIntel,60,61025ae37ef11b136ea224fe,,,,,,,,,1482,40.71875,-32.60546875,1,0,0,response3disk,,5,-20.78125,-13.30859375,1,0,0,rectangle,-20.78125,-13.30859375,1,0,0,-20.78125,-13.30859375,1,0,0,0,66,66,72,1,,,,,,,,
,,,,,,,,,,,,,FF,,,,,,,,1.0669,,,,,,,,,,,,,,,,,,,,,,61032a35ae067e7ec879e70a,61036cd141e2aaa701adc00d,2021-07-29_20h08.41.185,Simcolourproject_2stim_asymm_v5,2020.2.10,MacIntel,60,61025ae37ef11b136ea224fe,,,,,,,,,3690,52.15625,-28.6171875,1,0,0,response3disk,,5,16.9453125,4.109375,1,0,0,rectangle,16.9453125,4.109375,1,0,0,16.9453125,4.109375,1,0,0,0,67,67,6,1,,,,,,,,
,,,,,,,,,,,,,FF,,,,,,,,0.7161,,,,,,,,,,,,,,,,,,,,,,61032a35ae067e7ec879e70a,61036cd141e2aaa701adc00d,2021-07-29_20h08.41.185,Simcolourproject_2stim_asymm_v5,2020.2.10,MacIntel,60,61025ae37ef11b136ea224fe,,,,,,,,,2928,34.15625,-24.11328125,1,0,0,response3disk,,5,16.19921875,1.328125,1,0,0,rectangle,16.19921875,1.328125,1,0,0,16.19921875,1.328125,1,0,0,0,68,68,115,1,,,,,,,,
,,,,,,,,,,,,,FF,,,,,,,,1.0329,,,,,,,,,,,,,,,,,,,,,,61032a35ae067e7ec879e70a,61036cd141e2aaa701adc00d,2021-07-29_20h08.41.185,Simcolourproject_2stim_asymm_v5,2020.2.10,MacIntel,60,61025ae37ef11b136ea224fe,,,,,,,,,2457,-27.58984375,-59.3828125,1,0,0,response5disk,,3,-6.58984375,-7.2421875,1,0,0,rectangle,-6.58984375,-7.2421875,1,0,0,-6.58984375,-7.2421875,1,0,0,0,69,69,110,1,,,,,,,,
,,,,,,,,,,,,,FF,,,,,,,,0.6341,,,,,,,,,,,,,,,,,,,,,,61032a35ae067e7ec879e70a,61036cd141e2aaa701adc00d,2021-07-29_20h08.41.185,Simcolourproject_2stim_asymm_v5,2020.2.10,MacIntel,60,61025ae37ef11b136ea224fe,,,,,,,,,1580,40.41015625,-46.5625,1,0,0,response3disk,,4,20.30078125,4.4765625,1,0,0,rectangle,20.30078125,4.4765625,1,0,0,20.30078125,4.4765625,1,0,0,0,70,70,138,1,,,,,,,,
,,,,,,,,,,,,,FF,,,,,,,,0.7494,,,,,,,,,,,,,,,,,,,,,,61032a35ae067e7ec879e70a,61036cd141e2aaa701adc00d,2021-07-29_20h08.41.185,Simcolourproject_2stim_asymm_v5,2020.2.10,MacIntel,60,61025ae37ef11b136ea224fe,,,,,,,,,1417,-32.484375,-38.84765625,1,0,0,response5disk,,3,-7.2890625,6.73046875,1,0,0,rectangle,-7.2890625,6.73046875,1,0,0,-7.2890625,6.73046875,1,0,0,0,71,71,12,1,,,,,,,,
,,,,,,,,,,,,,FF,,,,,,,,1.0177,,,,,,,,,,,,,,,,,,,,,,61032a35ae067e7ec879e70a,61036cd141e2aaa701adc00d,2021-07-29_20h08.41.185,Simcolourproject_2stim_asymm_v5,2020.2.10,MacIntel,60,61025ae37ef11b136ea224fe,,,,,,,,,1617,63.09375,38.50390625,1,0,0,response1disk,,6,2.8984375,0.73828125,1,0,0,rectangle,2.8984375,0.73828125,1,0,0,2.8984375,0.73828125,1,0,0,0,72,72,28,1,,,,,,,,
,,,,,,,,,,,,,FF,,,,,,,,0.8673,,,,,,,,,,,,,,,,,,,,,,61032a35ae067e7ec879e70a,61036cd141e2aaa701adc00d,2021-07-29_20h08.41.185,Simcolourproject_2stim_asymm_v5,2020.2.10,MacIntel,60,61025ae37ef11b136ea224fe,,,,,,,,,2736,40.5703125,-22.51953125,1,0,0,response3disk,,5,-2.15234375,-5.921875,1,0,0,rectangle,-2.15234375,-5.921875,1,0,0,-2.15234375,-5.921875,1,0,0,0,73,73,8,1,,,,,,,,
,,,,,,,,,,,,,FF,,,,,,,,0.7995,,,,,,,,,,,,,,,,,,,,,,61032a35ae067e7ec879e70a,61036cd141e2aaa701adc00d,2021-07-29_20h08.41.185,Simcolourproject_2stim_asymm_v5,2020.2.10,MacIntel,60,61025ae37ef11b136ea224fe,,,,,,,,,3389,61.8828125,42.64453125,1,0,0,response1disk,,6,10.4609375,8.51171875,1,0,0,rectangle,10.4609375,8.51171875,1,0,0,10.4609375,8.51171875,1,0,0,0,74,74,0,1,,,,,,,,
,,,,,,,,,,,,,FF,,,,,,,,0.5997,,,,,,,,,,,,,,,,,,,,,,61032a35ae067e7ec879e70a,61036cd141e2aaa701adc00d,2021-07-29_20h08.41.185,Simcolourproject_2stim_asymm_v5,2020.2.10,MacIntel,60,61025ae37ef11b136ea224fe,,,,,,,,,282,47.41796875,-25.78125,1,0,0,response3disk,,5,12.0859375,-6.70703125,1,0,0,rectangle,12.0859375,-6.70703125,1,0,0,12.0859375,-6.70703125,1,0,0,0,75,75,25,1,,,,,,,,
,,,,,,,,,,,,,FF,,,,,,,,0.5499,,,,,,,,,,,,,,,,,,,,,,61032a35ae067e7ec879e70a,61036cd141e2aaa701adc00d,2021-07-29_20h08.41.185,Simcolourproject_2stim_asymm_v5,2020.2.10,MacIntel,60,61025ae37ef11b136ea224fe,,,,,,,,,1035,18.18359375,-45.06640625,1,0,0,response3disk,,4,-6.97265625,4.13671875,1,0,0,rectangle,-6.97265625,4.13671875,1,0,0,-6.97265625,4.13671875,1,0,0,0,76,76,94,1,,,,,,,,
,,,,,,,,,,,,,FF,,,,,,,,0.585,,,,,,,,,,,,,,,,,,,,,,61032a35ae067e7ec879e70a,61036cd141e2aaa701adc00d,2021-07-29_20h08.41.185,Simcolourproject_2stim_asymm_v5,2020.2.10,MacIntel,60,61025ae37ef11b136ea224fe,,,,,,,,,1430,-22.0078125,-40.9140625,1,0,0,response5disk,,3,-12.125,7.9453125,1,0,0,rectangle,-12.125,7.9453125,1,0,0,-12.125,7.9453125,1,0,0,0,77,77,87,1,,,,,,,,
,,,,,,,,,,,,,FF,,,,,,,,0.9176,,,,,,,,,,,,,,,,,,,,,,61032a35ae067e7ec879e70a,61036cd141e2aaa701adc00d,2021-07-29_20h08.41.185,Simcolourproject_2stim_asymm_v5,2020.2.10,MacIntel,60,61025ae37ef11b136ea224fe,,,,,,,,,97,55.5625,-32.14453125,1,0,0,response3disk,,5,-4.796875,2.7890625,1,0,0,rectangle,-4.796875,2.7890625,1,0,0,-4.796875,2.7890625,1,0,0,0,78,78,123,1,,,,,,,,
,,,,,,,,,,,,,FF,,,,,,,,1.0833,,,,,,,,,,,,,,,,,,,,,,61032a35ae067e7ec879e70a,61036cd141e2aaa701adc00d,2021-07-29_20h08.41.185,Simcolourproject_2stim_asymm_v5,2020.2.10,MacIntel,60,61025ae37ef11b136ea224fe,,,,,,,,,2246,-53.1875,-25.6953125,1,0,0,response5disk,,2,-9.875,-12.71484375,1,0,0,rectangle,-9.875,-12.71484375,1,0,0,-9.875,-12.71484375,1,0,0,0,79,79,24,1,,,,,,,,
,,,,,,,,,,,,,FF,,,,,,,,0.7168,,,,,,,,,,,,,,,,,,,,,,61032a35ae067e7ec879e70a,61036cd141e2aaa701adc00d,2021-07-29_20h08.41.185,Simcolourproject_2stim_asymm_v5,2020.2.10,MacIntel,60,61025ae37ef11b136ea224fe,,,,,,,,,1615,60.94921875,-24.06640625,1,0,0,response3disk,,5,4.71875,-12.44921875,1,0,0,rectangle,4.71875,-12.44921875,1,0,0,4.71875,-12.44921875,1,0,0,0,80,80,140,1,,,,,,,,
,,,,,,,,,,,,,FF,,,,,,,,1.3496,,,,,,,,,,,,,,,,,,,,,,61032a35ae067e7ec879e70a,61036cd141e2aaa701adc00d,2021-07-29_20h08.41.185,Simcolourproject_2stim_asymm_v5,2020.2.10,MacIntel,60,61025ae37ef11b136ea224fe,,,,,,,,,2590,-23.30859375,-42.7734375,1,0,0,response5disk,,3,-7.74609375,0.99609375,1,0,0,rectangle,-7.74609375,0.99609375,1,0,0,-7.74609375,0.99609375,1,0,0,0,81,81,80,1,,,,,,,,
,,,,,,,,,,,,,FF,,,,,,,,0.9331,,,,,,,,,,,,,,,,,,,,,,61032a35ae067e7ec879e70a,61036cd141e2aaa701adc00d,2021-07-29_20h08.41.185,Simcolourproject_2stim_asymm_v5,2020.2.10,MacIntel,60,61025ae37ef11b136ea224fe,,,,,,,,,3849,50.5859375,-32.8046875,1,0,0,response3disk,,5,3.16796875,-5.26953125,1,0,0,rectangle,3.16796875,-5.26953125,1,0,0,3.16796875,-5.26953125,1,0,0,0,82,82,60,1,,,,,,,,
,,,,,,,,,,,,,FF,,,,,,,,0.8498,,,,,,,,,,,,,,,,,,,,,,61032a35ae067e7ec879e70a,61036cd141e2aaa701adc00d,2021-07-29_20h08.41.185,Simcolourproject_2stim_asymm_v5,2020.2.10,MacIntel,60,61025ae37ef11b136ea224fe,,,,,,,,,4304,-44.40234375,-24.73828125,1,0,0,response5disk,,2,-7.07421875,-2.80859375,1,0,0,rectangle,-7.07421875,-2.80859375,1,0,0,-7.07421875,-2.80859375,1,0,0,0,83,83,103,1,,,,,,,,
,,,,,,,,,,,,,FF,,,,,,,,0.9159,,,,,,,,,,,,,,,,,,,,,,61032a35ae067e7ec879e70a,61036cd141e2aaa701adc00d,2021-07-29_20h08.41.185,Simcolourproject_2stim_asymm_v5,2020.2.10,MacIntel,60,61025ae37ef11b136ea224fe,,,,,,,,,572,-49.47265625,23.66796875,1,0,0,response7disk,,1,4.84765625,7.72265625,1,0,0,rectangle,4.84765625,7.72265625,1,0,0,4.84765625,7.72265625,1,0,0,0,84,84,107,1,,,,,,,,
,,,,,,,,,,,,,FF,,,,,,,,0.8502,,,,,,,,,,,,,,,,,,,,,,61032a35ae067e7ec879e70a,61036cd141e2aaa701adc00d,2021-07-29_20h08.41.185,Simcolourproject_2stim_asymm_v5,2020.2.10,MacIntel,60,61025ae37ef11b136ea224fe,,,,,,,,,1060,-37.82421875,-49.26953125,1,0,0,response5disk,,3,-7.0078125,-8.12890625,1,0,0,rectangle,-7.0078125,-8.12890625,1,0,0,-7.0078125,-8.12890625,1,0,0,0,85,85,81,1,,,,,,,,
,,,,,,,,,,,,,FF,,,,,,,,0.7334,,,,,,,,,,,,,,,,,,,,,,61032a35ae067e7ec879e70a,61036cd141e2aaa701adc00d,2021-07-29_20h08.41.185,Simcolourproject_2stim_asymm_v5,2020.2.10,MacIntel,60,61025ae37ef11b136ea224fe,,,,,,,,,3740,-48.80078125,-26.15234375,1,0,0,response5disk,,2,-7.3125,-13.015625,1,0,0,rectangle,-7.3125,-13.015625,1,0,0,-7.3125,-13.015625,1,0,0,0,86,86,109,1,,,,,,,,
,,,,,,,,,,,,,FF,,,,,,,,0.7832,,,,,,,,,,,,,,,,,,,,,,61032a35ae067e7ec879e70a,61036cd141e2aaa701adc00d,2021-07-29_20h08.41.185,Simcolourproject_2stim_asymm_v5,2020.2.10,MacIntel,60,61025ae37ef11b136ea224fe,,,,,,,,,67,-31.015625,-32.1015625,1,0,0,response5disk,,3,-7.95703125,4.63671875,1,0,0,rectangle,-7.95703125,4.63671875,1,0,0,-7.95703125,4.63671875,1,0,0,0,87,87,128,1,,,,,,,,
,,,,,,,,,,,,,FF,,,,,,,,0.6339,,,,,,,,,,,,,,,,,,,,,,61032a35ae067e7ec879e70a,61036cd141e2aaa701adc00d,2021-07-29_20h08.41.185,Simcolourproject_2stim_asymm_v5,2020.2.10,MacIntel,60,61025ae37ef11b136ea224fe,,,,,,,,,812,20.8125,-50.34765625,1,0,0,response3disk,,4,12.13671875,-8.39453125,1,0,0,rectangle,12.13671875,-8.39453125,1,0,0,12.13671875,-8.39453125,1,0,0,0,88,88,147,1,,,,,,,,
,,,,,,,,,,,,,FF,,,,,,,,0.4664,,,,,,,,,,,,,,,,,,,,,,61032a35ae067e7ec879e70a,61036cd141e2aaa701adc00d,2021-07-29_20h08.41.185,Simcolourproject_2stim_asymm_v5,2020.2.10,MacIntel,60,61025ae37ef11b136ea224fe,,,,,,,,,2463,-27.375,-43.52734375,1,0,0,response5disk,,3,1.578125,2.65234375,1,0,0,rectangle,1.578125,2.65234375,1,0,0,1.578125,2.65234375,1,0,0,0,89,89,65,1,,,,,,,,
,,,,,,,,,,,,,FF,,,,,,,,0.8843,,,,,,,,,,,,,,,,,,,,,,61032a35ae067e7ec879e70a,61036cd141e2aaa701adc00d,2021-07-29_20h08.41.185,Simcolourproject_2stim_asymm_v5,2020.2.10,MacIntel,60,61025ae37ef11b136ea224fe,,,,,,,,,486,-41.73828125,18.45703125,1,0,0,response7disk,,1,5.640625,-7.4765625,1,0,0,rectangle,5.640625,-7.4765625,1,0,0,5.640625,-7.4765625,1,0,0,0,90,90,149,1,,,,,,,,
,,,,,,,,,,,,,FF,,,,,,,,1.3165,,,,,,,,,,,,,,,,,,,,,,61032a35ae067e7ec879e70a,61036cd141e2aaa701adc00d,2021-07-29_20h08.41.185,Simcolourproject_2stim_asymm_v5,2020.2.10,MacIntel,60,61025ae37ef11b136ea224fe,,,,,,,,,3292,-29.50390625,-48.80859375,1,0,0,response5disk,,3,-13.51953125,2.30859375,1,0,0,rectangle,-13.51953125,2.30859375,1,0,0,-13.51953125,2.30859375,1,0,0,0,91,91,151,1,,,,,,,,
,,,,,,,,,,,,,FF,,,,,,,,0.9837,,,,,,,,,,,,,,,,,,,,,,61032a35ae067e7ec879e70a,61036cd141e2aaa701adc00d,2021-07-29_20h08.41.185,Simcolourproject_2stim_asymm_v5,2020.2.10,MacIntel,60,61025ae37ef11b136ea224fe,,,,,,,,,2676,-26.171875,-45.953125,1,0,0,response5disk,,3,-9.4609375,-6.578125,1,0,0,rectangle,-9.4609375,-6.578125,1,0,0,-9.4609375,-6.578125,1,0,0,0,92,92,62,1,,,,,,,,
,,,,,,,,,,,,,FF,,,,,,,,0.6177,,,,,,,,,,,,,,,,,,,,,,61032a35ae067e7ec879e70a,61036cd141e2aaa701adc00d,2021-07-29_20h08.41.185,Simcolourproject_2stim_asymm_v5,2020.2.10,MacIntel,60,61025ae37ef11b136ea224fe,,,,,,,,,1941,-24.5859375,-29.13671875,1,0,0,response5disk,,3,-4.6875,6.6015625,1,0,0,rectangle,-4.6875,6.6015625,1,0,0,-4.6875,6.6015625,1,0,0,0,93,93,55,1,,,,,,,,
,,,,,,,,,,,,,FF,,,,,,,,1.0008,,,,,,,,,,,,,,,,,,,,,,61032a35ae067e7ec879e70a,61036cd141e2aaa701adc00d,2021-07-29_20h08.41.185,Simcolourproject_2stim_asymm_v5,2020.2.10,MacIntel,60,61025ae37ef11b136ea224fe,,,,,,,,,289,-42.74609375,-20.3203125,1,0,0,response5disk,,2,-11.83984375,-5.50390625,1,0,0,rectangle,-11.83984375,-5.50390625,1,0,0,-11.83984375,-5.50390625,1,0,0,0,94,94,17,1,,,,,,,,
,,,,,,,,,,,,,FF,,,,,,,,0.9684,,,,,,,,,,,,,,,,,,,,,,61032a35ae067e7ec879e70a,61036cd141e2aaa701adc00d,2021-07-29_20h08.41.185,Simcolourproject_2stim_asymm_v5,2020.2.10,MacIntel,60,61025ae37ef11b136ea224fe,,,,,,,,,2281,-58.40625,-38.1328125,1,0,0,response5disk,,2,-15.12109375,-6.421875,1,0,0,rectangle,-15.12109375,-6.421875,1,0,0,-15.12109375,-6.421875,1,0,0,0,95,95,99,1,,,,,,,,
,,,,,,,,,,,,,FF,,,,,,,,3.1014,,,,,,,,,,,,,,,,,,,,,,61032a35ae067e7ec879e70a,61036cd141e2aaa701adc00d,2021-07-29_20h08.41.185,Simcolourproject_2stim_asymm_v5,2020.2.10,MacIntel,60,61025ae37ef11b136ea224fe,,,,,,,,,3607,-44.484375,-23.8046875,1,0,0,response5disk,,2,-13.2109375,-1.06640625,1,0,0,rectangle,-13.2109375,-1.06640625,1,0,0,-13.2109375,-1.06640625,1,0,0,0,96,96,11,1,,,,,,,,
,,,,,,,,,,,,,FF,,,,,,,,0.7162,,,,,,,,,,,,,,,,,,,,,,61032a35ae067e7ec879e70a,61036cd141e2aaa701adc00d,2021-07-29_20h08.41.185,Simcolourproject_2stim_asymm_v5,2020.2.10,MacIntel,60,61025ae37ef11b136ea224fe,,,,,,,,,2472,-36.265625,-53.765625,1,0,0,response5disk,,3,-19.06640625,-14.40625,1,0,0,rectangle,-19.06640625,-14.40625,1,0,0,-19.06640625,-14.40625,1,0,0,0,97,97,111,1,,,,,,,,
,,,,,,,,,,,,,FF,,,,,,,,0.867,,,,,,,,,,,,,,,,,,,,,,61032a35ae067e7ec879e70a,61036cd141e2aaa701adc00d,2021-07-29_20h08.41.185,Simcolourproject_2stim_asymm_v5,2020.2.10,MacIntel,60,61025ae37ef11b136ea224fe,,,,,,,,,1152,73.88671875,34.296875,1,0,0,response1disk,,6,0.078125,3.2109375,1,0,0,rectangle,0.078125,3.2109375,1,0,0,0.078125,3.2109375,1,0,0,0,98,98,34,1,,,,,,,,
,,,,,,,,,,,,,FF,,,,,,,,0.8838,,,,,,,,,,,,,,,,,,,,,,61032a35ae067e7ec879e70a,61036cd141e2aaa701adc00d,2021-07-29_20h08.41.185,Simcolourproject_2stim_asymm_v5,2020.2.10,MacIntel,60,61025ae37ef11b136ea224fe,,,,,,,,,1085,60.21484375,-38.2734375,1,0,0,response3disk,,5,-10.94140625,-12.02734375,1,0,0,rectangle,-10.94140625,-12.02734375,1,0,0,-10.94140625,-12.02734375,1,0,0,0,99,99,45,1,,,,,,,,
,,,,,,,,,,,,,FF,,,,,,,,0.5165,,,,,,,,,,,,,,,,,,,,,,61032a35ae067e7ec879e70a,61036cd141e2aaa701adc00d,2021-07-29_20h08.41.185,Simcolourproject_2stim_asymm_v5,2020.2.10,MacIntel,60,61025ae37ef11b136ea224fe,,,,,,,,,4044,33.484375,-53.703125,1,0,0,response3disk,,4,10.10546875,7.59765625,1,0,0,rectangle,10.10546875,7.59765625,1,0,0,10.10546875,7.59765625,1,0,0,0,100,100,47,1,,,,,,,,
,,,,,,,,,,,,,FF,,,,,,,,0.5662,,,,,,,,,,,,,,,,,,,,,,61032a35ae067e7ec879e70a,61036cd141e2aaa701adc00d,2021-07-29_20h08.41.185,Simcolourproject_2stim_asymm_v5,2020.2.10,MacIntel,60,61025ae37ef11b136ea224fe,,,,,,,,,33,-41.3359375,-44.984375,1,0,0,response5disk,,3,-10.98828125,2.5859375,1,0,0,rectangle,-10.98828125,2.5859375,1,0,0,-10.98828125,2.5859375,1,0,0,0,101,101,83,1,,,,,,,,
,,,,,,,,,,,,,FF,,,,,,,,0.7664,,,,,,,,,,,,,,,,,,,,,,61032a35ae067e7ec879e70a,61036cd141e2aaa701adc00d,2021-07-29_20h08.41.185,Simcolourproject_2stim_asymm_v5,2020.2.10,MacIntel,60,61025ae37ef11b136ea224fe,,,,,,,,,3386,-56.0390625,-24.05859375,1,0,0,response5disk,,2,-8.20703125,-5.55078125,1,0,0,rectangle,-8.20703125,-5.55078125,1,0,0,-8.20703125,-5.55078125,1,0,0,0,102,102,82,1,,,,,,,,
,,,,,,,,,,,,,FF,,,,,,,,0.7166,,,,,,,,,,,,,,,,,,,,,,61032a35ae067e7ec879e70a,61036cd141e2aaa701adc00d,2021-07-29_20h08.41.185,Simcolourproject_2stim_asymm_v5,2020.2.10,MacIntel,60,61025ae37ef11b136ea224fe,,,,,,,,,3565,-22.953125,-38.44921875,1,0,0,response5disk,,3,-13.33203125,6.87890625,1,0,0,rectangle,-13.33203125,6.87890625,1,0,0,-13.33203125,6.87890625,1,0,0,0,103,103,54,1,,,,,,,,
,,,,,,,,,,,,,FF,,,,,,,,0.75,,,,,,,,,,,,,,,,,,,,,,61032a35ae067e7ec879e70a,61036cd141e2aaa701adc00d,2021-07-29_20h08.41.185,Simcolourproject_2stim_asymm_v5,2020.2.10,MacIntel,60,61025ae37ef11b136ea224fe,,,,,,,,,2240,29.63671875,-31.74609375,1,0,0,response3disk,,4,14.70703125,8.15625,1,0,0,rectangle,14.70703125,8.15625,1,0,0,14.70703125,8.15625,1,0,0,0,104,104,121,1,,,,,,,,
,,,,,,,,,,,,,FF,,,,,,,,0.667,,,,,,,,,,,,,,,,,,,,,,61032a35ae067e7ec879e70a,61036cd141e2aaa701adc00d,2021-07-29_20h08.41.185,Simcolourproject_2stim_asymm_v5,2020.2.10,MacIntel,60,61025ae37ef11b136ea224fe,,,,,,,,,377,-26.97265625,-42.1328125,1,0,0,response5disk,,3,-21.05859375,2.28125,1,0,0,rectangle,-21.05859375,2.28125,1,0,0,-21.05859375,2.28125,1,0,0,0,105,105,124,1,,,,,,,,
,,,,,,,,,,,,,FF,,,,,,,,0.5504,,,,,,,,,,,,,,,,,,,,,,61032a35ae067e7ec879e70a,61036cd141e2aaa701adc00d,2021-07-29_20h08.41.185,Simcolourproject_2stim_asymm_v5,2020.2.10,MacIntel,60,61025ae37ef11b136ea224fe,,,,,,,,,3923,-51.73046875,-22.96875,1,0,0,response5disk,,2,-8.0703125,-1.01171875,1,0,0,rectangle,-8.0703125,-1.01171875,1,0,0,-8.0703125,-1.01171875,1,0,0,0,106,106,66,1,,,,,,,,
,,,,,,,,,,,,,FF,,,,,,,,0.9153,,,,,,,,,,,,,,,,,,,,,,61032a35ae067e7ec879e70a,61036cd141e2aaa701adc00d,2021-07-29_20h08.41.185,Simcolourproject_2stim_asymm_v5,2020.2.10,MacIntel,60,61025ae37ef11b136ea224fe,,,,,,,,,3973,-52.87109375,-63.3984375,1,0,0,response5disk,,3,-13.46484375,1.83203125,1,0,0,rectangle,-13.46484375,1.83203125,1,0,0,-13.46484375,1.83203125,1,0,0,0,107,107,23,1,,,,,,,,
,,,,,,,,,,,,,FF,,,,,,,,0.734,,,,,,,,,,,,,,,,,,,,,,61032a35ae067e7ec879e70a,61036cd141e2aaa701adc00d,2021-07-29_20h08.41.185,Simcolourproject_2stim_asymm_v5,2020.2.10,MacIntel,60,61025ae37ef11b136ea224fe,,,,,,,,,993,-21.1640625,-32.28515625,1,0,0,response5disk,,3,-17.1484375,1.33984375,1,0,0,rectangle,-17.1484375,1.33984375,1,0,0,-17.1484375,1.33984375,1,0,0,0,108,108,10,1,,,,,,,,
,,,,,,,,,,,,,FF,,,,,,,,1.2158,,,,,,,,,,,,,,,,,,,,,,61032a35ae067e7ec879e70a,61036cd141e2aaa701adc00d,2021-07-29_20h08.41.185,Simcolourproject_2stim_asymm_v5,2020.2.10,MacIntel,60,61025ae37ef11b136ea224fe,,,,,,,,,3480,-38.359375,-44.1640625,1,0,0,response5disk,,3,-21.0703125,-0.171875,1,0,0,rectangle,-21.0703125,-0.171875,1,0,0,-21.0703125,-0.171875,1,0,0,0,109,109,21,1,,,,,,,,
,,,,,,,,,,,,,FF,,,,,,,,0.6003,,,,,,,,,,,,,,,,,,,,,,61032a35ae067e7ec879e70a,61036cd141e2aaa701adc00d,2021-07-29_20h08.41.185,Simcolourproject_2stim_asymm_v5,2020.2.10,MacIntel,60,61025ae37ef11b136ea224fe,,,,,,,,,3138,-53.95703125,-21.734375,1,0,0,response5disk,,2,-4.26953125,-4.20703125,1,0,0,rectangle,-4.26953125,-4.20703125,1,0,0,-4.26953125,-4.20703125,1,0,0,0,110,110,50,1,,,,,,,,
,,,,,,,,,,,,,FF,,,,,,,,0.5163,,,,,,,,,,,,,,,,,,,,,,61032a35ae067e7ec879e70a,61036cd141e2aaa701adc00d,2021-07-29_20h08.41.185,Simcolourproject_2stim_asymm_v5,2020.2.10,MacIntel,60,61025ae37ef11b136ea224fe,,,,,,,,,2838,-35.48828125,-26.890625,1,0,0,response5disk,,2,-11.0859375,0.5390625,1,0,0,rectangle,-11.0859375,0.5390625,1,0,0,-11.0859375,0.5390625,1,0,0,0,111,111,144,1,,,,,,,,
,,,,,,,,,,,,,FF,,,,,,,,0.8666,,,,,,,,,,,,,,,,,,,,,,61032a35ae067e7ec879e70a,61036cd141e2aaa701adc00d,2021-07-29_20h08.41.185,Simcolourproject_2stim_asymm_v5,2020.2.10,MacIntel,60,61025ae37ef11b136ea224fe,,,,,,,,,3997,-45.7421875,-23.25,1,0,0,response5disk,,2,8.01171875,4.05078125,1,0,0,rectangle,8.01171875,4.05078125,1,0,0,8.01171875,4.05078125,1,0,0,0,112,112,40,1,,,,,,,,
,,,,,,,,,,,,,FF,,,,,,,,1.1174,,,,,,,,,,,,,,,,,,,,,,61032a35ae067e7ec879e70a,61036cd141e2aaa701adc00d,2021-07-29_20h08.41.185,Simcolourproject_2stim_asymm_v5,2020.2.10,MacIntel,60,61025ae37ef11b136ea224fe,,,,,,,,,3708,72.71484375,45.68359375,1,0,0,response1disk,,6,2.78515625,-0.7421875,1,0,0,rectangle,2.78515625,-0.7421875,1,0,0,2.78515625,-0.7421875,1,0,0,0,113,113,126,1,,,,,,,,
,,,,,,,,,,,,,FF,,,,,,,,1.1328,,,,,,,,,,,,,,,,,,,,,,61032a35ae067e7ec879e70a,61036cd141e2aaa701adc00d,2021-07-29_20h08.41.185,Simcolourproject_2stim_asymm_v5,2020.2.10,MacIntel,60,61025ae37ef11b136ea224fe,,,,,,,,,1321,34.57421875,-23.24609375,1,0,0,response3disk,,5,8.43359375,-8.26171875,1,0,0,rectangle,8.43359375,-8.26171875,1,0,0,8.43359375,-8.26171875,1,0,0,0,114,114,129,1,,,,,,,,
,,,,,,,,,,,,,FF,,,,,,,,0.8839,,,,,,,,,,,,,,,,,,,,,,61032a35ae067e7ec879e70a,61036cd141e2aaa701adc00d,2021-07-29_20h08.41.185,Simcolourproject_2stim_asymm_v5,2020.2.10,MacIntel,60,61025ae37ef11b136ea224fe,,,,,,,,,2248,29.98828125,-37.73828125,1,0,0,response3disk,,4,-3.79296875,-5.1484375,1,0,0,rectangle,-3.79296875,-5.1484375,1,0,0,-3.79296875,-5.1484375,1,0,0,0,115,115,135,1,,,,,,,,
,,,,,,,,,,,,,FF,,,,,,,,0.7498,,,,,,,,,,,,,,,,,,,,,,61032a35ae067e7ec879e70a,61036cd141e2aaa701adc00d,2021-07-29_20h08.41.185,Simcolourproject_2stim_asymm_v5,2020.2.10,MacIntel,60,61025ae37ef11b136ea224fe,,,,,,,,,2319,-46.33203125,-22.421875,1,0,0,response5disk,,2,-3.0703125,-3.41796875,1,0,0,rectangle,-3.0703125,-3.41796875,1,0,0,-3.0703125,-3.41796875,1,0,0,0,116,116,9,1,,,,,,,,
,,,,,,,,,,,,,FF,,,,,,,,0.6678,,,,,,,,,,,,,,,,,,,,,,61032a35ae067e7ec879e70a,61036cd141e2aaa701adc00d,2021-07-29_20h08.41.185,Simcolourproject_2stim_asymm_v5,2020.2.10,MacIntel,60,61025ae37ef11b136ea224fe,,,,,,,,,86,-56.90625,-26,1,0,0,response5disk,,2,-9.703125,3.4140625,1,0,0,rectangle,-9.703125,3.4140625,1,0,0,-9.703125,3.4140625,1,0,0,0,117,117,2,1,,,,,,,,
,,,,,,,,,,,,,FF,,,,,,,,0.7838,,,,,,,,,,,,,,,,,,,,,,61032a35ae067e7ec879e70a,61036cd141e2aaa701adc00d,2021-07-29_20h08.41.185,Simcolourproject_2stim_asymm_v5,2020.2.10,MacIntel,60,61025ae37ef11b136ea224fe,,,,,,,,,671,-72.546875,-35.59375,1,0,0,response5disk,,2,-9.203125,-5.33984375,1,0,0,rectangle,30.86328125,-92.265625,1,0,0,4.94921875,-2.77734375,1,0,0,0,118,118,106,1,,response3disk_3,TRUE,4,4,"[51,136,275,163,128,45,187,124,119,127,205,3,316,261,47,249,258,216,273,314]",1.467,rectangle
,,,,,,,,,,,,,FF,,,,,,,,0.75,,,,,,,,,,,,,,,,,,,,,,61032a35ae067e7ec879e70a,61036cd141e2aaa701adc00d,2021-07-29_20h08.41.185,Simcolourproject_2stim_asymm_v5,2020.2.10,MacIntel,60,61025ae37ef11b136ea224fe,,,,,,,,,4085,58.6328125,36.8984375,1,0,0,response1disk,,6,-2.69921875,-8.4921875,1,0,0,rectangle,-2.69921875,-8.4921875,1,0,0,-2.69921875,-8.4921875,1,0,0,0,119,119,76,1,,,,,,,,
,,,,,,,,,,,,,FF,,,,,,,,0.5836,,,,,,,,,,,,,,,,,,,,,,61032a35ae067e7ec879e70a,61036cd141e2aaa701adc00d,2021-07-29_20h08.41.185,Simcolourproject_2stim_asymm_v5,2020.2.10,MacIntel,60,61025ae37ef11b136ea224fe,,,,,,,,,767,-44.4453125,-27.1796875,1,0,0,response5disk,,2,6.84765625,10.74609375,1,0,0,rectangle,6.84765625,10.74609375,1,0,0,6.84765625,10.74609375,1,0,0,0,120,120,75,1,,,,,,,,
,,,,,,,,,,,,,FF,,,,,,,,1,,,,,,,,,,,,,,,,,,,,,,61032a35ae067e7ec879e70a,61036cd141e2aaa701adc00d,2021-07-29_20h08.41.185,Simcolourproject_2stim_asymm_v5,2020.2.10,MacIntel,60,61025ae37ef11b136ea224fe,,,,,,,,,3104,73.03125,37.859375,1,0,0,response1disk,,6,-3.1484375,-2.22265625,1,0,0,rectangle,-3.1484375,-2.22265625,1,0,0,-3.1484375,-2.22265625,1,0,0,0,121,121,90,1,,,,,,,,
,,,,,,,,,,,,,FF,,,,,,,,1.4155,,,,,,,,,,,,,,,,,,,,,,61032a35ae067e7ec879e70a,61036cd141e2aaa701adc00d,2021-07-29_20h08.41.185,Simcolourproject_2stim_asymm_v5,2020.2.10,MacIntel,60,61025ae37ef11b136ea224fe,,,,,,,,,2883,-38.01953125,-24.26171875,1,0,0,response5disk,,2,13.77734375,1.13671875,1,0,0,rectangle,13.77734375,1.13671875,1,0,0,13.77734375,1.13671875,1,0,0,0,122,122,78,1,,,,,,,,
,,,,,,,,,,,,,FF,,,,,,,,0.5996,,,,,,,,,,,,,,,,,,,,,,61032a35ae067e7ec879e70a,61036cd141e2aaa701adc00d,2021-07-29_20h08.41.185,Simcolourproject_2stim_asymm_v5,2020.2.10,MacIntel,60,61025ae37ef11b136ea224fe,,,,,,,,,4115,-26.01953125,-59.59765625,1,0,0,response5disk,,3,-19.546875,-8.7578125,1,0,0,rectangle,-70.05859375,-45.43359375,1,0,0,-2.7890625,3.5625,1,0,0,0,123,123,32,1,,response5disk_3,TRUE,2,2,"[51,136,275,163,128,45,187,124,119,127,205,3,316,261,47,249,258,216,273,314]",2.0329,rectangle
,,,,,,,,,,,,,FF,,,,,,,,1.1503,,,,,,,,,,,,,,,,,,,,,,61032a35ae067e7ec879e70a,61036cd141e2aaa701adc00d,2021-07-29_20h08.41.185,Simcolourproject_2stim_asymm_v5,2020.2.10,MacIntel,60,61025ae37ef11b136ea224fe,,,,,,,,,180,-29.0234375,-59.60546875,1,0,0,response5disk,,3,-20.33203125,5.37109375,1,0,0,rectangle,-20.33203125,5.37109375,1,0,0,-20.33203125,5.37109375,1,0,0,0,124,124,74,1,,,,,,,,
,,,,,,,,,,,,,FF,,,,,,,,0.8504,,,,,,,,,,,,,,,,,,,,,,61032a35ae067e7ec879e70a,61036cd141e2aaa701adc00d,2021-07-29_20h08.41.185,Simcolourproject_2stim_asymm_v5,2020.2.10,MacIntel,60,61025ae37ef11b136ea224fe,,,,,,,,,2543,17.3359375,-42.9921875,1,0,0,response3disk,,4,13.76953125,1.63671875,1,0,0,rectangle,13.76953125,1.63671875,1,0,0,13.76953125,1.63671875,1,0,0,0,125,125,104,1,,,,,,,,
,,,,,,,,,,,,,FF,,,,,,,,0.7497,,,,,,,,,,,,,,,,,,,,,,61032a35ae067e7ec879e70a,61036cd141e2aaa701adc00d,2021-07-29_20h08.41.185,Simcolourproject_2stim_asymm_v5,2020.2.10,MacIntel,60,61025ae37ef11b136ea224fe,,,,,,,,,638,25.92578125,-40.421875,1,0,0,response3disk,,4,4.03515625,2.16015625,1,0,0,rectangle,-72.58203125,-44.3203125,1,0,0,-7.4375,0.37890625,1,0,0,0,126,126,108,1,,response5disk_3,TRUE,2,2,"[51,136,275,163,128,45,187,124,119,127,205,3,316,261,47,249,258,216,273,314]",2.6499,rectangle
,,,,,,,,,,,,,FF,,,,,,,,0.8661,,,,,,,,,,,,,,,,,,,,,,61032a35ae067e7ec879e70a,61036cd141e2aaa701adc00d,2021-07-29_20h08.41.185,Simcolourproject_2stim_asymm_v5,2020.2.10,MacIntel,60,61025ae37ef11b136ea224fe,,,,,,,,,2976,42.1484375,-26.33984375,1,0,0,response3disk,,5,-4.8671875,-5.80078125,1,0,0,rectangle,-74.5625,38.91015625,1,0,0,-5.36328125,5.3046875,1,0,0,0,127,127,85,1,,response7disk_3,TRUE,1,1,"[51,136,275,163,128,45,187,124,119,127,205,3,316,261,47,249,258,216,273,314]",1.5671,rectangle
,,,,,,,,,,,,,FF,,,,,,,,0.7491,,,,,,,,,,,,,,,,,,,,,,61032a35ae067e7ec879e70a,61036cd141e2aaa701adc00d,2021-07-29_20h08.41.185,Simcolourproject_2stim_asymm_v5,2020.2.10,MacIntel,60,61025ae37ef11b136ea224fe,,,,,,,,,3798,-40.29296875,-40.44921875,1,0,0,response5disk,,3,-5.4375,2.484375,1,0,0,rectangle,-5.4375,2.484375,1,0,0,-5.4375,2.484375,1,0,0,0,128,128,158,1,,,,,,,,
,,,,,,,,,,,,,FF,,,,,,,,0.9334,,,,,,,,,,,,,,,,,,,,,,61032a35ae067e7ec879e70a,61036cd141e2aaa701adc00d,2021-07-29_20h08.41.185,Simcolourproject_2stim_asymm_v5,2020.2.10,MacIntel,60,61025ae37ef11b136ea224fe,,,,,,,,,3980,-53.4375,-24.3984375,1,0,0,response5disk,,2,-3.5625,13.9296875,1,0,0,rectangle,-3.5625,13.9296875,1,0,0,-3.5625,13.9296875,1,0,0,0,129,129,154,1,,,,,,,,
,,,,,,,,,,,,,FF,,,,,,,,1.0334,,,,,,,,,,,,,,,,,,,,,,61032a35ae067e7ec879e70a,61036cd141e2aaa701adc00d,2021-07-29_20h08.41.185,Simcolourproject_2stim_asymm_v5,2020.2.10,MacIntel,60,61025ae37ef11b136ea224fe,,,,,,,,,425,-49.19921875,-29.6953125,1,0,0,response5disk,,2,-5.1640625,-6.90234375,1,0,0,rectangle,-5.1640625,-6.90234375,1,0,0,-5.1640625,-6.90234375,1,0,0,0,130,130,152,1,,,,,,,,
,,,,,,,,,,,,,FF,,,,,,,,0.5512,,,,,,,,,,,,,,,,,,,,,,61032a35ae067e7ec879e70a,61036cd141e2aaa701adc00d,2021-07-29_20h08.41.185,Simcolourproject_2stim_asymm_v5,2020.2.10,MacIntel,60,61025ae37ef11b136ea224fe,,,,,,,,,2910,-49.703125,-29.64453125,1,0,0,response5disk,,2,-4.16796875,-6.015625,1,0,0,rectangle,-4.16796875,-6.015625,1,0,0,-4.16796875,-6.015625,1,0,0,0,131,131,130,1,,,,,,,,
,,,,,,,,,,,,,FF,,,,,,,,0.7676,,,,,,,,,,,,,,,,,,,,,,61032a35ae067e7ec879e70a,61036cd141e2aaa701adc00d,2021-07-29_20h08.41.185,Simcolourproject_2stim_asymm_v5,2020.2.10,MacIntel,60,61025ae37ef11b136ea224fe,,,,,,,,,3067,-27.66015625,-46.1640625,1,0,0,response5disk,,3,-5.953125,-4.546875,1,0,0,rectangle,-5.953125,-4.546875,1,0,0,-5.953125,-4.546875,1,0,0,0,132,132,142,1,,,,,,,,
,,,,,,,,,,,,,FF,,,,,,,,0.5997,,,,,,,,,,,,,,,,,,,,,,61032a35ae067e7ec879e70a,61036cd141e2aaa701adc00d,2021-07-29_20h08.41.185,Simcolourproject_2stim_asymm_v5,2020.2.10,MacIntel,60,61025ae37ef11b136ea224fe,,,,,,,,,1318,-21.84375,-41.796875,1,0,0,response5disk,,3,-11.0234375,-11.48046875,1,0,0,rectangle,-11.0234375,-11.48046875,1,0,0,-11.0234375,-11.48046875,1,0,0,0,133,133,48,1,,,,,,,,
,,,,,,,,,,,,,FF,,,,,,,,1.4007,,,,,,,,,,,,,,,,,,,,,,61032a35ae067e7ec879e70a,61036cd141e2aaa701adc00d,2021-07-29_20h08.41.185,Simcolourproject_2stim_asymm_v5,2020.2.10,MacIntel,60,61025ae37ef11b136ea224fe,,,,,,,,,3970,26.0703125,-46.8515625,1,0,0,response3disk,,4,6.53515625,-8.37890625,1,0,0,rectangle,6.53515625,-8.37890625,1,0,0,6.53515625,-8.37890625,1,0,0,0,134,134,159,1,,,,,,,,
,,,,,,,,,,,,,FF,,,,,,,,0.8001,,,,,,,,,,,,,,,,,,,,,,61032a35ae067e7ec879e70a,61036cd141e2aaa701adc00d,2021-07-29_20h08.41.185,Simcolourproject_2stim_asymm_v5,2020.2.10,MacIntel,60,61025ae37ef11b136ea224fe,,,,,,,,,433,-33.625,-42.0546875,1,0,0,response5disk,,3,-12.42578125,-1.49609375,1,0,0,rectangle,86.3046875,34.796875,1,0,0,-3.99609375,-5.671875,1,0,0,0,135,135,70,1,,response1disk_3,TRUE,6,6,"[51,136,275,163,128,45,187,124,119,127,205,3,316,261,47,249,258,216,273,314]",1.4663,rectangle
,,,,,,,,,,,,,FF,,,,,,,,0.7665,,,,,,,,,,,,,,,,,,,,,,61032a35ae067e7ec879e70a,61036cd141e2aaa701adc00d,2021-07-29_20h08.41.185,Simcolourproject_2stim_asymm_v5,2020.2.10,MacIntel,60,61025ae37ef11b136ea224fe,,,,,,,,,4125,-50.0078125,-34.7734375,1,0,0,response5disk,,2,-4.12890625,-11.43359375,1,0,0,rectangle,-4.12890625,-11.43359375,1,0,0,-4.12890625,-11.43359375,1,0,0,0,136,136,156,1,,,,,,,,
,,,,,,,,,,,,,FF,,,,,,,,1.5334,,,,,,,,,,,,,,,,,,,,,,61032a35ae067e7ec879e70a,61036cd141e2aaa701adc00d,2021-07-29_20h08.41.185,Simcolourproject_2stim_asymm_v5,2020.2.10,MacIntel,60,61025ae37ef11b136ea224fe,,,,,,,,,2824,-45.37109375,-63.29296875,1,0,0,response5disk,,3,-10.5234375,6.9921875,1,0,0,rectangle,-10.5234375,6.9921875,1,0,0,-10.5234375,6.9921875,1,0,0,0,137,137,95,1,,,,,,,,
,,,,,,,,,,,,,FF,,,,,,,,1.0173,,,,,,,,,,,,,,,,,,,,,,61032a35ae067e7ec879e70a,61036cd141e2aaa701adc00d,2021-07-29_20h08.41.185,Simcolourproject_2stim_asymm_v5,2020.2.10,MacIntel,60,61025ae37ef11b136ea224fe,,,,,,,,,4049,72.80078125,27.8515625,1,0,0,response1disk,,6,-11.2265625,-6.17578125,1,0,0,rectangle,-11.2265625,-6.17578125,1,0,0,-11.2265625,-6.17578125,1,0,0,0,138,138,150,1,,,,,,,,
,,,,,,,,,,,,,FF,,,,,,,,0.883,,,,,,,,,,,,,,,,,,,,,,61032a35ae067e7ec879e70a,61036cd141e2aaa701adc00d,2021-07-29_20h08.41.185,Simcolourproject_2stim_asymm_v5,2020.2.10,MacIntel,60,61025ae37ef11b136ea224fe,,,,,,,,,1810,-26.140625,-36.140625,1,0,0,response5disk,,3,-10.01171875,0.65234375,1,0,0,rectangle,-10.01171875,0.65234375,1,0,0,-10.01171875,0.65234375,1,0,0,0,139,139,132,1,,,,,,,,
,,,,,,,,,,,,,FF,,,,,,,,1.3014,,,,,,,,,,,,,,,,,,,,,,61032a35ae067e7ec879e70a,61036cd141e2aaa701adc00d,2021-07-29_20h08.41.185,Simcolourproject_2stim_asymm_v5,2020.2.10,MacIntel,60,61025ae37ef11b136ea224fe,,,,,,,,,981,-51.40625,-27.21484375,1,0,0,response5disk,,2,7.87890625,2.83984375,1,0,0,rectangle,7.87890625,2.83984375,1,0,0,7.87890625,2.83984375,1,0,0,0,140,140,36,1,,,,,,,,
,,,,,,,,,,,,,FF,,,,,,,,0.8334,,,,,,,,,,,,,,,,,,,,,,61032a35ae067e7ec879e70a,61036cd141e2aaa701adc00d,2021-07-29_20h08.41.185,Simcolourproject_2stim_asymm_v5,2020.2.10,MacIntel,60,61025ae37ef11b136ea224fe,,,,,,,,,1768,-46.390625,-24.1484375,1,0,0,response5disk,,2,-5,-8.31640625,1,0,0,rectangle,-5,-8.31640625,1,0,0,-5,-8.31640625,1,0,0,0,141,141,148,1,,,,,,,,
,,,,,,,,,,,,,FF,,,,,,,,0.6665,,,,,,,,,,,,,,,,,,,,,,61032a35ae067e7ec879e70a,61036cd141e2aaa701adc00d,2021-07-29_20h08.41.185,Simcolourproject_2stim_asymm_v5,2020.2.10,MacIntel,60,61025ae37ef11b136ea224fe,,,,,,,,,824,-17.796875,-31.546875,1,0,0,response5disk,,3,-8.2890625,9.1953125,1,0,0,rectangle,-8.2890625,9.1953125,1,0,0,-8.2890625,9.1953125,1,0,0,0,142,142,101,1,,,,,,,,
,,,,,,,,,,,,,FF,,,,,,,,2.1666,,,,,,,,,,,,,,,,,,,,,,61032a35ae067e7ec879e70a,61036cd141e2aaa701adc00d,2021-07-29_20h08.41.185,Simcolourproject_2stim_asymm_v5,2020.2.10,MacIntel,60,61025ae37ef11b136ea224fe,,,,,,,,,3178,-47.42578125,21.51171875,1,0,0,response7disk,,1,-6.9765625,-6.21484375,1,0,0,rectangle,-6.9765625,-6.21484375,1,0,0,-6.9765625,-6.21484375,1,0,0,0,143,143,33,1,,,,,,,,
,,,,,,,,,,,,,FF,,,,,,,,0.9993,,,,,,,,,,,,,,,,,,,,,,61032a35ae067e7ec879e70a,61036cd141e2aaa701adc00d,2021-07-29_20h08.41.185,Simcolourproject_2stim_asymm_v5,2020.2.10,MacIntel,60,61025ae37ef11b136ea224fe,,,,,,,,,1542,46.48828125,-27.96875,1,0,0,response3disk,,5,5.1640625,-1.41015625,1,0,0,rectangle,5.1640625,-1.41015625,1,0,0,5.1640625,-1.41015625,1,0,0,0,144,144,120,1,,,,,,,,
,,,,,,,,,,,,,FF,,,,,,,,0.7821,,,,,,,,,,,,,,,,,,,,,,61032a35ae067e7ec879e70a,61036cd141e2aaa701adc00d,2021-07-29_20h08.41.185,Simcolourproject_2stim_asymm_v5,2020.2.10,MacIntel,60,61025ae37ef11b136ea224fe,,,,,,,,,3149,67.21875,-20.08203125,1,0,0,response3disk,,5,0.7734375,-3.6015625,1,0,0,rectangle,0.7734375,-3.6015625,1,0,0,0.7734375,-3.6015625,1,0,0,0,145,145,64,1,,,,,,,,
,,,,,,,,,,,,,FF,,,,,,,,0.7173,,,,,,,,,,,,,,,,,,,,,,61032a35ae067e7ec879e70a,61036cd141e2aaa701adc00d,2021-07-29_20h08.41.185,Simcolourproject_2stim_asymm_v5,2020.2.10,MacIntel,60,61025ae37ef11b136ea224fe,,,,,,,,,1854,-43.7890625,-24.48828125,1,0,0,response5disk,,2,-5.93359375,-10.984375,1,0,0,rectangle,-5.93359375,-10.984375,1,0,0,-5.93359375,-10.984375,1,0,0,0,146,146,49,1,,,,,,,,
,,,,,,,,,,,,,FF,,,,,,,,0.7157,,,,,,,,,,,,,,,,,,,,,,61032a35ae067e7ec879e70a,61036cd141e2aaa701adc00d,2021-07-29_20h08.41.185,Simcolourproject_2stim_asymm_v5,2020.2.10,MacIntel,60,61025ae37ef11b136ea224fe,,,,,,,,,2785,-50.65625,-28.2421875,1,0,0,response5disk,,2,-5.58203125,4.921875,1,0,0,rectangle,-5.58203125,4.921875,1,0,0,-5.58203125,4.921875,1,0,0,0,147,147,5,1,,,,,,,,
,,,,,,,,,,,,,FF,,,,,,,,0.7998,,,,,,,,,,,,,,,,,,,,,,61032a35ae067e7ec879e70a,61036cd141e2aaa701adc00d,2021-07-29_20h08.41.185,Simcolourproject_2stim_asymm_v5,2020.2.10,MacIntel,60,61025ae37ef11b136ea224fe,,,,,,,,,2478,-47.50390625,-25.4609375,1,0,0,response5disk,,2,-17.69140625,0.46875,1,0,0,rectangle,-17.69140625,0.46875,1,0,0,-17.69140625,0.46875,1,0,0,0,148,148,100,1,,,,,,,,
,,,,,,,,,,,,,FF,,,,,,,,3.2172,,,,,,,,,,,,,,,,,,,,,,61032a35ae067e7ec879e70a,61036cd141e2aaa701adc00d,2021-07-29_20h08.41.185,Simcolourproject_2stim_asymm_v5,2020.2.10,MacIntel,60,61025ae37ef11b136ea224fe,,,,,,,,,2672,-39.73046875,-24.0703125,1,0,0,response5disk,,2,-12.6171875,-1.13671875,1,0,0,rectangle,-12.6171875,-1.13671875,1,0,0,-12.6171875,-1.13671875,1,0,0,0,149,149,7,1,,,,,,,,
,,,,,,,,,,,,,FF,,,,,,,,1.2158,,,,,,,,,,,,,,,,,,,,,,61032a35ae067e7ec879e70a,61036cd141e2aaa701adc00d,2021-07-29_20h08.41.185,Simcolourproject_2stim_asymm_v5,2020.2.10,MacIntel,60,61025ae37ef11b136ea224fe,,,,,,,,,3427,-59.796875,-57.00390625,1,0,0,response5disk,,2,-14.87890625,2.70703125,1,0,0,rectangle,-14.87890625,2.70703125,1,0,0,-14.87890625,2.70703125,1,0,0,0,150,150,97,1,,,,,,,,
,,,,,,,,,,,,,FF,,,,,,,,0.6498,,,,,,,,,,,,,,,,,,,,,,61032a35ae067e7ec879e70a,61036cd141e2aaa701adc00d,2021-07-29_20h08.41.185,Simcolourproject_2stim_asymm_v5,2020.2.10,MacIntel,60,61025ae37ef11b136ea224fe,,,,,,,,,1531,-31.6015625,-48.4765625,1,0,0,response5disk,,3,-16.46484375,-10.5546875,1,0,0,rectangle,-16.46484375,-10.5546875,1,0,0,-16.46484375,-10.5546875,1,0,0,0,151,151,4,1,,,,,,,,
,,,,,,,,,,,,,FF,,,,,,,,0.518,,,,,,,,,,,,,,,,,,,,,,61032a35ae067e7ec879e70a,61036cd141e2aaa701adc00d,2021-07-29_20h08.41.185,Simcolourproject_2stim_asymm_v5,2020.2.10,MacIntel,60,61025ae37ef11b136ea224fe,,,,,,,,,3878,-30.3828125,-55.43359375,1,0,0,response5disk,,3,-3.84375,7.171875,1,0,0,rectangle,-3.84375,7.171875,1,0,0,-3.84375,7.171875,1,0,0,0,152,152,26,1,,,,,,,,
,,,,,,,,,,,,,FF,,,,,,,,0.9995,,,,,,,,,,,,,,,,,,,,,,61032a35ae067e7ec879e70a,61036cd141e2aaa701adc00d,2021-07-29_20h08.41.185,Simcolourproject_2stim_asymm_v5,2020.2.10,MacIntel,60,61025ae37ef11b136ea224fe,,,,,,,,,781,-72.82421875,34.65625,1,0,0,response7disk,,1,-0.3984375,-2.4765625,1,0,0,rectangle,-0.3984375,-2.4765625,1,0,0,-0.3984375,-2.4765625,1,0,0,0,153,153,3,1,,,,,,,,
,,,,,,,,,,,,,FF,,,,,,,,0.6833,,,,,,,,,,,,,,,,,,,,,,61032a35ae067e7ec879e70a,61036cd141e2aaa701adc00d,2021-07-29_20h08.41.185,Simcolourproject_2stim_asymm_v5,2020.2.10,MacIntel,60,61025ae37ef11b136ea224fe,,,,,,,,,745,-26.40625,-35.375,1,0,0,response5disk,,3,-17.171875,-13.828125,1,0,0,rectangle,-17.171875,-13.828125,1,0,0,-17.171875,-13.828125,1,0,0,0,154,154,125,1,,,,,,,,
,,,,,,,,,,,,,FF,,,,,,,,1.1176,,,,,,,,,,,,,,,,,,,,,,61032a35ae067e7ec879e70a,61036cd141e2aaa701adc00d,2021-07-29_20h08.41.185,Simcolourproject_2stim_asymm_v5,2020.2.10,MacIntel,60,61025ae37ef11b136ea224fe,,,,,,,,,2573,-42.2421875,-26.953125,1,0,0,response5disk,,2,-5.375,9.01171875,1,0,0,rectangle,-5.375,9.01171875,1,0,0,-5.375,9.01171875,1,0,0,0,155,155,73,1,,,,,,,,
,,,,,,,,,,,,,FF,,,,,,,,0.5338,,,,,,,,,,,,,,,,,,,,,,61032a35ae067e7ec879e70a,61036cd141e2aaa701adc00d,2021-07-29_20h08.41.185,Simcolourproject_2stim_asymm_v5,2020.2.10,MacIntel,60,61025ae37ef11b136ea224fe,,,,,,,,,287,-48.3046875,22.92578125,1,0,0,response7disk,,1,-4.4296875,1.23828125,1,0,0,rectangle,-4.4296875,1.23828125,1,0,0,-4.4296875,1.23828125,1,0,0,0,156,156,98,1,,,,,,,,
,,,,,,,,,,,,,FF,,,,,,,,0.7169,,,,,,,,,,,,,,,,,,,,,,61032a35ae067e7ec879e70a,61036cd141e2aaa701adc00d,2021-07-29_20h08.41.185,Simcolourproject_2stim_asymm_v5,2020.2.10,MacIntel,60,61025ae37ef11b136ea224fe,,,,,,,,,3813,-26.76171875,-38.515625,1,0,0,response5disk,,3,-11.3203125,1.34765625,1,0,0,rectangle,-11.3203125,1.34765625,1,0,0,-11.3203125,1.34765625,1,0,0,0,157,157,133,1,,,,,,,,
,,,,,,,,,,,,,FF,,,,,,,,0.632,,,,,,,,,,,,,,,,,,,,,,61032a35ae067e7ec879e70a,61036cd141e2aaa701adc00d,2021-07-29_20h08.41.185,Simcolourproject_2stim_asymm_v5,2020.2.10,MacIntel,60,61025ae37ef11b136ea224fe,,,,,,,,,3396,-21.47265625,-31.80859375,1,0,0,response5disk,,3,-9.3515625,-6.1796875,1,0,0,rectangle,-9.3515625,-6.1796875,1,0,0,-9.3515625,-6.1796875,1,0,0,0,158,158,13,1,,,,,,,,
,,,,,,,,,,,,,FF,,,,,,,,1.082,,,,,,,,,,,,,,,,,,,,,,61032a35ae067e7ec879e70a,61036cd141e2aaa701adc00d,2021-07-29_20h08.41.185,Simcolourproject_2stim_asymm_v5,2020.2.10,MacIntel,60,61025ae37ef11b136ea224fe,,,,,,,,,4064,-51.37109375,-19.98828125,1,0,0,response5disk,,2,4.39453125,-6.9765625,1,0,0,rectangle,4.39453125,-6.9765625,1,0,0,4.39453125,-6.9765625,1,0,0,0,159,159,52,1,,,,,,,,
,,,,,,,,,,,,,FF,,,,,,,,0.683,,,,,,,,,,,,,,,,,,,,,,61032a35ae067e7ec879e70a,61036cd141e2aaa701adc00d,2021-07-29_20h08.41.185,Simcolourproject_2stim_asymm_v5,2020.2.10,MacIntel,60,61025ae37ef11b136ea224fe,,,,,,,,,3581,-54.125,-28.859375,1,0,0,response5disk,,2,-0.22265625,-9.8203125,1,0,0,rectangle,-0.22265625,-9.8203125,1,0,0,-0.22265625,-9.8203125,1,0,0,1,0,160,12,1,,,,,,,,
,,,,,,,,,,,,,FF,,,,,,,,0.7175,,,,,,,,,,,,,,,,,,,,,,61032a35ae067e7ec879e70a,61036cd141e2aaa701adc00d,2021-07-29_20h08.41.185,Simcolourproject_2stim_asymm_v5,2020.2.10,MacIntel,60,61025ae37ef11b136ea224fe,,,,,,,,,2418,39.42578125,67.74609375,1,0,0,response1disk,,7,15.26171875,1.56640625,1,0,0,rectangle,15.26171875,1.56640625,1,0,0,15.26171875,1.56640625,1,0,0,1,1,161,59,1,,,,,,,,
,,,,,,,,,,,,,FF,,,,,,,,1.2163,,,,,,,,,,,,,,,,,,,,,,61032a35ae067e7ec879e70a,61036cd141e2aaa701adc00d,2021-07-29_20h08.41.185,Simcolourproject_2stim_asymm_v5,2020.2.10,MacIntel,60,61025ae37ef11b136ea224fe,,,,,,,,,1113,-44.92578125,-25.2578125,1,0,0,response5disk,,2,-13.8515625,0.11328125,1,0,0,rectangle,77.73828125,20.69140625,1,0,0,1.95703125,-1.28515625,1,0,0,1,2,162,16,1,,response1disk_3,TRUE,6,6,"[51,136,275,163,128,45,187,124,119,127,205,3,316,261,47,249,258,216,273,314]",1.4996,rectangle
,,,,,,,,,,,,,FF,,,,,,,,0.8344,,,,,,,,,,,,,,,,,,,,,,61032a35ae067e7ec879e70a,61036cd141e2aaa701adc00d,2021-07-29_20h08.41.185,Simcolourproject_2stim_asymm_v5,2020.2.10,MacIntel,60,61025ae37ef11b136ea224fe,,,,,,,,,4298,35.62890625,-42.62890625,1,0,0,response3disk,,4,15.73828125,6.33203125,1,0,0,rectangle,15.73828125,6.33203125,1,0,0,15.73828125,6.33203125,1,0,0,1,3,163,100,1,,,,,,,,
,,,,,,,,,,,,,FF,,,,,,,,0.6333,,,,,,,,,,,,,,,,,,,,,,61032a35ae067e7ec879e70a,61036cd141e2aaa701adc00d,2021-07-29_20h08.41.185,Simcolourproject_2stim_asymm_v5,2020.2.10,MacIntel,60,61025ae37ef11b136ea224fe,,,,,,,,,3539,-34.85546875,-53.203125,1,0,0,response5disk,,3,-13.33203125,-6.05859375,1,0,0,rectangle,-13.33203125,-6.05859375,1,0,0,-13.33203125,-6.05859375,1,0,0,1,4,164,32,1,,,,,,,,
,,,,,,,,,,,,,FF,,,,,,,,0.8508,,,,,,,,,,,,,,,,,,,,,,61032a35ae067e7ec879e70a,61036cd141e2aaa701adc00d,2021-07-29_20h08.41.185,Simcolourproject_2stim_asymm_v5,2020.2.10,MacIntel,60,61025ae37ef11b136ea224fe,,,,,,,,,1752,70.7109375,33.390625,1,0,0,response1disk,,6,-3.390625,0.50390625,1,0,0,rectangle,-3.390625,0.50390625,1,0,0,-3.390625,0.50390625,1,0,0,1,5,165,98,1,,,,,,,,
,,,,,,,,,,,,,FF,,,,,,,,0.7836,,,,,,,,,,,,,,,,,,,,,,61032a35ae067e7ec879e70a,61036cd141e2aaa701adc00d,2021-07-29_20h08.41.185,Simcolourproject_2stim_asymm_v5,2020.2.10,MacIntel,60,61025ae37ef11b136ea224fe,,,,,,,,,761,-35.44921875,-20.140625,1,0,0,response5disk,,2,4,12.4609375,1,0,0,rectangle,4,12.4609375,1,0,0,4,12.4609375,1,0,0,1,6,166,46,1,,,,,,,,
,,,,,,,,,,,,,FF,,,,,,,,0.7002,,,,,,,,,,,,,,,,,,,,,,61032a35ae067e7ec879e70a,61036cd141e2aaa701adc00d,2021-07-29_20h08.41.185,Simcolourproject_2stim_asymm_v5,2020.2.10,MacIntel,60,61025ae37ef11b136ea224fe,,,,,,,,,4071,36.3984375,48.64453125,1,0,0,response1disk,,7,17.4453125,2.8359375,1,0,0,rectangle,17.4453125,2.8359375,1,0,0,17.4453125,2.8359375,1,0,0,1,7,167,106,1,,,,,,,,
,,,,,,,,,,,,,FF,,,,,,,,0.6985,,,,,,,,,,,,,,,,,,,,,,61032a35ae067e7ec879e70a,61036cd141e2aaa701adc00d,2021-07-29_20h08.41.185,Simcolourproject_2stim_asymm_v5,2020.2.10,MacIntel,60,61025ae37ef11b136ea224fe,,,,,,,,,306,-63.17578125,-32.921875,1,0,0,response5disk,,2,-15.34375,-2.71484375,1,0,0,rectangle,-15.34375,-2.71484375,1,0,0,-15.34375,-2.71484375,1,0,0,1,8,168,76,1,,,,,,,,
,,,,,,,,,,,,,FF,,,,,,,,0.6837,,,,,,,,,,,,,,,,,,,,,,61032a35ae067e7ec879e70a,61036cd141e2aaa701adc00d,2021-07-29_20h08.41.185,Simcolourproject_2stim_asymm_v5,2020.2.10,MacIntel,60,61025ae37ef11b136ea224fe,,,,,,,,,1260,-26.37890625,-49.3984375,1,0,0,response5disk,,3,-15.65625,-11.96875,1,0,0,rectangle,-15.65625,-11.96875,1,0,0,-15.65625,-11.96875,1,0,0,1,9,169,86,1,,,,,,,,
,,,,,,,,,,,,,FF,,,,,,,,4.0663,,,,,,,,,,,,,,,,,,,,,,61032a35ae067e7ec879e70a,61036cd141e2aaa701adc00d,2021-07-29_20h08.41.185,Simcolourproject_2stim_asymm_v5,2020.2.10,MacIntel,60,61025ae37ef11b136ea224fe,,,,,,,,,3254,-27.9375,-48.93359375,1,0,0,response5disk,,3,-5.29296875,7.796875,1,0,0,rectangle,-5.29296875,7.796875,1,0,0,-5.29296875,7.796875,1,0,0,1,10,170,122,1,,,,,,,,
,,,,,,,,,,,,,FF,,,,,,,,0.8164,,,,,,,,,,,,,,,,,,,,,,61032a35ae067e7ec879e70a,61036cd141e2aaa701adc00d,2021-07-29_20h08.41.185,Simcolourproject_2stim_asymm_v5,2020.2.10,MacIntel,60,61025ae37ef11b136ea224fe,,,,,,,,,769,-24.55078125,-48.98828125,1,0,0,response5disk,,3,-10.671875,-1.62890625,1,0,0,rectangle,-10.671875,-1.62890625,1,0,0,-10.671875,-1.62890625,1,0,0,1,11,171,69,1,,,,,,,,
,,,,,,,,,,,,,FF,,,,,,,,0.7005,,,,,,,,,,,,,,,,,,,,,,61032a35ae067e7ec879e70a,61036cd141e2aaa701adc00d,2021-07-29_20h08.41.185,Simcolourproject_2stim_asymm_v5,2020.2.10,MacIntel,60,61025ae37ef11b136ea224fe,,,,,,,,,1733,45.8359375,-23.48046875,1,0,0,response3disk,,5,-9.2265625,-5.00390625,1,0,0,rectangle,-9.2265625,-5.00390625,1,0,0,-9.2265625,-5.00390625,1,0,0,1,12,172,15,1,,,,,,,,
,,,,,,,,,,,,,FF,,,,,,,,0.8005,,,,,,,,,,,,,,,,,,,,,,61032a35ae067e7ec879e70a,61036cd141e2aaa701adc00d,2021-07-29_20h08.41.185,Simcolourproject_2stim_asymm_v5,2020.2.10,MacIntel,60,61025ae37ef11b136ea224fe,,,,,,,,,3844,43.9375,-19.34765625,1,0,0,response3disk,,5,3.88671875,3.68359375,1,0,0,rectangle,3.88671875,3.68359375,1,0,0,3.88671875,3.68359375,1,0,0,1,13,173,18,1,,,,,,,,
,,,,,,,,,,,,,FF,,,,,,,,0.5678,,,,,,,,,,,,,,,,,,,,,,61032a35ae067e7ec879e70a,61036cd141e2aaa701adc00d,2021-07-29_20h08.41.185,Simcolourproject_2stim_asymm_v5,2020.2.10,MacIntel,60,61025ae37ef11b136ea224fe,,,,,,,,,1120,39.5546875,-25.11328125,1,0,0,response3disk,,5,-23.14453125,3.9453125,1,0,0,rectangle,-23.14453125,3.9453125,1,0,0,-23.14453125,3.9453125,1,0,0,1,14,174,112,1,,,,,,,,
,,,,,,,,,,,,,FF,,,,,,,,0.666,,,,,,,,,,,,,,,,,,,,,,61032a35ae067e7ec879e70a,61036cd141e2aaa701adc00d,2021-07-29_20h08.41.185,Simcolourproject_2stim_asymm_v5,2020.2.10,MacIntel,60,61025ae37ef11b136ea224fe,,,,,,,,,4193,-57.90234375,-22.87109375,1,0,0,response5disk,,2,7.17578125,-3.03125,1,0,0,rectangle,7.17578125,-3.03125,1,0,0,7.17578125,-3.03125,1,0,0,1,15,175,110,1,,,,,,,,
,,,,,,,,,,,,,FF,,,,,,,,0.7178,,,,,,,,,,,,,,,,,,,,,,61032a35ae067e7ec879e70a,61036cd141e2aaa701adc00d,2021-07-29_20h08.41.185,Simcolourproject_2stim_asymm_v5,2020.2.10,MacIntel,60,61025ae37ef11b136ea224fe,,,,,,,,,488,-64.83203125,-21.74609375,1,0,0,response5disk,,2,-7.0234375,6.41796875,1,0,0,rectangle,-7.0234375,6.41796875,1,0,0,-7.0234375,6.41796875,1,0,0,1,16,176,133,1,,,,,,,,
,,,,,,,,,,,,,FF,,,,,,,,0.883,,,,,,,,,,,,,,,,,,,,,,61032a35ae067e7ec879e70a,61036cd141e2aaa701adc00d,2021-07-29_20h08.41.185,Simcolourproject_2stim_asymm_v5,2020.2.10,MacIntel,60,61025ae37ef11b136ea224fe,,,,,,,,,4119,51.890625,38.46484375,1,0,0,response1disk,,6,-16.8125,-5.546875,1,0,0,rectangle,-16.8125,-5.546875,1,0,0,-16.8125,-5.546875,1,0,0,1,17,177,6,1,,,,,,,,
,,,,,,,,,,,,,FF,,,,,,,,1.1672,,,,,,,,,,,,,,,,,,,,,,61032a35ae067e7ec879e70a,61036cd141e2aaa701adc00d,2021-07-29_20h08.41.185,Simcolourproject_2stim_asymm_v5,2020.2.10,MacIntel,60,61025ae37ef11b136ea224fe,,,,,,,,,99,53.5234375,-24.19140625,1,0,0,response3disk,,5,11.8125,1.828125,1,0,0,rectangle,11.8125,1.828125,1,0,0,11.8125,1.828125,1,0,0,1,18,178,136,1,,,,,,,,
,,,,,,,,,,,,,FF,,,,,,,,0.5165,,,,,,,,,,,,,,,,,,,,,,61032a35ae067e7ec879e70a,61036cd141e2aaa701adc00d,2021-07-29_20h08.41.185,Simcolourproject_2stim_asymm_v5,2020.2.10,MacIntel,60,61025ae37ef11b136ea224fe,,,,,,,,,2133,-49.21875,-22.72265625,1,0,0,response5disk,,2,-11,0.97265625,1,0,0,rectangle,-11,0.97265625,1,0,0,-11,0.97265625,1,0,0,1,19,179,38,1,,,,,,,,
,,,,,,,,,,,,,FF,,,,,,,,0.549,,,,,,,,,,,,,,,,,,,,,,61032a35ae067e7ec879e70a,61036cd141e2aaa701adc00d,2021-07-29_20h08.41.185,Simcolourproject_2stim_asymm_v5,2020.2.10,MacIntel,60,61025ae37ef11b136ea224fe,,,,,,,,,1237,-42.69921875,-22.1015625,1,0,0,response5disk,,2,-5.875,-3.31640625,1,0,0,rectangle,-5.875,-3.31640625,1,0,0,-5.875,-3.31640625,1,0,0,1,20,180,34,1,,,,,,,,
,,,,,,,,,,,,,FF,,,,,,,,0.8159,,,,,,,,,,,,,,,,,,,,,,61032a35ae067e7ec879e70a,61036cd141e2aaa701adc00d,2021-07-29_20h08.41.185,Simcolourproject_2stim_asymm_v5,2020.2.10,MacIntel,60,61025ae37ef11b136ea224fe,,,,,,,,,4172,-64.7109375,34.69921875,1,0,0,response7disk,,1,-0.03125,-0.97265625,1,0,0,rectangle,-0.03125,-0.97265625,1,0,0,-0.03125,-0.97265625,1,0,0,1,21,181,157,1,,,,,,,,
,,,,,,,,,,,,,FF,,,,,,,,0.65,,,,,,,,,,,,,,,,,,,,,,61032a35ae067e7ec879e70a,61036cd141e2aaa701adc00d,2021-07-29_20h08.41.185,Simcolourproject_2stim_asymm_v5,2020.2.10,MacIntel,60,61025ae37ef11b136ea224fe,,,,,,,,,3456,-42.37890625,-38.66796875,1,0,0,response5disk,,2,-5.47265625,14.3671875,1,0,0,rectangle,-5.47265625,14.3671875,1,0,0,-5.47265625,14.3671875,1,0,0,1,22,182,49,1,,,,,,,,
,,,,,,,,,,,,,FF,,,,,,,,0.5841,,,,,,,,,,,,,,,,,,,,,,61032a35ae067e7ec879e70a,61036cd141e2aaa701adc00d,2021-07-29_20h08.41.185,Simcolourproject_2stim_asymm_v5,2020.2.10,MacIntel,60,61025ae37ef11b136ea224fe,,,,,,,,,3449,-47.19921875,-24.5234375,1,0,0,response5disk,,2,6.9609375,-1.7734375,1,0,0,rectangle,6.9609375,-1.7734375,1,0,0,6.9609375,-1.7734375,1,0,0,1,23,183,22,1,,,,,,,,
,,,,,,,,,,,,,FF,,,,,,,,0.8001,,,,,,,,,,,,,,,,,,,,,,61032a35ae067e7ec879e70a,61036cd141e2aaa701adc00d,2021-07-29_20h08.41.185,Simcolourproject_2stim_asymm_v5,2020.2.10,MacIntel,60,61025ae37ef11b136ea224fe,,,,,,,,,878,-49.18359375,-33.45703125,1,0,0,response5disk,,2,-3.1171875,-8.2265625,1,0,0,rectangle,-3.1171875,-8.2265625,1,0,0,-3.1171875,-8.2265625,1,0,0,1,24,184,2,1,,,,,,,,
,,,,,,,,,,,,,FF,,,,,,,,0.5341,,,,,,,,,,,,,,,,,,,,,,61032a35ae067e7ec879e70a,61036cd141e2aaa701adc00d,2021-07-29_20h08.41.185,Simcolourproject_2stim_asymm_v5,2020.2.10,MacIntel,60,61025ae37ef11b136ea224fe,,,,,,,,,3786,-65.67578125,-29.78125,1,0,0,response5disk,,2,-7.7265625,7.6015625,1,0,0,rectangle,-7.7265625,7.6015625,1,0,0,-7.7265625,7.6015625,1,0,0,1,25,185,66,1,,,,,,,,
,,,,,,,,,,,,,FF,,,,,,,,0.6184,,,,,,,,,,,,,,,,,,,,,,61032a35ae067e7ec879e70a,61036cd141e2aaa701adc00d,2021-07-29_20h08.41.185,Simcolourproject_2stim_asymm_v5,2020.2.10,MacIntel,60,61025ae37ef11b136ea224fe,,,,,,,,,1190,-70.234375,-36.52734375,1,0,0,response5disk,,2,-4.0390625,-2.5859375,1,0,0,rectangle,-38.19140625,-68.96875,1,0,0,11.5546875,14.015625,1,0,0,1,26,186,65,1,,response5disk_3,TRUE,3,3,"[51,136,275,163,128,45,187,124,119,127,205,3,316,261,47,249,258,216,273,314]",1.3827,rectangle
,,,,,,,,,,,,,FF,,,,,,,,0.6322,,,,,,,,,,,,,,,,,,,,,,61032a35ae067e7ec879e70a,61036cd141e2aaa701adc00d,2021-07-29_20h08.41.185,Simcolourproject_2stim_asymm_v5,2020.2.10,MacIntel,60,61025ae37ef11b136ea224fe,,,,,,,,,3087,-66.85546875,33.97265625,1,0,0,response7disk,,1,-14.93359375,11.51953125,1,0,0,rectangle,-14.93359375,11.51953125,1,0,0,-14.93359375,11.51953125,1,0,0,1,27,187,54,1,,,,,,,,
,,,,,,,,,,,,,FF,,,,,,,,0.5499,,,,,,,,,,,,,,,,,,,,,,61032a35ae067e7ec879e70a,61036cd141e2aaa701adc00d,2021-07-29_20h08.41.185,Simcolourproject_2stim_asymm_v5,2020.2.10,MacIntel,60,61025ae37ef11b136ea224fe,,,,,,,,,2873,-44.28125,17.0546875,1,0,0,response7disk,,1,-5.9921875,-3.90234375,1,0,0,rectangle,-5.9921875,-3.90234375,1,0,0,-5.9921875,-3.90234375,1,0,0,1,28,188,62,1,,,,,,,,
,,,,,,,,,,,,,FF,,,,,,,,1.0339,,,,,,,,,,,,,,,,,,,,,,61032a35ae067e7ec879e70a,61036cd141e2aaa701adc00d,2021-07-29_20h08.41.185,Simcolourproject_2stim_asymm_v5,2020.2.10,MacIntel,60,61025ae37ef11b136ea224fe,,,,,,,,,2209,20.12109375,-28.921875,1,0,0,response3disk,,4,8.02734375,5.3125,1,0,0,rectangle,8.02734375,5.3125,1,0,0,8.02734375,5.3125,1,0,0,1,29,189,42,1,,,,,,,,
,,,,,,,,,,,,,FF,,,,,,,,0.7668,,,,,,,,,,,,,,,,,,,,,,61032a35ae067e7ec879e70a,61036cd141e2aaa701adc00d,2021-07-29_20h08.41.185,Simcolourproject_2stim_asymm_v5,2020.2.10,MacIntel,60,61025ae37ef11b136ea224fe,,,,,,,,,1904,-28.96875,-46.12890625,1,0,0,response5disk,,3,-6.3671875,-1.7734375,1,0,0,rectangle,-6.3671875,-1.7734375,1,0,0,-6.3671875,-1.7734375,1,0,0,1,30,190,104,1,,,,,,,,
,,,,,,,,,,,,,FF,,,,,,,,0.6321,,,,,,,,,,,,,,,,,,,,,,61032a35ae067e7ec879e70a,61036cd141e2aaa701adc00d,2021-07-29_20h08.41.185,Simcolourproject_2stim_asymm_v5,2020.2.10,MacIntel,60,61025ae37ef11b136ea224fe,,,,,,,,,3608,-55.51953125,-25.63671875,1,0,0,response5disk,,2,4.8515625,-3.953125,1,0,0,rectangle,4.8515625,-3.953125,1,0,0,4.8515625,-3.953125,1,0,0,1,31,191,14,1,,,,,,,,
,,,,,,,,,,,,,FF,,,,,,,,2.6336,,,,,,,,,,,,,,,,,,,,,,61032a35ae067e7ec879e70a,61036cd141e2aaa701adc00d,2021-07-29_20h08.41.185,Simcolourproject_2stim_asymm_v5,2020.2.10,MacIntel,60,61025ae37ef11b136ea224fe,,,,,,,,,2186,-62.23046875,-26.16796875,1,0,0,response5disk,,2,-8.68359375,0.578125,1,0,0,rectangle,-8.68359375,0.578125,1,0,0,-8.68359375,0.578125,1,0,0,1,32,192,108,1,,,,,,,,
,,,,,,,,,,,,,FF,,,,,,,,0.6343,,,,,,,,,,,,,,,,,,,,,,61032a35ae067e7ec879e70a,61036cd141e2aaa701adc00d,2021-07-29_20h08.41.185,Simcolourproject_2stim_asymm_v5,2020.2.10,MacIntel,60,61025ae37ef11b136ea224fe,,,,,,,,,3574,-62.5,-32.69921875,1,0,0,response5disk,,2,-5.17578125,-2.06640625,1,0,0,rectangle,-5.17578125,-2.06640625,1,0,0,-5.17578125,-2.06640625,1,0,0,1,33,193,79,1,,,,,,,,
,,,,,,,,,,,,,FF,,,,,,,,0.6,,,,,,,,,,,,,,,,,,,,,,61032a35ae067e7ec879e70a,61036cd141e2aaa701adc00d,2021-07-29_20h08.41.185,Simcolourproject_2stim_asymm_v5,2020.2.10,MacIntel,60,61025ae37ef11b136ea224fe,,,,,,,,,1730,-59.46484375,-34.14453125,1,0,0,response5disk,,2,8.73828125,-8.27734375,1,0,0,rectangle,8.73828125,-8.27734375,1,0,0,8.73828125,-8.27734375,1,0,0,1,34,194,61,1,,,,,,,,
,,,,,,,,,,,,,FF,,,,,,,,0.7867,,,,,,,,,,,,,,,,,,,,,,61032a35ae067e7ec879e70a,61036cd141e2aaa701adc00d,2021-07-29_20h08.41.185,Simcolourproject_2stim_asymm_v5,2020.2.10,MacIntel,60,61025ae37ef11b136ea224fe,,,,,,,,,110,-30.55078125,-55.56640625,1,0,0,response5disk,,3,-12.1796875,-3.625,1,0,0,rectangle,-12.1796875,-3.625,1,0,0,-12.1796875,-3.625,1,0,0,1,35,195,4,1,,,,,,,,
,,,,,,,,,,,,,FF,,,,,,,,1.0013,,,,,,,,,,,,,,,,,,,,,,61032a35ae067e7ec879e70a,61036cd141e2aaa701adc00d,2021-07-29_20h08.41.185,Simcolourproject_2stim_asymm_v5,2020.2.10,MacIntel,60,61025ae37ef11b136ea224fe,,,,,,,,,3701,21.40625,-38.484375,1,0,0,response3disk,,4,8.55859375,6.14453125,1,0,0,rectangle,8.55859375,6.14453125,1,0,0,8.55859375,6.14453125,1,0,0,1,36,196,134,1,,,,,,,,
,,,,,,,,,,,,,FF,,,,,,,,0.6334,,,,,,,,,,,,,,,,,,,,,,61032a35ae067e7ec879e70a,61036cd141e2aaa701adc00d,2021-07-29_20h08.41.185,Simcolourproject_2stim_asymm_v5,2020.2.10,MacIntel,60,61025ae37ef11b136ea224fe,,,,,,,,,448,-39.734375,-50.84375,1,0,0,response5disk,,3,-6.98046875,2.55859375,1,0,0,rectangle,-6.98046875,2.55859375,1,0,0,-6.98046875,2.55859375,1,0,0,1,37,197,21,1,,,,,,,,
,,,,,,,,,,,,,FF,,,,,,,,1.1331,,,,,,,,,,,,,,,,,,,,,,61032a35ae067e7ec879e70a,61036cd141e2aaa701adc00d,2021-07-29_20h08.41.185,Simcolourproject_2stim_asymm_v5,2020.2.10,MacIntel,60,61025ae37ef11b136ea224fe,,,,,,,,,4346,68.890625,33.79296875,1,0,0,response1disk,,6,3.60546875,-11.9453125,1,0,0,rectangle,3.60546875,-11.9453125,1,0,0,3.60546875,-11.9453125,1,0,0,1,38,198,10,1,,,,,,,,
,,,,,,,,,,,,,FF,,,,,,,,1.0337,,,,,,,,,,,,,,,,,,,,,,61032a35ae067e7ec879e70a,61036cd141e2aaa701adc00d,2021-07-29_20h08.41.185,Simcolourproject_2stim_asymm_v5,2020.2.10,MacIntel,60,61025ae37ef11b136ea224fe,,,,,,,,,1333,-27.40234375,-35.35546875,1,0,0,response5disk,,3,-0.94140625,0.3515625,1,0,0,rectangle,-0.94140625,0.3515625,1,0,0,-0.94140625,0.3515625,1,0,0,1,39,199,137,1,,,,,,,,
,,,,,,,,,,,,,FF,,,,,,,,0.7012,,,,,,,,,,,,,,,,,,,,,,61032a35ae067e7ec879e70a,61036cd141e2aaa701adc00d,2021-07-29_20h08.41.185,Simcolourproject_2stim_asymm_v5,2020.2.10,MacIntel,60,61025ae37ef11b136ea224fe,,,,,,,,,3884,-21.90234375,-45.75,1,0,0,response5disk,,3,-2.23046875,3.98828125,1,0,0,rectangle,-2.23046875,3.98828125,1,0,0,-2.23046875,3.98828125,1,0,0,1,40,200,80,1,,,,,,,,
,,,,,,,,,,,,,FF,,,,,,,,0.7499,,,,,,,,,,,,,,,,,,,,,,61032a35ae067e7ec879e70a,61036cd141e2aaa701adc00d,2021-07-29_20h08.41.185,Simcolourproject_2stim_asymm_v5,2020.2.10,MacIntel,60,61025ae37ef11b136ea224fe,,,,,,,,,4196,-25.69921875,-45.37109375,1,0,0,response5disk,,3,-9.83984375,-1.52734375,1,0,0,rectangle,-9.83984375,-1.52734375,1,0,0,-9.83984375,-1.52734375,1,0,0,1,41,201,51,1,,,,,,,,
,,,,,,,,,,,,,FF,,,,,,,,1.1014,,,,,,,,,,,,,,,,,,,,,,61032a35ae067e7ec879e70a,61036cd141e2aaa701adc00d,2021-07-29_20h08.41.185,Simcolourproject_2stim_asymm_v5,2020.2.10,MacIntel,60,61025ae37ef11b136ea224fe,,,,,,,,,387,23.07421875,-35.89453125,1,0,0,response3disk,,4,17.19921875,-2.3046875,1,0,0,rectangle,17.19921875,-2.3046875,1,0,0,17.19921875,-2.3046875,1,0,0,1,42,202,91,1,,,,,,,,
,,,,,,,,,,,,,FF,,,,,,,,0.6324,,,,,,,,,,,,,,,,,,,,,,61032a35ae067e7ec879e70a,61036cd141e2aaa701adc00d,2021-07-29_20h08.41.185,Simcolourproject_2stim_asymm_v5,2020.2.10,MacIntel,60,61025ae37ef11b136ea224fe,,,,,,,,,1162,-51.4453125,-21.46875,1,0,0,response5disk,,2,0.96484375,-12.78125,1,0,0,rectangle,0.96484375,-12.78125,1,0,0,0.96484375,-12.78125,1,0,0,1,43,203,96,1,,,,,,,,
,,,,,,,,,,,,,FF,,,,,,,,0.783,,,,,,,,,,,,,,,,,,,,,,61032a35ae067e7ec879e70a,61036cd141e2aaa701adc00d,2021-07-29_20h08.41.185,Simcolourproject_2stim_asymm_v5,2020.2.10,MacIntel,60,61025ae37ef11b136ea224fe,,,,,,,,,1535,54.30859375,-25.6015625,1,0,0,response3disk,,5,-4.13671875,-11.84375,1,0,0,rectangle,32.1015625,71.90234375,1,0,0,2.546875,-0.67578125,1,0,0,1,44,204,115,1,,response1disk_3,TRUE,7,7,"[51,136,275,163,128,45,187,124,119,127,205,3,316,261,47,249,258,216,273,314]",1.5815,rectangle
,,,,,,,,,,,,,FF,,,,,,,,0.7505,,,,,,,,,,,,,,,,,,,,,,61032a35ae067e7ec879e70a,61036cd141e2aaa701adc00d,2021-07-29_20h08.41.185,Simcolourproject_2stim_asymm_v5,2020.2.10,MacIntel,60,61025ae37ef11b136ea224fe,,,,,,,,,4058,-37.31640625,-19.3671875,1,0,0,response5disk,,2,-11.02734375,2.41796875,1,0,0,rectangle,-11.02734375,2.41796875,1,0,0,-11.02734375,2.41796875,1,0,0,1,45,205,47,1,,,,,,,,
,,,,,,,,,,,,,FF,,,,,,,,0.8175,,,,,,,,,,,,,,,,,,,,,,61032a35ae067e7ec879e70a,61036cd141e2aaa701adc00d,2021-07-29_20h08.41.185,Simcolourproject_2stim_asymm_v5,2020.2.10,MacIntel,60,61025ae37ef11b136ea224fe,,,,,,,,,1546,-47.6015625,-31.0703125,1,0,0,response5disk,,2,-16.39453125,-2.8359375,1,0,0,rectangle,-16.39453125,-2.8359375,1,0,0,-16.39453125,-2.8359375,1,0,0,1,46,206,154,1,,,,,,,,
,,,,,,,,,,,,,FF,,,,,,,,0.7168,,,,,,,,,,,,,,,,,,,,,,61032a35ae067e7ec879e70a,61036cd141e2aaa701adc00d,2021-07-29_20h08.41.185,Simcolourproject_2stim_asymm_v5,2020.2.10,MacIntel,60,61025ae37ef11b136ea224fe,,,,,,,,,83,-51.52734375,-31.71484375,1,0,0,response5disk,,2,-14.55859375,5.6328125,1,0,0,rectangle,-14.55859375,5.6328125,1,0,0,-14.55859375,5.6328125,1,0,0,1,47,207,88,1,,,,,,,,
,,,,,,,,,,,,,FF,,,,,,,,1.0836,,,,,,,,,,,,,,,,,,,,,,61032a35ae067e7ec879e70a,61036cd141e2aaa701adc00d,2021-07-29_20h08.41.185,Simcolourproject_2stim_asymm_v5,2020.2.10,MacIntel,60,61025ae37ef11b136ea224fe,,,,,,,,,3637,32.77734375,79.41796875,1,0,0,response1disk,,7,18.609375,11.49609375,1,0,0,rectangle,18.609375,11.49609375,1,0,0,18.609375,11.49609375,1,0,0,1,48,208,55,1,,,,,,,,
,,,,,,,,,,,,,FF,,,,,,,,0.6665,,,,,,,,,,,,,,,,,,,,,,61032a35ae067e7ec879e70a,61036cd141e2aaa701adc00d,2021-07-29_20h08.41.185,Simcolourproject_2stim_asymm_v5,2020.2.10,MacIntel,60,61025ae37ef11b136ea224fe,,,,,,,,,3056,-67.94140625,-18.59375,1,0,0,response5disk,,2,-3.83203125,4.8515625,1,0,0,rectangle,-3.83203125,4.8515625,1,0,0,-3.83203125,4.8515625,1,0,0,1,49,209,39,1,,,,,,,,
,,,,,,,,,,,,,FF,,,,,,,,0.6322,,,,,,,,,,,,,,,,,,,,,,61032a35ae067e7ec879e70a,61036cd141e2aaa701adc00d,2021-07-29_20h08.41.185,Simcolourproject_2stim_asymm_v5,2020.2.10,MacIntel,60,61025ae37ef11b136ea224fe,,,,,,,,,3530,-52.63671875,-21.37890625,1,0,0,response5disk,,2,-5.19921875,1.22265625,1,0,0,rectangle,-5.19921875,1.22265625,1,0,0,-5.19921875,1.22265625,1,0,0,1,50,210,118,1,,,,,,,,
,,,,,,,,,,,,,FF,,,,,,,,0.7333,,,,,,,,,,,,,,,,,,,,,,61032a35ae067e7ec879e70a,61036cd141e2aaa701adc00d,2021-07-29_20h08.41.185,Simcolourproject_2stim_asymm_v5,2020.2.10,MacIntel,60,61025ae37ef11b136ea224fe,,,,,,,,,2078,-43.6328125,-46.08203125,1,0,0,response5disk,,3,-12.46875,6.4765625,1,0,0,rectangle,-12.46875,6.4765625,1,0,0,-12.46875,6.4765625,1,0,0,1,51,211,152,1,,,,,,,,
,,,,,,,,,,,,,FF,,,,,,,,0.8837,,,,,,,,,,,,,,,,,,,,,,61032a35ae067e7ec879e70a,61036cd141e2aaa701adc00d,2021-07-29_20h08.41.185,Simcolourproject_2stim_asymm_v5,2020.2.10,MacIntel,60,61025ae37ef11b136ea224fe,,,,,,,,,646,41.34765625,-37.59765625,1,0,0,response3disk,,5,-0.29296875,12.68359375,1,0,0,rectangle,-0.29296875,12.68359375,1,0,0,-0.29296875,12.68359375,1,0,0,1,52,212,77,1,,,,,,,,
,,,,,,,,,,,,,FF,,,,,,,,0.7664,,,,,,,,,,,,,,,,,,,,,,61032a35ae067e7ec879e70a,61036cd141e2aaa701adc00d,2021-07-29_20h08.41.185,Simcolourproject_2stim_asymm_v5,2020.2.10,MacIntel,60,61025ae37ef11b136ea224fe,,,,,,,,,3231,-42.75390625,-61.09375,1,0,0,response5disk,,3,-13.74609375,6.5078125,1,0,0,rectangle,-13.74609375,6.5078125,1,0,0,-13.74609375,6.5078125,1,0,0,1,53,213,150,1,,,,,,,,
,,,,,,,,,,,,,FF,,,,,,,,0.6002,,,,,,,,,,,,,,,,,,,,,,61032a35ae067e7ec879e70a,61036cd141e2aaa701adc00d,2021-07-29_20h08.41.185,Simcolourproject_2stim_asymm_v5,2020.2.10,MacIntel,60,61025ae37ef11b136ea224fe,,,,,,,,,3315,-39.76953125,-50.30078125,1,0,0,response5disk,,3,-13.21484375,-3.31640625,1,0,0,rectangle,-13.21484375,-3.31640625,1,0,0,-13.21484375,-3.31640625,1,0,0,1,54,214,139,1,,,,,,,,
,,,,,,,,,,,,,FF,,,,,,,,1.5501,,,,,,,,,,,,,,,,,,,,,,61032a35ae067e7ec879e70a,61036cd141e2aaa701adc00d,2021-07-29_20h08.41.185,Simcolourproject_2stim_asymm_v5,2020.2.10,MacIntel,60,61025ae37ef11b136ea224fe,,,,,,,,,1271,-35.23828125,-36.81640625,1,0,0,response5disk,,3,4.33984375,11.171875,1,0,0,rectangle,70.8046875,17.6875,1,0,0,6.69921875,-2.61328125,1,0,0,1,55,215,24,1,,response1disk_3,TRUE,6,6,"[51,136,275,163,128,45,187,124,119,127,205,3,316,261,47,249,258,216,273,314]",1.2824,rectangle
,,,,,,,,,,,,,FF,,,,,,,,1.2661,,,,,,,,,,,,,,,,,,,,,,61032a35ae067e7ec879e70a,61036cd141e2aaa701adc00d,2021-07-29_20h08.41.185,Simcolourproject_2stim_asymm_v5,2020.2.10,MacIntel,60,61025ae37ef11b136ea224fe,,,,,,,,,4087,32.00390625,-29.578125,1,0,0,response3disk,,5,-10.08203125,3.44921875,1,0,0,rectangle,-10.08203125,3.44921875,1,0,0,-10.08203125,3.44921875,1,0,0,1,56,216,3,1,,,,,,,,
,,,,,,,,,,,,,FF,,,,,,,,0.8849,,,,,,,,,,,,,,,,,,,,,,61032a35ae067e7ec879e70a,61036cd141e2aaa701adc00d,2021-07-29_20h08.41.185,Simcolourproject_2stim_asymm_v5,2020.2.10,MacIntel,60,61025ae37ef11b136ea224fe,,,,,,,,,4285,-79.63671875,43.44140625,1,0,0,response7disk,,1,-7.9609375,8.93359375,1,0,0,rectangle,-7.9609375,8.93359375,1,0,0,-7.9609375,8.93359375,1,0,0,1,57,217,19,1,,,,,,,,
,,,,,,,,,,,,,FF,,,,,,,,0.7999,,,,,,,,,,,,,,,,,,,,,,61032a35ae067e7ec879e70a,61036cd141e2aaa701adc00d,2021-07-29_20h08.41.185,Simcolourproject_2stim_asymm_v5,2020.2.10,MacIntel,60,61025ae37ef11b136ea224fe,,,,,,,,,4108,-27.8828125,-66.51953125,1,0,0,response5disk,,3,-3.8203125,8.703125,1,0,0,rectangle,-3.8203125,8.703125,1,0,0,-3.8203125,8.703125,1,0,0,1,58,218,151,1,,,,,,,,
,,,,,,,,,,,,,FF,,,,,,,,1.3334,,,,,,,,,,,,,,,,,,,,,,61032a35ae067e7ec879e70a,61036cd141e2aaa701adc00d,2021-07-29_20h08.41.185,Simcolourproject_2stim_asymm_v5,2020.2.10,MacIntel,60,61025ae37ef11b136ea224fe,,,,,,,,,4360,-25.3125,-25.4375,1,0,0,response5disk,,3,-6.5,3.93359375,1,0,0,rectangle,-6.5,3.93359375,1,0,0,-6.5,3.93359375,1,0,0,1,59,219,92,1,,,,,,,,
,,,,,,,,,,,,,FF,,,,,,,,1.0005,,,,,,,,,,,,,,,,,,,,,,61032a35ae067e7ec879e70a,61036cd141e2aaa701adc00d,2021-07-29_20h08.41.185,Simcolourproject_2stim_asymm_v5,2020.2.10,MacIntel,60,61025ae37ef11b136ea224fe,,,,,,,,,428,-59.06640625,-29.5390625,1,0,0,response5disk,,2,4.13671875,5.46484375,1,0,0,rectangle,4.13671875,5.46484375,1,0,0,4.13671875,5.46484375,1,0,0,1,60,220,73,1,,,,,,,,
,,,,,,,,,,,,,FF,,,,,,,,0.6529,,,,,,,,,,,,,,,,,,,,,,61032a35ae067e7ec879e70a,61036cd141e2aaa701adc00d,2021-07-29_20h08.41.185,Simcolourproject_2stim_asymm_v5,2020.2.10,MacIntel,60,61025ae37ef11b136ea224fe,,,,,,,,,390,-75.67578125,-31.9453125,1,0,0,response5disk,,2,-4.84765625,-1.4609375,1,0,0,rectangle,-4.84765625,-1.4609375,1,0,0,-4.84765625,-1.4609375,1,0,0,1,61,221,87,1,,,,,,,,
,,,,,,,,,,,,,FF,,,,,,,,0.8169,,,,,,,,,,,,,,,,,,,,,,61032a35ae067e7ec879e70a,61036cd141e2aaa701adc00d,2021-07-29_20h08.41.185,Simcolourproject_2stim_asymm_v5,2020.2.10,MacIntel,60,61025ae37ef11b136ea224fe,,,,,,,,,3108,20.265625,-39.98828125,1,0,0,response3disk,,4,5.453125,-2.0859375,1,0,0,rectangle,5.453125,-2.0859375,1,0,0,5.453125,-2.0859375,1,0,0,1,62,222,159,1,,,,,,,,
,,,,,,,,,,,,,FF,,,,,,,,0.8828,,,,,,,,,,,,,,,,,,,,,,61032a35ae067e7ec879e70a,61036cd141e2aaa701adc00d,2021-07-29_20h08.41.185,Simcolourproject_2stim_asymm_v5,2020.2.10,MacIntel,60,61025ae37ef11b136ea224fe,,,,,,,,,3482,27.91015625,-52.34765625,1,0,0,response3disk,,4,5.94921875,-4.1015625,1,0,0,rectangle,5.94921875,-4.1015625,1,0,0,5.94921875,-4.1015625,1,0,0,1,63,223,82,1,,,,,,,,
,,,,,,,,,,,,,FF,,,,,,,,0.7495,,,,,,,,,,,,,,,,,,,,,,61032a35ae067e7ec879e70a,61036cd141e2aaa701adc00d,2021-07-29_20h08.41.185,Simcolourproject_2stim_asymm_v5,2020.2.10,MacIntel,60,61025ae37ef11b136ea224fe,,,,,,,,,2422,29.34375,-46.4296875,1,0,0,response3disk,,4,12.84765625,-5.9921875,1,0,0,rectangle,12.84765625,-5.9921875,1,0,0,12.84765625,-5.9921875,1,0,0,1,64,224,29,1,,,,,,,,
,,,,,,,,,,,,,FF,,,,,,,,0.7167,,,,,,,,,,,,,,,,,,,,,,61032a35ae067e7ec879e70a,61036cd141e2aaa701adc00d,2021-07-29_20h08.41.185,Simcolourproject_2stim_asymm_v5,2020.2.10,MacIntel,60,61025ae37ef11b136ea224fe,,,,,,,,,2129,24.28515625,-32.66796875,1,0,0,response3disk,,4,22.515625,-2.43359375,1,0,0,rectangle,22.515625,-2.43359375,1,0,0,22.515625,-2.43359375,1,0,0,1,65,225,114,1,,,,,,,,
,,,,,,,,,,,,,FF,,,,,,,,0.5005,,,,,,,,,,,,,,,,,,,,,,61032a35ae067e7ec879e70a,61036cd141e2aaa701adc00d,2021-07-29_20h08.41.185,Simcolourproject_2stim_asymm_v5,2020.2.10,MacIntel,60,61025ae37ef11b136ea224fe,,,,,,,,,1482,-19.30859375,-40.9921875,1,0,0,response5disk,,3,-1.24609375,1.3515625,1,0,0,rectangle,-1.24609375,1.3515625,1,0,0,-1.24609375,1.3515625,1,0,0,1,66,226,68,1,,,,,,,,
,,,,,,,,,,,,,FF,,,,,,,,0.7667,,,,,,,,,,,,,,,,,,,,,,61032a35ae067e7ec879e70a,61036cd141e2aaa701adc00d,2021-07-29_20h08.41.185,Simcolourproject_2stim_asymm_v5,2020.2.10,MacIntel,60,61025ae37ef11b136ea224fe,,,,,,,,,3690,-21.47265625,-49.75,1,0,0,response5disk,,3,-5.41796875,-3.2890625,1,0,0,rectangle,-5.41796875,-3.2890625,1,0,0,-5.41796875,-3.2890625,1,0,0,1,67,227,57,1,,,,,,,,
,,,,,,,,,,,,,FF,,,,,,,,0.783,,,,,,,,,,,,,,,,,,,,,,61032a35ae067e7ec879e70a,61036cd141e2aaa701adc00d,2021-07-29_20h08.41.185,Simcolourproject_2stim_asymm_v5,2020.2.10,MacIntel,60,61025ae37ef11b136ea224fe,,,,,,,,,2928,-44.8046875,-27.8359375,1,0,0,response5disk,,2,7.484375,-1.66796875,1,0,0,rectangle,7.484375,-1.66796875,1,0,0,7.484375,-1.66796875,1,0,0,1,68,228,144,1,,,,,,,,
,,,,,,,,,,,,,FF,,,,,,,,0.5492,,,,,,,,,,,,,,,,,,,,,,61032a35ae067e7ec879e70a,61036cd141e2aaa701adc00d,2021-07-29_20h08.41.185,Simcolourproject_2stim_asymm_v5,2020.2.10,MacIntel,60,61025ae37ef11b136ea224fe,,,,,,,,,2457,-48.125,-28.20703125,1,0,0,response5disk,,2,-20.29296875,-11.2734375,1,0,0,rectangle,-20.29296875,-11.2734375,1,0,0,-20.29296875,-11.2734375,1,0,0,1,69,229,26,1,,,,,,,,
,,,,,,,,,,,,,FF,,,,,,,,0.749,,,,,,,,,,,,,,,,,,,,,,61032a35ae067e7ec879e70a,61036cd141e2aaa701adc00d,2021-07-29_20h08.41.185,Simcolourproject_2stim_asymm_v5,2020.2.10,MacIntel,60,61025ae37ef11b136ea224fe,,,,,,,,,1580,-27.80078125,-44.546875,1,0,0,response5disk,,3,-8.29296875,-2.4921875,1,0,0,rectangle,-8.29296875,-2.4921875,1,0,0,-8.29296875,-2.4921875,1,0,0,1,70,230,141,1,,,,,,,,
,,,,,,,,,,,,,FF,,,,,,,,0.7827,,,,,,,,,,,,,,,,,,,,,,61032a35ae067e7ec879e70a,61036cd141e2aaa701adc00d,2021-07-29_20h08.41.185,Simcolourproject_2stim_asymm_v5,2020.2.10,MacIntel,60,61025ae37ef11b136ea224fe,,,,,,,,,1417,-24.81640625,-43.203125,1,0,0,response5disk,,3,-0.14453125,-4.140625,1,0,0,rectangle,-0.14453125,-4.140625,1,0,0,-0.14453125,-4.140625,1,0,0,1,71,231,67,1,,,,,,,,
,,,,,,,,,,,,,FF,,,,,,,,0.8004,,,,,,,,,,,,,,,,,,,,,,61032a35ae067e7ec879e70a,61036cd141e2aaa701adc00d,2021-07-29_20h08.41.185,Simcolourproject_2stim_asymm_v5,2020.2.10,MacIntel,60,61025ae37ef11b136ea224fe,,,,,,,,,1617,28.07421875,-42.4375,1,0,0,response3disk,,4,9.53125,-1.2421875,1,0,0,rectangle,9.53125,-1.2421875,1,0,0,9.53125,-1.2421875,1,0,0,1,72,232,124,1,,,,,,,,
,,,,,,,,,,,,,FF,,,,,,,,0.5683,,,,,,,,,,,,,,,,,,,,,,61032a35ae067e7ec879e70a,61036cd141e2aaa701adc00d,2021-07-29_20h08.41.185,Simcolourproject_2stim_asymm_v5,2020.2.10,MacIntel,60,61025ae37ef11b136ea224fe,,,,,,,,,2736,21.55078125,-45.25390625,1,0,0,response3disk,,4,7.30078125,1.296875,1,0,0,rectangle,7.30078125,1.296875,1,0,0,7.30078125,1.296875,1,0,0,1,73,233,44,1,,,,,,,,
,,,,,,,,,,,,,FF,,,,,,,,1.15,,,,,,,,,,,,,,,,,,,,,,61032a35ae067e7ec879e70a,61036cd141e2aaa701adc00d,2021-07-29_20h08.41.185,Simcolourproject_2stim_asymm_v5,2020.2.10,MacIntel,60,61025ae37ef11b136ea224fe,,,,,,,,,3389,74.71875,45.68359375,1,0,0,response1disk,,6,3.37890625,10.734375,1,0,0,rectangle,3.37890625,10.734375,1,0,0,3.37890625,10.734375,1,0,0,1,74,234,156,1,,,,,,,,
,,,,,,,,,,,,,FF,,,,,,,,0.6664,,,,,,,,,,,,,,,,,,,,,,61032a35ae067e7ec879e70a,61036cd141e2aaa701adc00d,2021-07-29_20h08.41.185,Simcolourproject_2stim_asymm_v5,2020.2.10,MacIntel,60,61025ae37ef11b136ea224fe,,,,,,,,,282,32.27734375,-15.484375,1,0,0,response3disk,,5,-12.3359375,-0.09765625,1,0,0,rectangle,-12.3359375,-0.09765625,1,0,0,-12.3359375,-0.09765625,1,0,0,1,75,235,121,1,,,,,,,,
,,,,,,,,,,,,,FF,,,,,,,,1.117,,,,,,,,,,,,,,,,,,,,,,61032a35ae067e7ec879e70a,61036cd141e2aaa701adc00d,2021-07-29_20h08.41.185,Simcolourproject_2stim_asymm_v5,2020.2.10,MacIntel,60,61025ae37ef11b136ea224fe,,,,,,,,,1035,22.26171875,-41.03515625,1,0,0,response3disk,,4,-1.9921875,8.3984375,1,0,0,rectangle,-1.9921875,8.3984375,1,0,0,-1.9921875,8.3984375,1,0,0,1,76,236,25,1,,,,,,,,
,,,,,,,,,,,,,FF,,,,,,,,0.7161,,,,,,,,,,,,,,,,,,,,,,61032a35ae067e7ec879e70a,61036cd141e2aaa701adc00d,2021-07-29_20h08.41.185,Simcolourproject_2stim_asymm_v5,2020.2.10,MacIntel,60,61025ae37ef11b136ea224fe,,,,,,,,,1430,-38.046875,-50.16796875,1,0,0,response5disk,,3,0.89453125,-0.8359375,1,0,0,rectangle,0.89453125,-0.8359375,1,0,0,0.89453125,-0.8359375,1,0,0,1,77,237,95,1,,,,,,,,
,,,,,,,,,,,,,FF,,,,,,,,1.0828,,,,,,,,,,,,,,,,,,,,,,61032a35ae067e7ec879e70a,61036cd141e2aaa701adc00d,2021-07-29_20h08.41.185,Simcolourproject_2stim_asymm_v5,2020.2.10,MacIntel,60,61025ae37ef11b136ea224fe,,,,,,,,,97,37.63671875,-54.4453125,1,0,0,response3disk,,4,5.83984375,9.62109375,1,0,0,rectangle,5.83984375,9.62109375,1,0,0,5.83984375,9.62109375,1,0,0,1,78,238,84,1,,,,,,,,
,,,,,,,,,,,,,FF,,,,,,,,1.1832,,,,,,,,,,,,,,,,,,,,,,61032a35ae067e7ec879e70a,61036cd141e2aaa701adc00d,2021-07-29_20h08.41.185,Simcolourproject_2stim_asymm_v5,2020.2.10,MacIntel,60,61025ae37ef11b136ea224fe,,,,,,,,,2246,-49.66015625,-35.890625,1,0,0,response5disk,,2,-5.46484375,-1.7890625,1,0,0,rectangle,-5.46484375,-1.7890625,1,0,0,-5.46484375,-1.7890625,1,0,0,1,79,239,8,1,,,,,,,,
,,,,,,,,,,,,,FF,,,,,,,,0.9498,,,,,,,,,,,,,,,,,,,,,,61032a35ae067e7ec879e70a,61036cd141e2aaa701adc00d,2021-07-29_20h08.41.185,Simcolourproject_2stim_asymm_v5,2020.2.10,MacIntel,60,61025ae37ef11b136ea224fe,,,,,,,,,1615,21.16015625,-52.16796875,1,0,0,response3disk,,4,-4.1484375,0.66796875,1,0,0,rectangle,-4.1484375,0.66796875,1,0,0,-4.1484375,0.66796875,1,0,0,1,80,240,93,1,,,,,,,,
,,,,,,,,,,,,,FF,,,,,,,,0.9499,,,,,,,,,,,,,,,,,,,,,,61032a35ae067e7ec879e70a,61036cd141e2aaa701adc00d,2021-07-29_20h08.41.185,Simcolourproject_2stim_asymm_v5,2020.2.10,MacIntel,60,61025ae37ef11b136ea224fe,,,,,,,,,2590,-55.88671875,40.23828125,1,0,0,response7disk,,1,-1.69921875,-3.8515625,1,0,0,rectangle,-1.69921875,-3.8515625,1,0,0,-1.69921875,-3.8515625,1,0,0,1,81,241,58,1,,,,,,,,
,,,,,,,,,,,,,FF,,,,,,,,1.0657,,,,,,,,,,,,,,,,,,,,,,61032a35ae067e7ec879e70a,61036cd141e2aaa701adc00d,2021-07-29_20h08.41.185,Simcolourproject_2stim_asymm_v5,2020.2.10,MacIntel,60,61025ae37ef11b136ea224fe,,,,,,,,,3849,64.3671875,29.33984375,1,0,0,response1disk,,6,10.078125,-3.83984375,1,0,0,rectangle,10.078125,-3.83984375,1,0,0,10.078125,-3.83984375,1,0,0,1,82,242,103,1,,,,,,,,
,,,,,,,,,,,,,FF,,,,,,,,0.917,,,,,,,,,,,,,,,,,,,,,,61032a35ae067e7ec879e70a,61036cd141e2aaa701adc00d,2021-07-29_20h08.41.185,Simcolourproject_2stim_asymm_v5,2020.2.10,MacIntel,60,61025ae37ef11b136ea224fe,,,,,,,,,4304,-50.1875,26.17578125,1,0,0,response7disk,,1,4.3359375,-2.515625,1,0,0,rectangle,4.3359375,-2.515625,1,0,0,4.3359375,-2.515625,1,0,0,1,83,243,113,1,,,,,,,,
,,,,,,,,,,,,,FF,,,,,,,,0.8003,,,,,,,,,,,,,,,,,,,,,,61032a35ae067e7ec879e70a,61036cd141e2aaa701adc00d,2021-07-29_20h08.41.185,Simcolourproject_2stim_asymm_v5,2020.2.10,MacIntel,60,61025ae37ef11b136ea224fe,,,,,,,,,572,-43.00390625,33.93359375,1,0,0,response7disk,,1,-15.4453125,13.9296875,1,0,0,rectangle,-15.4453125,13.9296875,1,0,0,-15.4453125,13.9296875,1,0,0,1,84,244,153,1,,,,,,,,
,,,,,,,,,,,,,FF,,,,,,,,0.9321,,,,,,,,,,,,,,,,,,,,,,61032a35ae067e7ec879e70a,61036cd141e2aaa701adc00d,2021-07-29_20h08.41.185,Simcolourproject_2stim_asymm_v5,2020.2.10,MacIntel,60,61025ae37ef11b136ea224fe,,,,,,,,,1060,-46.82421875,33.2265625,1,0,0,response7disk,,1,-0.2109375,6.578125,1,0,0,rectangle,-0.2109375,6.578125,1,0,0,-0.2109375,6.578125,1,0,0,1,85,245,116,1,,,,,,,,
,,,,,,,,,,,,,FF,,,,,,,,0.8842,,,,,,,,,,,,,,,,,,,,,,61032a35ae067e7ec879e70a,61036cd141e2aaa701adc00d,2021-07-29_20h08.41.185,Simcolourproject_2stim_asymm_v5,2020.2.10,MacIntel,60,61025ae37ef11b136ea224fe,,,,,,,,,3740,-84.0390625,-33.77734375,1,0,0,response5disk,,2,1.4375,-0.95703125,1,0,0,rectangle,1.4375,-0.95703125,1,0,0,1.4375,-0.95703125,1,0,0,1,86,246,37,1,,,,,,,,
,,,,,,,,,,,,,FF,,,,,,,,0.8338,,,,,,,,,,,,,,,,,,,,,,61032a35ae067e7ec879e70a,61036cd141e2aaa701adc00d,2021-07-29_20h08.41.185,Simcolourproject_2stim_asymm_v5,2020.2.10,MacIntel,60,61025ae37ef11b136ea224fe,,,,,,,,,67,-31.92578125,-50.6875,1,0,0,response5disk,,3,1.32421875,5.25,1,0,0,rectangle,1.32421875,5.25,1,0,0,1.32421875,5.25,1,0,0,1,87,247,31,1,,,,,,,,
