key_resp.keys,key_resp.rt,key_resp_14.keys,key_resp_14.rt,key_resp_15.keys,key_resp_15.rt,key_resp_17.keys,key_resp_17.rt,key_resp_9.keys,key_resp_9.rt,key_resp_10.keys,key_resp_10.rt,practice_comparison,Ecc,mouse_5.x,mouse_5.y,mouse_5.leftButton,mouse_5.midButton,mouse_5.rightButton,mouse_5.clicked_name,pracsimilarity,response_time,mouse_10.x,mouse_10.y,mouse_10.leftButton,mouse_10.midButton,mouse_10.rightButton,mouse_10.clicked_name,mouse_7.x,mouse_7.y,mouse_7.leftButton,mouse_7.midButton,mouse_7.rightButton,mouse_6.x,mouse_6.y,mouse_6.leftButton,mouse_6.midButton,mouse_6.rightButton,duringprac.thisRepN,duringprac.thisTrialN,duringprac.thisN,duringprac.thisIndex,duringprac.ran,participant,session,date,expName,psychopyVersion,OS,frameRate,study_id,mouse_7.clicked_name,catchpracsimilarity,catch_response_time,catchnumberprac,catchtrialorderprac,mouse_6.clicked_name,key_resp_22.keys,key_resp_22.rt,realcomparison,mouse.x,mouse.y,mouse.leftButton,mouse.midButton,mouse.rightButton,mouse.clicked_name,Colour2,similarity,mouse_2.x,mouse_2.y,mouse_2.leftButton,mouse_2.midButton,mouse_2.rightButton,mouse_2.clicked_name,mouse_3.x,mouse_3.y,mouse_3.leftButton,mouse_3.midButton,mouse_3.rightButton,mouse_11.x,mouse_11.y,mouse_11.leftButton,mouse_11.midButton,mouse_11.rightButton,trials_2.thisRepN,trials_2.thisTrialN,trials_2.thisN,trials_2.thisIndex,trials_2.ran,Colour1,mouse_3.clicked_name,catchornah,catchsimilarity,catchnumber,catchtrialorder,catchRT,mouse_11.clicked_name
space,1.4932,space,4.7702,space,10.4976,space,9.7442,space,0.2044,space,3.7588,122,FF,44.0000121,91.99999493,1,0,0,response1disk_5,7,7.4011,-3.999988616,6.399993658,1,0,0,rectangle_8,-3.999988616,6.399993658,1,0,0,-3.999988616,6.399993658,1,0,0,0,0,0,5,1,6103579f72b250e7a439b926,610365fb825c5dfea8a602f8,2021-07-29_21h39.21.790,Simcolourproject_2stim_asymm_v5,2020.2.10,Win32,60,61025ae37ef11b136ea224fe,,,,,,,,,,,,,,,,,,,,,,,,,,,,,,,,,,,,,,,,,,,,,,
,,,,,,,,,,,,28,FF,104.000013,35.9999941,1,0,0,response1disk_5,6,3.6506,4.800011516,2.399993598,1,0,0,rectangle_8,44.80001211,-85.60005654,1,0,0,6.400011539,3.999993622,1,0,0,0,1,1,3,1,6103579f72b250e7a439b926,610365fb825c5dfea8a602f8,2021-07-29_21h39.21.790,Simcolourproject_2stim_asymm_v5,2020.2.10,Win32,60,61025ae37ef11b136ea224fe,response3disk_7,4,3.6059,4,"[2,5]",rectangle_4,,,,,,,,,,,,,,,,,,,,,,,,,,,,,,,,,,,,,,,,
,,,,,,,,,,,,101,PF,29.60006071,93.59999496,1,0,0,response1disk_5,7,2.3581,-2.399939764,10.39999372,1,0,0,rectangle_8,-2.399939764,10.39999372,1,0,0,-2.399939764,10.39999372,1,0,0,0,2,2,2,1,6103579f72b250e7a439b926,610365fb825c5dfea8a602f8,2021-07-29_21h39.21.790,Simcolourproject_2stim_asymm_v5,2020.2.10,Win32,60,61025ae37ef11b136ea224fe,,,,,,,,,,,,,,,,,,,,,,,,,,,,,,,,,,,,,,,,,,,,,,
,,,,,,,,,,,,67,PF,-30.39994018,-104.000008,1,0,0,response5disk_5,3,2.4494,-3.199988604,4.799993634,1,0,0,rectangle_8,-3.199988604,4.799993634,1,0,0,-3.199988604,4.799993634,1,0,0,0,3,3,1,1,6103579f72b250e7a439b926,610365fb825c5dfea8a602f8,2021-07-29_21h39.21.790,Simcolourproject_2stim_asymm_v5,2020.2.10,Win32,60,61025ae37ef11b136ea224fe,,,,,,,,,,,,,,,,,,,,,,,,,,,,,,,,,,,,,,,,,,,,,,
,,,,,,,,,,,,103,FF,45.60006095,87.19997045,1,0,0,response1disk_5,7,1.1685,8.000011563,-6.4373E-06,1,0,0,rectangle_8,42.40001208,-101.6000568,1,0,0,3.200011492,3.19999361,1,0,0,0,4,4,0,1,6103579f72b250e7a439b926,610365fb825c5dfea8a602f8,2021-07-29_21h39.21.790,Simcolourproject_2stim_asymm_v5,2020.2.10,Win32,60,61025ae37ef11b136ea224fe,response3disk_7,4,1.8062,4,"[2,5]",rectangle_4,,,,,,,,,,,,,,,,,,,,,,,,,,,,,,,,,,,,,,,,
,,,,,,,,,,,,64,PF,39.20001203,78.39999473,1,0,0,response1disk_5,7,1.2357,8.000011563,0.799993575,1,0,0,rectangle_8,8.000011563,0.799993575,1,0,0,8.000011563,0.799993575,1,0,0,0,5,5,6,1,6103579f72b250e7a439b926,610365fb825c5dfea8a602f8,2021-07-29_21h39.21.790,Simcolourproject_2stim_asymm_v5,2020.2.10,Win32,60,61025ae37ef11b136ea224fe,,,,,,,,,,,,,,,,,,,,,,,,,,,,,,,,,,,,,,,,,,,,,,
,,,,,,,,,,,,76,PF,71.20001251,31.19996961,1,0,0,response1disk_5,6,2.8039,-3.199988604,4.799993634,1,0,0,rectangle_8,-3.199988604,4.799993634,1,0,0,-3.199988604,4.799993634,1,0,0,0,6,6,4,1,6103579f72b250e7a439b926,610365fb825c5dfea8a602f8,2021-07-29_21h39.21.790,Simcolourproject_2stim_asymm_v5,2020.2.10,Win32,60,61025ae37ef11b136ea224fe,,,,,,,,,,,,,,,,,,,,,,,,,,,,,,,,,,,,,,,,,,,,,,
,,,,,,,,,,,,,FF,,,,,,,,1.6858,,,,,,,,,,,,,,,,,,,,,,6103579f72b250e7a439b926,610365fb825c5dfea8a602f8,2021-07-29_21h39.21.790,Simcolourproject_2stim_asymm_v5,2020.2.10,Win32,60,61025ae37ef11b136ea224fe,,,,,,,space,3.5744,3533,44.80001211,90.39999491,1,0,0,response1disk,,7,0.800011456,4.799993634,1,0,0,rectangle,0.800011456,4.799993634,1,0,0,0.800011456,4.799993634,1,0,0,0,0,0,36,1,,,,,,,,
,,,,,,,,,,,,,FF,,,,,,,,1.836,,,,,,,,,,,,,,,,,,,,,,6103579f72b250e7a439b926,610365fb825c5dfea8a602f8,2021-07-29_21h39.21.790,Simcolourproject_2stim_asymm_v5,2020.2.10,Win32,60,61025ae37ef11b136ea224fe,,,,,,,,,143,92.80001283,-40.80000705,1,0,0,response3disk,,5,-0.799988568,1.599993587,1,0,0,rectangle,-27.99998897,88.79999489,1,0,0,3.200011492,3.19999361,1,0,0,0,1,1,93,1,,response7disk_3,TRUE,0,0,"[258,224,314,271,208,209,144,88,2,193,263,82,300,186,214,84,123,233,186,218]",2.3702,rectangle
,,,,,,,,,,,,,FF,,,,,,,,3.6378,,,,,,,,,,,,,,,,,,,,,,6103579f72b250e7a439b926,610365fb825c5dfea8a602f8,2021-07-29_21h39.21.790,Simcolourproject_2stim_asymm_v5,2020.2.10,Win32,60,61025ae37ef11b136ea224fe,,,,,,,,,778,72.00001252,-60.80000734,1,0,0,response3disk,,5,4.000011504,1.599993587,1,0,0,rectangle,4.000011504,1.599993587,1,0,0,4.000011504,1.599993587,1,0,0,0,2,2,97,1,,,,,,,,
,,,,,,,,,,,,,FF,,,,,,,,1.6067,,,,,,,,,,,,,,,,,,,,,,6103579f72b250e7a439b926,610365fb825c5dfea8a602f8,2021-07-29_21h39.21.790,Simcolourproject_2stim_asymm_v5,2020.2.10,Win32,60,61025ae37ef11b136ea224fe,,,,,,,,,240,56.00001228,90.39999491,1,0,0,response1disk,,7,-1.59998858,3.19999361,1,0,0,rectangle,-1.59998858,3.19999361,1,0,0,-1.59998858,3.19999361,1,0,0,0,3,3,154,1,,,,,,,,
,,,,,,,,,,,,,FF,,,,,,,,3.9881,,,,,,,,,,,,,,,,,,,,,,6103579f72b250e7a439b926,610365fb825c5dfea8a602f8,2021-07-29_21h39.21.790,Simcolourproject_2stim_asymm_v5,2020.2.10,Win32,60,61025ae37ef11b136ea224fe,,,,,,,,,3285,-97.59999001,-65.60000741,1,0,0,response5disk,,2,2.40001148,7.19999367,1,0,0,rectangle,2.40001148,7.19999367,1,0,0,2.40001148,7.19999367,1,0,0,0,4,4,38,1,,,,,,,,
,,,,,,,,,,,,,FF,,,,,,,,3.0035,,,,,,,,,,,,,,,,,,,,,,6103579f72b250e7a439b926,610365fb825c5dfea8a602f8,2021-07-29_21h39.21.790,Simcolourproject_2stim_asymm_v5,2020.2.10,Win32,60,61025ae37ef11b136ea224fe,,,,,,,,,4251,-79.19998974,64.79999453,1,0,0,response7disk,,1,-1.59998858,6.399993658,1,0,0,rectangle,-1.59998858,6.399993658,1,0,0,-1.59998858,6.399993658,1,0,0,0,5,5,125,1,,,,,,,,
,,,,,,,,,,,,,FF,,,,,,,,1.5905,,,,,,,,,,,,,,,,,,,,,,6103579f72b250e7a439b926,610365fb825c5dfea8a602f8,2021-07-29_21h39.21.790,Simcolourproject_2stim_asymm_v5,2020.2.10,Win32,60,61025ae37ef11b136ea224fe,,,,,,,,,3932,106.400013,-53.60000724,1,0,0,response3disk,,5,1.600060296,-0.800006449,1,0,0,rectangle,1.600060296,-0.800006449,1,0,0,1.600060296,-0.800006449,1,0,0,0,6,6,60,1,,,,,,,,
,,,,,,,,,,,,,FF,,,,,,,,1.2016,,,,,,,,,,,,,,,,,,,,,,6103579f72b250e7a439b926,610365fb825c5dfea8a602f8,2021-07-29_21h39.21.790,Simcolourproject_2stim_asymm_v5,2020.2.10,Win32,60,61025ae37ef11b136ea224fe,,,,,,,,,2821,46.40001214,76.79999471,1,0,0,response1disk,,7,-7.199988663,1.599993587,1,0,0,rectangle,-7.199988663,1.599993587,1,0,0,-7.199988663,1.599993587,1,0,0,0,7,7,26,1,,,,,,,,
,,,,,,,,,,,,,FF,,,,,,,,2.0034,,,,,,,,,,,,,,,,,,,,,,6103579f72b250e7a439b926,610365fb825c5dfea8a602f8,2021-07-29_21h39.21.790,Simcolourproject_2stim_asymm_v5,2020.2.10,Win32,60,61025ae37ef11b136ea224fe,,,,,,,,,3942,29.60006071,-94.40000784,1,0,0,response3disk,,4,1.600060296,-2.400006473,1,0,0,rectangle,1.600060296,-2.400006473,1,0,0,1.600060296,-2.400006473,1,0,0,0,8,8,107,1,,,,,,,,
,,,,,,,,,,,,,FF,,,,,,,,1.4521,,,,,,,,,,,,,,,,,,,,,,6103579f72b250e7a439b926,610365fb825c5dfea8a602f8,2021-07-29_21h39.21.790,Simcolourproject_2stim_asymm_v5,2020.2.10,Win32,60,61025ae37ef11b136ea224fe,,,,,,,,,1155,100.0000129,46.39999425,1,0,0,response1disk,,6,-3.199988604,-2.400006473,1,0,0,rectangle,-3.199988604,-2.400006473,1,0,0,-3.199988604,-2.400006473,1,0,0,0,9,9,3,1,,,,,,,,
,,,,,,,,,,,,,FF,,,,,,,,1.3515,,,,,,,,,,,,,,,,,,,,,,6103579f72b250e7a439b926,610365fb825c5dfea8a602f8,2021-07-29_21h39.21.790,Simcolourproject_2stim_asymm_v5,2020.2.10,Win32,60,61025ae37ef11b136ea224fe,,,,,,,,,4349,41.60006089,79.19997033,1,0,0,response1disk,,7,3.200011492,-0.800006449,1,0,0,rectangle,3.200011492,-0.800006449,1,0,0,3.200011492,-0.800006449,1,0,0,0,10,10,14,1,,,,,,,,
,,,,,,,,,,,,,FF,,,,,,,,2.3532,,,,,,,,,,,,,,,,,,,,,,6103579f72b250e7a439b926,610365fb825c5dfea8a602f8,2021-07-29_21h39.21.790,Simcolourproject_2stim_asymm_v5,2020.2.10,Win32,60,61025ae37ef11b136ea224fe,,,,,,,,,314,81.60001266,58.39999443,1,0,0,response1disk,,6,-7.999988675,3.19999361,1,0,0,rectangle,-7.999988675,3.19999361,1,0,0,-7.999988675,3.19999361,1,0,0,0,11,11,66,1,,,,,,,,
,,,,,,,,,,,,,FF,,,,,,,,1.3522,,,,,,,,,,,,,,,,,,,,,,6103579f72b250e7a439b926,610365fb825c5dfea8a602f8,2021-07-29_21h39.21.790,Simcolourproject_2stim_asymm_v5,2020.2.10,Win32,60,61025ae37ef11b136ea224fe,,,,,,,,,3107,-106.3999413,-32.80000693,1,0,0,response5disk,,2,1.600060296,0.799993575,1,0,0,rectangle,1.600060296,0.799993575,1,0,0,1.600060296,0.799993575,1,0,0,0,12,12,102,1,,,,,,,,
,,,,,,,,,,,,,FF,,,,,,,,1.1347,,,,,,,,,,,,,,,,,,,,,,6103579f72b250e7a439b926,610365fb825c5dfea8a602f8,2021-07-29_21h39.21.790,Simcolourproject_2stim_asymm_v5,2020.2.10,Win32,60,61025ae37ef11b136ea224fe,,,,,,,,,1052,-86.39994102,59.19997003,1,0,0,response7disk,,1,1.600060296,-0.800006449,1,0,0,rectangle,1.600060296,-0.800006449,1,0,0,1.600060296,-0.800006449,1,0,0,0,13,13,90,1,,,,,,,,
,,,,,,,,,,,,,FF,,,,,,,,1.035,,,,,,,,,,,,,,,,,,,,,,6103579f72b250e7a439b926,610365fb825c5dfea8a602f8,2021-07-29_21h39.21.790,Simcolourproject_2stim_asymm_v5,2020.2.10,Win32,60,61025ae37ef11b136ea224fe,,,,,,,,,4022,-113.5999902,48.79999429,1,0,0,response7disk,,1,-2.399939764,0.799993575,1,0,0,rectangle,-2.399939764,0.799993575,1,0,0,-2.399939764,0.799993575,1,0,0,0,14,14,131,1,,,,,,,,
,,,,,,,,,,,,,FF,,,,,,,,0.6554,,,,,,,,,,,,,,,,,,,,,,6103579f72b250e7a439b926,610365fb825c5dfea8a602f8,2021-07-29_21h39.21.790,Simcolourproject_2stim_asymm_v5,2020.2.10,Win32,60,61025ae37ef11b136ea224fe,,,,,,,,,1056,-46.39994042,95.99999499,1,0,0,response7disk,,0,-0.799988568,4.799993634,1,0,0,rectangle,-0.799988568,4.799993634,1,0,0,-0.799988568,4.799993634,1,0,0,0,15,15,91,1,,,,,,,,
,,,,,,,,,,,,,FF,,,,,,,,1.3519,,,,,,,,,,,,,,,,,,,,,,6103579f72b250e7a439b926,610365fb825c5dfea8a602f8,2021-07-29_21h39.21.790,Simcolourproject_2stim_asymm_v5,2020.2.10,Win32,60,61025ae37ef11b136ea224fe,,,,,,,,,3108,-93.59998995,-33.60000694,1,0,0,response5disk,,2,-3.999988616,3.19999361,1,0,0,rectangle,-3.999988616,3.19999361,1,0,0,-3.999988616,3.19999361,1,0,0,0,16,16,47,1,,,,,,,,
,,,,,,,,,,,,,FF,,,,,,,,1.5354,,,,,,,,,,,,,,,,,,,,,,6103579f72b250e7a439b926,610365fb825c5dfea8a602f8,2021-07-29_21h39.21.790,Simcolourproject_2stim_asymm_v5,2020.2.10,Win32,60,61025ae37ef11b136ea224fe,,,,,,,,,2922,98.40001291,39.99999416,1,0,0,response1disk,,6,-1.59998858,3.19999361,1,0,0,rectangle,-1.59998858,3.19999361,1,0,0,-1.59998858,3.19999361,1,0,0,0,17,17,72,1,,,,,,,,
,,,,,,,,,,,,,FF,,,,,,,,3.0372,,,,,,,,,,,,,,,,,,,,,,6103579f72b250e7a439b926,610365fb825c5dfea8a602f8,2021-07-29_21h39.21.790,Simcolourproject_2stim_asymm_v5,2020.2.10,Win32,60,61025ae37ef11b136ea224fe,,,,,,,,,3634,99.20001292,23.19996949,1,0,0,response1disk,,6,0.800011456,3.999993622,1,0,0,rectangle,0.800011456,3.999993622,1,0,0,0.800011456,3.999993622,1,0,0,0,18,18,84,1,,,,,,,,
,,,,,,,,,,,,,FF,,,,,,,,1.6867,,,,,,,,,,,,,,,,,,,,,,6103579f72b250e7a439b926,610365fb825c5dfea8a602f8,2021-07-29_21h39.21.790,Simcolourproject_2stim_asymm_v5,2020.2.10,Win32,60,61025ae37ef11b136ea224fe,,,,,,,,,2248,99.20001292,42.39999419,1,0,0,response1disk,,6,4.000011504,7.999993682,1,0,0,rectangle,4.000011504,7.999993682,1,0,0,4.000011504,7.999993682,1,0,0,0,19,19,6,1,,,,,,,,
,,,,,,,,,,,,,FF,,,,,,,,1.0049,,,,,,,,,,,,,,,,,,,,,,6103579f72b250e7a439b926,610365fb825c5dfea8a602f8,2021-07-29_21h39.21.790,Simcolourproject_2stim_asymm_v5,2020.2.10,Win32,60,61025ae37ef11b136ea224fe,,,,,,,,,1803,43.20001209,63.99999452,1,0,0,response1disk,,7,-7.999988675,0.799993575,1,0,0,rectangle,-7.999988675,0.799993575,1,0,0,-7.999988675,0.799993575,1,0,0,0,20,20,55,1,,,,,,,,
,,,,,,,,,,,,,FF,,,,,,,,0.751,,,,,,,,,,,,,,,,,,,,,,6103579f72b250e7a439b926,610365fb825c5dfea8a602f8,2021-07-29_21h39.21.790,Simcolourproject_2stim_asymm_v5,2020.2.10,Win32,60,61025ae37ef11b136ea224fe,,,,,,,,,1806,40.80001205,82.39999479,1,0,0,response1disk,,7,0.800011456,-3.200006485,1,0,0,rectangle,0.800011456,-3.200006485,1,0,0,0.800011456,-3.200006485,1,0,0,0,21,21,73,1,,,,,,,,
,,,,,,,,,,,,,FF,,,,,,,,1.298,,,,,,,,,,,,,,,,,,,,,,6103579f72b250e7a439b926,610365fb825c5dfea8a602f8,2021-07-29_21h39.21.790,Simcolourproject_2stim_asymm_v5,2020.2.10,Win32,60,61025ae37ef11b136ea224fe,,,,,,,,,646,32.80001193,-85.60005654,1,0,0,response3disk,,4,3.200011492,2.399993598,1,0,0,rectangle,3.200011492,2.399993598,1,0,0,3.200011492,2.399993598,1,0,0,0,22,22,96,1,,,,,,,,
,,,,,,,,,,,,,FF,,,,,,,,0.7849,,,,,,,,,,,,,,,,,,,,,,6103579f72b250e7a439b926,610365fb825c5dfea8a602f8,2021-07-29_21h39.21.790,Simcolourproject_2stim_asymm_v5,2020.2.10,Win32,60,61025ae37ef11b136ea224fe,,,,,,,,,3863,48.00001216,88.79999489,1,0,0,response1disk,,7,-6.399939823,-3.200006485,1,0,0,rectangle,-6.399939823,-3.200006485,1,0,0,-6.399939823,-3.200006485,1,0,0,0,23,23,98,1,,,,,,,,
,,,,,,,,,,,,,FF,,,,,,,,1.6857,,,,,,,,,,,,,,,,,,,,,,6103579f72b250e7a439b926,610365fb825c5dfea8a602f8,2021-07-29_21h39.21.790,Simcolourproject_2stim_asymm_v5,2020.2.10,Win32,60,61025ae37ef11b136ea224fe,,,,,,,,,836,38.40001202,60.79999447,1,0,0,response1disk,,7,1.600060296,-1.600006461,1,0,0,rectangle,1.600060296,-1.600006461,1,0,0,1.600060296,-1.600006461,1,0,0,0,24,24,126,1,,,,,,,,
,,,,,,,,,,,,,FF,,,,,,,,1.3351,,,,,,,,,,,,,,,,,,,,,,6103579f72b250e7a439b926,610365fb825c5dfea8a602f8,2021-07-29_21h39.21.790,Simcolourproject_2stim_asymm_v5,2020.2.10,Win32,60,61025ae37ef11b136ea224fe,,,,,,,,,4009,-44.79998922,-94.40000784,1,0,0,response5disk,,3,-1.59998858,-6.4373E-06,1,0,0,rectangle,-1.59998858,-6.4373E-06,1,0,0,-1.59998858,-6.4373E-06,1,0,0,0,25,25,25,1,,,,,,,,
,,,,,,,,,,,,,FF,,,,,,,,1.2183,,,,,,,,,,,,,,,,,,,,,,6103579f72b250e7a439b926,610365fb825c5dfea8a602f8,2021-07-29_21h39.21.790,Simcolourproject_2stim_asymm_v5,2020.2.10,Win32,60,61025ae37ef11b136ea224fe,,,,,,,,,2486,-87.99998987,-40.00000703,1,0,0,response5disk,,2,4.000011504,3.19999361,1,0,0,rectangle,4.000011504,3.19999361,1,0,0,4.000011504,3.19999361,1,0,0,0,26,26,61,1,,,,,,,,
,,,,,,,,,,,,,FF,,,,,,,,0.6173,,,,,,,,,,,,,,,,,,,,,,6103579f72b250e7a439b926,610365fb825c5dfea8a602f8,2021-07-29_21h39.21.790,Simcolourproject_2stim_asymm_v5,2020.2.10,Win32,60,61025ae37ef11b136ea224fe,,,,,,,,,3336,-36.7999891,91.19997051,1,0,0,response7disk,,0,0.800011456,2.399993598,1,0,0,rectangle,0.800011456,2.399993598,1,0,0,0.800011456,2.399993598,1,0,0,0,27,27,19,1,,,,,,,,
,,,,,,,,,,,,,FF,,,,,,,,1.1561,,,,,,,,,,,,,,,,,,,,,,6103579f72b250e7a439b926,610365fb825c5dfea8a602f8,2021-07-29_21h39.21.790,Simcolourproject_2stim_asymm_v5,2020.2.10,Win32,60,61025ae37ef11b136ea224fe,,,,,,,,,127,94.40001285,-56.80000728,1,0,0,response3disk,,5,-3.199988604,1.599993587,1,0,0,rectangle,-3.199988604,1.599993587,1,0,0,-3.199988604,1.599993587,1,0,0,0,28,28,78,1,,,,,,,,
,,,,,,,,,,,,,FF,,,,,,,,0.7348,,,,,,,,,,,,,,,,,,,,,,6103579f72b250e7a439b926,610365fb825c5dfea8a602f8,2021-07-29_21h39.21.790,Simcolourproject_2stim_asymm_v5,2020.2.10,Win32,60,61025ae37ef11b136ea224fe,,,,,,,,,132,43.20001209,98.39999503,1,0,0,response1disk,,7,-7.999988675,2.399993598,1,0,0,rectangle,-7.999988675,2.399993598,1,0,0,-7.999988675,2.399993598,1,0,0,0,29,29,127,1,,,,,,,,
,,,,,,,,,,,,,FF,,,,,,,,1.6226,,,,,,,,,,,,,,,,,,,,,,6103579f72b250e7a439b926,610365fb825c5dfea8a602f8,2021-07-29_21h39.21.790,Simcolourproject_2stim_asymm_v5,2020.2.10,Win32,60,61025ae37ef11b136ea224fe,,,,,,,,,1206,100.0000129,36.79999411,1,0,0,response1disk,,6,-11.99998873,-0.800006449,1,0,0,rectangle,-11.99998873,-0.800006449,1,0,0,-11.99998873,-0.800006449,1,0,0,0,30,30,156,1,,,,,,,,
,,,,,,,,,,,,,FF,,,,,,,,1.7853,,,,,,,,,,,,,,,,,,,,,,6103579f72b250e7a439b926,610365fb825c5dfea8a602f8,2021-07-29_21h39.21.790,Simcolourproject_2stim_asymm_v5,2020.2.10,Win32,60,61025ae37ef11b136ea224fe,,,,,,,,,1235,-61.59998947,-64.8000074,1,0,0,response5disk,,3,-2.399939764,5.599993646,1,0,0,rectangle,-2.399939764,5.599993646,1,0,0,-2.399939764,5.599993646,1,0,0,0,31,31,105,1,,,,,,,,
,,,,,,,,,,,,,FF,,,,,,,,0.8846,,,,,,,,,,,,,,,,,,,,,,6103579f72b250e7a439b926,610365fb825c5dfea8a602f8,2021-07-29_21h39.21.790,Simcolourproject_2stim_asymm_v5,2020.2.10,Win32,60,61025ae37ef11b136ea224fe,,,,,,,,,1764,108.0000131,43.99999422,1,0,0,response1disk,,6,-6.399939823,2.399993598,1,0,0,rectangle,-6.399939823,2.399993598,1,0,0,-6.399939823,2.399993598,1,0,0,0,32,32,94,1,,,,,,,,
,,,,,,,,,,,,,FF,,,,,,,,3.7088,,,,,,,,,,,,,,,,,,,,,,6103579f72b250e7a439b926,610365fb825c5dfea8a602f8,2021-07-29_21h39.21.790,Simcolourproject_2stim_asymm_v5,2020.2.10,Win32,60,61025ae37ef11b136ea224fe,,,,,,,,,2994,-93.59998995,-42.40000707,1,0,0,response5disk,,2,-3.999988616,3.19999361,1,0,0,rectangle,-3.999988616,3.19999361,1,0,0,-3.999988616,3.19999361,1,0,0,0,33,33,54,1,,,,,,,,
,,,,,,,,,,,,,FF,,,,,,,,0.5846,,,,,,,,,,,,,,,,,,,,,,6103579f72b250e7a439b926,610365fb825c5dfea8a602f8,2021-07-29_21h39.21.790,Simcolourproject_2stim_asymm_v5,2020.2.10,Win32,60,61025ae37ef11b136ea224fe,,,,,,,,,3243,-48.79998928,111.1999708,1,0,0,response7disk,,0,9.600060415,-2.400006473,1,0,0,rectangle,9.600060415,-2.400006473,1,0,0,9.600060415,-2.400006473,1,0,0,0,34,34,116,1,,,,,,,,
,,,,,,,,,,,,,FF,,,,,,,,0.7892,,,,,,,,,,,,,,,,,,,,,,6103579f72b250e7a439b926,610365fb825c5dfea8a602f8,2021-07-29_21h39.21.790,Simcolourproject_2stim_asymm_v5,2020.2.10,Win32,60,61025ae37ef11b136ea224fe,,,,,,,,,3122,95.20001286,-33.60000694,1,0,0,response3disk,,5,1.14441E-05,7.19999367,1,0,0,rectangle,1.14441E-05,7.19999367,1,0,0,1.14441E-05,7.19999367,1,0,0,0,35,35,123,1,,,,,,,,
,,,,,,,,,,,,,FF,,,,,,,,0.9347,,,,,,,,,,,,,,,,,,,,,,6103579f72b250e7a439b926,610365fb825c5dfea8a602f8,2021-07-29_21h39.21.790,Simcolourproject_2stim_asymm_v5,2020.2.10,Win32,60,61025ae37ef11b136ea224fe,,,,,,,,,131,96.00001287,39.19996973,1,0,0,response1disk,,6,-1.59998858,3.999993622,1,0,0,rectangle,-1.59998858,3.999993622,1,0,0,-1.59998858,3.999993622,1,0,0,0,36,36,44,1,,,,,,,,
,,,,,,,,,,,,,FF,,,,,,,,0.5551,,,,,,,,,,,,,,,,,,,,,,6103579f72b250e7a439b926,610365fb825c5dfea8a602f8,2021-07-29_21h39.21.790,Simcolourproject_2stim_asymm_v5,2020.2.10,Win32,60,61025ae37ef11b136ea224fe,,,,,,,,,2122,40.80001205,93.59999496,1,0,0,response1disk,,7,-3.199988604,0.799993575,1,0,0,rectangle,-3.199988604,0.799993575,1,0,0,-3.199988604,0.799993575,1,0,0,0,37,37,147,1,,,,,,,,
,,,,,,,,,,,,,FF,,,,,,,,0.5972,,,,,,,,,,,,,,,,,,,,,,6103579f72b250e7a439b926,610365fb825c5dfea8a602f8,2021-07-29_21h39.21.790,Simcolourproject_2stim_asymm_v5,2020.2.10,Win32,60,61025ae37ef11b136ea224fe,,,,,,,,,1282,55.20001227,79.19997033,1,0,0,response1disk,,7,6.400011539,-14.40000665,1,0,0,rectangle,6.400011539,-14.40000665,1,0,0,6.400011539,-14.40000665,1,0,0,0,38,38,138,1,,,,,,,,
,,,,,,,,,,,,,FF,,,,,,,,0.5801,,,,,,,,,,,,,,,,,,,,,,6103579f72b250e7a439b926,610365fb825c5dfea8a602f8,2021-07-29_21h39.21.790,Simcolourproject_2stim_asymm_v5,2020.2.10,Win32,60,61025ae37ef11b136ea224fe,,,,,,,,,1914,40.80001205,95.99999499,1,0,0,response1disk,,7,1.600060296,-9.60000658,1,0,0,rectangle,1.600060296,-9.60000658,1,0,0,1.600060296,-9.60000658,1,0,0,0,39,39,137,1,,,,,,,,
,,,,,,,,,,,,,FF,,,,,,,,1.103,,,,,,,,,,,,,,,,,,,,,,6103579f72b250e7a439b926,610365fb825c5dfea8a602f8,2021-07-29_21h39.21.790,Simcolourproject_2stim_asymm_v5,2020.2.10,Win32,60,61025ae37ef11b136ea224fe,,,,,,,,,1152,-91.19998991,55.9999944,1,0,0,response7disk,,1,-4.799988627,-6.4373E-06,1,0,0,rectangle,-4.799988627,-6.4373E-06,1,0,0,-4.799988627,-6.4373E-06,1,0,0,0,40,40,124,1,,,,,,,,
,,,,,,,,,,,,,FF,,,,,,,,1.0562,,,,,,,,,,,,,,,,,,,,,,6103579f72b250e7a439b926,610365fb825c5dfea8a602f8,2021-07-29_21h39.21.790,Simcolourproject_2stim_asymm_v5,2020.2.10,Win32,60,61025ae37ef11b136ea224fe,,,,,,,,,3517,-63.99998951,-84.00000769,1,0,0,response5disk,,3,-5.599988639,4.799993634,1,0,0,rectangle,-5.599988639,4.799993634,1,0,0,-5.599988639,4.799993634,1,0,0,0,41,41,149,1,,,,,,,,
,,,,,,,,,,,,,FF,,,,,,,,1.4183,,,,,,,,,,,,,,,,,,,,,,6103579f72b250e7a439b926,610365fb825c5dfea8a602f8,2021-07-29_21h39.21.790,Simcolourproject_2stim_asymm_v5,2020.2.10,Win32,60,61025ae37ef11b136ea224fe,,,,,,,,,3484,-38.3999403,-101.6000568,1,0,0,response5disk,,3,6.400011539,5.599993646,1,0,0,rectangle,6.400011539,5.599993646,1,0,0,6.400011539,5.599993646,1,0,0,0,42,42,115,1,,,,,,,,
,,,,,,,,,,,,,FF,,,,,,,,2.0857,,,,,,,,,,,,,,,,,,,,,,6103579f72b250e7a439b926,610365fb825c5dfea8a602f8,2021-07-29_21h39.21.790,Simcolourproject_2stim_asymm_v5,2020.2.10,Win32,60,61025ae37ef11b136ea224fe,,,,,,,,,862,95.20001286,-22.40000677,1,0,0,response3disk,,5,-3.999988616,11.19999373,1,0,0,rectangle,-3.999988616,11.19999373,1,0,0,-3.999988616,11.19999373,1,0,0,0,43,43,139,1,,,,,,,,
,,,,,,,,,,,,,FF,,,,,,,,1.0521,,,,,,,,,,,,,,,,,,,,,,6103579f72b250e7a439b926,610365fb825c5dfea8a602f8,2021-07-29_21h39.21.790,Simcolourproject_2stim_asymm_v5,2020.2.10,Win32,60,61025ae37ef11b136ea224fe,,,,,,,,,376,88.00001276,32.79999405,1,0,0,response1disk,,6,-4.799988627,-9.60000658,1,0,0,rectangle,-4.799988627,-9.60000658,1,0,0,-4.799988627,-9.60000658,1,0,0,0,44,44,140,1,,,,,,,,
,,,,,,,,,,,,,FF,,,,,,,,3.2035,,,,,,,,,,,,,,,,,,,,,,6103579f72b250e7a439b926,610365fb825c5dfea8a602f8,2021-07-29_21h39.21.790,Simcolourproject_2stim_asymm_v5,2020.2.10,Win32,60,61025ae37ef11b136ea224fe,,,,,,,,,3774,84.80001271,47.19996985,1,0,0,response1disk,,6,-0.799988568,-1.600006461,1,0,0,rectangle,-0.799988568,-1.600006461,1,0,0,-0.799988568,-1.600006461,1,0,0,0,45,45,42,1,,,,,,,,
,,,,,,,,,,,,,FF,,,,,,,,0.7856,,,,,,,,,,,,,,,,,,,,,,6103579f72b250e7a439b926,610365fb825c5dfea8a602f8,2021-07-29_21h39.21.790,Simcolourproject_2stim_asymm_v5,2020.2.10,Win32,60,61025ae37ef11b136ea224fe,,,,,,,,,4095,-52.79998934,94.39999497,1,0,0,response7disk,,0,-6.399939823,5.599993646,1,0,0,rectangle,-6.399939823,5.599993646,1,0,0,-6.399939823,5.599993646,1,0,0,0,46,46,35,1,,,,,,,,
,,,,,,,,,,,,,FF,,,,,,,,1.6896,,,,,,,,,,,,,,,,,,,,,,6103579f72b250e7a439b926,610365fb825c5dfea8a602f8,2021-07-29_21h39.21.790,Simcolourproject_2stim_asymm_v5,2020.2.10,Win32,60,61025ae37ef11b136ea224fe,,,,,,,,,3772,40.00001204,-95.20000786,1,0,0,response3disk,,4,1.600060296,-1.600006461,1,0,0,rectangle,1.600060296,-1.600006461,1,0,0,1.600060296,-1.600006461,1,0,0,0,47,47,150,1,,,,,,,,
,,,,,,,,,,,,,FF,,,,,,,,0.7477,,,,,,,,,,,,,,,,,,,,,,6103579f72b250e7a439b926,610365fb825c5dfea8a602f8,2021-07-29_21h39.21.790,Simcolourproject_2stim_asymm_v5,2020.2.10,Win32,60,61025ae37ef11b136ea224fe,,,,,,,,,1503,35.20001197,104.7999951,1,0,0,response1disk,,7,1.14441E-05,-0.800006449,1,0,0,rectangle,1.14441E-05,-0.800006449,1,0,0,1.14441E-05,-0.800006449,1,0,0,0,48,48,7,1,,,,,,,,
,,,,,,,,,,,,,FF,,,,,,,,0.9349,,,,,,,,,,,,,,,,,,,,,,6103579f72b250e7a439b926,610365fb825c5dfea8a602f8,2021-07-29_21h39.21.790,Simcolourproject_2stim_asymm_v5,2020.2.10,Win32,60,61025ae37ef11b136ea224fe,,,,,,,,,2963,100.8000129,38.39999413,1,0,0,response1disk,,6,1.600060296,9.599993706,1,0,0,rectangle,1.600060296,9.599993706,1,0,0,1.600060296,9.599993706,1,0,0,0,49,49,148,1,,,,,,,,
,,,,,,,,,,,,,FF,,,,,,,,2.7199,,,,,,,,,,,,,,,,,,,,,,6103579f72b250e7a439b926,610365fb825c5dfea8a602f8,2021-07-29_21h39.21.790,Simcolourproject_2stim_asymm_v5,2020.2.10,Win32,60,61025ae37ef11b136ea224fe,,,,,,,,,3675,-91.99998993,-46.40000713,1,0,0,response5disk,,2,1.600060296,-0.800006449,1,0,0,rectangle,1.600060296,-0.800006449,1,0,0,1.600060296,-0.800006449,1,0,0,0,50,50,104,1,,,,,,,,
,,,,,,,,,,,,,FF,,,,,,,,1.7737,,,,,,,,,,,,,,,,,,,,,,6103579f72b250e7a439b926,610365fb825c5dfea8a602f8,2021-07-29_21h39.21.790,Simcolourproject_2stim_asymm_v5,2020.2.10,Win32,60,61025ae37ef11b136ea224fe,,,,,,,,,3083,36.00001198,85.59999484,1,0,0,response1disk,,7,-0.799988568,2.399993598,1,0,0,rectangle,-0.799988568,2.399993598,1,0,0,-0.799988568,2.399993598,1,0,0,0,51,51,18,1,,,,,,,,
,,,,,,,,,,,,,FF,,,,,,,,0.9006,,,,,,,,,,,,,,,,,,,,,,6103579f72b250e7a439b926,610365fb825c5dfea8a602f8,2021-07-29_21h39.21.790,Simcolourproject_2stim_asymm_v5,2020.2.10,Win32,60,61025ae37ef11b136ea224fe,,,,,,,,,1644,62.40001237,112.7999952,1,0,0,response1disk,,7,-3.199988604,8.799993694,1,0,0,rectangle,-3.199988604,8.799993694,1,0,0,-3.199988604,8.799993694,1,0,0,0,52,52,128,1,,,,,,,,
,,,,,,,,,,,,,FF,,,,,,,,1.7991,,,,,,,,,,,,,,,,,,,,,,6103579f72b250e7a439b926,610365fb825c5dfea8a602f8,2021-07-29_21h39.21.790,Simcolourproject_2stim_asymm_v5,2020.2.10,Win32,60,61025ae37ef11b136ea224fe,,,,,,,,,3627,98.40001291,-54.40000725,1,0,0,response3disk,,5,-1.59998858,7.19999367,1,0,0,rectangle,-1.59998858,7.19999367,1,0,0,-1.59998858,7.19999367,1,0,0,0,53,53,103,1,,,,,,,,
,,,,,,,,,,,,,FF,,,,,,,,1.3016,,,,,,,,,,,,,,,,,,,,,,6103579f72b250e7a439b926,610365fb825c5dfea8a602f8,2021-07-29_21h39.21.790,Simcolourproject_2stim_asymm_v5,2020.2.10,Win32,60,61025ae37ef11b136ea224fe,,,,,,,,,82,92.00001281,-28.00000685,1,0,0,response3disk,,5,24.80001181,10.39999372,1,0,0,rectangle,24.80001181,10.39999372,1,0,0,24.80001181,10.39999372,1,0,0,0,54,54,37,1,,,,,,,,
,,,,,,,,,,,,,FF,,,,,,,,1.3989,,,,,,,,,,,,,,,,,,,,,,6103579f72b250e7a439b926,610365fb825c5dfea8a602f8,2021-07-29_21h39.21.790,Simcolourproject_2stim_asymm_v5,2020.2.10,Win32,60,61025ae37ef11b136ea224fe,,,,,,,,,1074,96.00001287,-33.60000694,1,0,0,response3disk,,5,5.600060356,0.799993575,1,0,0,rectangle,5.600060356,0.799993575,1,0,0,5.600060356,0.799993575,1,0,0,0,55,55,71,1,,,,,,,,
,,,,,,,,,,,,,FF,,,,,,,,1.2189,,,,,,,,,,,,,,,,,,,,,,6103579f72b250e7a439b926,610365fb825c5dfea8a602f8,2021-07-29_21h39.21.790,Simcolourproject_2stim_asymm_v5,2020.2.10,Win32,60,61025ae37ef11b136ea224fe,,,,,,,,,807,-39.99998915,-96.80000788,1,0,0,response5disk,,3,-3.199988604,7.19999367,1,0,0,rectangle,-3.199988604,7.19999367,1,0,0,-3.199988604,7.19999367,1,0,0,0,56,56,117,1,,,,,,,,
,,,,,,,,,,,,,FF,,,,,,,,1.1024,,,,,,,,,,,,,,,,,,,,,,6103579f72b250e7a439b926,610365fb825c5dfea8a602f8,2021-07-29_21h39.21.790,Simcolourproject_2stim_asymm_v5,2020.2.10,Win32,60,61025ae37ef11b136ea224fe,,,,,,,,,1576,108.8000131,50.39999431,1,0,0,response1disk,,6,-9.599988699,2.399993598,1,0,0,rectangle,-9.599988699,2.399993598,1,0,0,-9.599988699,2.399993598,1,0,0,0,57,57,130,1,,,,,,,,
,,,,,,,,,,,,,FF,,,,,,,,1.2016,,,,,,,,,,,,,,,,,,,,,,6103579f72b250e7a439b926,610365fb825c5dfea8a602f8,2021-07-29_21h39.21.790,Simcolourproject_2stim_asymm_v5,2020.2.10,Win32,60,61025ae37ef11b136ea224fe,,,,,,,,,4279,53.60001224,108.7999952,1,0,0,response1disk,,7,1.14441E-05,-5.600006521,1,0,0,rectangle,1.14441E-05,-5.600006521,1,0,0,1.14441E-05,-5.600006521,1,0,0,0,58,58,11,1,,,,,,,,
,,,,,,,,,,,,,FF,,,,,,,,2.2698,,,,,,,,,,,,,,,,,,,,,,6103579f72b250e7a439b926,610365fb825c5dfea8a602f8,2021-07-29_21h39.21.790,Simcolourproject_2stim_asymm_v5,2020.2.10,Win32,60,61025ae37ef11b136ea224fe,,,,,,,,,3334,49.60006101,115.9999953,1,0,0,response1disk,,7,-0.799988568,-6.400006533,1,0,0,rectangle,-0.799988568,-6.400006533,1,0,0,-0.799988568,-6.400006533,1,0,0,0,59,59,133,1,,,,,,,,
,,,,,,,,,,,,,FF,,,,,,,,1.6864,,,,,,,,,,,,,,,,,,,,,,6103579f72b250e7a439b926,610365fb825c5dfea8a602f8,2021-07-29_21h39.21.790,Simcolourproject_2stim_asymm_v5,2020.2.10,Win32,60,61025ae37ef11b136ea224fe,,,,,,,,,1284,112.0000131,-40.00000703,1,0,0,response3disk,,5,4.800011516,5.599993646,1,0,0,rectangle,4.800011516,5.599993646,1,0,0,4.800011516,5.599993646,1,0,0,0,60,60,119,1,,,,,,,,
,,,,,,,,,,,,,FF,,,,,,,,1.8527,,,,,,,,,,,,,,,,,,,,,,6103579f72b250e7a439b926,610365fb825c5dfea8a602f8,2021-07-29_21h39.21.790,Simcolourproject_2stim_asymm_v5,2020.2.10,Win32,60,61025ae37ef11b136ea224fe,,,,,,,,,413,108.0000131,39.19996973,1,0,0,response1disk,,6,-1.59998858,-6.4373E-06,1,0,0,rectangle,-1.59998858,-6.4373E-06,1,0,0,-1.59998858,-6.4373E-06,1,0,0,0,61,61,5,1,,,,,,,,
,,,,,,,,,,,,,FF,,,,,,,,0.814,,,,,,,,,,,,,,,,,,,,,,6103579f72b250e7a439b926,610365fb825c5dfea8a602f8,2021-07-29_21h39.21.790,Simcolourproject_2stim_asymm_v5,2020.2.10,Win32,60,61025ae37ef11b136ea224fe,,,,,,,,,3361,39.20001203,99.99999505,1,0,0,response1disk,,7,2.40001148,-6.4373E-06,1,0,0,rectangle,2.40001148,-6.4373E-06,1,0,0,2.40001148,-6.4373E-06,1,0,0,0,62,62,13,1,,,,,,,,
,,,,,,,,,,,,,FF,,,,,,,,1.9736,,,,,,,,,,,,,,,,,,,,,,6103579f72b250e7a439b926,610365fb825c5dfea8a602f8,2021-07-29_21h39.21.790,Simcolourproject_2stim_asymm_v5,2020.2.10,Win32,60,61025ae37ef11b136ea224fe,,,,,,,,,2666,39.20001203,-112.0000081,1,0,0,response3disk,,4,3.200011492,-4.000006497,1,0,0,rectangle,3.200011492,-4.000006497,1,0,0,3.200011492,-4.000006497,1,0,0,0,63,63,75,1,,,,,,,,
,,,,,,,,,,,,,FF,,,,,,,,0.8011,,,,,,,,,,,,,,,,,,,,,,6103579f72b250e7a439b926,610365fb825c5dfea8a602f8,2021-07-29_21h39.21.790,Simcolourproject_2stim_asymm_v5,2020.2.10,Win32,60,61025ae37ef11b136ea224fe,,,,,,,,,4257,40.00001204,103.9999951,1,0,0,response1disk,,7,-5.599988639,-1.600006461,1,0,0,rectangle,-5.599988639,-1.600006461,1,0,0,-5.599988639,-1.600006461,1,0,0,0,64,64,40,1,,,,,,,,
,,,,,,,,,,,,,FF,,,,,,,,1.5849,,,,,,,,,,,,,,,,,,,,,,6103579f72b250e7a439b926,610365fb825c5dfea8a602f8,2021-07-29_21h39.21.790,Simcolourproject_2stim_asymm_v5,2020.2.10,Win32,60,61025ae37ef11b136ea224fe,,,,,,,,,3105,-35.19998908,-104.800008,1,0,0,response5disk,,3,7.200011551,11.19999373,1,0,0,rectangle,7.200011551,11.19999373,1,0,0,7.200011551,11.19999373,1,0,0,0,65,65,111,1,,,,,,,,
,,,,,,,,,,,,,FF,,,,,,,,1.9026,,,,,,,,,,,,,,,,,,,,,,6103579f72b250e7a439b926,610365fb825c5dfea8a602f8,2021-07-29_21h39.21.790,Simcolourproject_2stim_asymm_v5,2020.2.10,Win32,60,61025ae37ef11b136ea224fe,,,,,,,,,3352,74.40001255,76.79999471,1,0,0,response1disk,,7,8.800011575,-12.80000663,1,0,0,rectangle,8.800011575,-12.80000663,1,0,0,8.800011575,-12.80000663,1,0,0,0,66,66,81,1,,,,,,,,
,,,,,,,,,,,,,FF,,,,,,,,1.5732,,,,,,,,,,,,,,,,,,,,,,6103579f72b250e7a439b926,610365fb825c5dfea8a602f8,2021-07-29_21h39.21.790,Simcolourproject_2stim_asymm_v5,2020.2.10,Win32,60,61025ae37ef11b136ea224fe,,,,,,,,,3142,44.80001211,-113.600057,1,0,0,response3disk,,4,7.200011551,-1.600006461,1,0,0,rectangle,7.200011551,-1.600006461,1,0,0,7.200011551,-1.600006461,1,0,0,0,67,67,1,1,,,,,,,,
,,,,,,,,,,,,,FF,,,,,,,,1.2016,,,,,,,,,,,,,,,,,,,,,,6103579f72b250e7a439b926,610365fb825c5dfea8a602f8,2021-07-29_21h39.21.790,Simcolourproject_2stim_asymm_v5,2020.2.10,Win32,60,61025ae37ef11b136ea224fe,,,,,,,,,1880,45.60006095,98.39999503,1,0,0,response1disk,,7,1.14441E-05,-0.800006449,1,0,0,rectangle,1.14441E-05,-0.800006449,1,0,0,1.14441E-05,-0.800006449,1,0,0,0,68,68,82,1,,,,,,,,
,,,,,,,,,,,,,FF,,,,,,,,0.8525,,,,,,,,,,,,,,,,,,,,,,6103579f72b250e7a439b926,610365fb825c5dfea8a602f8,2021-07-29_21h39.21.790,Simcolourproject_2stim_asymm_v5,2020.2.10,Win32,60,61025ae37ef11b136ea224fe,,,,,,,,,496,41.60006089,104.7999951,1,0,0,response1disk,,7,6.400011539,6.399993658,1,0,0,rectangle,6.400011539,6.399993658,1,0,0,6.400011539,6.399993658,1,0,0,0,69,69,39,1,,,,,,,,
,,,,,,,,,,,,,FF,,,,,,,,0.9521,,,,,,,,,,,,,,,,,,,,,,6103579f72b250e7a439b926,610365fb825c5dfea8a602f8,2021-07-29_21h39.21.790,Simcolourproject_2stim_asymm_v5,2020.2.10,Win32,60,61025ae37ef11b136ea224fe,,,,,,,,,3012,38.40001202,98.39999503,1,0,0,response1disk,,7,11.20001161,9.599993706,1,0,0,rectangle,11.20001161,9.599993706,1,0,0,11.20001161,9.599993706,1,0,0,0,70,70,100,1,,,,,,,,
,,,,,,,,,,,,,FF,,,,,,,,0.8559,,,,,,,,,,,,,,,,,,,,,,6103579f72b250e7a439b926,610365fb825c5dfea8a602f8,2021-07-29_21h39.21.790,Simcolourproject_2stim_asymm_v5,2020.2.10,Win32,60,61025ae37ef11b136ea224fe,,,,,,,,,3770,48.00001216,98.39999503,1,0,0,response1disk,,7,7.200011551,12.79999375,1,0,0,rectangle,7.200011551,12.79999375,1,0,0,7.200011551,12.79999375,1,0,0,0,71,71,51,1,,,,,,,,
,,,,,,,,,,,,,FF,,,,,,,,2.2032,,,,,,,,,,,,,,,,,,,,,,6103579f72b250e7a439b926,610365fb825c5dfea8a602f8,2021-07-29_21h39.21.790,Simcolourproject_2stim_asymm_v5,2020.2.10,Win32,60,61025ae37ef11b136ea224fe,,,,,,,,,3757,104.800013,46.39999425,1,0,0,response1disk,,6,4.000011504,-6.4373E-06,1,0,0,rectangle,4.000011504,-6.4373E-06,1,0,0,4.000011504,-6.4373E-06,1,0,0,0,72,72,88,1,,,,,,,,
,,,,,,,,,,,,,FF,,,,,,,,1.0838,,,,,,,,,,,,,,,,,,,,,,6103579f72b250e7a439b926,610365fb825c5dfea8a602f8,2021-07-29_21h39.21.790,Simcolourproject_2stim_asymm_v5,2020.2.10,Win32,60,61025ae37ef11b136ea224fe,,,,,,,,,702,-57.59998941,-118.4000082,1,0,0,response5disk,,3,-3.199988604,7.19999367,1,0,0,rectangle,-3.199988604,7.19999367,1,0,0,-3.199988604,7.19999367,1,0,0,0,73,73,108,1,,,,,,,,
,,,,,,,,,,,,,FF,,,,,,,,1.3188,,,,,,,,,,,,,,,,,,,,,,6103579f72b250e7a439b926,610365fb825c5dfea8a602f8,2021-07-29_21h39.21.790,Simcolourproject_2stim_asymm_v5,2020.2.10,Win32,60,61025ae37ef11b136ea224fe,,,,,,,,,691,107.200013,36.79999411,1,0,0,response1disk,,6,-3.199988604,-1.600006461,1,0,0,rectangle,-3.199988604,-1.600006461,1,0,0,-3.199988604,-1.600006461,1,0,0,0,74,74,4,1,,,,,,,,
,,,,,,,,,,,,,FF,,,,,,,,1.1348,,,,,,,,,,,,,,,,,,,,,,6103579f72b250e7a439b926,610365fb825c5dfea8a602f8,2021-07-29_21h39.21.790,Simcolourproject_2stim_asymm_v5,2020.2.10,Win32,60,61025ae37ef11b136ea224fe,,,,,,,,,2466,104.000013,45.59999424,1,0,0,response1disk,,6,4.800011516,12.79999375,1,0,0,rectangle,4.800011516,12.79999375,1,0,0,4.800011516,12.79999375,1,0,0,0,75,75,112,1,,,,,,,,
,,,,,,,,,,,,,FF,,,,,,,,1.8355,,,,,,,,,,,,,,,,,,,,,,6103579f72b250e7a439b926,610365fb825c5dfea8a602f8,2021-07-29_21h39.21.790,Simcolourproject_2stim_asymm_v5,2020.2.10,Win32,60,61025ae37ef11b136ea224fe,,,,,,,,,2652,-50.39994048,-108.000008,1,0,0,response5disk,,3,-0.799988568,1.599993587,1,0,0,rectangle,-0.799988568,1.599993587,1,0,0,-0.799988568,1.599993587,1,0,0,0,76,76,65,1,,,,,,,,
,,,,,,,,,,,,,FF,,,,,,,,1.0516,,,,,,,,,,,,,,,,,,,,,,6103579f72b250e7a439b926,610365fb825c5dfea8a602f8,2021-07-29_21h39.21.790,Simcolourproject_2stim_asymm_v5,2020.2.10,Win32,60,61025ae37ef11b136ea224fe,,,,,,,,,965,44.0000121,115.9999953,1,0,0,response1disk,,7,1.14441E-05,7.999993682,1,0,0,rectangle,1.14441E-05,7.999993682,1,0,0,1.14441E-05,7.999993682,1,0,0,0,77,77,89,1,,,,,,,,
,,,,,,,,,,,,,FF,,,,,,,,1.1515,,,,,,,,,,,,,,,,,,,,,,6103579f72b250e7a439b926,610365fb825c5dfea8a602f8,2021-07-29_21h39.21.790,Simcolourproject_2stim_asymm_v5,2020.2.10,Win32,60,61025ae37ef11b136ea224fe,,,,,,,,,2896,90.40001279,35.9999941,1,0,0,response1disk,,6,6.400011539,0.799993575,1,0,0,rectangle,6.400011539,0.799993575,1,0,0,6.400011539,0.799993575,1,0,0,0,78,78,79,1,,,,,,,,
,,,,,,,,,,,,,FF,,,,,,,,0.6843,,,,,,,,,,,,,,,,,,,,,,6103579f72b250e7a439b926,610365fb825c5dfea8a602f8,2021-07-29_21h39.21.790,Simcolourproject_2stim_asymm_v5,2020.2.10,Win32,60,61025ae37ef11b136ea224fe,,,,,,,,,2010,55.20001227,121.5999954,1,0,0,response1disk,,7,0.800011456,3.999993622,1,0,0,rectangle,0.800011456,3.999993622,1,0,0,0.800011456,3.999993622,1,0,0,0,79,79,68,1,,,,,,,,
,,,,,,,,,,,,,FF,,,,,,,,0.5839,,,,,,,,,,,,,,,,,,,,,,6103579f72b250e7a439b926,610365fb825c5dfea8a602f8,2021-07-29_21h39.21.790,Simcolourproject_2stim_asymm_v5,2020.2.10,Win32,60,61025ae37ef11b136ea224fe,,,,,,,,,1038,34.40001196,107.9999952,1,0,0,response1disk,,7,8.000011563,15.9999938,1,0,0,rectangle,8.000011563,15.9999938,1,0,0,8.000011563,15.9999938,1,0,0,0,80,80,83,1,,,,,,,,
,,,,,,,,,,,,,FF,,,,,,,,1.0683,,,,,,,,,,,,,,,,,,,,,,6103579f72b250e7a439b926,610365fb825c5dfea8a602f8,2021-07-29_21h39.21.790,Simcolourproject_2stim_asymm_v5,2020.2.10,Win32,60,61025ae37ef11b136ea224fe,,,,,,,,,2776,40.80001205,98.39999503,1,0,0,response1disk,,7,1.14441E-05,-11.2000066,1,0,0,rectangle,-88.79998988,-35.20000696,1,0,0,-3.199988604,4.799993634,1,0,0,0,81,81,70,1,,response5disk_3,TRUE,2,2,"[258,224,314,271,208,209,144,88,2,193,263,82,300,186,214,84,123,233,186,218]",1.9525,rectangle
,,,,,,,,,,,,,FF,,,,,,,,1.1349,,,,,,,,,,,,,,,,,,,,,,6103579f72b250e7a439b926,610365fb825c5dfea8a602f8,2021-07-29_21h39.21.790,Simcolourproject_2stim_asymm_v5,2020.2.10,Win32,60,61025ae37ef11b136ea224fe,,,,,,,,,2628,48.80001217,105.5999951,1,0,0,response1disk,,7,1.14441E-05,-3.200006485,1,0,0,rectangle,1.14441E-05,-3.200006485,1,0,0,1.14441E-05,-3.200006485,1,0,0,0,82,82,151,1,,,,,,,,
,,,,,,,,,,,,,FF,,,,,,,,1.1519,,,,,,,,,,,,,,,,,,,,,,6103579f72b250e7a439b926,610365fb825c5dfea8a602f8,2021-07-29_21h39.21.790,Simcolourproject_2stim_asymm_v5,2020.2.10,Win32,60,61025ae37ef11b136ea224fe,,,,,,,,,3084,118.4000132,43.19996979,1,0,0,response1disk,,6,-0.799988568,-0.800006449,1,0,0,rectangle,49.60006101,111.1999708,1,0,0,1.14441E-05,7.999993682,1,0,0,0,83,83,46,1,,response1disk_3,TRUE,7,7,"[258,224,314,271,208,209,144,88,2,193,263,82,300,186,214,84,123,233,186,218]",1.3054,rectangle
,,,,,,,,,,,,,FF,,,,,,,,2.8037,,,,,,,,,,,,,,,,,,,,,,6103579f72b250e7a439b926,610365fb825c5dfea8a602f8,2021-07-29_21h39.21.790,Simcolourproject_2stim_asymm_v5,2020.2.10,Win32,60,61025ae37ef11b136ea224fe,,,,,,,,,1315,36.80001199,-110.4000081,1,0,0,response3disk,,4,5.600060356,3.999993622,1,0,0,rectangle,5.600060356,3.999993622,1,0,0,5.600060356,3.999993622,1,0,0,0,84,84,48,1,,,,,,,,
,,,,,,,,,,,,,FF,,,,,,,,1.0637,,,,,,,,,,,,,,,,,,,,,,6103579f72b250e7a439b926,610365fb825c5dfea8a602f8,2021-07-29_21h39.21.790,Simcolourproject_2stim_asymm_v5,2020.2.10,Win32,60,61025ae37ef11b136ea224fe,,,,,,,,,1233,44.0000121,-104.000008,1,0,0,response3disk,,4,15.20001167,3.19999361,1,0,0,rectangle,15.20001167,3.19999361,1,0,0,15.20001167,3.19999361,1,0,0,0,85,85,109,1,,,,,,,,
,,,,,,,,,,,,,FF,,,,,,,,0.7177,,,,,,,,,,,,,,,,,,,,,,6103579f72b250e7a439b926,610365fb825c5dfea8a602f8,2021-07-29_21h39.21.790,Simcolourproject_2stim_asymm_v5,2020.2.10,Win32,60,61025ae37ef11b136ea224fe,,,,,,,,,2540,36.00001198,70.39999461,1,0,0,response1disk,,7,-6.399939823,-14.40000665,1,0,0,rectangle,-6.399939823,-14.40000665,1,0,0,-6.399939823,-14.40000665,1,0,0,0,86,86,0,1,,,,,,,,
,,,,,,,,,,,,,FF,,,,,,,,0.7387,,,,,,,,,,,,,,,,,,,,,,6103579f72b250e7a439b926,610365fb825c5dfea8a602f8,2021-07-29_21h39.21.790,Simcolourproject_2stim_asymm_v5,2020.2.10,Win32,60,61025ae37ef11b136ea224fe,,,,,,,,,2829,42.40001208,110.3999952,1,0,0,response1disk,,7,1.600060296,-12.80000663,1,0,0,rectangle,88.80001277,-28.80000687,1,0,0,18.40001172,0.799993575,1,0,0,0,87,87,29,1,,response3disk_3,TRUE,5,5,"[258,224,314,271,208,209,144,88,2,193,263,82,300,186,214,84,123,233,186,218]",1.2653,rectangle
,,,,,,,,,,,,,FF,,,,,,,,1.6197,,,,,,,,,,,,,,,,,,,,,,6103579f72b250e7a439b926,610365fb825c5dfea8a602f8,2021-07-29_21h39.21.790,Simcolourproject_2stim_asymm_v5,2020.2.10,Win32,60,61025ae37ef11b136ea224fe,,,,,,,,,957,101.600013,36.79999411,1,0,0,response1disk,,6,2.40001148,-14.40000665,1,0,0,rectangle,2.40001148,-14.40000665,1,0,0,2.40001148,-14.40000665,1,0,0,0,88,88,62,1,,,,,,,,
,,,,,,,,,,,,,FF,,,,,,,,0.9641,,,,,,,,,,,,,,,,,,,,,,6103579f72b250e7a439b926,610365fb825c5dfea8a602f8,2021-07-29_21h39.21.790,Simcolourproject_2stim_asymm_v5,2020.2.10,Win32,60,61025ae37ef11b136ea224fe,,,,,,,,,2762,43.20001209,126.3999954,1,0,0,response1disk,,7,4.800011516,-2.400006473,1,0,0,rectangle,4.800011516,-2.400006473,1,0,0,4.800011516,-2.400006473,1,0,0,0,89,89,157,1,,,,,,,,
,,,,,,,,,,,,,FF,,,,,,,,0.6471,,,,,,,,,,,,,,,,,,,,,,6103579f72b250e7a439b926,610365fb825c5dfea8a602f8,2021-07-29_21h39.21.790,Simcolourproject_2stim_asymm_v5,2020.2.10,Win32,60,61025ae37ef11b136ea224fe,,,,,,,,,698,42.40001208,99.99999505,1,0,0,response1disk,,7,-0.799988568,3.999993622,1,0,0,rectangle,-0.799988568,3.999993622,1,0,0,-0.799988568,3.999993622,1,0,0,0,90,90,64,1,,,,,,,,
,,,,,,,,,,,,,FF,,,,,,,,0.7181,,,,,,,,,,,,,,,,,,,,,,6103579f72b250e7a439b926,610365fb825c5dfea8a602f8,2021-07-29_21h39.21.790,Simcolourproject_2stim_asymm_v5,2020.2.10,Win32,60,61025ae37ef11b136ea224fe,,,,,,,,,1511,40.00001204,99.19997063,1,0,0,response1disk,,7,-3.999988616,-5.600006521,1,0,0,rectangle,-3.999988616,-5.600006521,1,0,0,-3.999988616,-5.600006521,1,0,0,0,91,91,59,1,,,,,,,,
,,,,,,,,,,,,,FF,,,,,,,,1.385,,,,,,,,,,,,,,,,,,,,,,6103579f72b250e7a439b926,610365fb825c5dfea8a602f8,2021-07-29_21h39.21.790,Simcolourproject_2stim_asymm_v5,2020.2.10,Win32,60,61025ae37ef11b136ea224fe,,,,,,,,,1903,48.80001217,-102.400008,1,0,0,response3disk,,4,-0.799988568,-6.4373E-06,1,0,0,rectangle,-0.799988568,-6.4373E-06,1,0,0,-0.799988568,-6.4373E-06,1,0,0,0,92,92,2,1,,,,,,,,
,,,,,,,,,,,,,FF,,,,,,,,0.7345,,,,,,,,,,,,,,,,,,,,,,6103579f72b250e7a439b926,610365fb825c5dfea8a602f8,2021-07-29_21h39.21.790,Simcolourproject_2stim_asymm_v5,2020.2.10,Win32,60,61025ae37ef11b136ea224fe,,,,,,,,,1493,43.20001209,97.59999502,1,0,0,response1disk,,7,-8.799988687,-14.40000665,1,0,0,rectangle,-8.799988687,-14.40000665,1,0,0,-8.799988687,-14.40000665,1,0,0,0,93,93,23,1,,,,,,,,
,,,,,,,,,,,,,FF,,,,,,,,1.1341,,,,,,,,,,,,,,,,,,,,,,6103579f72b250e7a439b926,610365fb825c5dfea8a602f8,2021-07-29_21h39.21.790,Simcolourproject_2stim_asymm_v5,2020.2.10,Win32,60,61025ae37ef11b136ea224fe,,,,,,,,,1610,-103.1999901,39.99999416,1,0,0,response7disk,,1,6.400011539,1.599993587,1,0,0,rectangle,6.400011539,1.599993587,1,0,0,6.400011539,1.599993587,1,0,0,0,94,94,113,1,,,,,,,,
,,,,,,,,,,,,,FF,,,,,,,,1.3059,,,,,,,,,,,,,,,,,,,,,,6103579f72b250e7a439b926,610365fb825c5dfea8a602f8,2021-07-29_21h39.21.790,Simcolourproject_2stim_asymm_v5,2020.2.10,Win32,60,61025ae37ef11b136ea224fe,,,,,,,,,3596,-50.39994048,-100.0000079,1,0,0,response5disk,,3,1.14441E-05,0.799993575,1,0,0,rectangle,1.14441E-05,0.799993575,1,0,0,1.14441E-05,0.799993575,1,0,0,0,95,95,41,1,,,,,,,,
,,,,,,,,,,,,,FF,,,,,,,,0.6345,,,,,,,,,,,,,,,,,,,,,,6103579f72b250e7a439b926,610365fb825c5dfea8a602f8,2021-07-29_21h39.21.790,Simcolourproject_2stim_asymm_v5,2020.2.10,Win32,60,61025ae37ef11b136ea224fe,,,,,,,,,3728,51.20001221,88.79999489,1,0,0,response1disk,,7,8.800011575,6.399993658,1,0,0,rectangle,8.800011575,6.399993658,1,0,0,8.800011575,6.399993658,1,0,0,0,96,96,30,1,,,,,,,,
,,,,,,,,,,,,,FF,,,,,,,,0.7508,,,,,,,,,,,,,,,,,,,,,,6103579f72b250e7a439b926,610365fb825c5dfea8a602f8,2021-07-29_21h39.21.790,Simcolourproject_2stim_asymm_v5,2020.2.10,Win32,60,61025ae37ef11b136ea224fe,,,,,,,,,302,48.80001217,82.39999479,1,0,0,response1disk,,7,4.000011504,-4.000006497,1,0,0,rectangle,4.000011504,-4.000006497,1,0,0,4.000011504,-4.000006497,1,0,0,0,97,97,101,1,,,,,,,,
,,,,,,,,,,,,,FF,,,,,,,,1.0182,,,,,,,,,,,,,,,,,,,,,,6103579f72b250e7a439b926,610365fb825c5dfea8a602f8,2021-07-29_21h39.21.790,Simcolourproject_2stim_asymm_v5,2020.2.10,Win32,60,61025ae37ef11b136ea224fe,,,,,,,,,1293,37.60006083,-105.6000568,1,0,0,response3disk,,4,0.800011456,10.39999372,1,0,0,rectangle,0.800011456,10.39999372,1,0,0,0.800011456,10.39999372,1,0,0,0,98,98,8,1,,,,,,,,
,,,,,,,,,,,,,FF,,,,,,,,0.6332,,,,,,,,,,,,,,,,,,,,,,6103579f72b250e7a439b926,610365fb825c5dfea8a602f8,2021-07-29_21h39.21.790,Simcolourproject_2stim_asymm_v5,2020.2.10,Win32,60,61025ae37ef11b136ea224fe,,,,,,,,,689,39.20001203,100.7999951,1,0,0,response1disk,,7,0.800011456,4.799993634,1,0,0,rectangle,0.800011456,4.799993634,1,0,0,0.800011456,4.799993634,1,0,0,0,99,99,87,1,,,,,,,,
,,,,,,,,,,,,,FF,,,,,,,,0.8052,,,,,,,,,,,,,,,,,,,,,,6103579f72b250e7a439b926,610365fb825c5dfea8a602f8,2021-07-29_21h39.21.790,Simcolourproject_2stim_asymm_v5,2020.2.10,Win32,60,61025ae37ef11b136ea224fe,,,,,,,,,4002,100.0000129,35.9999941,1,0,0,response1disk,,6,14.40001166,-5.600006521,1,0,0,rectangle,14.40001166,-5.600006521,1,0,0,14.40001166,-5.600006521,1,0,0,0,100,100,159,1,,,,,,,,
,,,,,,,,,,,,,FF,,,,,,,,1.0224,,,,,,,,,,,,,,,,,,,,,,6103579f72b250e7a439b926,610365fb825c5dfea8a602f8,2021-07-29_21h39.21.790,Simcolourproject_2stim_asymm_v5,2020.2.10,Win32,60,61025ae37ef11b136ea224fe,,,,,,,,,1787,40.80001205,87.99999487,1,0,0,response1disk,,7,0.800011456,-6.400006533,1,0,0,rectangle,0.800011456,-6.400006533,1,0,0,0.800011456,-6.400006533,1,0,0,0,101,101,134,1,,,,,,,,
,,,,,,,,,,,,,FF,,,,,,,,0.5009,,,,,,,,,,,,,,,,,,,,,,6103579f72b250e7a439b926,610365fb825c5dfea8a602f8,2021-07-29_21h39.21.790,Simcolourproject_2stim_asymm_v5,2020.2.10,Win32,60,61025ae37ef11b136ea224fe,,,,,,,,,860,45.60006095,102.3999951,1,0,0,response1disk,,7,3.200011492,2.399993598,1,0,0,rectangle,3.200011492,2.399993598,1,0,0,3.200011492,2.399993598,1,0,0,0,102,102,63,1,,,,,,,,
,,,,,,,,,,,,,FF,,,,,,,,0.6054,,,,,,,,,,,,,,,,,,,,,,6103579f72b250e7a439b926,610365fb825c5dfea8a602f8,2021-07-29_21h39.21.790,Simcolourproject_2stim_asymm_v5,2020.2.10,Win32,60,61025ae37ef11b136ea224fe,,,,,,,,,838,43.20001209,95.99999499,1,0,0,response1disk,,7,18.40001172,-4.000006497,1,0,0,rectangle,18.40001172,-4.000006497,1,0,0,18.40001172,-4.000006497,1,0,0,0,103,103,153,1,,,,,,,,
,,,,,,,,,,,,,FF,,,,,,,,1.0849,,,,,,,,,,,,,,,,,,,,,,6103579f72b250e7a439b926,610365fb825c5dfea8a602f8,2021-07-29_21h39.21.790,Simcolourproject_2stim_asymm_v5,2020.2.10,Win32,60,61025ae37ef11b136ea224fe,,,,,,,,,3101,-42.39994036,-94.40000784,1,0,0,response5disk,,3,0.800011456,4.799993634,1,0,0,rectangle,0.800011456,4.799993634,1,0,0,0.800011456,4.799993634,1,0,0,0,104,104,69,1,,,,,,,,
,,,,,,,,,,,,,FF,,,,,,,,3.9924,,,,,,,,,,,,,,,,,,,,,,6103579f72b250e7a439b926,610365fb825c5dfea8a602f8,2021-07-29_21h39.21.790,Simcolourproject_2stim_asymm_v5,2020.2.10,Win32,60,61025ae37ef11b136ea224fe,,,,,,,,,571,-74.39994084,55.19996997,1,0,0,response7disk,,1,1.600060296,-7.200006545,1,0,0,rectangle,1.600060296,-7.200006545,1,0,0,1.600060296,-7.200006545,1,0,0,0,105,105,110,1,,,,,,,,
,,,,,,,,,,,,,FF,,,,,,,,1.2183,,,,,,,,,,,,,,,,,,,,,,6103579f72b250e7a439b926,610365fb825c5dfea8a602f8,2021-07-29_21h39.21.790,Simcolourproject_2stim_asymm_v5,2020.2.10,Win32,60,61025ae37ef11b136ea224fe,,,,,,,,,849,47.20001215,94.39999497,1,0,0,response1disk,,7,-7.999988675,-12.00000662,1,0,0,rectangle,-7.999988675,-12.00000662,1,0,0,-7.999988675,-12.00000662,1,0,0,0,106,106,114,1,,,,,,,,
,,,,,,,,,,,,,FF,,,,,,,,2.2029,,,,,,,,,,,,,,,,,,,,,,6103579f72b250e7a439b926,610365fb825c5dfea8a602f8,2021-07-29_21h39.21.790,Simcolourproject_2stim_asymm_v5,2020.2.10,Win32,60,61025ae37ef11b136ea224fe,,,,,,,,,3910,-109.5999902,-33.60000694,1,0,0,response5disk,,2,-11.19998872,-6.4373E-06,1,0,0,rectangle,-11.19998872,-6.4373E-06,1,0,0,-11.19998872,-6.4373E-06,1,0,0,0,107,107,27,1,,,,,,,,
,,,,,,,,,,,,,FF,,,,,,,,1.0042,,,,,,,,,,,,,,,,,,,,,,6103579f72b250e7a439b926,610365fb825c5dfea8a602f8,2021-07-29_21h39.21.790,Simcolourproject_2stim_asymm_v5,2020.2.10,Win32,60,61025ae37ef11b136ea224fe,,,,,,,,,2690,47.20001215,96.79999501,1,0,0,response1disk,,7,-7.999988675,10.39999372,1,0,0,rectangle,-7.999988675,10.39999372,1,0,0,-7.999988675,10.39999372,1,0,0,0,108,108,22,1,,,,,,,,
,,,,,,,,,,,,,FF,,,,,,,,1.3853,,,,,,,,,,,,,,,,,,,,,,6103579f72b250e7a439b926,610365fb825c5dfea8a602f8,2021-07-29_21h39.21.790,Simcolourproject_2stim_asymm_v5,2020.2.10,Win32,60,61025ae37ef11b136ea224fe,,,,,,,,,521,114.4000131,40.79999417,1,0,0,response1disk,,6,-3.199988604,-1.600006461,1,0,0,rectangle,-3.199988604,-1.600006461,1,0,0,-3.199988604,-1.600006461,1,0,0,0,109,109,21,1,,,,,,,,
,,,,,,,,,,,,,FF,,,,,,,,0.6222,,,,,,,,,,,,,,,,,,,,,,6103579f72b250e7a439b926,610365fb825c5dfea8a602f8,2021-07-29_21h39.21.790,Simcolourproject_2stim_asymm_v5,2020.2.10,Win32,60,61025ae37ef11b136ea224fe,,,,,,,,,3075,38.40001202,96.79999501,1,0,0,response1disk,,7,-15.19998878,-11.2000066,1,0,0,rectangle,-15.19998878,-11.2000066,1,0,0,-15.19998878,-11.2000066,1,0,0,0,110,110,122,1,,,,,,,,
,,,,,,,,,,,,,FF,,,,,,,,0.484,,,,,,,,,,,,,,,,,,,,,,6103579f72b250e7a439b926,610365fb825c5dfea8a602f8,2021-07-29_21h39.21.790,Simcolourproject_2stim_asymm_v5,2020.2.10,Win32,60,61025ae37ef11b136ea224fe,,,,,,,,,1864,62.40001237,96.79999501,1,0,0,response1disk,,7,1.14441E-05,-7.200006545,1,0,0,rectangle,1.14441E-05,-7.200006545,1,0,0,1.14441E-05,-7.200006545,1,0,0,0,111,111,45,1,,,,,,,,
,,,,,,,,,,,,,FF,,,,,,,,0.4549,,,,,,,,,,,,,,,,,,,,,,6103579f72b250e7a439b926,610365fb825c5dfea8a602f8,2021-07-29_21h39.21.790,Simcolourproject_2stim_asymm_v5,2020.2.10,Win32,60,61025ae37ef11b136ea224fe,,,,,,,,,4284,36.80001199,96.79999501,1,0,0,response1disk,,7,4.000011504,11.99999374,1,0,0,rectangle,4.000011504,11.99999374,1,0,0,4.000011504,11.99999374,1,0,0,0,112,112,99,1,,,,,,,,
,,,,,,,,,,,,,FF,,,,,,,,0.4509,,,,,,,,,,,,,,,,,,,,,,6103579f72b250e7a439b926,610365fb825c5dfea8a602f8,2021-07-29_21h39.21.790,Simcolourproject_2stim_asymm_v5,2020.2.10,Win32,60,61025ae37ef11b136ea224fe,,,,,,,,,2200,45.60006095,89.5999949,1,0,0,response1disk,,7,8.000011563,-4.000006497,1,0,0,rectangle,8.000011563,-4.000006497,1,0,0,8.000011563,-4.000006497,1,0,0,0,113,113,144,1,,,,,,,,
,,,,,,,,,,,,,FF,,,,,,,,1.1846,,,,,,,,,,,,,,,,,,,,,,6103579f72b250e7a439b926,610365fb825c5dfea8a602f8,2021-07-29_21h39.21.790,Simcolourproject_2stim_asymm_v5,2020.2.10,Win32,60,61025ae37ef11b136ea224fe,,,,,,,,,1605,80.80001265,-34.40000695,1,0,0,response3disk,,5,29.60006071,-11.2000066,1,0,0,rectangle,29.60006071,-11.2000066,1,0,0,29.60006071,-11.2000066,1,0,0,0,114,114,132,1,,,,,,,,
,,,,,,,,,,,,,FF,,,,,,,,1.1727,,,,,,,,,,,,,,,,,,,,,,6103579f72b250e7a439b926,610365fb825c5dfea8a602f8,2021-07-29_21h39.21.790,Simcolourproject_2stim_asymm_v5,2020.2.10,Win32,60,61025ae37ef11b136ea224fe,,,,,,,,,2759,47.20001215,107.1999707,1,0,0,response1disk,,7,1.14441E-05,-12.80000663,1,0,0,rectangle,1.14441E-05,-12.80000663,1,0,0,1.14441E-05,-12.80000663,1,0,0,0,115,115,143,1,,,,,,,,
,,,,,,,,,,,,,FF,,,,,,,,1.0892,,,,,,,,,,,,,,,,,,,,,,6103579f72b250e7a439b926,610365fb825c5dfea8a602f8,2021-07-29_21h39.21.790,Simcolourproject_2stim_asymm_v5,2020.2.10,Win32,60,61025ae37ef11b136ea224fe,,,,,,,,,4165,92.80001283,-33.60000694,1,0,0,response3disk,,5,1.600060296,11.19999373,1,0,0,rectangle,1.600060296,11.19999373,1,0,0,1.600060296,11.19999373,1,0,0,0,116,116,95,1,,,,,,,,
,,,,,,,,,,,,,FF,,,,,,,,0.6842,,,,,,,,,,,,,,,,,,,,,,6103579f72b250e7a439b926,610365fb825c5dfea8a602f8,2021-07-29_21h39.21.790,Simcolourproject_2stim_asymm_v5,2020.2.10,Win32,60,61025ae37ef11b136ea224fe,,,,,,,,,573,49.60006101,114.3999953,1,0,0,response1disk,,7,-14.39993994,11.99999374,1,0,0,rectangle,-14.39993994,11.99999374,1,0,0,-14.39993994,11.99999374,1,0,0,0,117,117,76,1,,,,,,,,
,,,,,,,,,,,,,FF,,,,,,,,0.5176,,,,,,,,,,,,,,,,,,,,,,6103579f72b250e7a439b926,610365fb825c5dfea8a602f8,2021-07-29_21h39.21.790,Simcolourproject_2stim_asymm_v5,2020.2.10,Win32,60,61025ae37ef11b136ea224fe,,,,,,,,,2929,46.40001214,106.3999951,1,0,0,response1disk,,7,4.000011504,5.599993646,1,0,0,rectangle,4.000011504,5.599993646,1,0,0,4.000011504,5.599993646,1,0,0,0,118,118,20,1,,,,,,,,
,,,,,,,,,,,,,FF,,,,,,,,1.0515,,,,,,,,,,,,,,,,,,,,,,6103579f72b250e7a439b926,610365fb825c5dfea8a602f8,2021-07-29_21h39.21.790,Simcolourproject_2stim_asymm_v5,2020.2.10,Win32,60,61025ae37ef11b136ea224fe,,,,,,,,,281,102.400013,36.79999411,1,0,0,response1disk,,6,-2.399939764,-13.60000664,1,0,0,rectangle,-2.399939764,-13.60000664,1,0,0,-2.399939764,-13.60000664,1,0,0,0,119,119,17,1,,,,,,,,
,,,,,,,,,,,,,FF,,,,,,,,0.5509,,,,,,,,,,,,,,,,,,,,,,6103579f72b250e7a439b926,610365fb825c5dfea8a602f8,2021-07-29_21h39.21.790,Simcolourproject_2stim_asymm_v5,2020.2.10,Win32,60,61025ae37ef11b136ea224fe,,,,,,,,,3271,42.40001208,93.59999496,1,0,0,response1disk,,7,-2.399939764,-3.200006485,1,0,0,rectangle,-2.399939764,-3.200006485,1,0,0,-2.399939764,-3.200006485,1,0,0,0,120,120,53,1,,,,,,,,
,,,,,,,,,,,,,FF,,,,,,,,0.7839,,,,,,,,,,,,,,,,,,,,,,6103579f72b250e7a439b926,610365fb825c5dfea8a602f8,2021-07-29_21h39.21.790,Simcolourproject_2stim_asymm_v5,2020.2.10,Win32,60,61025ae37ef11b136ea224fe,,,,,,,,,4248,55.20001227,89.5999949,1,0,0,response1disk,,7,9.600060415,13.59999377,1,0,0,rectangle,9.600060415,13.59999377,1,0,0,9.600060415,13.59999377,1,0,0,0,121,121,152,1,,,,,,,,
,,,,,,,,,,,,,FF,,,,,,,,1.0353,,,,,,,,,,,,,,,,,,,,,,6103579f72b250e7a439b926,610365fb825c5dfea8a602f8,2021-07-29_21h39.21.790,Simcolourproject_2stim_asymm_v5,2020.2.10,Win32,60,61025ae37ef11b136ea224fe,,,,,,,,,3312,45.60006095,90.39999491,1,0,0,response1disk,,7,3.200011492,2.399993598,1,0,0,rectangle,52.00001222,135.1999712,1,0,0,4.000011504,2.399993598,1,0,0,0,122,122,16,1,,response1disk_3,TRUE,7,7,"[258,224,314,271,208,209,144,88,2,193,263,82,300,186,214,84,123,233,186,218]",1.1846,rectangle
,,,,,,,,,,,,,FF,,,,,,,,1.4187,,,,,,,,,,,,,,,,,,,,,,6103579f72b250e7a439b926,610365fb825c5dfea8a602f8,2021-07-29_21h39.21.790,Simcolourproject_2stim_asymm_v5,2020.2.10,Win32,60,61025ae37ef11b136ea224fe,,,,,,,,,3123,114.4000131,43.19996979,1,0,0,response1disk,,6,3.200011492,1.599993587,1,0,0,rectangle,3.200011492,1.599993587,1,0,0,3.200011492,1.599993587,1,0,0,0,123,123,145,1,,,,,,,,
,,,,,,,,,,,,,FF,,,,,,,,1.8695,,,,,,,,,,,,,,,,,,,,,,6103579f72b250e7a439b926,610365fb825c5dfea8a602f8,2021-07-29_21h39.21.790,Simcolourproject_2stim_asymm_v5,2020.2.10,Win32,60,61025ae37ef11b136ea224fe,,,,,,,,,4086,99.20001292,26.39999396,1,0,0,response1disk,,6,-0.799988568,-7.200006545,1,0,0,rectangle,-0.799988568,-7.200006545,1,0,0,-0.799988568,-7.200006545,1,0,0,0,124,124,85,1,,,,,,,,
,,,,,,,,,,,,,FF,,,,,,,,1.2519,,,,,,,,,,,,,,,,,,,,,,6103579f72b250e7a439b926,610365fb825c5dfea8a602f8,2021-07-29_21h39.21.790,Simcolourproject_2stim_asymm_v5,2020.2.10,Win32,60,61025ae37ef11b136ea224fe,,,,,,,,,1144,52.00001222,-109.6000569,1,0,0,response3disk,,4,3.200011492,0.799993575,1,0,0,rectangle,3.200011492,0.799993575,1,0,0,3.200011492,0.799993575,1,0,0,0,125,125,155,1,,,,,,,,
,,,,,,,,,,,,,FF,,,,,,,,0.5965,,,,,,,,,,,,,,,,,,,,,,6103579f72b250e7a439b926,610365fb825c5dfea8a602f8,2021-07-29_21h39.21.790,Simcolourproject_2stim_asymm_v5,2020.2.10,Win32,60,61025ae37ef11b136ea224fe,,,,,,,,,1261,47.20001215,95.19997057,1,0,0,response1disk,,7,8.800011575,9.599993706,1,0,0,rectangle,8.800011575,9.599993706,1,0,0,8.800011575,9.599993706,1,0,0,0,126,126,118,1,,,,,,,,
,,,,,,,,,,,,,FF,,,,,,,,0.6333,,,,,,,,,,,,,,,,,,,,,,6103579f72b250e7a439b926,610365fb825c5dfea8a602f8,2021-07-29_21h39.21.790,Simcolourproject_2stim_asymm_v5,2020.2.10,Win32,60,61025ae37ef11b136ea224fe,,,,,,,,,2586,29.60006071,103.1999707,1,0,0,response1disk,,7,-4.799988627,-4.000006497,1,0,0,rectangle,-4.799988627,-4.000006497,1,0,0,-4.799988627,-4.000006497,1,0,0,0,127,127,136,1,,,,,,,,
,,,,,,,,,,,,,FF,,,,,,,,0.401,,,,,,,,,,,,,,,,,,,,,,6103579f72b250e7a439b926,610365fb825c5dfea8a602f8,2021-07-29_21h39.21.790,Simcolourproject_2stim_asymm_v5,2020.2.10,Win32,60,61025ae37ef11b136ea224fe,,,,,,,,,2439,41.60006089,83.19997039,1,0,0,response1disk,,7,-3.199988604,-6.400006533,1,0,0,rectangle,-3.199988604,-6.400006533,1,0,0,-3.199988604,-6.400006533,1,0,0,0,128,128,50,1,,,,,,,,
,,,,,,,,,,,,,FF,,,,,,,,1.8488,,,,,,,,,,,,,,,,,,,,,,6103579f72b250e7a439b926,610365fb825c5dfea8a602f8,2021-07-29_21h39.21.790,Simcolourproject_2stim_asymm_v5,2020.2.10,Win32,60,61025ae37ef11b136ea224fe,,,,,,,,,2650,92.00001281,-36.00000697,1,0,0,response3disk,,5,12.80001163,7.999993682,1,0,0,rectangle,12.80001163,7.999993682,1,0,0,12.80001163,7.999993682,1,0,0,0,129,129,12,1,,,,,,,,
,,,,,,,,,,,,,FF,,,,,,,,0.6011,,,,,,,,,,,,,,,,,,,,,,6103579f72b250e7a439b926,610365fb825c5dfea8a602f8,2021-07-29_21h39.21.790,Simcolourproject_2stim_asymm_v5,2020.2.10,Win32,60,61025ae37ef11b136ea224fe,,,,,,,,,1781,62.40001237,105.5999951,1,0,0,response1disk,,7,-3.999988616,-12.00000662,1,0,0,rectangle,-3.999988616,-12.00000662,1,0,0,-3.999988616,-12.00000662,1,0,0,0,130,130,120,1,,,,,,,,
,,,,,,,,,,,,,FF,,,,,,,,1.2226,,,,,,,,,,,,,,,,,,,,,,6103579f72b250e7a439b926,610365fb825c5dfea8a602f8,2021-07-29_21h39.21.790,Simcolourproject_2stim_asymm_v5,2020.2.10,Win32,60,61025ae37ef11b136ea224fe,,,,,,,,,3283,-101.5999901,-53.60000724,1,0,0,response5disk,,2,12.00001162,15.9999938,1,0,0,rectangle,12.00001162,15.9999938,1,0,0,12.00001162,15.9999938,1,0,0,0,131,131,135,1,,,,,,,,
,,,,,,,,,,,,,FF,,,,,,,,3.3708,,,,,,,,,,,,,,,,,,,,,,6103579f72b250e7a439b926,610365fb825c5dfea8a602f8,2021-07-29_21h39.21.790,Simcolourproject_2stim_asymm_v5,2020.2.10,Win32,60,61025ae37ef11b136ea224fe,,,,,,,,,2675,102.400013,-41.60000706,1,0,0,response3disk,,5,-4.799988627,-3.200006485,1,0,0,rectangle,-4.799988627,-3.200006485,1,0,0,-4.799988627,-3.200006485,1,0,0,0,132,132,142,1,,,,,,,,
,,,,,,,,,,,,,FF,,,,,,,,1.3898,,,,,,,,,,,,,,,,,,,,,,6103579f72b250e7a439b926,610365fb825c5dfea8a602f8,2021-07-29_21h39.21.790,Simcolourproject_2stim_asymm_v5,2020.2.10,Win32,60,61025ae37ef11b136ea224fe,,,,,,,,,1042,-36.7999891,-93.60005666,1,0,0,response5disk,,3,18.40001172,7.999993682,1,0,0,rectangle,18.40001172,7.999993682,1,0,0,18.40001172,7.999993682,1,0,0,0,133,133,31,1,,,,,,,,
,,,,,,,,,,,,,FF,,,,,,,,1.4685,,,,,,,,,,,,,,,,,,,,,,6103579f72b250e7a439b926,610365fb825c5dfea8a602f8,2021-07-29_21h39.21.790,Simcolourproject_2stim_asymm_v5,2020.2.10,Win32,60,61025ae37ef11b136ea224fe,,,,,,,,,3248,45.60006095,-109.6000569,1,0,0,response3disk,,4,-3.999988616,0.799993575,1,0,0,rectangle,-3.999988616,0.799993575,1,0,0,-3.999988616,0.799993575,1,0,0,0,134,134,121,1,,,,,,,,
,,,,,,,,,,,,,FF,,,,,,,,0.6508,,,,,,,,,,,,,,,,,,,,,,6103579f72b250e7a439b926,610365fb825c5dfea8a602f8,2021-07-29_21h39.21.790,Simcolourproject_2stim_asymm_v5,2020.2.10,Win32,60,61025ae37ef11b136ea224fe,,,,,,,,,207,44.0000121,95.19997057,1,0,0,response1disk,,7,-3.199988604,11.99999374,1,0,0,rectangle,-3.199988604,11.99999374,1,0,0,-3.199988604,11.99999374,1,0,0,0,135,135,32,1,,,,,,,,
,,,,,,,,,,,,,FF,,,,,,,,1.4517,,,,,,,,,,,,,,,,,,,,,,6103579f72b250e7a439b926,610365fb825c5dfea8a602f8,2021-07-29_21h39.21.790,Simcolourproject_2stim_asymm_v5,2020.2.10,Win32,60,61025ae37ef11b136ea224fe,,,,,,,,,1306,-55.19998938,-115.2000082,1,0,0,response5disk,,3,1.14441E-05,6.399993658,1,0,0,rectangle,1.14441E-05,6.399993658,1,0,0,1.14441E-05,6.399993658,1,0,0,0,136,136,52,1,,,,,,,,
,,,,,,,,,,,,,FF,,,,,,,,0.6303,,,,,,,,,,,,,,,,,,,,,,6103579f72b250e7a439b926,610365fb825c5dfea8a602f8,2021-07-29_21h39.21.790,Simcolourproject_2stim_asymm_v5,2020.2.10,Win32,60,61025ae37ef11b136ea224fe,,,,,,,,,2126,41.60006089,89.5999949,1,0,0,response1disk,,7,6.400011539,1.599993587,1,0,0,rectangle,6.400011539,1.599993587,1,0,0,6.400011539,1.599993587,1,0,0,0,137,137,24,1,,,,,,,,
,,,,,,,,,,,,,FF,,,,,,,,1.2351,,,,,,,,,,,,,,,,,,,,,,6103579f72b250e7a439b926,610365fb825c5dfea8a602f8,2021-07-29_21h39.21.790,Simcolourproject_2stim_asymm_v5,2020.2.10,Win32,60,61025ae37ef11b136ea224fe,,,,,,,,,3094,48.80001217,-105.6000568,1,0,0,response3disk,,4,1.600060296,-5.600006521,1,0,0,rectangle,1.600060296,-5.600006521,1,0,0,1.600060296,-5.600006521,1,0,0,0,138,138,77,1,,,,,,,,
,,,,,,,,,,,,,FF,,,,,,,,0.5676,,,,,,,,,,,,,,,,,,,,,,6103579f72b250e7a439b926,610365fb825c5dfea8a602f8,2021-07-29_21h39.21.790,Simcolourproject_2stim_asymm_v5,2020.2.10,Win32,60,61025ae37ef11b136ea224fe,,,,,,,,,3219,43.20001209,88.79999489,1,0,0,response1disk,,7,-1.59998858,-8.800006568,1,0,0,rectangle,-1.59998858,-8.800006568,1,0,0,-1.59998858,-8.800006568,1,0,0,0,139,139,9,1,,,,,,,,
,,,,,,,,,,,,,FF,,,,,,,,0.8387,,,,,,,,,,,,,,,,,,,,,,6103579f72b250e7a439b926,610365fb825c5dfea8a602f8,2021-07-29_21h39.21.790,Simcolourproject_2stim_asymm_v5,2020.2.10,Win32,60,61025ae37ef11b136ea224fe,,,,,,,,,1519,36.00001198,107.1999707,1,0,0,response1disk,,7,-7.999988675,-6.400006533,1,0,0,rectangle,-7.999988675,-6.400006533,1,0,0,-7.999988675,-6.400006533,1,0,0,0,140,140,10,1,,,,,,,,
,,,,,,,,,,,,,FF,,,,,,,,0.4507,,,,,,,,,,,,,,,,,,,,,,6103579f72b250e7a439b926,610365fb825c5dfea8a602f8,2021-07-29_21h39.21.790,Simcolourproject_2stim_asymm_v5,2020.2.10,Win32,60,61025ae37ef11b136ea224fe,,,,,,,,,1546,57.6000123,89.5999949,1,0,0,response1disk,,7,4.000011504,-12.80000663,1,0,0,rectangle,4.000011504,-12.80000663,1,0,0,4.000011504,-12.80000663,1,0,0,0,141,141,92,1,,,,,,,,
,,,,,,,,,,,,,FF,,,,,,,,0.5666,,,,,,,,,,,,,,,,,,,,,,6103579f72b250e7a439b926,610365fb825c5dfea8a602f8,2021-07-29_21h39.21.790,Simcolourproject_2stim_asymm_v5,2020.2.10,Win32,60,61025ae37ef11b136ea224fe,,,,,,,,,1366,34.40001196,95.19997057,1,0,0,response1disk,,7,7.200011551,7.999993682,1,0,0,rectangle,7.200011551,7.999993682,1,0,0,7.200011551,7.999993682,1,0,0,0,142,142,129,1,,,,,,,,
,,,,,,,,,,,,,FF,,,,,,,,0.4882,,,,,,,,,,,,,,,,,,,,,,6103579f72b250e7a439b926,610365fb825c5dfea8a602f8,2021-07-29_21h39.21.790,Simcolourproject_2stim_asymm_v5,2020.2.10,Win32,60,61025ae37ef11b136ea224fe,,,,,,,,,3860,52.00001222,100.7999951,1,0,0,response1disk,,7,9.600060415,6.399993658,1,0,0,rectangle,-95.19998997,55.9999944,1,0,0,0.800011456,4.799993634,1,0,0,0,143,143,28,1,,response7disk_3,TRUE,1,1,"[258,224,314,271,208,209,144,88,2,193,263,82,300,186,214,84,123,233,186,218]",1.936,rectangle
,,,,,,,,,,,,,FF,,,,,,,,1.1181,,,,,,,,,,,,,,,,,,,,,,6103579f72b250e7a439b926,610365fb825c5dfea8a602f8,2021-07-29_21h39.21.790,Simcolourproject_2stim_asymm_v5,2020.2.10,Win32,60,61025ae37ef11b136ea224fe,,,,,,,,,3434,-95.99998999,51.99999434,1,0,0,response7disk,,1,-13.59998876,11.19999373,1,0,0,rectangle,-13.59998876,11.19999373,1,0,0,-13.59998876,11.19999373,1,0,0,0,144,144,86,1,,,,,,,,
,,,,,,,,,,,,,FF,,,,,,,,0.5512,,,,,,,,,,,,,,,,,,,,,,6103579f72b250e7a439b926,610365fb825c5dfea8a602f8,2021-07-29_21h39.21.790,Simcolourproject_2stim_asymm_v5,2020.2.10,Win32,60,61025ae37ef11b136ea224fe,,,,,,,,,4328,43.20001209,80.79999477,1,0,0,response1disk,,7,-7.199988663,0.799993575,1,0,0,rectangle,-7.199988663,0.799993575,1,0,0,-7.199988663,0.799993575,1,0,0,0,145,145,34,1,,,,,,,,
,,,,,,,,,,,,,FF,,,,,,,,1.6981,,,,,,,,,,,,,,,,,,,,,,6103579f72b250e7a439b926,610365fb825c5dfea8a602f8,2021-07-29_21h39.21.790,Simcolourproject_2stim_asymm_v5,2020.2.10,Win32,60,61025ae37ef11b136ea224fe,,,,,,,,,2649,28.80001187,92.79999495,1,0,0,response1disk,,7,-15.19998878,-7.200006545,1,0,0,rectangle,-15.19998878,-7.200006545,1,0,0,-15.19998878,-7.200006545,1,0,0,0,146,146,57,1,,,,,,,,
,,,,,,,,,,,,,FF,,,,,,,,0.4337,,,,,,,,,,,,,,,,,,,,,,6103579f72b250e7a439b926,610365fb825c5dfea8a602f8,2021-07-29_21h39.21.790,Simcolourproject_2stim_asymm_v5,2020.2.10,Win32,60,61025ae37ef11b136ea224fe,,,,,,,,,514,55.20001227,105.5999951,1,0,0,response1disk,,7,18.40001172,12.79999375,1,0,0,rectangle,18.40001172,12.79999375,1,0,0,18.40001172,12.79999375,1,0,0,0,147,147,33,1,,,,,,,,
,,,,,,,,,,,,,FF,,,,,,,,1.2017,,,,,,,,,,,,,,,,,,,,,,6103579f72b250e7a439b926,610365fb825c5dfea8a602f8,2021-07-29_21h39.21.790,Simcolourproject_2stim_asymm_v5,2020.2.10,Win32,60,61025ae37ef11b136ea224fe,,,,,,,,,1615,50.4000122,-98.4000079,1,0,0,response3disk,,4,12.00001162,-14.40000665,1,0,0,rectangle,12.00001162,-14.40000665,1,0,0,12.00001162,-14.40000665,1,0,0,0,148,148,49,1,,,,,,,,
,,,,,,,,,,,,,FF,,,,,,,,0.6301,,,,,,,,,,,,,,,,,,,,,,6103579f72b250e7a439b926,610365fb825c5dfea8a602f8,2021-07-29_21h39.21.790,Simcolourproject_2stim_asymm_v5,2020.2.10,Win32,60,61025ae37ef11b136ea224fe,,,,,,,,,3837,26.40001184,83.19997039,1,0,0,response1disk,,7,-8.799988687,-5.600006521,1,0,0,rectangle,-8.799988687,-5.600006521,1,0,0,-8.799988687,-5.600006521,1,0,0,0,149,149,15,1,,,,,,,,
,,,,,,,,,,,,,FF,,,,,,,,1.6355,,,,,,,,,,,,,,,,,,,,,,6103579f72b250e7a439b926,610365fb825c5dfea8a602f8,2021-07-29_21h39.21.790,Simcolourproject_2stim_asymm_v5,2020.2.10,Win32,60,61025ae37ef11b136ea224fe,,,,,,,,,4295,58.40001231,-96.80000788,1,0,0,response3disk,,4,6.400011539,-6.400006533,1,0,0,rectangle,6.400011539,-6.400006533,1,0,0,6.400011539,-6.400006533,1,0,0,0,150,150,158,1,,,,,,,,
,,,,,,,,,,,,,FF,,,,,,,,0.6351,,,,,,,,,,,,,,,,,,,,,,6103579f72b250e7a439b926,610365fb825c5dfea8a602f8,2021-07-29_21h39.21.790,Simcolourproject_2stim_asymm_v5,2020.2.10,Win32,60,61025ae37ef11b136ea224fe,,,,,,,,,2003,54.40001225,61.59999448,1,0,0,response1disk,,7,4.000011504,-6.400006533,1,0,0,rectangle,4.000011504,-6.400006533,1,0,0,4.000011504,-6.400006533,1,0,0,0,151,151,80,1,,,,,,,,
,,,,,,,,,,,,,FF,,,,,,,,1.385,,,,,,,,,,,,,,,,,,,,,,6103579f72b250e7a439b926,610365fb825c5dfea8a602f8,2021-07-29_21h39.21.790,Simcolourproject_2stim_asymm_v5,2020.2.10,Win32,60,61025ae37ef11b136ea224fe,,,,,,,,,2823,99.20001292,35.9999941,1,0,0,response1disk,,6,4.000011504,0.799993575,1,0,0,rectangle,4.000011504,0.799993575,1,0,0,4.000011504,0.799993575,1,0,0,0,152,152,146,1,,,,,,,,
,,,,,,,,,,,,,FF,,,,,,,,0.9014,,,,,,,,,,,,,,,,,,,,,,6103579f72b250e7a439b926,610365fb825c5dfea8a602f8,2021-07-29_21h39.21.790,Simcolourproject_2stim_asymm_v5,2020.2.10,Win32,60,61025ae37ef11b136ea224fe,,,,,,,,,4305,-36.7999891,81.59999478,1,0,0,response7disk,,0,-2.399939764,7.999993682,1,0,0,rectangle,-2.399939764,7.999993682,1,0,0,-2.399939764,7.999993682,1,0,0,0,153,153,58,1,,,,,,,,
,,,,,,,,,,,,,FF,,,,,,,,1.1392,,,,,,,,,,,,,,,,,,,,,,6103579f72b250e7a439b926,610365fb825c5dfea8a602f8,2021-07-29_21h39.21.790,Simcolourproject_2stim_asymm_v5,2020.2.10,Win32,60,61025ae37ef11b136ea224fe,,,,,,,,,30,49.60006101,70.39999461,1,0,0,response1disk,,7,-7.199988663,-13.60000664,1,0,0,rectangle,-7.199988663,-13.60000664,1,0,0,-7.199988663,-13.60000664,1,0,0,0,154,154,74,1,,,,,,,,
,,,,,,,,,,,,,FF,,,,,,,,0.5854,,,,,,,,,,,,,,,,,,,,,,6103579f72b250e7a439b926,610365fb825c5dfea8a602f8,2021-07-29_21h39.21.790,Simcolourproject_2stim_asymm_v5,2020.2.10,Win32,60,61025ae37ef11b136ea224fe,,,,,,,,,68,41.60006089,95.99999499,1,0,0,response1disk,,7,15.20001167,-5.600006521,1,0,0,rectangle,15.20001167,-5.600006521,1,0,0,15.20001167,-5.600006521,1,0,0,0,155,155,67,1,,,,,,,,
,,,,,,,,,,,,,FF,,,,,,,,0.4841,,,,,,,,,,,,,,,,,,,,,,6103579f72b250e7a439b926,610365fb825c5dfea8a602f8,2021-07-29_21h39.21.790,Simcolourproject_2stim_asymm_v5,2020.2.10,Win32,60,61025ae37ef11b136ea224fe,,,,,,,,,3541,47.20001215,83.99999481,1,0,0,response1disk,,7,12.00001162,-6.4373E-06,1,0,0,rectangle,12.00001162,-6.4373E-06,1,0,0,12.00001162,-6.4373E-06,1,0,0,0,156,156,43,1,,,,,,,,
,,,,,,,,,,,,,FF,,,,,,,,0.5391,,,,,,,,,,,,,,,,,,,,,,6103579f72b250e7a439b926,610365fb825c5dfea8a602f8,2021-07-29_21h39.21.790,Simcolourproject_2stim_asymm_v5,2020.2.10,Win32,60,61025ae37ef11b136ea224fe,,,,,,,,,4194,38.40001202,92.79999495,1,0,0,response1disk,,7,4.800011516,4.799993634,1,0,0,rectangle,4.800011516,4.799993634,1,0,0,4.800011516,4.799993634,1,0,0,0,157,157,56,1,,,,,,,,
,,,,,,,,,,,,,FF,,,,,,,,0.6346,,,,,,,,,,,,,,,,,,,,,,6103579f72b250e7a439b926,610365fb825c5dfea8a602f8,2021-07-29_21h39.21.790,Simcolourproject_2stim_asymm_v5,2020.2.10,Win32,60,61025ae37ef11b136ea224fe,,,,,,,,,3644,32.00001192,79.19997033,1,0,0,response1disk,,7,-5.599988639,-8.800006568,1,0,0,rectangle,-5.599988639,-8.800006568,1,0,0,-5.599988639,-8.800006568,1,0,0,0,158,158,106,1,,,,,,,,
,,,,,,,,,,,,,FF,,,,,,,,0.5058,,,,,,,,,,,,,,,,,,,,,,6103579f72b250e7a439b926,610365fb825c5dfea8a602f8,2021-07-29_21h39.21.790,Simcolourproject_2stim_asymm_v5,2020.2.10,Win32,60,61025ae37ef11b136ea224fe,,,,,,,,,1205,43.20001209,110.3999952,1,0,0,response1disk,,7,8.800011575,6.399993658,1,0,0,rectangle,8.800011575,6.399993658,1,0,0,8.800011575,6.399993658,1,0,0,0,159,159,141,1,,,,,,,,
,,,,,,,,,,,,,FF,,,,,,,,0.4843,,,,,,,,,,,,,,,,,,,,,,6103579f72b250e7a439b926,610365fb825c5dfea8a602f8,2021-07-29_21h39.21.790,Simcolourproject_2stim_asymm_v5,2020.2.10,Win32,60,61025ae37ef11b136ea224fe,,,,,,,,,3533,42.40001208,95.99999499,1,0,0,response1disk,,7,8.000011563,3.999993622,1,0,0,rectangle,8.000011563,3.999993622,1,0,0,8.000011563,3.999993622,1,0,0,1,0,160,59,1,,,,,,,,
,,,,,,,,,,,,,FF,,,,,,,,0.4849,,,,,,,,,,,,,,,,,,,,,,6103579f72b250e7a439b926,610365fb825c5dfea8a602f8,2021-07-29_21h39.21.790,Simcolourproject_2stim_asymm_v5,2020.2.10,Win32,60,61025ae37ef11b136ea224fe,,,,,,,,,143,51.20001221,91.99999493,1,0,0,response1disk,,7,16.80001169,4.799993634,1,0,0,rectangle,16.80001169,4.799993634,1,0,0,16.80001169,4.799993634,1,0,0,1,1,161,54,1,,,,,,,,
,,,,,,,,,,,,,FF,,,,,,,,0.4509,,,,,,,,,,,,,,,,,,,,,,6103579f72b250e7a439b926,610365fb825c5dfea8a602f8,2021-07-29_21h39.21.790,Simcolourproject_2stim_asymm_v5,2020.2.10,Win32,60,61025ae37ef11b136ea224fe,,,,,,,,,778,39.20001203,110.3999952,1,0,0,response1disk,,7,13.60006047,12.79999375,1,0,0,rectangle,13.60006047,12.79999375,1,0,0,13.60006047,12.79999375,1,0,0,1,2,162,39,1,,,,,,,,
,,,,,,,,,,,,,FF,,,,,,,,0.5221,,,,,,,,,,,,,,,,,,,,,,6103579f72b250e7a439b926,610365fb825c5dfea8a602f8,2021-07-29_21h39.21.790,Simcolourproject_2stim_asymm_v5,2020.2.10,Win32,60,61025ae37ef11b136ea224fe,,,,,,,,,240,51.20001221,100.7999951,1,0,0,response1disk,,7,1.14441E-05,-0.800006449,1,0,0,rectangle,1.14441E-05,-0.800006449,1,0,0,1.14441E-05,-0.800006449,1,0,0,1,3,163,6,1,,,,,,,,
,,,,,,,,,,,,,FF,,,,,,,,1.0306,,,,,,,,,,,,,,,,,,,,,,6103579f72b250e7a439b926,610365fb825c5dfea8a602f8,2021-07-29_21h39.21.790,Simcolourproject_2stim_asymm_v5,2020.2.10,Win32,60,61025ae37ef11b136ea224fe,,,,,,,,,3285,45.60006095,-100.0000079,1,0,0,response3disk,,4,4.000011504,1.599993587,1,0,0,rectangle,4.000011504,1.599993587,1,0,0,4.000011504,1.599993587,1,0,0,1,4,164,27,1,,,,,,,,
,,,,,,,,,,,,,FF,,,,,,,,0.7009,,,,,,,,,,,,,,,,,,,,,,6103579f72b250e7a439b926,610365fb825c5dfea8a602f8,2021-07-29_21h39.21.790,Simcolourproject_2stim_asymm_v5,2020.2.10,Win32,60,61025ae37ef11b136ea224fe,,,,,,,,,4251,-44.79998922,95.99999499,1,0,0,response7disk,,0,4.000011504,-0.800006449,1,0,0,rectangle,4.000011504,-0.800006449,1,0,0,4.000011504,-0.800006449,1,0,0,1,5,165,83,1,,,,,,,,
,,,,,,,,,,,,,FF,,,,,,,,1.2346,,,,,,,,,,,,,,,,,,,,,,6103579f72b250e7a439b926,610365fb825c5dfea8a602f8,2021-07-29_21h39.21.790,Simcolourproject_2stim_asymm_v5,2020.2.10,Win32,60,61025ae37ef11b136ea224fe,,,,,,,,,3932,99.20001292,-42.40000707,1,0,0,response3disk,,5,23.20001179,-0.800006449,1,0,0,rectangle,23.20001179,-0.800006449,1,0,0,23.20001179,-0.800006449,1,0,0,1,6,166,156,1,,,,,,,,
,,,,,,,,,,,,,FF,,,,,,,,0.6842,,,,,,,,,,,,,,,,,,,,,,6103579f72b250e7a439b926,610365fb825c5dfea8a602f8,2021-07-29_21h39.21.790,Simcolourproject_2stim_asymm_v5,2020.2.10,Win32,60,61025ae37ef11b136ea224fe,,,,,,,,,2821,49.60006101,102.3999951,1,0,0,response1disk,,7,-4.799988627,0.799993575,1,0,0,rectangle,-4.799988627,0.799993575,1,0,0,-4.799988627,0.799993575,1,0,0,1,7,167,50,1,,,,,,,,
,,,,,,,,,,,,,FF,,,,,,,,1.3854,,,,,,,,,,,,,,,,,,,,,,6103579f72b250e7a439b926,610365fb825c5dfea8a602f8,2021-07-29_21h39.21.790,Simcolourproject_2stim_asymm_v5,2020.2.10,Win32,60,61025ae37ef11b136ea224fe,,,,,,,,,3942,100.0000129,50.39999431,1,0,0,response1disk,,6,1.600060296,0.799993575,1,0,0,rectangle,1.600060296,0.799993575,1,0,0,1.600060296,0.799993575,1,0,0,1,8,168,56,1,,,,,,,,
,,,,,,,,,,,,,FF,,,,,,,,0.5676,,,,,,,,,,,,,,,,,,,,,,6103579f72b250e7a439b926,610365fb825c5dfea8a602f8,2021-07-29_21h39.21.790,Simcolourproject_2stim_asymm_v5,2020.2.10,Win32,60,61025ae37ef11b136ea224fe,,,,,,,,,1155,32.80001193,113.5999953,1,0,0,response1disk,,7,-10.39993988,5.599993646,1,0,0,rectangle,-10.39993988,5.599993646,1,0,0,-10.39993988,5.599993646,1,0,0,1,9,169,107,1,,,,,,,,
,,,,,,,,,,,,,FF,,,,,,,,2.3362,,,,,,,,,,,,,,,,,,,,,,6103579f72b250e7a439b926,610365fb825c5dfea8a602f8,2021-07-29_21h39.21.790,Simcolourproject_2stim_asymm_v5,2020.2.10,Win32,60,61025ae37ef11b136ea224fe,,,,,,,,,4349,39.20001203,99.19997063,1,0,0,response1disk,,7,12.00001162,-1.600006461,1,0,0,rectangle,12.00001162,-1.600006461,1,0,0,12.00001162,-1.600006461,1,0,0,1,10,170,114,1,,,,,,,,
,,,,,,,,,,,,,FF,,,,,,,,2.0406,,,,,,,,,,,,,,,,,,,,,,6103579f72b250e7a439b926,610365fb825c5dfea8a602f8,2021-07-29_21h39.21.790,Simcolourproject_2stim_asymm_v5,2020.2.10,Win32,60,61025ae37ef11b136ea224fe,,,,,,,,,314,105.600013,53.59999436,1,0,0,response1disk,,6,20.00001174,4.799993634,1,0,0,rectangle,20.00001174,4.799993634,1,0,0,20.00001174,4.799993634,1,0,0,1,11,171,108,1,,,,,,,,
,,,,,,,,,,,,,FF,,,,,,,,1.7019,,,,,,,,,,,,,,,,,,,,,,6103579f72b250e7a439b926,610365fb825c5dfea8a602f8,2021-07-29_21h39.21.790,Simcolourproject_2stim_asymm_v5,2020.2.10,Win32,60,61025ae37ef11b136ea224fe,,,,,,,,,3107,-53.59998935,-88.80000776,1,0,0,response5disk,,3,12.00001162,8.799993694,1,0,0,rectangle,12.00001162,8.799993694,1,0,0,12.00001162,8.799993694,1,0,0,1,12,172,124,1,,,,,,,,
,,,,,,,,,,,,,FF,,,,,,,,1.5022,,,,,,,,,,,,,,,,,,,,,,6103579f72b250e7a439b926,610365fb825c5dfea8a602f8,2021-07-29_21h39.21.790,Simcolourproject_2stim_asymm_v5,2020.2.10,Win32,60,61025ae37ef11b136ea224fe,,,,,,,,,1052,-45.59998924,-98.4000079,1,0,0,response5disk,,3,1.14441E-05,-1.600006461,1,0,0,rectangle,1.14441E-05,-1.600006461,1,0,0,1.14441E-05,-1.600006461,1,0,0,1,13,173,24,1,,,,,,,,
,,,,,,,,,,,,,FF,,,,,,,,0.6343,,,,,,,,,,,,,,,,,,,,,,6103579f72b250e7a439b926,610365fb825c5dfea8a602f8,2021-07-29_21h39.21.790,Simcolourproject_2stim_asymm_v5,2020.2.10,Win32,60,61025ae37ef11b136ea224fe,,,,,,,,,4022,-58.3999406,-114.4000081,1,0,0,response5disk,,3,1.600060296,-5.600006521,1,0,0,rectangle,1.600060296,-5.600006521,1,0,0,1.600060296,-5.600006521,1,0,0,1,14,174,118,1,,,,,,,,
,,,,,,,,,,,,,FF,,,,,,,,1.0514,,,,,,,,,,,,,,,,,,,,,,6103579f72b250e7a439b926,610365fb825c5dfea8a602f8,2021-07-29_21h39.21.790,Simcolourproject_2stim_asymm_v5,2020.2.10,Win32,60,61025ae37ef11b136ea224fe,,,,,,,,,1056,-95.99998999,-43.20000708,1,0,0,response5disk,,2,-1.59998858,2.399993598,1,0,0,rectangle,-1.59998858,2.399993598,1,0,0,-1.59998858,2.399993598,1,0,0,1,15,175,117,1,,,,,,,,
,,,,,,,,,,,,,FF,,,,,,,,0.9346,,,,,,,,,,,,,,,,,,,,,,6103579f72b250e7a439b926,610365fb825c5dfea8a602f8,2021-07-29_21h39.21.790,Simcolourproject_2stim_asymm_v5,2020.2.10,Win32,60,61025ae37ef11b136ea224fe,,,,,,,,,3108,-46.39994042,-109.6000569,1,0,0,response5disk,,3,4.000011504,-6.400006533,1,0,0,rectangle,4.000011504,-6.400006533,1,0,0,4.000011504,-6.400006533,1,0,0,1,16,176,98,1,,,,,,,,
,,,,,,,,,,,,,FF,,,,,,,,0.6561,,,,,,,,,,,,,,,,,,,,,,6103579f72b250e7a439b926,610365fb825c5dfea8a602f8,2021-07-29_21h39.21.790,Simcolourproject_2stim_asymm_v5,2020.2.10,Win32,60,61025ae37ef11b136ea224fe,,,,,,,,,2922,46.40001214,105.5999951,1,0,0,response1disk,,7,2.40001148,3.999993622,1,0,0,rectangle,2.40001148,3.999993622,1,0,0,2.40001148,3.999993622,1,0,0,1,17,177,150,1,,,,,,,,
,,,,,,,,,,,,,FF,,,,,,,,1.9527,,,,,,,,,,,,,,,,,,,,,,6103579f72b250e7a439b926,610365fb825c5dfea8a602f8,2021-07-29_21h39.21.790,Simcolourproject_2stim_asymm_v5,2020.2.10,Win32,60,61025ae37ef11b136ea224fe,,,,,,,,,3634,99.20001292,-28.00000685,1,0,0,response3disk,,5,5.600060356,1.599993587,1,0,0,rectangle,5.600060356,1.599993587,1,0,0,5.600060356,1.599993587,1,0,0,1,18,178,43,1,,,,,,,,
,,,,,,,,,,,,,FF,,,,,,,,34.7918,,,,,,,,,,,,,,,,,,,,,,6103579f72b250e7a439b926,610365fb825c5dfea8a602f8,2021-07-29_21h39.21.790,Simcolourproject_2stim_asymm_v5,2020.2.10,Win32,60,61025ae37ef11b136ea224fe,,,,,,,,,2248,105.600013,32.79999405,1,0,0,response1disk,,6,8.000011563,13.59999377,1,0,0,rectangle,8.000011563,13.59999377,1,0,0,8.000011563,13.59999377,1,0,0,1,19,179,143,1,,,,,,,,
,,,,,,,,,,,,,FF,,,,,,,,1.118,,,,,,,,,,,,,,,,,,,,,,6103579f72b250e7a439b926,610365fb825c5dfea8a602f8,2021-07-29_21h39.21.790,Simcolourproject_2stim_asymm_v5,2020.2.10,Win32,60,61025ae37ef11b136ea224fe,,,,,,,,,1803,77.6000126,-52.00000721,1,0,0,response3disk,,5,1.600060296,-0.800006449,1,0,0,rectangle,1.600060296,-0.800006449,1,0,0,1.600060296,-0.800006449,1,0,0,1,20,180,42,1,,,,,,,,
,,,,,,,,,,,,,FF,,,,,,,,0.6224,,,,,,,,,,,,,,,,,,,,,,6103579f72b250e7a439b926,610365fb825c5dfea8a602f8,2021-07-29_21h39.21.790,Simcolourproject_2stim_asymm_v5,2020.2.10,Win32,60,61025ae37ef11b136ea224fe,,,,,,,,,1806,43.20001209,75.19997027,1,0,0,response1disk,,7,3.200011492,-6.4373E-06,1,0,0,rectangle,3.200011492,-6.4373E-06,1,0,0,3.200011492,-6.4373E-06,1,0,0,1,21,181,100,1,,,,,,,,
,,,,,,,,,,,,,FF,,,,,,,,0.9723,,,,,,,,,,,,,,,,,,,,,,6103579f72b250e7a439b926,610365fb825c5dfea8a602f8,2021-07-29_21h39.21.790,Simcolourproject_2stim_asymm_v5,2020.2.10,Win32,60,61025ae37ef11b136ea224fe,,,,,,,,,646,95.20001286,42.39999419,1,0,0,response1disk,,6,-11.99998873,9.599993706,1,0,0,rectangle,-11.99998873,9.599993706,1,0,0,-11.99998873,9.599993706,1,0,0,1,22,182,126,1,,,,,,,,
,,,,,,,,,,,,,FF,,,,,,,,0.6847,,,,,,,,,,,,,,,,,,,,,,6103579f72b250e7a439b926,610365fb825c5dfea8a602f8,2021-07-29_21h39.21.790,Simcolourproject_2stim_asymm_v5,2020.2.10,Win32,60,61025ae37ef11b136ea224fe,,,,,,,,,3863,44.80001211,99.19997063,1,0,0,response1disk,,7,-11.99998873,-3.200006485,1,0,0,rectangle,-11.99998873,-3.200006485,1,0,0,-11.99998873,-3.200006485,1,0,0,1,23,183,99,1,,,,,,,,
,,,,,,,,,,,,,FF,,,,,,,,0.5846,,,,,,,,,,,,,,,,,,,,,,6103579f72b250e7a439b926,610365fb825c5dfea8a602f8,2021-07-29_21h39.21.790,Simcolourproject_2stim_asymm_v5,2020.2.10,Win32,60,61025ae37ef11b136ea224fe,,,,,,,,,836,43.20001209,96.79999501,1,0,0,response1disk,,7,-2.399939764,-3.200006485,1,0,0,rectangle,-2.399939764,-3.200006485,1,0,0,-2.399939764,-3.200006485,1,0,0,1,24,184,120,1,,,,,,,,
,,,,,,,,,,,,,FF,,,,,,,,0.5515,,,,,,,,,,,,,,,,,,,,,,6103579f72b250e7a439b926,610365fb825c5dfea8a602f8,2021-07-29_21h39.21.790,Simcolourproject_2stim_asymm_v5,2020.2.10,Win32,60,61025ae37ef11b136ea224fe,,,,,,,,,4009,55.20001227,92.79999495,1,0,0,response1disk,,7,1.600060296,6.399993658,1,0,0,rectangle,32.00001192,-79.20000762,1,0,0,-1.59998858,16.79999381,1,0,0,1,25,185,155,1,,response3disk_3,TRUE,4,4,"[258,224,314,271,208,209,144,88,2,193,263,82,300,186,214,84,123,233,186,218]",1.052,rectangle
,,,,,,,,,,,,,FF,,,,,,,,1.0181,,,,,,,,,,,,,,,,,,,,,,6103579f72b250e7a439b926,610365fb825c5dfea8a602f8,2021-07-29_21h39.21.790,Simcolourproject_2stim_asymm_v5,2020.2.10,Win32,60,61025ae37ef11b136ea224fe,,,,,,,,,2486,-43.99998921,-85.60005654,1,0,0,response5disk,,3,0.800011456,9.599993706,1,0,0,rectangle,0.800011456,9.599993706,1,0,0,0.800011456,9.599993706,1,0,0,1,26,186,158,1,,,,,,,,
,,,,,,,,,,,,,FF,,,,,,,,0.8217,,,,,,,,,,,,,,,,,,,,,,6103579f72b250e7a439b926,610365fb825c5dfea8a602f8,2021-07-29_21h39.21.790,Simcolourproject_2stim_asymm_v5,2020.2.10,Win32,60,61025ae37ef11b136ea224fe,,,,,,,,,3336,-47.19998926,87.19997045,1,0,0,response7disk,,0,6.400011539,-2.400006473,1,0,0,rectangle,6.400011539,-2.400006473,1,0,0,6.400011539,-2.400006473,1,0,0,1,27,187,119,1,,,,,,,,
,,,,,,,,,,,,,FF,,,,,,,,1.4189,,,,,,,,,,,,,,,,,,,,,,6103579f72b250e7a439b926,610365fb825c5dfea8a602f8,2021-07-29_21h39.21.790,Simcolourproject_2stim_asymm_v5,2020.2.10,Win32,60,61025ae37ef11b136ea224fe,,,,,,,,,127,32.80001193,127.199971,1,0,0,response1disk,,7,-0.799988568,10.39999372,1,0,0,rectangle,-0.799988568,10.39999372,1,0,0,-0.799988568,10.39999372,1,0,0,1,28,188,21,1,,,,,,,,
,,,,,,,,,,,,,FF,,,,,,,,0.4845,,,,,,,,,,,,,,,,,,,,,,6103579f72b250e7a439b926,610365fb825c5dfea8a602f8,2021-07-29_21h39.21.790,Simcolourproject_2stim_asymm_v5,2020.2.10,Win32,60,61025ae37ef11b136ea224fe,,,,,,,,,132,48.80001217,68.79999459,1,0,0,response1disk,,7,10.4000116,-0.800006449,1,0,0,rectangle,10.4000116,-0.800006449,1,0,0,10.4000116,-0.800006449,1,0,0,1,29,189,149,1,,,,,,,,
,,,,,,,,,,,,,FF,,,,,,,,1.3517,,,,,,,,,,,,,,,,,,,,,,6103579f72b250e7a439b926,610365fb825c5dfea8a602f8,2021-07-29_21h39.21.790,Simcolourproject_2stim_asymm_v5,2020.2.10,Win32,60,61025ae37ef11b136ea224fe,,,,,,,,,1206,108.8000131,-24.00000679,1,0,0,response3disk,,5,10.4000116,-2.400006473,1,0,0,rectangle,10.4000116,-2.400006473,1,0,0,10.4000116,-2.400006473,1,0,0,1,30,190,5,1,,,,,,,,
,,,,,,,,,,,,,FF,,,,,,,,1.4856,,,,,,,,,,,,,,,,,,,,,,6103579f72b250e7a439b926,610365fb825c5dfea8a602f8,2021-07-29_21h39.21.790,Simcolourproject_2stim_asymm_v5,2020.2.10,Win32,60,61025ae37ef11b136ea224fe,,,,,,,,,1235,101.600013,-44.00000709,1,0,0,response3disk,,5,22.40001178,-4.800006509,1,0,0,rectangle,22.40001178,-4.800006509,1,0,0,22.40001178,-4.800006509,1,0,0,1,31,191,52,1,,,,,,,,
,,,,,,,,,,,,,FF,,,,,,,,0.8849,,,,,,,,,,,,,,,,,,,,,,6103579f72b250e7a439b926,610365fb825c5dfea8a602f8,2021-07-29_21h39.21.790,Simcolourproject_2stim_asymm_v5,2020.2.10,Win32,60,61025ae37ef11b136ea224fe,,,,,,,,,1764,98.40001291,56.79999441,1,0,0,response1disk,,6,8.000011563,8.799993694,1,0,0,rectangle,-39.19998914,118.3999953,1,0,0,6.400011539,11.19999373,1,0,0,1,32,192,35,1,,response7disk_3,TRUE,0,0,"[258,224,314,271,208,209,144,88,2,193,263,82,300,186,214,84,123,233,186,218]",1.5182,rectangle
,,,,,,,,,,,,,FF,,,,,,,,1.8022,,,,,,,,,,,,,,,,,,,,,,6103579f72b250e7a439b926,610365fb825c5dfea8a602f8,2021-07-29_21h39.21.790,Simcolourproject_2stim_asymm_v5,2020.2.10,Win32,60,61025ae37ef11b136ea224fe,,,,,,,,,2994,101.600013,-49.60000718,1,0,0,response3disk,,5,3.200011492,-16.00000668,1,0,0,rectangle,3.200011492,-16.00000668,1,0,0,3.200011492,-16.00000668,1,0,0,1,33,193,112,1,,,,,,,,
,,,,,,,,,,,,,FF,,,,,,,,1.0392,,,,,,,,,,,,,,,,,,,,,,6103579f72b250e7a439b926,610365fb825c5dfea8a602f8,2021-07-29_21h39.21.790,Simcolourproject_2stim_asymm_v5,2020.2.10,Win32,60,61025ae37ef11b136ea224fe,,,,,,,,,3243,-79.19998974,50.39999431,1,0,0,response7disk,,1,-3.999988616,7.999993682,1,0,0,rectangle,-3.999988616,7.999993682,1,0,0,-3.999988616,7.999993682,1,0,0,1,34,194,25,1,,,,,,,,
,,,,,,,,,,,,,FF,,,,,,,,0.7682,,,,,,,,,,,,,,,,,,,,,,6103579f72b250e7a439b926,610365fb825c5dfea8a602f8,2021-07-29_21h39.21.790,Simcolourproject_2stim_asymm_v5,2020.2.10,Win32,60,61025ae37ef11b136ea224fe,,,,,,,,,3122,43.20001209,111.9999952,1,0,0,response1disk,,7,8.000011563,8.799993694,1,0,0,rectangle,8.000011563,8.799993694,1,0,0,8.000011563,8.799993694,1,0,0,1,35,195,91,1,,,,,,,,
,,,,,,,,,,,,,FF,,,,,,,,0.6844,,,,,,,,,,,,,,,,,,,,,,6103579f72b250e7a439b926,610365fb825c5dfea8a602f8,2021-07-29_21h39.21.790,Simcolourproject_2stim_asymm_v5,2020.2.10,Win32,60,61025ae37ef11b136ea224fe,,,,,,,,,131,51.20001221,91.99999493,1,0,0,response1disk,,7,-4.799988627,-5.600006521,1,0,0,rectangle,-4.799988627,-5.600006521,1,0,0,-4.799988627,-5.600006521,1,0,0,1,36,196,33,1,,,,,,,,
,,,,,,,,,,,,,FF,,,,,,,,0.4512,,,,,,,,,,,,,,,,,,,,,,6103579f72b250e7a439b926,610365fb825c5dfea8a602f8,2021-07-29_21h39.21.790,Simcolourproject_2stim_asymm_v5,2020.2.10,Win32,60,61025ae37ef11b136ea224fe,,,,,,,,,2122,35.20001197,97.59999502,1,0,0,response1disk,,7,7.200011551,11.19999373,1,0,0,rectangle,7.200011551,11.19999373,1,0,0,7.200011551,11.19999373,1,0,0,1,37,197,103,1,,,,,,,,
,,,,,,,,,,,,,FF,,,,,,,,0.5009,,,,,,,,,,,,,,,,,,,,,,6103579f72b250e7a439b926,610365fb825c5dfea8a602f8,2021-07-29_21h39.21.790,Simcolourproject_2stim_asymm_v5,2020.2.10,Win32,60,61025ae37ef11b136ea224fe,,,,,,,,,1282,36.00001198,88.79999489,1,0,0,response1disk,,7,-4.799988627,-8.800006568,1,0,0,rectangle,-4.799988627,-8.800006568,1,0,0,-4.799988627,-8.800006568,1,0,0,1,38,198,55,1,,,,,,,,
,,,,,,,,,,,,,FF,,,,,,,,0.5219,,,,,,,,,,,,,,,,,,,,,,6103579f72b250e7a439b926,610365fb825c5dfea8a602f8,2021-07-29_21h39.21.790,Simcolourproject_2stim_asymm_v5,2020.2.10,Win32,60,61025ae37ef11b136ea224fe,,,,,,,,,1914,37.60006083,60.79999447,1,0,0,response1disk,,7,-0.799988568,-8.800006568,1,0,0,rectangle,-0.799988568,-8.800006568,1,0,0,-0.799988568,-8.800006568,1,0,0,1,39,199,10,1,,,,,,,,
,,,,,,,,,,,,,FF,,,,,,,,0.9177,,,,,,,,,,,,,,,,,,,,,,6103579f72b250e7a439b926,610365fb825c5dfea8a602f8,2021-07-29_21h39.21.790,Simcolourproject_2stim_asymm_v5,2020.2.10,Win32,60,61025ae37ef11b136ea224fe,,,,,,,,,1152,-52.79998934,-112.8000081,1,0,0,response5disk,,3,-5.599988639,-5.600006521,1,0,0,rectangle,-5.599988639,-5.600006521,1,0,0,-5.599988639,-5.600006521,1,0,0,1,40,200,69,1,,,,,,,,
,,,,,,,,,,,,,FF,,,,,,,,1.0685,,,,,,,,,,,,,,,,,,,,,,6103579f72b250e7a439b926,610365fb825c5dfea8a602f8,2021-07-29_21h39.21.790,Simcolourproject_2stim_asymm_v5,2020.2.10,Win32,60,61025ae37ef11b136ea224fe,,,,,,,,,3517,-91.19998991,-45.60000712,1,0,0,response5disk,,2,10.4000116,7.19999367,1,0,0,rectangle,10.4000116,7.19999367,1,0,0,10.4000116,7.19999367,1,0,0,1,41,201,23,1,,,,,,,,
,,,,,,,,,,,,,FF,,,,,,,,1.6396,,,,,,,,,,,,,,,,,,,,,,6103579f72b250e7a439b926,610365fb825c5dfea8a602f8,2021-07-29_21h39.21.790,Simcolourproject_2stim_asymm_v5,2020.2.10,Win32,60,61025ae37ef11b136ea224fe,,,,,,,,,3484,98.40001291,51.99999434,1,0,0,response1disk,,6,-0.799988568,8.799993694,1,0,0,rectangle,-0.799988568,8.799993694,1,0,0,-0.799988568,8.799993694,1,0,0,1,42,202,7,1,,,,,,,,
,,,,,,,,,,,,,FF,,,,,,,,0.6507,,,,,,,,,,,,,,,,,,,,,,6103579f72b250e7a439b926,610365fb825c5dfea8a602f8,2021-07-29_21h39.21.790,Simcolourproject_2stim_asymm_v5,2020.2.10,Win32,60,61025ae37ef11b136ea224fe,,,,,,,,,862,44.0000121,97.59999502,1,0,0,response1disk,,7,0.800011456,0.799993575,1,0,0,rectangle,0.800011456,0.799993575,1,0,0,0.800011456,0.799993575,1,0,0,1,43,203,1,1,,,,,,,,
,,,,,,,,,,,,,FF,,,,,,,,0.4394,,,,,,,,,,,,,,,,,,,,,,6103579f72b250e7a439b926,610365fb825c5dfea8a602f8,2021-07-29_21h39.21.790,Simcolourproject_2stim_asymm_v5,2020.2.10,Win32,60,61025ae37ef11b136ea224fe,,,,,,,,,376,32.80001193,77.59999472,1,0,0,response1disk,,7,5.600060356,15.9999938,1,0,0,rectangle,5.600060356,15.9999938,1,0,0,5.600060356,15.9999938,1,0,0,1,44,204,95,1,,,,,,,,
,,,,,,,,,,,,,FF,,,,,,,,0.5346,,,,,,,,,,,,,,,,,,,,,,6103579f72b250e7a439b926,610365fb825c5dfea8a602f8,2021-07-29_21h39.21.790,Simcolourproject_2stim_asymm_v5,2020.2.10,Win32,60,61025ae37ef11b136ea224fe,,,,,,,,,3774,42.40001208,77.59999472,1,0,0,response1disk,,7,12.80001163,2.399993598,1,0,0,rectangle,12.80001163,2.399993598,1,0,0,12.80001163,2.399993598,1,0,0,1,45,205,127,1,,,,,,,,
,,,,,,,,,,,,,FF,,,,,,,,0.868,,,,,,,,,,,,,,,,,,,,,,6103579f72b250e7a439b926,610365fb825c5dfea8a602f8,2021-07-29_21h39.21.790,Simcolourproject_2stim_asymm_v5,2020.2.10,Win32,60,61025ae37ef11b136ea224fe,,,,,,,,,4095,-50.39994048,103.1999707,1,0,0,response7disk,,0,11.20001161,3.999993622,1,0,0,rectangle,11.20001161,3.999993622,1,0,0,11.20001161,3.999993622,1,0,0,1,46,206,106,1,,,,,,,,
,,,,,,,,,,,,,FF,,,,,,,,5.9238,,,,,,,,,,,,,,,,,,,,,,6103579f72b250e7a439b926,610365fb825c5dfea8a602f8,2021-07-29_21h39.21.790,Simcolourproject_2stim_asymm_v5,2020.2.10,Win32,60,61025ae37ef11b136ea224fe,,,,,,,,,3772,-86.39994102,-38.40000701,1,0,0,response5disk,,2,0.800011456,4.799993634,1,0,0,rectangle,-40.79998916,101.5999951,1,0,0,4.800011516,4.799993634,1,0,0,1,47,207,31,1,,response7disk_3,TRUE,0,0,"[258,224,314,271,208,209,144,88,2,193,263,82,300,186,214,84,123,233,186,218]",1.1845,rectangle
,,,,,,,,,,,,,FF,,,,,,,,0.8063,,,,,,,,,,,,,,,,,,,,,,6103579f72b250e7a439b926,610365fb825c5dfea8a602f8,2021-07-29_21h39.21.790,Simcolourproject_2stim_asymm_v5,2020.2.10,Win32,60,61025ae37ef11b136ea224fe,,,,,,,,,1503,48.80001217,103.9999951,1,0,0,response1disk,,7,7.200011551,-12.00000662,1,0,0,rectangle,-56.7999894,113.5999953,1,0,0,-7.199988663,16.79999381,1,0,0,1,48,208,144,1,,response7disk_3,TRUE,0,0,"[258,224,314,271,208,209,144,88,2,193,263,82,300,186,214,84,123,233,186,218]",1.3681,rectangle
,,,,,,,,,,,,,FF,,,,,,,,0.8217,,,,,,,,,,,,,,,,,,,,,,6103579f72b250e7a439b926,610365fb825c5dfea8a602f8,2021-07-29_21h39.21.790,Simcolourproject_2stim_asymm_v5,2020.2.10,Win32,60,61025ae37ef11b136ea224fe,,,,,,,,,2963,35.20001197,102.3999951,1,0,0,response1disk,,7,4.800011516,12.79999375,1,0,0,rectangle,4.800011516,12.79999375,1,0,0,4.800011516,12.79999375,1,0,0,1,49,209,15,1,,,,,,,,
,,,,,,,,,,,,,FF,,,,,,,,1.0178,,,,,,,,,,,,,,,,,,,,,,6103579f72b250e7a439b926,610365fb825c5dfea8a602f8,2021-07-29_21h39.21.790,Simcolourproject_2stim_asymm_v5,2020.2.10,Win32,60,61025ae37ef11b136ea224fe,,,,,,,,,3675,-49.5999893,-101.6000568,1,0,0,response5disk,,3,-3.999988616,4.799993634,1,0,0,rectangle,-3.999988616,4.799993634,1,0,0,-3.999988616,4.799993634,1,0,0,1,50,210,93,1,,,,,,,,
,,,,,,,,,,,,,FF,,,,,,,,0.6181,,,,,,,,,,,,,,,,,,,,,,6103579f72b250e7a439b926,610365fb825c5dfea8a602f8,2021-07-29_21h39.21.790,Simcolourproject_2stim_asymm_v5,2020.2.10,Win32,60,61025ae37ef11b136ea224fe,,,,,,,,,3083,55.20001227,96.79999501,1,0,0,response1disk,,7,7.200011551,-8.800006568,1,0,0,rectangle,7.200011551,-8.800006568,1,0,0,7.200011551,-8.800006568,1,0,0,1,51,211,146,1,,,,,,,,
,,,,,,,,,,,,,FF,,,,,,,,0.8011,,,,,,,,,,,,,,,,,,,,,,6103579f72b250e7a439b926,610365fb825c5dfea8a602f8,2021-07-29_21h39.21.790,Simcolourproject_2stim_asymm_v5,2020.2.10,Win32,60,61025ae37ef11b136ea224fe,,,,,,,,,1644,57.6000123,113.5999953,1,0,0,response1disk,,7,17.60006053,11.19999373,1,0,0,rectangle,17.60006053,11.19999373,1,0,0,17.60006053,11.19999373,1,0,0,1,52,212,74,1,,,,,,,,
,,,,,,,,,,,,,FF,,,,,,,,0.58,,,,,,,,,,,,,,,,,,,,,,6103579f72b250e7a439b926,610365fb825c5dfea8a602f8,2021-07-29_21h39.21.790,Simcolourproject_2stim_asymm_v5,2020.2.10,Win32,60,61025ae37ef11b136ea224fe,,,,,,,,,3627,36.80001199,93.59999496,1,0,0,response1disk,,7,4.000011504,15.19999379,1,0,0,rectangle,-49.5999893,-88.80000776,1,0,0,10.4000116,1.599993587,1,0,0,1,53,213,140,1,,response5disk_3,TRUE,3,3,"[258,224,314,271,208,209,144,88,2,193,263,82,300,186,214,84,123,233,186,218]",1.756,rectangle
,,,,,,,,,,,,,FF,,,,,,,,0.9848,,,,,,,,,,,,,,,,,,,,,,6103579f72b250e7a439b926,610365fb825c5dfea8a602f8,2021-07-29_21h39.21.790,Simcolourproject_2stim_asymm_v5,2020.2.10,Win32,60,61025ae37ef11b136ea224fe,,,,,,,,,82,101.600013,-64.8000074,1,0,0,response3disk,,5,-1.59998858,7.999993682,1,0,0,rectangle,-1.59998858,7.999993682,1,0,0,-1.59998858,7.999993682,1,0,0,1,54,214,147,1,,,,,,,,
,,,,,,,,,,,,,FF,,,,,,,,0.8886,,,,,,,,,,,,,,,,,,,,,,6103579f72b250e7a439b926,610365fb825c5dfea8a602f8,2021-07-29_21h39.21.790,Simcolourproject_2stim_asymm_v5,2020.2.10,Win32,60,61025ae37ef11b136ea224fe,,,,,,,,,1074,95.20001286,41.59999418,1,0,0,response1disk,,6,9.600060415,6.399993658,1,0,0,rectangle,9.600060415,6.399993658,1,0,0,9.600060415,6.399993658,1,0,0,1,55,215,154,1,,,,,,,,
,,,,,,,,,,,,,FF,,,,,,,,1.9171,,,,,,,,,,,,,,,,,,,,,,6103579f72b250e7a439b926,610365fb825c5dfea8a602f8,2021-07-29_21h39.21.790,Simcolourproject_2stim_asymm_v5,2020.2.10,Win32,60,61025ae37ef11b136ea224fe,,,,,,,,,807,62.40001237,53.59999436,1,0,0,response1disk,,6,-13.59998876,3.19999361,1,0,0,rectangle,-13.59998876,3.19999361,1,0,0,-13.59998876,3.19999361,1,0,0,1,56,216,14,1,,,,,,,,
,,,,,,,,,,,,,FF,,,,,,,,0.6511,,,,,,,,,,,,,,,,,,,,,,6103579f72b250e7a439b926,610365fb825c5dfea8a602f8,2021-07-29_21h39.21.790,Simcolourproject_2stim_asymm_v5,2020.2.10,Win32,60,61025ae37ef11b136ea224fe,,,,,,,,,1576,48.80001217,84.79999483,1,0,0,response1disk,,7,-14.39993994,9.599993706,1,0,0,rectangle,-72.79998964,49.5999943,1,0,0,15.20001167,-10.40000659,1,0,0,1,57,217,129,1,,response7disk_3,TRUE,1,1,"[258,224,314,271,208,209,144,88,2,193,263,82,300,186,214,84,123,233,186,218]",1.7695,rectangle
,,,,,,,,,,,,,FF,,,,,,,,0.6852,,,,,,,,,,,,,,,,,,,,,,6103579f72b250e7a439b926,610365fb825c5dfea8a602f8,2021-07-29_21h39.21.790,Simcolourproject_2stim_asymm_v5,2020.2.10,Win32,60,61025ae37ef11b136ea224fe,,,,,,,,,4279,40.80001205,82.39999479,1,0,0,response1disk,,7,-3.999988616,1.599993587,1,0,0,rectangle,-3.999988616,1.599993587,1,0,0,-3.999988616,1.599993587,1,0,0,1,58,218,44,1,,,,,,,,
,,,,,,,,,,,,,FF,,,,,,,,1.7522,,,,,,,,,,,,,,,,,,,,,,6103579f72b250e7a439b926,610365fb825c5dfea8a602f8,2021-07-29_21h39.21.790,Simcolourproject_2stim_asymm_v5,2020.2.10,Win32,60,61025ae37ef11b136ea224fe,,,,,,,,,3334,59.20001233,71.19997021,1,0,0,response1disk,,7,-15.99998879,3.19999361,1,0,0,rectangle,-15.99998879,3.19999361,1,0,0,-15.99998879,3.19999361,1,0,0,1,59,219,51,1,,,,,,,,
,,,,,,,,,,,,,FF,,,,,,,,1.0641,,,,,,,,,,,,,,,,,,,,,,6103579f72b250e7a439b926,610365fb825c5dfea8a602f8,2021-07-29_21h39.21.790,Simcolourproject_2stim_asymm_v5,2020.2.10,Win32,60,61025ae37ef11b136ea224fe,,,,,,,,,1284,88.00001276,46.39999425,1,0,0,response1disk,,6,3.200011492,3.999993622,1,0,0,rectangle,3.200011492,3.999993622,1,0,0,3.200011492,3.999993622,1,0,0,1,60,220,2,1,,,,,,,,
,,,,,,,,,,,,,FF,,,,,,,,0.5171,,,,,,,,,,,,,,,,,,,,,,6103579f72b250e7a439b926,610365fb825c5dfea8a602f8,2021-07-29_21h39.21.790,Simcolourproject_2stim_asymm_v5,2020.2.10,Win32,60,61025ae37ef11b136ea224fe,,,,,,,,,413,50.4000122,89.5999949,1,0,0,response1disk,,7,-2.399939764,-6.4373E-06,1,0,0,rectangle,-2.399939764,-6.4373E-06,1,0,0,-2.399939764,-6.4373E-06,1,0,0,1,61,221,111,1,,,,,,,,
,,,,,,,,,,,,,FF,,,,,,,,0.4719,,,,,,,,,,,,,,,,,,,,,,6103579f72b250e7a439b926,610365fb825c5dfea8a602f8,2021-07-29_21h39.21.790,Simcolourproject_2stim_asymm_v5,2020.2.10,Win32,60,61025ae37ef11b136ea224fe,,,,,,,,,3361,47.20001215,77.59999472,1,0,0,response1disk,,7,4.800011516,11.99999374,1,0,0,rectangle,4.800011516,11.99999374,1,0,0,4.800011516,11.99999374,1,0,0,1,62,222,61,1,,,,,,,,
,,,,,,,,,,,,,FF,,,,,,,,0.9184,,,,,,,,,,,,,,,,,,,,,,6103579f72b250e7a439b926,610365fb825c5dfea8a602f8,2021-07-29_21h39.21.790,Simcolourproject_2stim_asymm_v5,2020.2.10,Win32,60,61025ae37ef11b136ea224fe,,,,,,,,,2666,98.40001291,50.39999431,1,0,0,response1disk,,6,-7.999988675,-3.200006485,1,0,0,rectangle,48.80001217,-88.80000776,1,0,0,0.800011456,6.399993658,1,0,0,1,63,223,89,1,,response3disk_3,TRUE,4,4,"[258,224,314,271,208,209,144,88,2,193,263,82,300,186,214,84,123,233,186,218]",1.3556,rectangle
,,,,,,,,,,,,,FF,,,,,,,,0.57,,,,,,,,,,,,,,,,,,,,,,6103579f72b250e7a439b926,610365fb825c5dfea8a602f8,2021-07-29_21h39.21.790,Simcolourproject_2stim_asymm_v5,2020.2.10,Win32,60,61025ae37ef11b136ea224fe,,,,,,,,,4257,55.20001227,109.5999952,1,0,0,response1disk,,7,-9.599988699,12.79999375,1,0,0,rectangle,-9.599988699,12.79999375,1,0,0,-9.599988699,12.79999375,1,0,0,1,64,224,19,1,,,,,,,,
,,,,,,,,,,,,,FF,,,,,,,,0.9345,,,,,,,,,,,,,,,,,,,,,,6103579f72b250e7a439b926,610365fb825c5dfea8a602f8,2021-07-29_21h39.21.790,Simcolourproject_2stim_asymm_v5,2020.2.10,Win32,60,61025ae37ef11b136ea224fe,,,,,,,,,3105,88.80001277,-44.00000709,1,0,0,response3disk,,5,8.800011575,-6.4373E-06,1,0,0,rectangle,8.800011575,-6.4373E-06,1,0,0,8.800011575,-6.4373E-06,1,0,0,1,65,225,96,1,,,,,,,,
,,,,,,,,,,,,,FF,,,,,,,,0.5394,,,,,,,,,,,,,,,,,,,,,,6103579f72b250e7a439b926,610365fb825c5dfea8a602f8,2021-07-29_21h39.21.790,Simcolourproject_2stim_asymm_v5,2020.2.10,Win32,60,61025ae37ef11b136ea224fe,,,,,,,,,3352,52.80001223,95.99999499,1,0,0,response1disk,,7,-0.799988568,7.19999367,1,0,0,rectangle,-0.799988568,7.19999367,1,0,0,-0.799988568,7.19999367,1,0,0,1,66,226,79,1,,,,,,,,
,,,,,,,,,,,,,FF,,,,,,,,1.3185,,,,,,,,,,,,,,,,,,,,,,6103579f72b250e7a439b926,610365fb825c5dfea8a602f8,2021-07-29_21h39.21.790,Simcolourproject_2stim_asymm_v5,2020.2.10,Win32,60,61025ae37ef11b136ea224fe,,,,,,,,,3142,92.80001283,-36.00000697,1,0,0,response3disk,,5,0.800011456,7.999993682,1,0,0,rectangle,0.800011456,7.999993682,1,0,0,0.800011456,7.999993682,1,0,0,1,67,227,81,1,,,,,,,,
,,,,,,,,,,,,,FF,,,,,,,,0.6841,,,,,,,,,,,,,,,,,,,,,,6103579f72b250e7a439b926,610365fb825c5dfea8a602f8,2021-07-29_21h39.21.790,Simcolourproject_2stim_asymm_v5,2020.2.10,Win32,60,61025ae37ef11b136ea224fe,,,,,,,,,1880,28.00001186,91.99999493,1,0,0,response1disk,,7,-3.999988616,-1.600006461,1,0,0,rectangle,-3.999988616,-1.600006461,1,0,0,-3.999988616,-1.600006461,1,0,0,1,68,228,116,1,,,,,,,,
,,,,,,,,,,,,,FF,,,,,,,,0.5339,,,,,,,,,,,,,,,,,,,,,,6103579f72b250e7a439b926,610365fb825c5dfea8a602f8,2021-07-29_21h39.21.790,Simcolourproject_2stim_asymm_v5,2020.2.10,Win32,60,61025ae37ef11b136ea224fe,,,,,,,,,496,33.60006077,64.79999453,1,0,0,response1disk,,7,2.40001148,-6.4373E-06,1,0,0,rectangle,2.40001148,-6.4373E-06,1,0,0,2.40001148,-6.4373E-06,1,0,0,1,69,229,40,1,,,,,,,,
,,,,,,,,,,,,,FF,,,,,,,,0.4504,,,,,,,,,,,,,,,,,,,,,,6103579f72b250e7a439b926,610365fb825c5dfea8a602f8,2021-07-29_21h39.21.790,Simcolourproject_2stim_asymm_v5,2020.2.10,Win32,60,61025ae37ef11b136ea224fe,,,,,,,,,3012,42.40001208,71.19997021,1,0,0,response1disk,,7,10.4000116,-3.200006485,1,0,0,rectangle,10.4000116,-3.200006485,1,0,0,10.4000116,-3.200006485,1,0,0,1,70,230,90,1,,,,,,,,
,,,,,,,,,,,,,FF,,,,,,,,1.6023,,,,,,,,,,,,,,,,,,,,,,6103579f72b250e7a439b926,610365fb825c5dfea8a602f8,2021-07-29_21h39.21.790,Simcolourproject_2stim_asymm_v5,2020.2.10,Win32,60,61025ae37ef11b136ea224fe,,,,,,,,,3770,88.80001277,-35.20000696,1,0,0,response3disk,,5,7.200011551,-2.400006473,1,0,0,rectangle,7.200011551,-2.400006473,1,0,0,7.200011551,-2.400006473,1,0,0,1,71,231,121,1,,,,,,,,
,,,,,,,,,,,,,FF,,,,,,,,0.7178,,,,,,,,,,,,,,,,,,,,,,6103579f72b250e7a439b926,610365fb825c5dfea8a602f8,2021-07-29_21h39.21.790,Simcolourproject_2stim_asymm_v5,2020.2.10,Win32,60,61025ae37ef11b136ea224fe,,,,,,,,,3757,37.60006083,95.19997057,1,0,0,response1disk,,7,-3.199988604,3.19999361,1,0,0,rectangle,-81.59998977,-26.40000683,1,0,0,-15.19998878,-6.400006533,1,0,0,1,72,232,85,1,,response5disk_3,TRUE,2,2,"[258,224,314,271,208,209,144,88,2,193,263,82,300,186,214,84,123,233,186,218]",1.4061,rectangle
,,,,,,,,,,,,,FF,,,,,,,,1.7251,,,,,,,,,,,,,,,,,,,,,,6103579f72b250e7a439b926,610365fb825c5dfea8a602f8,2021-07-29_21h39.21.790,Simcolourproject_2stim_asymm_v5,2020.2.10,Win32,60,61025ae37ef11b136ea224fe,,,,,,,,,702,51.20001221,-95.20000786,1,0,0,response3disk,,4,1.600060296,7.999993682,1,0,0,rectangle,1.600060296,7.999993682,1,0,0,1.600060296,7.999993682,1,0,0,1,73,233,60,1,,,,,,,,
,,,,,,,,,,,,,FF,,,,,,,,0.6847,,,,,,,,,,,,,,,,,,,,,,6103579f72b250e7a439b926,610365fb825c5dfea8a602f8,2021-07-29_21h39.21.790,Simcolourproject_2stim_asymm_v5,2020.2.10,Win32,60,61025ae37ef11b136ea224fe,,,,,,,,,691,54.40001225,79.19997033,1,0,0,response1disk,,7,-0.799988568,4.799993634,1,0,0,rectangle,-0.799988568,4.799993634,1,0,0,-0.799988568,4.799993634,1,0,0,1,74,234,8,1,,,,,,,,
,,,,,,,,,,,,,FF,,,,,,,,0.6509,,,,,,,,,,,,,,,,,,,,,,6103579f72b250e7a439b926,610365fb825c5dfea8a602f8,2021-07-29_21h39.21.790,Simcolourproject_2stim_asymm_v5,2020.2.10,Win32,60,61025ae37ef11b136ea224fe,,,,,,,,,2466,42.40001208,94.39999497,1,0,0,response1disk,,7,0.800011456,7.999993682,1,0,0,rectangle,0.800011456,7.999993682,1,0,0,0.800011456,7.999993682,1,0,0,1,75,235,104,1,,,,,,,,
,,,,,,,,,,,,,FF,,,,,,,,1.2684,,,,,,,,,,,,,,,,,,,,,,6103579f72b250e7a439b926,610365fb825c5dfea8a602f8,2021-07-29_21h39.21.790,Simcolourproject_2stim_asymm_v5,2020.2.10,Win32,60,61025ae37ef11b136ea224fe,,,,,,,,,2652,-43.99998921,-105.6000568,1,0,0,response5disk,,3,-14.39993994,0.799993575,1,0,0,rectangle,-14.39993994,0.799993575,1,0,0,-14.39993994,0.799993575,1,0,0,1,76,236,110,1,,,,,,,,
,,,,,,,,,,,,,FF,,,,,,,,0.5639,,,,,,,,,,,,,,,,,,,,,,6103579f72b250e7a439b926,610365fb825c5dfea8a602f8,2021-07-29_21h39.21.790,Simcolourproject_2stim_asymm_v5,2020.2.10,Win32,60,61025ae37ef11b136ea224fe,,,,,,,,,965,49.60006101,96.79999501,1,0,0,response1disk,,7,1.600060296,-1.600006461,1,0,0,rectangle,1.600060296,-1.600006461,1,0,0,1.600060296,-1.600006461,1,0,0,1,77,237,38,1,,,,,,,,
,,,,,,,,,,,,,FF,,,,,,,,0.5477,,,,,,,,,,,,,,,,,,,,,,6103579f72b250e7a439b926,610365fb825c5dfea8a602f8,2021-07-29_21h39.21.790,Simcolourproject_2stim_asymm_v5,2020.2.10,Win32,60,61025ae37ef11b136ea224fe,,,,,,,,,2896,34.40001196,87.19997045,1,0,0,response1disk,,7,1.600060296,-0.800006449,1,0,0,rectangle,1.600060296,-0.800006449,1,0,0,1.600060296,-0.800006449,1,0,0,1,78,238,16,1,,,,,,,,
,,,,,,,,,,,,,FF,,,,,,,,2.7248,,,,,,,,,,,,,,,,,,,,,,6103579f72b250e7a439b926,610365fb825c5dfea8a602f8,2021-07-29_21h39.21.790,Simcolourproject_2stim_asymm_v5,2020.2.10,Win32,60,61025ae37ef11b136ea224fe,,,,,,,,,2010,77.6000126,53.59999436,1,0,0,response1disk,,6,2.40001148,0.799993575,1,0,0,rectangle,2.40001148,0.799993575,1,0,0,2.40001148,0.799993575,1,0,0,1,79,239,76,1,,,,,,,,
,,,,,,,,,,,,,FF,,,,,,,,1.289,,,,,,,,,,,,,,,,,,,,,,6103579f72b250e7a439b926,610365fb825c5dfea8a602f8,2021-07-29_21h39.21.790,Simcolourproject_2stim_asymm_v5,2020.2.10,Win32,60,61025ae37ef11b136ea224fe,,,,,,,,,1038,38.40001202,-103.200008,1,0,0,response3disk,,4,-2.399939764,-6.4373E-06,1,0,0,rectangle,-2.399939764,-6.4373E-06,1,0,0,-2.399939764,-6.4373E-06,1,0,0,1,80,240,142,1,,,,,,,,
,,,,,,,,,,,,,FF,,,,,,,,0.7677,,,,,,,,,,,,,,,,,,,,,,6103579f72b250e7a439b926,610365fb825c5dfea8a602f8,2021-07-29_21h39.21.790,Simcolourproject_2stim_asymm_v5,2020.2.10,Win32,60,61025ae37ef11b136ea224fe,,,,,,,,,2776,30.4000119,-99.20000792,1,0,0,response3disk,,4,1.14441E-05,-4.800006509,1,0,0,rectangle,1.14441E-05,-4.800006509,1,0,0,1.14441E-05,-4.800006509,1,0,0,1,81,241,58,1,,,,,,,,
,,,,,,,,,,,,,FF,,,,,,,,0.6471,,,,,,,,,,,,,,,,,,,,,,6103579f72b250e7a439b926,610365fb825c5dfea8a602f8,2021-07-29_21h39.21.790,Simcolourproject_2stim_asymm_v5,2020.2.10,Win32,60,61025ae37ef11b136ea224fe,,,,,,,,,2628,43.20001209,80.79999477,1,0,0,response1disk,,7,4.800011516,-6.4373E-06,1,0,0,rectangle,4.800011516,-6.4373E-06,1,0,0,4.800011516,-6.4373E-06,1,0,0,1,82,242,138,1,,,,,,,,
,,,,,,,,,,,,,FF,,,,,,,,0.8469,,,,,,,,,,,,,,,,,,,,,,6103579f72b250e7a439b926,610365fb825c5dfea8a602f8,2021-07-29_21h39.21.790,Simcolourproject_2stim_asymm_v5,2020.2.10,Win32,60,61025ae37ef11b136ea224fe,,,,,,,,,3084,35.20001197,78.39999473,1,0,0,response1disk,,7,0.800011456,5.599993646,1,0,0,rectangle,0.800011456,5.599993646,1,0,0,0.800011456,5.599993646,1,0,0,1,83,243,62,1,,,,,,,,
