key_resp.keys,key_resp.rt,key_resp_14.keys,key_resp_14.rt,key_resp_15.keys,key_resp_15.rt,key_resp_17.keys,key_resp_17.rt,key_resp_9.keys,key_resp_9.rt,key_resp_10.keys,key_resp_10.rt,practice_comparison,Ecc,mouse_5.x,mouse_5.y,mouse_5.leftButton,mouse_5.midButton,mouse_5.rightButton,mouse_5.clicked_name,pracsimilarity,response_time,mouse_10.x,mouse_10.y,mouse_10.leftButton,mouse_10.midButton,mouse_10.rightButton,mouse_10.clicked_name,mouse_7.x,mouse_7.y,mouse_7.leftButton,mouse_7.midButton,mouse_7.rightButton,mouse_6.x,mouse_6.y,mouse_6.leftButton,mouse_6.midButton,mouse_6.rightButton,duringprac.thisRepN,duringprac.thisTrialN,duringprac.thisN,duringprac.thisIndex,duringprac.ran,participant,session,date,expName,psychopyVersion,OS,frameRate,study_id,mouse_7.clicked_name,catchpracsimilarity,catch_response_time,catchnumberprac,catchtrialorderprac,mouse_6.clicked_name,key_resp_22.keys,key_resp_22.rt,realcomparison,mouse.x,mouse.y,mouse.leftButton,mouse.midButton,mouse.rightButton,mouse.clicked_name,Colour2,similarity,mouse_2.x,mouse_2.y,mouse_2.leftButton,mouse_2.midButton,mouse_2.rightButton,mouse_2.clicked_name,mouse_3.x,mouse_3.y,mouse_3.leftButton,mouse_3.midButton,mouse_3.rightButton,mouse_11.x,mouse_11.y,mouse_11.leftButton,mouse_11.midButton,mouse_11.rightButton,trials_2.thisRepN,trials_2.thisTrialN,trials_2.thisN,trials_2.thisIndex,trials_2.ran,Colour1,mouse_3.clicked_name,catchornah,catchsimilarity,catchnumber,catchtrialorder,catchRT,mouse_11.clicked_name
space,1.389,space,4.306,space,47.819,space,10.985,space,0.156,space,2.827,67,PF,48,97,1,0,0,response1disk_5,7,13.372,2,6,1,0,0,rectangle_8,2,6,1,0,0,2,6,1,0,0,0,0,0,4,1,61035fdca8e42cfdbbca31f2,610364c6015507cf1849f4b3,2021-07-29_19h34.57.815,Simcolourproject_2stim_asymm_v5,2020.2.10,MacIntel,60,61025ae37ef11b136ea224fe,,,,,,,,,,,,,,,,,,,,,,,,,,,,,,,,,,,,,,,,,,,,,,
,,,,,,,,,,,,107,PF,-90,55,1,0,0,response7disk_5,1,3.401,-19,-1,1,0,0,rectangle_8,124,46,1,0,0,22,9,1,0,0,0,1,1,6,1,61035fdca8e42cfdbbca31f2,610364c6015507cf1849f4b3,2021-07-29_19h34.57.815,Simcolourproject_2stim_asymm_v5,2020.2.10,MacIntel,60,61025ae37ef11b136ea224fe,response1disk_7,6,2.671,6,"[2,5]",rectangle_4,,,,,,,,,,,,,,,,,,,,,,,,,,,,,,,,,,,,,,,,
,,,,,,,,,,,,19,PF,52,125,1,0,0,response1disk_5,7,3.548,-15,-4,1,0,0,rectangle_8,-15,-4,1,0,0,-15,-4,1,0,0,0,2,2,2,1,61035fdca8e42cfdbbca31f2,610364c6015507cf1849f4b3,2021-07-29_19h34.57.815,Simcolourproject_2stim_asymm_v5,2020.2.10,MacIntel,60,61025ae37ef11b136ea224fe,,,,,,,,,,,,,,,,,,,,,,,,,,,,,,,,,,,,,,,,,,,,,,
,,,,,,,,,,,,80,FF,72,117,1,0,0,response1disk_5,7,1.644,-11,-9,1,0,0,rectangle_8,-11,-9,1,0,0,-11,-9,1,0,0,0,3,3,5,1,61035fdca8e42cfdbbca31f2,610364c6015507cf1849f4b3,2021-07-29_19h34.57.815,Simcolourproject_2stim_asymm_v5,2020.2.10,MacIntel,60,61025ae37ef11b136ea224fe,,,,,,,,,,,,,,,,,,,,,,,,,,,,,,,,,,,,,,,,,,,,,,
,,,,,,,,,,,,29,FF,62,80,1,0,0,response1disk_5,7,1.203,20,5,1,0,0,rectangle_8,125,50,1,0,0,6,14,1,0,0,0,4,4,0,1,61035fdca8e42cfdbbca31f2,610364c6015507cf1849f4b3,2021-07-29_19h34.57.815,Simcolourproject_2stim_asymm_v5,2020.2.10,MacIntel,60,61025ae37ef11b136ea224fe,response1disk_7,6,1.965,6,"[2,5]",rectangle_4,,,,,,,,,,,,,,,,,,,,,,,,,,,,,,,,,,,,,,,,
,,,,,,,,,,,,110,PF,-39,-72,1,0,0,response5disk_5,3,2.424,-8,-10,1,0,0,rectangle_8,-8,-10,1,0,0,-8,-10,1,0,0,0,5,5,1,1,61035fdca8e42cfdbbca31f2,610364c6015507cf1849f4b3,2021-07-29_19h34.57.815,Simcolourproject_2stim_asymm_v5,2020.2.10,MacIntel,60,61025ae37ef11b136ea224fe,,,,,,,,,,,,,,,,,,,,,,,,,,,,,,,,,,,,,,,,,,,,,,
,,,,,,,,,,,,75,FF,64,107,1,0,0,response1disk_5,7,1.12,12,3,1,0,0,rectangle_8,12,3,1,0,0,12,3,1,0,0,0,6,6,3,1,61035fdca8e42cfdbbca31f2,610364c6015507cf1849f4b3,2021-07-29_19h34.57.815,Simcolourproject_2stim_asymm_v5,2020.2.10,MacIntel,60,61025ae37ef11b136ea224fe,,,,,,,,,,,,,,,,,,,,,,,,,,,,,,,,,,,,,,,,,,,,,,
,,,,,,,,,,,,,FF,,,,,,,,1.174,,,,,,,,,,,,,,,,,,,,,,61035fdca8e42cfdbbca31f2,610364c6015507cf1849f4b3,2021-07-29_19h34.57.815,Simcolourproject_2stim_asymm_v5,2020.2.10,MacIntel,60,61025ae37ef11b136ea224fe,,,,,,,space,59.415,1474,98,47,1,0,0,response1disk,,6,-12,6,1,0,0,rectangle,-12,6,1,0,0,-12,6,1,0,0,0,0,0,140,1,,,,,,,,
,,,,,,,,,,,,,FF,,,,,,,,2.119,,,,,,,,,,,,,,,,,,,,,,61035fdca8e42cfdbbca31f2,610364c6015507cf1849f4b3,2021-07-29_19h34.57.815,Simcolourproject_2stim_asymm_v5,2020.2.10,MacIntel,60,61025ae37ef11b136ea224fe,,,,,,,,,2789,92,-37,1,0,0,response3disk,,5,6,0,1,0,0,rectangle,6,0,1,0,0,6,0,1,0,0,0,1,1,69,1,,,,,,,,
,,,,,,,,,,,,,FF,,,,,,,,1.699,,,,,,,,,,,,,,,,,,,,,,61035fdca8e42cfdbbca31f2,610364c6015507cf1849f4b3,2021-07-29_19h34.57.815,Simcolourproject_2stim_asymm_v5,2020.2.10,MacIntel,60,61025ae37ef11b136ea224fe,,,,,,,,,3285,-102,45,1,0,0,response7disk,,1,14,-8,1,0,0,rectangle,14,-8,1,0,0,14,-8,1,0,0,0,2,2,126,1,,,,,,,,
,,,,,,,,,,,,,FF,,,,,,,,1.114,,,,,,,,,,,,,,,,,,,,,,61035fdca8e42cfdbbca31f2,610364c6015507cf1849f4b3,2021-07-29_19h34.57.815,Simcolourproject_2stim_asymm_v5,2020.2.10,MacIntel,60,61025ae37ef11b136ea224fe,,,,,,,,,2118,88,52,1,0,0,response1disk,,6,1,11,1,0,0,rectangle,1,11,1,0,0,1,11,1,0,0,0,3,3,79,1,,,,,,,,
,,,,,,,,,,,,,FF,,,,,,,,1.428,,,,,,,,,,,,,,,,,,,,,,61035fdca8e42cfdbbca31f2,610364c6015507cf1849f4b3,2021-07-29_19h34.57.815,Simcolourproject_2stim_asymm_v5,2020.2.10,MacIntel,60,61025ae37ef11b136ea224fe,,,,,,,,,4063,88,52,1,0,0,response1disk,,6,9,7,1,0,0,rectangle,9,7,1,0,0,9,7,1,0,0,0,4,4,51,1,,,,,,,,
,,,,,,,,,,,,,FF,,,,,,,,1.771,,,,,,,,,,,,,,,,,,,,,,61035fdca8e42cfdbbca31f2,610364c6015507cf1849f4b3,2021-07-29_19h34.57.815,Simcolourproject_2stim_asymm_v5,2020.2.10,MacIntel,60,61025ae37ef11b136ea224fe,,,,,,,,,931,47,92,1,0,0,response1disk,,7,-4,1,1,0,0,rectangle,-4,1,1,0,0,-4,1,1,0,0,0,5,5,139,1,,,,,,,,
,,,,,,,,,,,,,FF,,,,,,,,1.105,,,,,,,,,,,,,,,,,,,,,,61035fdca8e42cfdbbca31f2,610364c6015507cf1849f4b3,2021-07-29_19h34.57.815,Simcolourproject_2stim_asymm_v5,2020.2.10,MacIntel,60,61025ae37ef11b136ea224fe,,,,,,,,,2762,95,134,1,0,0,response1disk,,7,28,20,1,0,0,rectangle,28,20,1,0,0,28,20,1,0,0,0,6,6,104,1,,,,,,,,
,,,,,,,,,,,,,FF,,,,,,,,2.044,,,,,,,,,,,,,,,,,,,,,,61035fdca8e42cfdbbca31f2,610364c6015507cf1849f4b3,2021-07-29_19h34.57.815,Simcolourproject_2stim_asymm_v5,2020.2.10,MacIntel,60,61025ae37ef11b136ea224fe,,,,,,,,,51,91,36,1,0,0,response1disk,,6,16,-3,1,0,0,rectangle,16,-3,1,0,0,16,-3,1,0,0,0,7,7,133,1,,,,,,,,
,,,,,,,,,,,,,FF,,,,,,,,1.402,,,,,,,,,,,,,,,,,,,,,,61035fdca8e42cfdbbca31f2,610364c6015507cf1849f4b3,2021-07-29_19h34.57.815,Simcolourproject_2stim_asymm_v5,2020.2.10,MacIntel,60,61025ae37ef11b136ea224fe,,,,,,,,,2273,69,38,1,0,0,response1disk,,6,-24,-4,1,0,0,rectangle,-24,-4,1,0,0,-24,-4,1,0,0,0,8,8,129,1,,,,,,,,
,,,,,,,,,,,,,FF,,,,,,,,1.545,,,,,,,,,,,,,,,,,,,,,,61035fdca8e42cfdbbca31f2,610364c6015507cf1849f4b3,2021-07-29_19h34.57.815,Simcolourproject_2stim_asymm_v5,2020.2.10,MacIntel,60,61025ae37ef11b136ea224fe,,,,,,,,,1411,76,35,1,0,0,response1disk,,6,-21,-12,1,0,0,rectangle,-21,-12,1,0,0,-21,-12,1,0,0,0,9,9,67,1,,,,,,,,
,,,,,,,,,,,,,FF,,,,,,,,1.93,,,,,,,,,,,,,,,,,,,,,,61035fdca8e42cfdbbca31f2,610364c6015507cf1849f4b3,2021-07-29_19h34.57.815,Simcolourproject_2stim_asymm_v5,2020.2.10,MacIntel,60,61025ae37ef11b136ea224fe,,,,,,,,,1466,64,-54,1,0,0,response3disk,,5,-20,-15,1,0,0,rectangle,-20,-15,1,0,0,-20,-15,1,0,0,0,10,10,143,1,,,,,,,,
,,,,,,,,,,,,,FF,,,,,,,,1.036,,,,,,,,,,,,,,,,,,,,,,61035fdca8e42cfdbbca31f2,610364c6015507cf1849f4b3,2021-07-29_19h34.57.815,Simcolourproject_2stim_asymm_v5,2020.2.10,MacIntel,60,61025ae37ef11b136ea224fe,,,,,,,,,4081,41,83,1,0,0,response1disk,,7,15,-1,1,0,0,rectangle,15,-1,1,0,0,15,-1,1,0,0,0,11,11,2,1,,,,,,,,
,,,,,,,,,,,,,FF,,,,,,,,1.517,,,,,,,,,,,,,,,,,,,,,,61035fdca8e42cfdbbca31f2,610364c6015507cf1849f4b3,2021-07-29_19h34.57.815,Simcolourproject_2stim_asymm_v5,2020.2.10,MacIntel,60,61025ae37ef11b136ea224fe,,,,,,,,,3909,55,-113,1,0,0,response3disk,,4,0,-7,1,0,0,rectangle,0,-7,1,0,0,0,-7,1,0,0,0,12,12,86,1,,,,,,,,
,,,,,,,,,,,,,FF,,,,,,,,0.966,,,,,,,,,,,,,,,,,,,,,,61035fdca8e42cfdbbca31f2,610364c6015507cf1849f4b3,2021-07-29_19h34.57.815,Simcolourproject_2stim_asymm_v5,2020.2.10,MacIntel,60,61025ae37ef11b136ea224fe,,,,,,,,,2500,52,94,1,0,0,response1disk,,7,-10,8,1,0,0,rectangle,-10,8,1,0,0,-10,8,1,0,0,0,13,13,109,1,,,,,,,,
,,,,,,,,,,,,,FF,,,,,,,,1.218,,,,,,,,,,,,,,,,,,,,,,61035fdca8e42cfdbbca31f2,610364c6015507cf1849f4b3,2021-07-29_19h34.57.815,Simcolourproject_2stim_asymm_v5,2020.2.10,MacIntel,60,61025ae37ef11b136ea224fe,,,,,,,,,1375,65,-87,1,0,0,response3disk,,4,16,-14,1,0,0,rectangle,16,-14,1,0,0,16,-14,1,0,0,0,14,14,55,1,,,,,,,,
,,,,,,,,,,,,,FF,,,,,,,,1.363,,,,,,,,,,,,,,,,,,,,,,61035fdca8e42cfdbbca31f2,610364c6015507cf1849f4b3,2021-07-29_19h34.57.815,Simcolourproject_2stim_asymm_v5,2020.2.10,MacIntel,60,61025ae37ef11b136ea224fe,,,,,,,,,4359,-87,62,1,0,0,response7disk,,1,15,4,1,0,0,rectangle,15,4,1,0,0,15,4,1,0,0,0,15,15,123,1,,,,,,,,
,,,,,,,,,,,,,FF,,,,,,,,3.056,,,,,,,,,,,,,,,,,,,,,,61035fdca8e42cfdbbca31f2,610364c6015507cf1849f4b3,2021-07-29_19h34.57.815,Simcolourproject_2stim_asymm_v5,2020.2.10,MacIntel,60,61025ae37ef11b136ea224fe,,,,,,,,,11,111,-44,1,0,0,response3disk,,5,5,14,1,0,0,rectangle,5,14,1,0,0,5,14,1,0,0,0,16,16,41,1,,,,,,,,
,,,,,,,,,,,,,FF,,,,,,,,1.684,,,,,,,,,,,,,,,,,,,,,,61035fdca8e42cfdbbca31f2,610364c6015507cf1849f4b3,2021-07-29_19h34.57.815,Simcolourproject_2stim_asymm_v5,2020.2.10,MacIntel,60,61025ae37ef11b136ea224fe,,,,,,,,,3803,67,107,1,0,0,response1disk,,7,11,-1,1,0,0,rectangle,11,-1,1,0,0,11,-1,1,0,0,0,17,17,85,1,,,,,,,,
,,,,,,,,,,,,,FF,,,,,,,,1.556,,,,,,,,,,,,,,,,,,,,,,61035fdca8e42cfdbbca31f2,610364c6015507cf1849f4b3,2021-07-29_19h34.57.815,Simcolourproject_2stim_asymm_v5,2020.2.10,MacIntel,60,61025ae37ef11b136ea224fe,,,,,,,,,2226,-118,59,1,0,0,response7disk,,1,-19,-21,1,0,0,rectangle,-19,-21,1,0,0,-19,-21,1,0,0,0,18,18,105,1,,,,,,,,
,,,,,,,,,,,,,FF,,,,,,,,2.142,,,,,,,,,,,,,,,,,,,,,,61035fdca8e42cfdbbca31f2,610364c6015507cf1849f4b3,2021-07-29_19h34.57.815,Simcolourproject_2stim_asymm_v5,2020.2.10,MacIntel,60,61025ae37ef11b136ea224fe,,,,,,,,,3162,67,89,1,0,0,response1disk,,7,22,-1,1,0,0,rectangle,22,-1,1,0,0,22,-1,1,0,0,0,19,19,19,1,,,,,,,,
,,,,,,,,,,,,,FF,,,,,,,,1.214,,,,,,,,,,,,,,,,,,,,,,61035fdca8e42cfdbbca31f2,610364c6015507cf1849f4b3,2021-07-29_19h34.57.815,Simcolourproject_2stim_asymm_v5,2020.2.10,MacIntel,60,61025ae37ef11b136ea224fe,,,,,,,,,1757,73,28,1,0,0,response1disk,,6,10,-4,1,0,0,rectangle,10,-4,1,0,0,10,-4,1,0,0,0,20,20,14,1,,,,,,,,
,,,,,,,,,,,,,FF,,,,,,,,0.784,,,,,,,,,,,,,,,,,,,,,,61035fdca8e42cfdbbca31f2,610364c6015507cf1849f4b3,2021-07-29_19h34.57.815,Simcolourproject_2stim_asymm_v5,2020.2.10,MacIntel,60,61025ae37ef11b136ea224fe,,,,,,,,,1861,36,96,1,0,0,response1disk,,7,-10,19,1,0,0,rectangle,-10,19,1,0,0,-10,19,1,0,0,0,21,21,131,1,,,,,,,,
,,,,,,,,,,,,,FF,,,,,,,,0.856,,,,,,,,,,,,,,,,,,,,,,61035fdca8e42cfdbbca31f2,610364c6015507cf1849f4b3,2021-07-29_19h34.57.815,Simcolourproject_2stim_asymm_v5,2020.2.10,MacIntel,60,61025ae37ef11b136ea224fe,,,,,,,,,2738,43,100,1,0,0,response1disk,,7,-2,-8,1,0,0,rectangle,-2,-8,1,0,0,-2,-8,1,0,0,0,22,22,120,1,,,,,,,,
,,,,,,,,,,,,,FF,,,,,,,,0.832,,,,,,,,,,,,,,,,,,,,,,61035fdca8e42cfdbbca31f2,610364c6015507cf1849f4b3,2021-07-29_19h34.57.815,Simcolourproject_2stim_asymm_v5,2020.2.10,MacIntel,60,61025ae37ef11b136ea224fe,,,,,,,,,290,51,100,1,0,0,response1disk,,7,9,16,1,0,0,rectangle,9,16,1,0,0,9,16,1,0,0,0,23,23,157,1,,,,,,,,
,,,,,,,,,,,,,FF,,,,,,,,1.068,,,,,,,,,,,,,,,,,,,,,,61035fdca8e42cfdbbca31f2,610364c6015507cf1849f4b3,2021-07-29_19h34.57.815,Simcolourproject_2stim_asymm_v5,2020.2.10,MacIntel,60,61025ae37ef11b136ea224fe,,,,,,,,,98,80,-63,1,0,0,response3disk,,5,-4,7,1,0,0,rectangle,-4,7,1,0,0,-4,7,1,0,0,0,24,24,11,1,,,,,,,,
,,,,,,,,,,,,,FF,,,,,,,,1.892,,,,,,,,,,,,,,,,,,,,,,61035fdca8e42cfdbbca31f2,610364c6015507cf1849f4b3,2021-07-29_19h34.57.815,Simcolourproject_2stim_asymm_v5,2020.2.10,MacIntel,60,61025ae37ef11b136ea224fe,,,,,,,,,3634,32,81,1,0,0,response1disk,,7,-29,-11,1,0,0,rectangle,-29,-11,1,0,0,-29,-11,1,0,0,0,25,25,24,1,,,,,,,,
,,,,,,,,,,,,,FF,,,,,,,,0.823,,,,,,,,,,,,,,,,,,,,,,61035fdca8e42cfdbbca31f2,610364c6015507cf1849f4b3,2021-07-29_19h34.57.815,Simcolourproject_2stim_asymm_v5,2020.2.10,MacIntel,60,61025ae37ef11b136ea224fe,,,,,,,,,1163,31,95,1,0,0,response1disk,,7,-13,1,1,0,0,rectangle,-13,1,1,0,0,-13,1,1,0,0,0,26,26,107,1,,,,,,,,
,,,,,,,,,,,,,FF,,,,,,,,0.999,,,,,,,,,,,,,,,,,,,,,,61035fdca8e42cfdbbca31f2,610364c6015507cf1849f4b3,2021-07-29_19h34.57.815,Simcolourproject_2stim_asymm_v5,2020.2.10,MacIntel,60,61025ae37ef11b136ea224fe,,,,,,,,,3867,75,103,1,0,0,response1disk,,7,10,-14,1,0,0,rectangle,10,-14,1,0,0,10,-14,1,0,0,0,27,27,155,1,,,,,,,,
,,,,,,,,,,,,,FF,,,,,,,,1.222,,,,,,,,,,,,,,,,,,,,,,61035fdca8e42cfdbbca31f2,610364c6015507cf1849f4b3,2021-07-29_19h34.57.815,Simcolourproject_2stim_asymm_v5,2020.2.10,MacIntel,60,61025ae37ef11b136ea224fe,,,,,,,,,3109,110,43,1,0,0,response1disk,,6,-19,4,1,0,0,rectangle,-19,4,1,0,0,-19,4,1,0,0,0,28,28,0,1,,,,,,,,
,,,,,,,,,,,,,FF,,,,,,,,0.808,,,,,,,,,,,,,,,,,,,,,,61035fdca8e42cfdbbca31f2,610364c6015507cf1849f4b3,2021-07-29_19h34.57.815,Simcolourproject_2stim_asymm_v5,2020.2.10,MacIntel,60,61025ae37ef11b136ea224fe,,,,,,,,,4317,44,110,1,0,0,response1disk,,7,-4,6,1,0,0,rectangle,-4,6,1,0,0,-4,6,1,0,0,0,29,29,153,1,,,,,,,,
,,,,,,,,,,,,,FF,,,,,,,,1.439,,,,,,,,,,,,,,,,,,,,,,61035fdca8e42cfdbbca31f2,610364c6015507cf1849f4b3,2021-07-29_19h34.57.815,Simcolourproject_2stim_asymm_v5,2020.2.10,MacIntel,60,61025ae37ef11b136ea224fe,,,,,,,,,377,61,112,1,0,0,response1disk,,7,-10,6,1,0,0,rectangle,-10,6,1,0,0,-10,6,1,0,0,0,30,30,117,1,,,,,,,,
,,,,,,,,,,,,,FF,,,,,,,,2.403,,,,,,,,,,,,,,,,,,,,,,61035fdca8e42cfdbbca31f2,610364c6015507cf1849f4b3,2021-07-29_19h34.57.815,Simcolourproject_2stim_asymm_v5,2020.2.10,MacIntel,60,61025ae37ef11b136ea224fe,,,,,,,,,2569,63,105,1,0,0,response1disk,,7,-3,9,1,0,0,rectangle,-3,9,1,0,0,-3,9,1,0,0,0,31,31,36,1,,,,,,,,
,,,,,,,,,,,,,FF,,,,,,,,1.446,,,,,,,,,,,,,,,,,,,,,,61035fdca8e42cfdbbca31f2,610364c6015507cf1849f4b3,2021-07-29_19h34.57.815,Simcolourproject_2stim_asymm_v5,2020.2.10,MacIntel,60,61025ae37ef11b136ea224fe,,,,,,,,,3466,49,89,1,0,0,response1disk,,7,-5,-9,1,0,0,rectangle,-5,-9,1,0,0,-5,-9,1,0,0,0,32,32,7,1,,,,,,,,
,,,,,,,,,,,,,FF,,,,,,,,0.734,,,,,,,,,,,,,,,,,,,,,,61035fdca8e42cfdbbca31f2,610364c6015507cf1849f4b3,2021-07-29_19h34.57.815,Simcolourproject_2stim_asymm_v5,2020.2.10,MacIntel,60,61025ae37ef11b136ea224fe,,,,,,,,,311,43,55,1,0,0,response1disk,,7,24,8,1,0,0,rectangle,24,8,1,0,0,24,8,1,0,0,0,33,33,121,1,,,,,,,,
,,,,,,,,,,,,,FF,,,,,,,,1.053,,,,,,,,,,,,,,,,,,,,,,61035fdca8e42cfdbbca31f2,610364c6015507cf1849f4b3,2021-07-29_19h34.57.815,Simcolourproject_2stim_asymm_v5,2020.2.10,MacIntel,60,61025ae37ef11b136ea224fe,,,,,,,,,919,48,63,1,0,0,response1disk,,7,20,0,1,0,0,rectangle,20,0,1,0,0,20,0,1,0,0,0,34,34,60,1,,,,,,,,
,,,,,,,,,,,,,FF,,,,,,,,1.042,,,,,,,,,,,,,,,,,,,,,,61035fdca8e42cfdbbca31f2,610364c6015507cf1849f4b3,2021-07-29_19h34.57.815,Simcolourproject_2stim_asymm_v5,2020.2.10,MacIntel,60,61025ae37ef11b136ea224fe,,,,,,,,,2158,61,117,1,0,0,response1disk,,7,26,16,1,0,0,rectangle,26,16,1,0,0,26,16,1,0,0,0,35,35,83,1,,,,,,,,
,,,,,,,,,,,,,FF,,,,,,,,1.655,,,,,,,,,,,,,,,,,,,,,,61035fdca8e42cfdbbca31f2,610364c6015507cf1849f4b3,2021-07-29_19h34.57.815,Simcolourproject_2stim_asymm_v5,2020.2.10,MacIntel,60,61025ae37ef11b136ea224fe,,,,,,,,,1970,79,-40,1,0,0,response3disk,,5,6,1,1,0,0,rectangle,6,1,1,0,0,6,1,1,0,0,0,36,36,100,1,,,,,,,,
,,,,,,,,,,,,,FF,,,,,,,,2.001,,,,,,,,,,,,,,,,,,,,,,61035fdca8e42cfdbbca31f2,610364c6015507cf1849f4b3,2021-07-29_19h34.57.815,Simcolourproject_2stim_asymm_v5,2020.2.10,MacIntel,60,61025ae37ef11b136ea224fe,,,,,,,,,4214,45,92,1,0,0,response1disk,,7,-5,-5,1,0,0,rectangle,-5,-5,1,0,0,-5,-5,1,0,0,0,37,37,71,1,,,,,,,,
,,,,,,,,,,,,,FF,,,,,,,,1.257,,,,,,,,,,,,,,,,,,,,,,61035fdca8e42cfdbbca31f2,610364c6015507cf1849f4b3,2021-07-29_19h34.57.815,Simcolourproject_2stim_asymm_v5,2020.2.10,MacIntel,60,61025ae37ef11b136ea224fe,,,,,,,,,2405,75,41,1,0,0,response1disk,,6,10,6,1,0,0,rectangle,10,6,1,0,0,10,6,1,0,0,0,38,38,141,1,,,,,,,,
,,,,,,,,,,,,,FF,,,,,,,,1.125,,,,,,,,,,,,,,,,,,,,,,61035fdca8e42cfdbbca31f2,610364c6015507cf1849f4b3,2021-07-29_19h34.57.815,Simcolourproject_2stim_asymm_v5,2020.2.10,MacIntel,60,61025ae37ef11b136ea224fe,,,,,,,,,2752,51,-97,1,0,0,response3disk,,4,5,-16,1,0,0,rectangle,5,-16,1,0,0,5,-16,1,0,0,0,39,39,127,1,,,,,,,,
,,,,,,,,,,,,,FF,,,,,,,,1.106,,,,,,,,,,,,,,,,,,,,,,61035fdca8e42cfdbbca31f2,610364c6015507cf1849f4b3,2021-07-29_19h34.57.815,Simcolourproject_2stim_asymm_v5,2020.2.10,MacIntel,60,61025ae37ef11b136ea224fe,,,,,,,,,3562,82,-59,1,0,0,response3disk,,5,1,1,1,0,0,rectangle,1,1,1,0,0,1,1,1,0,0,0,40,40,114,1,,,,,,,,
,,,,,,,,,,,,,FF,,,,,,,,0.714,,,,,,,,,,,,,,,,,,,,,,61035fdca8e42cfdbbca31f2,610364c6015507cf1849f4b3,2021-07-29_19h34.57.815,Simcolourproject_2stim_asymm_v5,2020.2.10,MacIntel,60,61025ae37ef11b136ea224fe,,,,,,,,,19,51,101,1,0,0,response1disk,,7,-3,-9,1,0,0,rectangle,-83,-55,1,0,0,8,-5,1,0,0,0,41,41,148,1,,response5disk_3,TRUE,2,2,"[81,42,149,216,263,301,311,317,115,71,104,135,305,101,56,316,106,170,79,271]",3.048,rectangle
,,,,,,,,,,,,,FF,,,,,,,,3.915,,,,,,,,,,,,,,,,,,,,,,61035fdca8e42cfdbbca31f2,610364c6015507cf1849f4b3,2021-07-29_19h34.57.815,Simcolourproject_2stim_asymm_v5,2020.2.10,MacIntel,60,61025ae37ef11b136ea224fe,,,,,,,,,2004,35,90,1,0,0,response1disk,,7,-12,3,1,0,0,rectangle,-12,3,1,0,0,-12,3,1,0,0,0,42,42,154,1,,,,,,,,
,,,,,,,,,,,,,FF,,,,,,,,1.096,,,,,,,,,,,,,,,,,,,,,,61035fdca8e42cfdbbca31f2,610364c6015507cf1849f4b3,2021-07-29_19h34.57.815,Simcolourproject_2stim_asymm_v5,2020.2.10,MacIntel,60,61025ae37ef11b136ea224fe,,,,,,,,,4337,-43,100,1,0,0,response7disk,,0,-2,-11,1,0,0,rectangle,-2,-11,1,0,0,-2,-11,1,0,0,0,43,43,136,1,,,,,,,,
,,,,,,,,,,,,,FF,,,,,,,,1.111,,,,,,,,,,,,,,,,,,,,,,61035fdca8e42cfdbbca31f2,610364c6015507cf1849f4b3,2021-07-29_19h34.57.815,Simcolourproject_2stim_asymm_v5,2020.2.10,MacIntel,60,61025ae37ef11b136ea224fe,,,,,,,,,2813,63,101,1,0,0,response1disk,,7,3,-16,1,0,0,rectangle,3,-16,1,0,0,3,-16,1,0,0,0,44,44,147,1,,,,,,,,
,,,,,,,,,,,,,FF,,,,,,,,0.864,,,,,,,,,,,,,,,,,,,,,,61035fdca8e42cfdbbca31f2,610364c6015507cf1849f4b3,2021-07-29_19h34.57.815,Simcolourproject_2stim_asymm_v5,2020.2.10,MacIntel,60,61025ae37ef11b136ea224fe,,,,,,,,,1706,51,121,1,0,0,response1disk,,7,4,-3,1,0,0,rectangle,4,-3,1,0,0,4,-3,1,0,0,0,45,45,78,1,,,,,,,,
,,,,,,,,,,,,,FF,,,,,,,,1.377,,,,,,,,,,,,,,,,,,,,,,61035fdca8e42cfdbbca31f2,610364c6015507cf1849f4b3,2021-07-29_19h34.57.815,Simcolourproject_2stim_asymm_v5,2020.2.10,MacIntel,60,61025ae37ef11b136ea224fe,,,,,,,,,1032,81,125,1,0,0,response1disk,,7,18,18,1,0,0,rectangle,18,18,1,0,0,18,18,1,0,0,0,46,46,122,1,,,,,,,,
,,,,,,,,,,,,,FF,,,,,,,,1.083,,,,,,,,,,,,,,,,,,,,,,61035fdca8e42cfdbbca31f2,610364c6015507cf1849f4b3,2021-07-29_19h34.57.815,Simcolourproject_2stim_asymm_v5,2020.2.10,MacIntel,60,61025ae37ef11b136ea224fe,,,,,,,,,1126,47,95,1,0,0,response1disk,,7,-12,-12,1,0,0,rectangle,-12,-12,1,0,0,-12,-12,1,0,0,0,47,47,144,1,,,,,,,,
,,,,,,,,,,,,,FF,,,,,,,,1.639,,,,,,,,,,,,,,,,,,,,,,61035fdca8e42cfdbbca31f2,610364c6015507cf1849f4b3,2021-07-29_19h34.57.815,Simcolourproject_2stim_asymm_v5,2020.2.10,MacIntel,60,61025ae37ef11b136ea224fe,,,,,,,,,3597,-61,-91,1,0,0,response5disk,,3,-7,11,1,0,0,rectangle,-7,11,1,0,0,-7,11,1,0,0,0,48,48,124,1,,,,,,,,
,,,,,,,,,,,,,FF,,,,,,,,1.681,,,,,,,,,,,,,,,,,,,,,,61035fdca8e42cfdbbca31f2,610364c6015507cf1849f4b3,2021-07-29_19h34.57.815,Simcolourproject_2stim_asymm_v5,2020.2.10,MacIntel,60,61025ae37ef11b136ea224fe,,,,,,,,,3209,69,-45,1,0,0,response3disk,,5,-11,0,1,0,0,rectangle,-11,0,1,0,0,-11,0,1,0,0,0,49,49,62,1,,,,,,,,
,,,,,,,,,,,,,FF,,,,,,,,0.888,,,,,,,,,,,,,,,,,,,,,,61035fdca8e42cfdbbca31f2,610364c6015507cf1849f4b3,2021-07-29_19h34.57.815,Simcolourproject_2stim_asymm_v5,2020.2.10,MacIntel,60,61025ae37ef11b136ea224fe,,,,,,,,,4044,38,83,1,0,0,response1disk,,7,-6,9,1,0,0,rectangle,-6,9,1,0,0,-6,9,1,0,0,0,50,50,3,1,,,,,,,,
,,,,,,,,,,,,,FF,,,,,,,,1.385,,,,,,,,,,,,,,,,,,,,,,61035fdca8e42cfdbbca31f2,610364c6015507cf1849f4b3,2021-07-29_19h34.57.815,Simcolourproject_2stim_asymm_v5,2020.2.10,MacIntel,60,61025ae37ef11b136ea224fe,,,,,,,,,3064,28,52,1,0,0,response1disk,,7,-2,-14,1,0,0,rectangle,-2,-14,1,0,0,-2,-14,1,0,0,0,51,51,10,1,,,,,,,,
,,,,,,,,,,,,,FF,,,,,,,,0.907,,,,,,,,,,,,,,,,,,,,,,61035fdca8e42cfdbbca31f2,610364c6015507cf1849f4b3,2021-07-29_19h34.57.815,Simcolourproject_2stim_asymm_v5,2020.2.10,MacIntel,60,61025ae37ef11b136ea224fe,,,,,,,,,575,54,86,1,0,0,response1disk,,7,3,-2,1,0,0,rectangle,3,-2,1,0,0,3,-2,1,0,0,0,52,52,108,1,,,,,,,,
,,,,,,,,,,,,,FF,,,,,,,,0.768,,,,,,,,,,,,,,,,,,,,,,61035fdca8e42cfdbbca31f2,610364c6015507cf1849f4b3,2021-07-29_19h34.57.815,Simcolourproject_2stim_asymm_v5,2020.2.10,MacIntel,60,61025ae37ef11b136ea224fe,,,,,,,,,2869,57,96,1,0,0,response1disk,,7,8,10,1,0,0,rectangle,8,10,1,0,0,8,10,1,0,0,0,53,53,23,1,,,,,,,,
,,,,,,,,,,,,,FF,,,,,,,,0.658,,,,,,,,,,,,,,,,,,,,,,61035fdca8e42cfdbbca31f2,610364c6015507cf1849f4b3,2021-07-29_19h34.57.815,Simcolourproject_2stim_asymm_v5,2020.2.10,MacIntel,60,61025ae37ef11b136ea224fe,,,,,,,,,585,47,86,1,0,0,response1disk,,7,-2,-7,1,0,0,rectangle,-2,-7,1,0,0,-2,-7,1,0,0,0,54,54,95,1,,,,,,,,
,,,,,,,,,,,,,FF,,,,,,,,1.06,,,,,,,,,,,,,,,,,,,,,,61035fdca8e42cfdbbca31f2,610364c6015507cf1849f4b3,2021-07-29_19h34.57.815,Simcolourproject_2stim_asymm_v5,2020.2.10,MacIntel,60,61025ae37ef11b136ea224fe,,,,,,,,,2586,55,91,1,0,0,response1disk,,7,17,9,1,0,0,rectangle,93,-31,1,0,0,17,-1,1,0,0,0,55,55,50,1,,response3disk_3,TRUE,5,5,"[81,42,149,216,263,301,311,317,115,71,104,135,305,101,56,316,106,170,79,271]",2.256,rectangle
,,,,,,,,,,,,,FF,,,,,,,,3.492,,,,,,,,,,,,,,,,,,,,,,61035fdca8e42cfdbbca31f2,610364c6015507cf1849f4b3,2021-07-29_19h34.57.815,Simcolourproject_2stim_asymm_v5,2020.2.10,MacIntel,60,61025ae37ef11b136ea224fe,,,,,,,,,4087,39,105,1,0,0,response1disk,,7,-13,5,1,0,0,rectangle,-13,5,1,0,0,-13,5,1,0,0,0,56,56,66,1,,,,,,,,
,,,,,,,,,,,,,FF,,,,,,,,4.17,,,,,,,,,,,,,,,,,,,,,,61035fdca8e42cfdbbca31f2,610364c6015507cf1849f4b3,2021-07-29_19h34.57.815,Simcolourproject_2stim_asymm_v5,2020.2.10,MacIntel,60,61025ae37ef11b136ea224fe,,,,,,,,,303,-44,92,1,0,0,response7disk,,0,-11,-2,1,0,0,rectangle,-11,-2,1,0,0,-11,-2,1,0,0,0,57,57,58,1,,,,,,,,
,,,,,,,,,,,,,FF,,,,,,,,2.675,,,,,,,,,,,,,,,,,,,,,,61035fdca8e42cfdbbca31f2,610364c6015507cf1849f4b3,2021-07-29_19h34.57.815,Simcolourproject_2stim_asymm_v5,2020.2.10,MacIntel,60,61025ae37ef11b136ea224fe,,,,,,,,,239,46,80,1,0,0,response1disk,,7,-2,-1,1,0,0,rectangle,-2,-1,1,0,0,-2,-1,1,0,0,0,58,58,111,1,,,,,,,,
,,,,,,,,,,,,,FF,,,,,,,,1.959,,,,,,,,,,,,,,,,,,,,,,61035fdca8e42cfdbbca31f2,610364c6015507cf1849f4b3,2021-07-29_19h34.57.815,Simcolourproject_2stim_asymm_v5,2020.2.10,MacIntel,60,61025ae37ef11b136ea224fe,,,,,,,,,3239,69,90,1,0,0,response1disk,,7,30,22,1,0,0,rectangle,30,22,1,0,0,30,22,1,0,0,0,59,59,8,1,,,,,,,,
,,,,,,,,,,,,,FF,,,,,,,,1.593,,,,,,,,,,,,,,,,,,,,,,61035fdca8e42cfdbbca31f2,610364c6015507cf1849f4b3,2021-07-29_19h34.57.815,Simcolourproject_2stim_asymm_v5,2020.2.10,MacIntel,60,61025ae37ef11b136ea224fe,,,,,,,,,1323,-81,52,1,0,0,response7disk,,1,25,-15,1,0,0,rectangle,25,-15,1,0,0,25,-15,1,0,0,0,60,60,1,1,,,,,,,,
,,,,,,,,,,,,,FF,,,,,,,,1.609,,,,,,,,,,,,,,,,,,,,,,61035fdca8e42cfdbbca31f2,610364c6015507cf1849f4b3,2021-07-29_19h34.57.815,Simcolourproject_2stim_asymm_v5,2020.2.10,MacIntel,60,61025ae37ef11b136ea224fe,,,,,,,,,94,-121,55,1,0,0,response7disk,,1,11,-8,1,0,0,rectangle,11,-8,1,0,0,11,-8,1,0,0,0,61,61,92,1,,,,,,,,
,,,,,,,,,,,,,FF,,,,,,,,1.086,,,,,,,,,,,,,,,,,,,,,,61035fdca8e42cfdbbca31f2,610364c6015507cf1849f4b3,2021-07-29_19h34.57.815,Simcolourproject_2stim_asymm_v5,2020.2.10,MacIntel,60,61025ae37ef11b136ea224fe,,,,,,,,,2750,48,94,1,0,0,response1disk,,7,9,3,1,0,0,rectangle,9,3,1,0,0,9,3,1,0,0,0,62,62,89,1,,,,,,,,
,,,,,,,,,,,,,FF,,,,,,,,1.464,,,,,,,,,,,,,,,,,,,,,,61035fdca8e42cfdbbca31f2,610364c6015507cf1849f4b3,2021-07-29_19h34.57.815,Simcolourproject_2stim_asymm_v5,2020.2.10,MacIntel,60,61025ae37ef11b136ea224fe,,,,,,,,,3060,61,-86,1,0,0,response3disk,,4,16,2,1,0,0,rectangle,16,2,1,0,0,16,2,1,0,0,0,63,63,118,1,,,,,,,,
,,,,,,,,,,,,,FF,,,,,,,,0.942,,,,,,,,,,,,,,,,,,,,,,61035fdca8e42cfdbbca31f2,610364c6015507cf1849f4b3,2021-07-29_19h34.57.815,Simcolourproject_2stim_asymm_v5,2020.2.10,MacIntel,60,61025ae37ef11b136ea224fe,,,,,,,,,3184,71,113,1,0,0,response1disk,,7,8,10,1,0,0,rectangle,8,10,1,0,0,8,10,1,0,0,0,64,64,44,1,,,,,,,,
,,,,,,,,,,,,,FF,,,,,,,,1.02,,,,,,,,,,,,,,,,,,,,,,61035fdca8e42cfdbbca31f2,610364c6015507cf1849f4b3,2021-07-29_19h34.57.815,Simcolourproject_2stim_asymm_v5,2020.2.10,MacIntel,60,61025ae37ef11b136ea224fe,,,,,,,,,3839,55,88,1,0,0,response1disk,,7,10,2,1,0,0,rectangle,10,2,1,0,0,10,2,1,0,0,0,65,65,47,1,,,,,,,,
,,,,,,,,,,,,,FF,,,,,,,,0.628,,,,,,,,,,,,,,,,,,,,,,61035fdca8e42cfdbbca31f2,610364c6015507cf1849f4b3,2021-07-29_19h34.57.815,Simcolourproject_2stim_asymm_v5,2020.2.10,MacIntel,60,61025ae37ef11b136ea224fe,,,,,,,,,3491,61,102,1,0,0,response1disk,,7,7,7,1,0,0,rectangle,7,7,1,0,0,7,7,1,0,0,0,66,66,88,1,,,,,,,,
,,,,,,,,,,,,,FF,,,,,,,,0.745,,,,,,,,,,,,,,,,,,,,,,61035fdca8e42cfdbbca31f2,610364c6015507cf1849f4b3,2021-07-29_19h34.57.815,Simcolourproject_2stim_asymm_v5,2020.2.10,MacIntel,60,61025ae37ef11b136ea224fe,,,,,,,,,1981,58,110,1,0,0,response1disk,,7,-20,-6,1,0,0,rectangle,-20,-6,1,0,0,-20,-6,1,0,0,0,67,67,135,1,,,,,,,,
,,,,,,,,,,,,,FF,,,,,,,,0.797,,,,,,,,,,,,,,,,,,,,,,61035fdca8e42cfdbbca31f2,610364c6015507cf1849f4b3,2021-07-29_19h34.57.815,Simcolourproject_2stim_asymm_v5,2020.2.10,MacIntel,60,61025ae37ef11b136ea224fe,,,,,,,,,307,37,88,1,0,0,response1disk,,7,-3,-1,1,0,0,rectangle,-3,-1,1,0,0,-3,-1,1,0,0,0,68,68,91,1,,,,,,,,
,,,,,,,,,,,,,FF,,,,,,,,0.703,,,,,,,,,,,,,,,,,,,,,,61035fdca8e42cfdbbca31f2,610364c6015507cf1849f4b3,2021-07-29_19h34.57.815,Simcolourproject_2stim_asymm_v5,2020.2.10,MacIntel,60,61025ae37ef11b136ea224fe,,,,,,,,,1479,53,86,1,0,0,response1disk,,7,8,-1,1,0,0,rectangle,8,-1,1,0,0,8,-1,1,0,0,0,69,69,59,1,,,,,,,,
,,,,,,,,,,,,,FF,,,,,,,,0.686,,,,,,,,,,,,,,,,,,,,,,61035fdca8e42cfdbbca31f2,610364c6015507cf1849f4b3,2021-07-29_19h34.57.815,Simcolourproject_2stim_asymm_v5,2020.2.10,MacIntel,60,61025ae37ef11b136ea224fe,,,,,,,,,2589,54,83,1,0,0,response1disk,,7,-2,-14,1,0,0,rectangle,-33,109,1,0,0,-4,17,1,0,0,0,70,70,145,1,,response7disk_3,TRUE,0,0,"[81,42,149,216,263,301,311,317,115,71,104,135,305,101,56,316,106,170,79,271]",2.157,rectangle
,,,,,,,,,,,,,FF,,,,,,,,2.433,,,,,,,,,,,,,,,,,,,,,,61035fdca8e42cfdbbca31f2,610364c6015507cf1849f4b3,2021-07-29_19h34.57.815,Simcolourproject_2stim_asymm_v5,2020.2.10,MacIntel,60,61025ae37ef11b136ea224fe,,,,,,,,,2103,41,107,1,0,0,response1disk,,7,8,-6,1,0,0,rectangle,8,-6,1,0,0,8,-6,1,0,0,0,71,71,116,1,,,,,,,,
,,,,,,,,,,,,,FF,,,,,,,,3.024,,,,,,,,,,,,,,,,,,,,,,61035fdca8e42cfdbbca31f2,610364c6015507cf1849f4b3,2021-07-29_19h34.57.815,Simcolourproject_2stim_asymm_v5,2020.2.10,MacIntel,60,61025ae37ef11b136ea224fe,,,,,,,,,3658,22,83,1,0,0,response1disk,,7,-9,20,1,0,0,rectangle,-9,20,1,0,0,-9,20,1,0,0,0,72,72,74,1,,,,,,,,
,,,,,,,,,,,,,FF,,,,,,,,1.766,,,,,,,,,,,,,,,,,,,,,,61035fdca8e42cfdbbca31f2,610364c6015507cf1849f4b3,2021-07-29_19h34.57.815,Simcolourproject_2stim_asymm_v5,2020.2.10,MacIntel,60,61025ae37ef11b136ea224fe,,,,,,,,,2232,-49,-91,1,0,0,response5disk,,3,-2,8,1,0,0,rectangle,-2,8,1,0,0,-2,8,1,0,0,0,73,73,76,1,,,,,,,,
,,,,,,,,,,,,,FF,,,,,,,,24.497,,,,,,,,,,,,,,,,,,,,,,61035fdca8e42cfdbbca31f2,610364c6015507cf1849f4b3,2021-07-29_19h34.57.815,Simcolourproject_2stim_asymm_v5,2020.2.10,MacIntel,60,61025ae37ef11b136ea224fe,,,,,,,,,2191,48,88,1,0,0,response1disk,,7,0,-1,1,0,0,rectangle,0,-1,1,0,0,0,-1,1,0,0,0,74,74,48,1,,,,,,,,
,,,,,,,,,,,,,FF,,,,,,,,1.313,,,,,,,,,,,,,,,,,,,,,,61035fdca8e42cfdbbca31f2,610364c6015507cf1849f4b3,2021-07-29_19h34.57.815,Simcolourproject_2stim_asymm_v5,2020.2.10,MacIntel,60,61025ae37ef11b136ea224fe,,,,,,,,,2758,54,95,1,0,0,response1disk,,7,3,2,1,0,0,rectangle,3,2,1,0,0,3,2,1,0,0,0,75,75,29,1,,,,,,,,
,,,,,,,,,,,,,FF,,,,,,,,1.269,,,,,,,,,,,,,,,,,,,,,,61035fdca8e42cfdbbca31f2,610364c6015507cf1849f4b3,2021-07-29_19h34.57.815,Simcolourproject_2stim_asymm_v5,2020.2.10,MacIntel,60,61025ae37ef11b136ea224fe,,,,,,,,,3546,-88,50,1,0,0,response7disk,,1,10,13,1,0,0,rectangle,10,13,1,0,0,10,13,1,0,0,0,76,76,113,1,,,,,,,,
,,,,,,,,,,,,,FF,,,,,,,,0.824,,,,,,,,,,,,,,,,,,,,,,61035fdca8e42cfdbbca31f2,610364c6015507cf1849f4b3,2021-07-29_19h34.57.815,Simcolourproject_2stim_asymm_v5,2020.2.10,MacIntel,60,61025ae37ef11b136ea224fe,,,,,,,,,3452,71,134,1,0,0,response1disk,,7,-26,9,1,0,0,rectangle,-26,9,1,0,0,-26,9,1,0,0,0,77,77,21,1,,,,,,,,
,,,,,,,,,,,,,FF,,,,,,,,0.611,,,,,,,,,,,,,,,,,,,,,,61035fdca8e42cfdbbca31f2,610364c6015507cf1849f4b3,2021-07-29_19h34.57.815,Simcolourproject_2stim_asymm_v5,2020.2.10,MacIntel,60,61025ae37ef11b136ea224fe,,,,,,,,,2290,50,76,1,0,0,response1disk,,7,7,6,1,0,0,rectangle,100,40,1,0,0,5,2,1,0,0,0,78,78,156,1,,response1disk_3,TRUE,6,6,"[81,42,149,216,263,301,311,317,115,71,104,135,305,101,56,316,106,170,79,271]",1.605,rectangle
,,,,,,,,,,,,,FF,,,,,,,,1.004,,,,,,,,,,,,,,,,,,,,,,61035fdca8e42cfdbbca31f2,610364c6015507cf1849f4b3,2021-07-29_19h34.57.815,Simcolourproject_2stim_asymm_v5,2020.2.10,MacIntel,60,61025ae37ef11b136ea224fe,,,,,,,,,3654,58,83,1,0,0,response1disk,,7,19,13,1,0,0,rectangle,19,13,1,0,0,19,13,1,0,0,0,79,79,46,1,,,,,,,,
,,,,,,,,,,,,,FF,,,,,,,,0.758,,,,,,,,,,,,,,,,,,,,,,61035fdca8e42cfdbbca31f2,610364c6015507cf1849f4b3,2021-07-29_19h34.57.815,Simcolourproject_2stim_asymm_v5,2020.2.10,MacIntel,60,61025ae37ef11b136ea224fe,,,,,,,,,480,60,93,1,0,0,response1disk,,7,16,15,1,0,0,rectangle,-46,87,1,0,0,-18,6,1,0,0,0,80,80,45,1,,response7disk_3,TRUE,0,0,"[81,42,149,216,263,301,311,317,115,71,104,135,305,101,56,316,106,170,79,271]",2.148,rectangle
,,,,,,,,,,,,,FF,,,,,,,,0.786,,,,,,,,,,,,,,,,,,,,,,61035fdca8e42cfdbbca31f2,610364c6015507cf1849f4b3,2021-07-29_19h34.57.815,Simcolourproject_2stim_asymm_v5,2020.2.10,MacIntel,60,61025ae37ef11b136ea224fe,,,,,,,,,3540,38,85,1,0,0,response1disk,,7,-8,-2,1,0,0,rectangle,-8,-2,1,0,0,-8,-2,1,0,0,0,81,81,93,1,,,,,,,,
,,,,,,,,,,,,,FF,,,,,,,,0.843,,,,,,,,,,,,,,,,,,,,,,61035fdca8e42cfdbbca31f2,610364c6015507cf1849f4b3,2021-07-29_19h34.57.815,Simcolourproject_2stim_asymm_v5,2020.2.10,MacIntel,60,61025ae37ef11b136ea224fe,,,,,,,,,2498,64,110,1,0,0,response1disk,,7,10,8,1,0,0,rectangle,10,8,1,0,0,10,8,1,0,0,0,82,82,159,1,,,,,,,,
,,,,,,,,,,,,,FF,,,,,,,,0.598,,,,,,,,,,,,,,,,,,,,,,61035fdca8e42cfdbbca31f2,610364c6015507cf1849f4b3,2021-07-29_19h34.57.815,Simcolourproject_2stim_asymm_v5,2020.2.10,MacIntel,60,61025ae37ef11b136ea224fe,,,,,,,,,1022,64,86,1,0,0,response1disk,,7,32,16,1,0,0,rectangle,32,16,1,0,0,32,16,1,0,0,0,83,83,73,1,,,,,,,,
,,,,,,,,,,,,,FF,,,,,,,,1.759,,,,,,,,,,,,,,,,,,,,,,61035fdca8e42cfdbbca31f2,610364c6015507cf1849f4b3,2021-07-29_19h34.57.815,Simcolourproject_2stim_asymm_v5,2020.2.10,MacIntel,60,61025ae37ef11b136ea224fe,,,,,,,,,2986,85,-48,1,0,0,response3disk,,5,-13,15,1,0,0,rectangle,-13,15,1,0,0,-13,15,1,0,0,0,84,84,13,1,,,,,,,,
,,,,,,,,,,,,,FF,,,,,,,,1.012,,,,,,,,,,,,,,,,,,,,,,61035fdca8e42cfdbbca31f2,610364c6015507cf1849f4b3,2021-07-29_19h34.57.815,Simcolourproject_2stim_asymm_v5,2020.2.10,MacIntel,60,61025ae37ef11b136ea224fe,,,,,,,,,1669,31,82,1,0,0,response1disk,,7,-16,7,1,0,0,rectangle,-16,7,1,0,0,-16,7,1,0,0,0,85,85,31,1,,,,,,,,
,,,,,,,,,,,,,FF,,,,,,,,0.83,,,,,,,,,,,,,,,,,,,,,,61035fdca8e42cfdbbca31f2,610364c6015507cf1849f4b3,2021-07-29_19h34.57.815,Simcolourproject_2stim_asymm_v5,2020.2.10,MacIntel,60,61025ae37ef11b136ea224fe,,,,,,,,,946,44,92,1,0,0,response1disk,,7,-10,5,1,0,0,rectangle,-10,5,1,0,0,-10,5,1,0,0,0,86,86,110,1,,,,,,,,
,,,,,,,,,,,,,FF,,,,,,,,0.748,,,,,,,,,,,,,,,,,,,,,,61035fdca8e42cfdbbca31f2,610364c6015507cf1849f4b3,2021-07-29_19h34.57.815,Simcolourproject_2stim_asymm_v5,2020.2.10,MacIntel,60,61025ae37ef11b136ea224fe,,,,,,,,,203,42,90,1,0,0,response1disk,,7,4,8,1,0,0,rectangle,4,8,1,0,0,4,8,1,0,0,0,87,87,151,1,,,,,,,,
,,,,,,,,,,,,,FF,,,,,,,,1.065,,,,,,,,,,,,,,,,,,,,,,61035fdca8e42cfdbbca31f2,610364c6015507cf1849f4b3,2021-07-29_19h34.57.815,Simcolourproject_2stim_asymm_v5,2020.2.10,MacIntel,60,61025ae37ef11b136ea224fe,,,,,,,,,3480,-77,42,1,0,0,response7disk,,1,-8,4,1,0,0,rectangle,-8,4,1,0,0,-8,4,1,0,0,0,88,88,34,1,,,,,,,,
,,,,,,,,,,,,,FF,,,,,,,,0.744,,,,,,,,,,,,,,,,,,,,,,61035fdca8e42cfdbbca31f2,610364c6015507cf1849f4b3,2021-07-29_19h34.57.815,Simcolourproject_2stim_asymm_v5,2020.2.10,MacIntel,60,61025ae37ef11b136ea224fe,,,,,,,,,3732,40,82,1,0,0,response1disk,,7,-12,-8,1,0,0,rectangle,-12,-8,1,0,0,-12,-8,1,0,0,0,89,89,26,1,,,,,,,,
,,,,,,,,,,,,,FF,,,,,,,,1.42,,,,,,,,,,,,,,,,,,,,,,61035fdca8e42cfdbbca31f2,610364c6015507cf1849f4b3,2021-07-29_19h34.57.815,Simcolourproject_2stim_asymm_v5,2020.2.10,MacIntel,60,61025ae37ef11b136ea224fe,,,,,,,,,2393,30,91,1,0,0,response1disk,,7,-31,-16,1,0,0,rectangle,-31,-16,1,0,0,-31,-16,1,0,0,0,90,90,119,1,,,,,,,,
,,,,,,,,,,,,,FF,,,,,,,,1.433,,,,,,,,,,,,,,,,,,,,,,61035fdca8e42cfdbbca31f2,610364c6015507cf1849f4b3,2021-07-29_19h34.57.815,Simcolourproject_2stim_asymm_v5,2020.2.10,MacIntel,60,61025ae37ef11b136ea224fe,,,,,,,,,2846,-82,-45,1,0,0,response5disk,,2,-11,-1,1,0,0,rectangle,-11,-1,1,0,0,-11,-1,1,0,0,0,91,91,57,1,,,,,,,,
,,,,,,,,,,,,,FF,,,,,,,,0.797,,,,,,,,,,,,,,,,,,,,,,61035fdca8e42cfdbbca31f2,610364c6015507cf1849f4b3,2021-07-29_19h34.57.815,Simcolourproject_2stim_asymm_v5,2020.2.10,MacIntel,60,61025ae37ef11b136ea224fe,,,,,,,,,1478,60,78,1,0,0,response1disk,,7,22,-1,1,0,0,rectangle,22,-1,1,0,0,22,-1,1,0,0,0,92,92,12,1,,,,,,,,
,,,,,,,,,,,,,FF,,,,,,,,1.14,,,,,,,,,,,,,,,,,,,,,,61035fdca8e42cfdbbca31f2,610364c6015507cf1849f4b3,2021-07-29_19h34.57.815,Simcolourproject_2stim_asymm_v5,2020.2.10,MacIntel,60,61025ae37ef11b136ea224fe,,,,,,,,,723,-69,-31,1,0,0,response5disk,,2,13,16,1,0,0,rectangle,13,16,1,0,0,13,16,1,0,0,0,93,93,54,1,,,,,,,,
,,,,,,,,,,,,,FF,,,,,,,,0.858,,,,,,,,,,,,,,,,,,,,,,61035fdca8e42cfdbbca31f2,610364c6015507cf1849f4b3,2021-07-29_19h34.57.815,Simcolourproject_2stim_asymm_v5,2020.2.10,MacIntel,60,61025ae37ef11b136ea224fe,,,,,,,,,1056,-32,-51,1,0,0,response5disk,,3,-12,-13,1,0,0,rectangle,-12,-13,1,0,0,-12,-13,1,0,0,0,94,94,152,1,,,,,,,,
,,,,,,,,,,,,,FF,,,,,,,,1.152,,,,,,,,,,,,,,,,,,,,,,61035fdca8e42cfdbbca31f2,610364c6015507cf1849f4b3,2021-07-29_19h34.57.815,Simcolourproject_2stim_asymm_v5,2020.2.10,MacIntel,60,61025ae37ef11b136ea224fe,,,,,,,,,4023,23,64,1,0,0,response1disk,,7,-10,7,1,0,0,rectangle,-10,7,1,0,0,-10,7,1,0,0,0,95,95,150,1,,,,,,,,
,,,,,,,,,,,,,FF,,,,,,,,3.278,,,,,,,,,,,,,,,,,,,,,,61035fdca8e42cfdbbca31f2,610364c6015507cf1849f4b3,2021-07-29_19h34.57.815,Simcolourproject_2stim_asymm_v5,2020.2.10,MacIntel,60,61025ae37ef11b136ea224fe,,,,,,,,,148,73,56,1,0,0,response1disk,,6,-22,5,1,0,0,rectangle,-22,5,1,0,0,-22,5,1,0,0,0,96,96,53,1,,,,,,,,
,,,,,,,,,,,,,FF,,,,,,,,0.922,,,,,,,,,,,,,,,,,,,,,,61035fdca8e42cfdbbca31f2,610364c6015507cf1849f4b3,2021-07-29_19h34.57.815,Simcolourproject_2stim_asymm_v5,2020.2.10,MacIntel,60,61025ae37ef11b136ea224fe,,,,,,,,,922,38,99,1,0,0,response1disk,,7,3,4,1,0,0,rectangle,3,4,1,0,0,3,4,1,0,0,0,97,97,61,1,,,,,,,,
,,,,,,,,,,,,,FF,,,,,,,,2.493,,,,,,,,,,,,,,,,,,,,,,61035fdca8e42cfdbbca31f2,610364c6015507cf1849f4b3,2021-07-29_19h34.57.815,Simcolourproject_2stim_asymm_v5,2020.2.10,MacIntel,60,61025ae37ef11b136ea224fe,,,,,,,,,1394,50,87,1,0,0,response1disk,,7,0,-15,1,0,0,rectangle,0,-15,1,0,0,0,-15,1,0,0,0,98,98,65,1,,,,,,,,
,,,,,,,,,,,,,FF,,,,,,,,0.95,,,,,,,,,,,,,,,,,,,,,,61035fdca8e42cfdbbca31f2,610364c6015507cf1849f4b3,2021-07-29_19h34.57.815,Simcolourproject_2stim_asymm_v5,2020.2.10,MacIntel,60,61025ae37ef11b136ea224fe,,,,,,,,,4229,57,88,1,0,0,response1disk,,7,19,-1,1,0,0,rectangle,19,-1,1,0,0,19,-1,1,0,0,0,99,99,112,1,,,,,,,,
,,,,,,,,,,,,,FF,,,,,,,,6.075,,,,,,,,,,,,,,,,,,,,,,61035fdca8e42cfdbbca31f2,610364c6015507cf1849f4b3,2021-07-29_19h34.57.815,Simcolourproject_2stim_asymm_v5,2020.2.10,MacIntel,60,61025ae37ef11b136ea224fe,,,,,,,,,70,35,59,1,0,0,response1disk,,7,6,3,1,0,0,rectangle,68,28,1,0,0,-14,-18,1,0,0,0,100,100,94,1,,response1disk_3,TRUE,6,6,"[81,42,149,216,263,301,311,317,115,71,104,135,305,101,56,316,106,170,79,271]",1.898,rectangle
,,,,,,,,,,,,,FF,,,,,,,,2.115,,,,,,,,,,,,,,,,,,,,,,61035fdca8e42cfdbbca31f2,610364c6015507cf1849f4b3,2021-07-29_19h34.57.815,Simcolourproject_2stim_asymm_v5,2020.2.10,MacIntel,60,61025ae37ef11b136ea224fe,,,,,,,,,1310,-57,-87,1,0,0,response5disk,,3,-16,-12,1,0,0,rectangle,-16,-12,1,0,0,-16,-12,1,0,0,0,101,101,75,1,,,,,,,,
,,,,,,,,,,,,,FF,,,,,,,,1.73,,,,,,,,,,,,,,,,,,,,,,61035fdca8e42cfdbbca31f2,610364c6015507cf1849f4b3,2021-07-29_19h34.57.815,Simcolourproject_2stim_asymm_v5,2020.2.10,MacIntel,60,61025ae37ef11b136ea224fe,,,,,,,,,353,-106,49,1,0,0,response7disk,,1,-8,9,1,0,0,rectangle,-8,9,1,0,0,-8,9,1,0,0,0,102,102,5,1,,,,,,,,
,,,,,,,,,,,,,FF,,,,,,,,1.083,,,,,,,,,,,,,,,,,,,,,,61035fdca8e42cfdbbca31f2,610364c6015507cf1849f4b3,2021-07-29_19h34.57.815,Simcolourproject_2stim_asymm_v5,2020.2.10,MacIntel,60,61025ae37ef11b136ea224fe,,,,,,,,,3,-59,34,1,0,0,response7disk,,1,26,-1,1,0,0,rectangle,58,129,1,0,0,8,20,1,0,0,0,103,103,33,1,,response1disk_3,TRUE,7,7,"[81,42,149,216,263,301,311,317,115,71,104,135,305,101,56,316,106,170,79,271]",1.836,rectangle
,,,,,,,,,,,,,FF,,,,,,,,1.54,,,,,,,,,,,,,,,,,,,,,,61035fdca8e42cfdbbca31f2,610364c6015507cf1849f4b3,2021-07-29_19h34.57.815,Simcolourproject_2stim_asymm_v5,2020.2.10,MacIntel,60,61025ae37ef11b136ea224fe,,,,,,,,,2079,85,41,1,0,0,response1disk,,6,6,-10,1,0,0,rectangle,6,-10,1,0,0,6,-10,1,0,0,0,104,104,25,1,,,,,,,,
,,,,,,,,,,,,,FF,,,,,,,,1.503,,,,,,,,,,,,,,,,,,,,,,61035fdca8e42cfdbbca31f2,610364c6015507cf1849f4b3,2021-07-29_19h34.57.815,Simcolourproject_2stim_asymm_v5,2020.2.10,MacIntel,60,61025ae37ef11b136ea224fe,,,,,,,,,4189,94,-53,1,0,0,response3disk,,5,-9,4,1,0,0,rectangle,92,44,1,0,0,-8,-13,1,0,0,0,105,105,90,1,,response1disk_3,TRUE,6,6,"[81,42,149,216,263,301,311,317,115,71,104,135,305,101,56,316,106,170,79,271]",2.208,rectangle
,,,,,,,,,,,,,FF,,,,,,,,2.651,,,,,,,,,,,,,,,,,,,,,,61035fdca8e42cfdbbca31f2,610364c6015507cf1849f4b3,2021-07-29_19h34.57.815,Simcolourproject_2stim_asymm_v5,2020.2.10,MacIntel,60,61025ae37ef11b136ea224fe,,,,,,,,,155,54,69,1,0,0,response1disk,,7,20,8,1,0,0,rectangle,20,8,1,0,0,20,8,1,0,0,0,106,106,6,1,,,,,,,,
,,,,,,,,,,,,,FF,,,,,,,,1.27,,,,,,,,,,,,,,,,,,,,,,61035fdca8e42cfdbbca31f2,610364c6015507cf1849f4b3,2021-07-29_19h34.57.815,Simcolourproject_2stim_asymm_v5,2020.2.10,MacIntel,60,61025ae37ef11b136ea224fe,,,,,,,,,3469,-75,49,1,0,0,response7disk,,1,-20,18,1,0,0,rectangle,-20,18,1,0,0,-20,18,1,0,0,0,107,107,96,1,,,,,,,,
,,,,,,,,,,,,,FF,,,,,,,,0.974,,,,,,,,,,,,,,,,,,,,,,61035fdca8e42cfdbbca31f2,610364c6015507cf1849f4b3,2021-07-29_19h34.57.815,Simcolourproject_2stim_asymm_v5,2020.2.10,MacIntel,60,61025ae37ef11b136ea224fe,,,,,,,,,2641,40,114,1,0,0,response1disk,,7,-9,16,1,0,0,rectangle,-9,16,1,0,0,-9,16,1,0,0,0,108,108,4,1,,,,,,,,
,,,,,,,,,,,,,FF,,,,,,,,0.947,,,,,,,,,,,,,,,,,,,,,,61035fdca8e42cfdbbca31f2,610364c6015507cf1849f4b3,2021-07-29_19h34.57.815,Simcolourproject_2stim_asymm_v5,2020.2.10,MacIntel,60,61025ae37ef11b136ea224fe,,,,,,,,,2852,53,115,1,0,0,response1disk,,7,-5,3,1,0,0,rectangle,-5,3,1,0,0,-5,3,1,0,0,0,109,109,70,1,,,,,,,,
,,,,,,,,,,,,,FF,,,,,,,,2.062,,,,,,,,,,,,,,,,,,,,,,61035fdca8e42cfdbbca31f2,610364c6015507cf1849f4b3,2021-07-29_19h34.57.815,Simcolourproject_2stim_asymm_v5,2020.2.10,MacIntel,60,61025ae37ef11b136ea224fe,,,,,,,,,3058,96,-56,1,0,0,response3disk,,5,-12,6,1,0,0,rectangle,-12,6,1,0,0,-12,6,1,0,0,0,110,110,146,1,,,,,,,,
,,,,,,,,,,,,,FF,,,,,,,,1.223,,,,,,,,,,,,,,,,,,,,,,61035fdca8e42cfdbbca31f2,610364c6015507cf1849f4b3,2021-07-29_19h34.57.815,Simcolourproject_2stim_asymm_v5,2020.2.10,MacIntel,60,61025ae37ef11b136ea224fe,,,,,,,,,2399,23,91,1,0,0,response1disk,,7,-15,10,1,0,0,rectangle,-15,10,1,0,0,-15,10,1,0,0,0,111,111,22,1,,,,,,,,
,,,,,,,,,,,,,FF,,,,,,,,1.278,,,,,,,,,,,,,,,,,,,,,,61035fdca8e42cfdbbca31f2,610364c6015507cf1849f4b3,2021-07-29_19h34.57.815,Simcolourproject_2stim_asymm_v5,2020.2.10,MacIntel,60,61025ae37ef11b136ea224fe,,,,,,,,,3410,64,100,1,0,0,response1disk,,7,14,-2,1,0,0,rectangle,14,-2,1,0,0,14,-2,1,0,0,0,112,112,27,1,,,,,,,,
,,,,,,,,,,,,,FF,,,,,,,,2.932,,,,,,,,,,,,,,,,,,,,,,61035fdca8e42cfdbbca31f2,610364c6015507cf1849f4b3,2021-07-29_19h34.57.815,Simcolourproject_2stim_asymm_v5,2020.2.10,MacIntel,60,61025ae37ef11b136ea224fe,,,,,,,,,3462,56,35,1,0,0,response1disk,,6,13,0,1,0,0,rectangle,13,0,1,0,0,13,0,1,0,0,0,113,113,125,1,,,,,,,,
,,,,,,,,,,,,,FF,,,,,,,,0.992,,,,,,,,,,,,,,,,,,,,,,61035fdca8e42cfdbbca31f2,610364c6015507cf1849f4b3,2021-07-29_19h34.57.815,Simcolourproject_2stim_asymm_v5,2020.2.10,MacIntel,60,61025ae37ef11b136ea224fe,,,,,,,,,1439,49,102,1,0,0,response1disk,,7,2,3,1,0,0,rectangle,85,41,1,0,0,-11,-18,1,0,0,0,114,114,149,1,,response1disk_3,TRUE,6,6,"[81,42,149,216,263,301,311,317,115,71,104,135,305,101,56,316,106,170,79,271]",1.834,rectangle
,,,,,,,,,,,,,FF,,,,,,,,1.049,,,,,,,,,,,,,,,,,,,,,,61035fdca8e42cfdbbca31f2,610364c6015507cf1849f4b3,2021-07-29_19h34.57.815,Simcolourproject_2stim_asymm_v5,2020.2.10,MacIntel,60,61025ae37ef11b136ea224fe,,,,,,,,,3230,39,74,1,0,0,response1disk,,7,-11,-18,1,0,0,rectangle,-11,-18,1,0,0,-11,-18,1,0,0,0,115,115,17,1,,,,,,,,
,,,,,,,,,,,,,FF,,,,,,,,0.765,,,,,,,,,,,,,,,,,,,,,,61035fdca8e42cfdbbca31f2,610364c6015507cf1849f4b3,2021-07-29_19h34.57.815,Simcolourproject_2stim_asymm_v5,2020.2.10,MacIntel,60,61025ae37ef11b136ea224fe,,,,,,,,,4271,43,91,1,0,0,response1disk,,7,-5,5,1,0,0,rectangle,-5,5,1,0,0,-5,5,1,0,0,0,116,116,115,1,,,,,,,,
,,,,,,,,,,,,,FF,,,,,,,,0.666,,,,,,,,,,,,,,,,,,,,,,61035fdca8e42cfdbbca31f2,610364c6015507cf1849f4b3,2021-07-29_19h34.57.815,Simcolourproject_2stim_asymm_v5,2020.2.10,MacIntel,60,61025ae37ef11b136ea224fe,,,,,,,,,913,56,96,1,0,0,response1disk,,7,13,16,1,0,0,rectangle,13,16,1,0,0,13,16,1,0,0,0,117,117,99,1,,,,,,,,
,,,,,,,,,,,,,FF,,,,,,,,1.511,,,,,,,,,,,,,,,,,,,,,,61035fdca8e42cfdbbca31f2,610364c6015507cf1849f4b3,2021-07-29_19h34.57.815,Simcolourproject_2stim_asymm_v5,2020.2.10,MacIntel,60,61025ae37ef11b136ea224fe,,,,,,,,,2039,70,-32,1,0,0,response3disk,,5,-30,16,1,0,0,rectangle,-30,16,1,0,0,-30,16,1,0,0,0,118,118,32,1,,,,,,,,
,,,,,,,,,,,,,FF,,,,,,,,0.753,,,,,,,,,,,,,,,,,,,,,,61035fdca8e42cfdbbca31f2,610364c6015507cf1849f4b3,2021-07-29_19h34.57.815,Simcolourproject_2stim_asymm_v5,2020.2.10,MacIntel,60,61025ae37ef11b136ea224fe,,,,,,,,,1647,30,100,1,0,0,response1disk,,7,-9,17,1,0,0,rectangle,-9,17,1,0,0,-9,17,1,0,0,0,119,119,30,1,,,,,,,,
,,,,,,,,,,,,,FF,,,,,,,,0.767,,,,,,,,,,,,,,,,,,,,,,61035fdca8e42cfdbbca31f2,610364c6015507cf1849f4b3,2021-07-29_19h34.57.815,Simcolourproject_2stim_asymm_v5,2020.2.10,MacIntel,60,61025ae37ef11b136ea224fe,,,,,,,,,979,58,112,1,0,0,response1disk,,7,2,-1,1,0,0,rectangle,2,-1,1,0,0,2,-1,1,0,0,0,120,120,97,1,,,,,,,,
,,,,,,,,,,,,,FF,,,,,,,,0.879,,,,,,,,,,,,,,,,,,,,,,61035fdca8e42cfdbbca31f2,610364c6015507cf1849f4b3,2021-07-29_19h34.57.815,Simcolourproject_2stim_asymm_v5,2020.2.10,MacIntel,60,61025ae37ef11b136ea224fe,,,,,,,,,4215,62,95,1,0,0,response1disk,,7,12,-17,1,0,0,rectangle,12,-17,1,0,0,12,-17,1,0,0,0,121,121,84,1,,,,,,,,
,,,,,,,,,,,,,FF,,,,,,,,1.132,,,,,,,,,,,,,,,,,,,,,,61035fdca8e42cfdbbca31f2,610364c6015507cf1849f4b3,2021-07-29_19h34.57.815,Simcolourproject_2stim_asymm_v5,2020.2.10,MacIntel,60,61025ae37ef11b136ea224fe,,,,,,,,,3576,46,107,1,0,0,response1disk,,7,26,8,1,0,0,rectangle,26,8,1,0,0,26,8,1,0,0,0,122,122,20,1,,,,,,,,
,,,,,,,,,,,,,FF,,,,,,,,1.013,,,,,,,,,,,,,,,,,,,,,,61035fdca8e42cfdbbca31f2,610364c6015507cf1849f4b3,2021-07-29_19h34.57.815,Simcolourproject_2stim_asymm_v5,2020.2.10,MacIntel,60,61025ae37ef11b136ea224fe,,,,,,,,,2971,37,88,1,0,0,response1disk,,7,-7,-7,1,0,0,rectangle,-7,-7,1,0,0,-7,-7,1,0,0,0,123,123,134,1,,,,,,,,
,,,,,,,,,,,,,FF,,,,,,,,2.247,,,,,,,,,,,,,,,,,,,,,,61035fdca8e42cfdbbca31f2,610364c6015507cf1849f4b3,2021-07-29_19h34.57.815,Simcolourproject_2stim_asymm_v5,2020.2.10,MacIntel,60,61025ae37ef11b136ea224fe,,,,,,,,,3556,-59,-107,1,0,0,response5disk,,3,-20,9,1,0,0,rectangle,-20,9,1,0,0,-20,9,1,0,0,0,124,124,72,1,,,,,,,,
,,,,,,,,,,,,,FF,,,,,,,,1.836,,,,,,,,,,,,,,,,,,,,,,61035fdca8e42cfdbbca31f2,610364c6015507cf1849f4b3,2021-07-29_19h34.57.815,Simcolourproject_2stim_asymm_v5,2020.2.10,MacIntel,60,61025ae37ef11b136ea224fe,,,,,,,,,3458,38,76,1,0,0,response1disk,,7,15,-14,1,0,0,rectangle,15,-14,1,0,0,15,-14,1,0,0,0,125,125,98,1,,,,,,,,
,,,,,,,,,,,,,FF,,,,,,,,0.777,,,,,,,,,,,,,,,,,,,,,,61035fdca8e42cfdbbca31f2,610364c6015507cf1849f4b3,2021-07-29_19h34.57.815,Simcolourproject_2stim_asymm_v5,2020.2.10,MacIntel,60,61025ae37ef11b136ea224fe,,,,,,,,,13,51,78,1,0,0,response1disk,,7,4,-6,1,0,0,rectangle,4,-6,1,0,0,4,-6,1,0,0,0,126,126,80,1,,,,,,,,
,,,,,,,,,,,,,FF,,,,,,,,1.772,,,,,,,,,,,,,,,,,,,,,,61035fdca8e42cfdbbca31f2,610364c6015507cf1849f4b3,2021-07-29_19h34.57.815,Simcolourproject_2stim_asymm_v5,2020.2.10,MacIntel,60,61025ae37ef11b136ea224fe,,,,,,,,,2880,58,-65,1,0,0,response3disk,,4,28,-16,1,0,0,rectangle,28,-16,1,0,0,28,-16,1,0,0,0,127,127,142,1,,,,,,,,
,,,,,,,,,,,,,FF,,,,,,,,0.757,,,,,,,,,,,,,,,,,,,,,,61035fdca8e42cfdbbca31f2,610364c6015507cf1849f4b3,2021-07-29_19h34.57.815,Simcolourproject_2stim_asymm_v5,2020.2.10,MacIntel,60,61025ae37ef11b136ea224fe,,,,,,,,,2526,56,86,1,0,0,response1disk,,7,6,5,1,0,0,rectangle,6,5,1,0,0,6,5,1,0,0,0,128,128,87,1,,,,,,,,
,,,,,,,,,,,,,FF,,,,,,,,1.536,,,,,,,,,,,,,,,,,,,,,,61035fdca8e42cfdbbca31f2,610364c6015507cf1849f4b3,2021-07-29_19h34.57.815,Simcolourproject_2stim_asymm_v5,2020.2.10,MacIntel,60,61025ae37ef11b136ea224fe,,,,,,,,,1296,-26,-94,1,0,0,response5disk,,3,9,-8,1,0,0,rectangle,9,-8,1,0,0,9,-8,1,0,0,0,129,129,40,1,,,,,,,,
,,,,,,,,,,,,,FF,,,,,,,,0.765,,,,,,,,,,,,,,,,,,,,,,61035fdca8e42cfdbbca31f2,610364c6015507cf1849f4b3,2021-07-29_19h34.57.815,Simcolourproject_2stim_asymm_v5,2020.2.10,MacIntel,60,61025ae37ef11b136ea224fe,,,,,,,,,1144,61,87,1,0,0,response1disk,,7,13,8,1,0,0,rectangle,13,8,1,0,0,13,8,1,0,0,0,130,130,68,1,,,,,,,,
,,,,,,,,,,,,,FF,,,,,,,,0.914,,,,,,,,,,,,,,,,,,,,,,61035fdca8e42cfdbbca31f2,610364c6015507cf1849f4b3,2021-07-29_19h34.57.815,Simcolourproject_2stim_asymm_v5,2020.2.10,MacIntel,60,61025ae37ef11b136ea224fe,,,,,,,,,2539,47,90,1,0,0,response1disk,,7,1,1,1,0,0,rectangle,1,1,1,0,0,1,1,1,0,0,0,131,131,56,1,,,,,,,,
,,,,,,,,,,,,,FF,,,,,,,,1.488,,,,,,,,,,,,,,,,,,,,,,61035fdca8e42cfdbbca31f2,610364c6015507cf1849f4b3,2021-07-29_19h34.57.815,Simcolourproject_2stim_asymm_v5,2020.2.10,MacIntel,60,61025ae37ef11b136ea224fe,,,,,,,,,3638,40,95,1,0,0,response1disk,,7,-4,6,1,0,0,rectangle,-4,6,1,0,0,-4,6,1,0,0,0,132,132,35,1,,,,,,,,
,,,,,,,,,,,,,FF,,,,,,,,0.935,,,,,,,,,,,,,,,,,,,,,,61035fdca8e42cfdbbca31f2,610364c6015507cf1849f4b3,2021-07-29_19h34.57.815,Simcolourproject_2stim_asymm_v5,2020.2.10,MacIntel,60,61025ae37ef11b136ea224fe,,,,,,,,,4277,49,98,1,0,0,response1disk,,7,-24,-9,1,0,0,rectangle,-24,-9,1,0,0,-24,-9,1,0,0,0,133,133,81,1,,,,,,,,
,,,,,,,,,,,,,FF,,,,,,,,1.271,,,,,,,,,,,,,,,,,,,,,,61035fdca8e42cfdbbca31f2,610364c6015507cf1849f4b3,2021-07-29_19h34.57.815,Simcolourproject_2stim_asymm_v5,2020.2.10,MacIntel,60,61025ae37ef11b136ea224fe,,,,,,,,,4058,76,-29,1,0,0,response3disk,,5,-16,8,1,0,0,rectangle,51,81,1,0,0,-5,-1,1,0,0,0,134,134,39,1,,response1disk_3,TRUE,7,0,"[81,42,149,216,263,301,311,317,115,71,104,135,305,101,56,316,106,170,79,271]",1.471,rectangle
,,,,,,,,,,,,,FF,,,,,,,,1.276,,,,,,,,,,,,,,,,,,,,,,61035fdca8e42cfdbbca31f2,610364c6015507cf1849f4b3,2021-07-29_19h34.57.815,Simcolourproject_2stim_asymm_v5,2020.2.10,MacIntel,60,61025ae37ef11b136ea224fe,,,,,,,,,3969,53,73,1,0,0,response1disk,,7,-3,-12,1,0,0,rectangle,-3,-12,1,0,0,-3,-12,1,0,0,0,135,135,106,1,,,,,,,,
,,,,,,,,,,,,,FF,,,,,,,,0.887,,,,,,,,,,,,,,,,,,,,,,61035fdca8e42cfdbbca31f2,610364c6015507cf1849f4b3,2021-07-29_19h34.57.815,Simcolourproject_2stim_asymm_v5,2020.2.10,MacIntel,60,61025ae37ef11b136ea224fe,,,,,,,,,1997,58,78,1,0,0,response1disk,,7,20,11,1,0,0,rectangle,20,11,1,0,0,20,11,1,0,0,0,136,136,158,1,,,,,,,,
,,,,,,,,,,,,,FF,,,,,,,,0.855,,,,,,,,,,,,,,,,,,,,,,61035fdca8e42cfdbbca31f2,610364c6015507cf1849f4b3,2021-07-29_19h34.57.815,Simcolourproject_2stim_asymm_v5,2020.2.10,MacIntel,60,61025ae37ef11b136ea224fe,,,,,,,,,1884,58,81,1,0,0,response1disk,,7,25,9,1,0,0,rectangle,25,9,1,0,0,25,9,1,0,0,0,137,137,64,1,,,,,,,,
,,,,,,,,,,,,,FF,,,,,,,,0.807,,,,,,,,,,,,,,,,,,,,,,61035fdca8e42cfdbbca31f2,610364c6015507cf1849f4b3,2021-07-29_19h34.57.815,Simcolourproject_2stim_asymm_v5,2020.2.10,MacIntel,60,61025ae37ef11b136ea224fe,,,,,,,,,3895,36,88,1,0,0,response1disk,,7,-15,-4,1,0,0,rectangle,-15,-4,1,0,0,-15,-4,1,0,0,0,138,138,138,1,,,,,,,,
,,,,,,,,,,,,,FF,,,,,,,,1.081,,,,,,,,,,,,,,,,,,,,,,61035fdca8e42cfdbbca31f2,610364c6015507cf1849f4b3,2021-07-29_19h34.57.815,Simcolourproject_2stim_asymm_v5,2020.2.10,MacIntel,60,61025ae37ef11b136ea224fe,,,,,,,,,1830,44,71,1,0,0,response1disk,,7,13,-4,1,0,0,rectangle,13,-4,1,0,0,13,-4,1,0,0,0,139,139,37,1,,,,,,,,
,,,,,,,,,,,,,FF,,,,,,,,0.847,,,,,,,,,,,,,,,,,,,,,,61035fdca8e42cfdbbca31f2,610364c6015507cf1849f4b3,2021-07-29_19h34.57.815,Simcolourproject_2stim_asymm_v5,2020.2.10,MacIntel,60,61025ae37ef11b136ea224fe,,,,,,,,,1712,50,92,1,0,0,response1disk,,7,-1,-7,1,0,0,rectangle,-1,-7,1,0,0,-1,-7,1,0,0,0,140,140,63,1,,,,,,,,
,,,,,,,,,,,,,FF,,,,,,,,1.96,,,,,,,,,,,,,,,,,,,,,,61035fdca8e42cfdbbca31f2,610364c6015507cf1849f4b3,2021-07-29_19h34.57.815,Simcolourproject_2stim_asymm_v5,2020.2.10,MacIntel,60,61025ae37ef11b136ea224fe,,,,,,,,,3403,22,80,1,0,0,response1disk,,7,-13,3,1,0,0,rectangle,-13,3,1,0,0,-13,3,1,0,0,0,141,141,82,1,,,,,,,,
,,,,,,,,,,,,,FF,,,,,,,,0.743,,,,,,,,,,,,,,,,,,,,,,61035fdca8e42cfdbbca31f2,610364c6015507cf1849f4b3,2021-07-29_19h34.57.815,Simcolourproject_2stim_asymm_v5,2020.2.10,MacIntel,60,61025ae37ef11b136ea224fe,,,,,,,,,773,39,70,1,0,0,response1disk,,7,3,4,1,0,0,rectangle,3,4,1,0,0,3,4,1,0,0,0,142,142,103,1,,,,,,,,
,,,,,,,,,,,,,FF,,,,,,,,0.744,,,,,,,,,,,,,,,,,,,,,,61035fdca8e42cfdbbca31f2,610364c6015507cf1849f4b3,2021-07-29_19h34.57.815,Simcolourproject_2stim_asymm_v5,2020.2.10,MacIntel,60,61025ae37ef11b136ea224fe,,,,,,,,,346,49,69,1,0,0,response1disk,,7,11,-5,1,0,0,rectangle,11,-5,1,0,0,11,-5,1,0,0,0,143,143,15,1,,,,,,,,
,,,,,,,,,,,,,FF,,,,,,,,0.789,,,,,,,,,,,,,,,,,,,,,,61035fdca8e42cfdbbca31f2,610364c6015507cf1849f4b3,2021-07-29_19h34.57.815,Simcolourproject_2stim_asymm_v5,2020.2.10,MacIntel,60,61025ae37ef11b136ea224fe,,,,,,,,,2265,40,43,1,0,0,response1disk,,7,22,2,1,0,0,rectangle,22,2,1,0,0,22,2,1,0,0,0,144,144,18,1,,,,,,,,
,,,,,,,,,,,,,FF,,,,,,,,0.816,,,,,,,,,,,,,,,,,,,,,,61035fdca8e42cfdbbca31f2,610364c6015507cf1849f4b3,2021-07-29_19h34.57.815,Simcolourproject_2stim_asymm_v5,2020.2.10,MacIntel,60,61025ae37ef11b136ea224fe,,,,,,,,,1951,32,87,1,0,0,response1disk,,7,-8,-5,1,0,0,rectangle,-8,-5,1,0,0,-8,-5,1,0,0,0,145,145,128,1,,,,,,,,
,,,,,,,,,,,,,FF,,,,,,,,2.27,,,,,,,,,,,,,,,,,,,,,,61035fdca8e42cfdbbca31f2,610364c6015507cf1849f4b3,2021-07-29_19h34.57.815,Simcolourproject_2stim_asymm_v5,2020.2.10,MacIntel,60,61025ae37ef11b136ea224fe,,,,,,,,,2631,47,137,1,0,0,response1disk,,7,-10,11,1,0,0,rectangle,-10,11,1,0,0,-10,11,1,0,0,0,146,146,102,1,,,,,,,,
,,,,,,,,,,,,,FF,,,,,,,,0.764,,,,,,,,,,,,,,,,,,,,,,61035fdca8e42cfdbbca31f2,610364c6015507cf1849f4b3,2021-07-29_19h34.57.815,Simcolourproject_2stim_asymm_v5,2020.2.10,MacIntel,60,61025ae37ef11b136ea224fe,,,,,,,,,2007,28,82,1,0,0,response1disk,,7,-22,2,1,0,0,rectangle,-22,2,1,0,0,-22,2,1,0,0,0,147,147,137,1,,,,,,,,
,,,,,,,,,,,,,FF,,,,,,,,1.839,,,,,,,,,,,,,,,,,,,,,,61035fdca8e42cfdbbca31f2,610364c6015507cf1849f4b3,2021-07-29_19h34.57.815,Simcolourproject_2stim_asymm_v5,2020.2.10,MacIntel,60,61025ae37ef11b136ea224fe,,,,,,,,,185,-99,59,1,0,0,response7disk,,1,4,16,1,0,0,rectangle,83,-50,1,0,0,-7,5,1,0,0,0,148,148,28,1,,response3disk_3,TRUE,5,5,"[81,42,149,216,263,301,311,317,115,71,104,135,305,101,56,316,106,170,79,271]",1.865,rectangle
,,,,,,,,,,,,,FF,,,,,,,,1.06,,,,,,,,,,,,,,,,,,,,,,61035fdca8e42cfdbbca31f2,610364c6015507cf1849f4b3,2021-07-29_19h34.57.815,Simcolourproject_2stim_asymm_v5,2020.2.10,MacIntel,60,61025ae37ef11b136ea224fe,,,,,,,,,3733,44,99,1,0,0,response1disk,,7,-16,-9,1,0,0,rectangle,-16,-9,1,0,0,-16,-9,1,0,0,0,149,149,43,1,,,,,,,,
,,,,,,,,,,,,,FF,,,,,,,,0.693,,,,,,,,,,,,,,,,,,,,,,61035fdca8e42cfdbbca31f2,610364c6015507cf1849f4b3,2021-07-29_19h34.57.815,Simcolourproject_2stim_asymm_v5,2020.2.10,MacIntel,60,61025ae37ef11b136ea224fe,,,,,,,,,3636,24,74,1,0,0,response1disk,,7,-20,-14,1,0,0,rectangle,-20,-14,1,0,0,-20,-14,1,0,0,0,150,150,49,1,,,,,,,,
,,,,,,,,,,,,,FF,,,,,,,,0.516,,,,,,,,,,,,,,,,,,,,,,61035fdca8e42cfdbbca31f2,610364c6015507cf1849f4b3,2021-07-29_19h34.57.815,Simcolourproject_2stim_asymm_v5,2020.2.10,MacIntel,60,61025ae37ef11b136ea224fe,,,,,,,,,64,52,88,1,0,0,response1disk,,7,17,16,1,0,0,rectangle,17,16,1,0,0,17,16,1,0,0,0,151,151,130,1,,,,,,,,
,,,,,,,,,,,,,FF,,,,,,,,1.799,,,,,,,,,,,,,,,,,,,,,,61035fdca8e42cfdbbca31f2,610364c6015507cf1849f4b3,2021-07-29_19h34.57.815,Simcolourproject_2stim_asymm_v5,2020.2.10,MacIntel,60,61025ae37ef11b136ea224fe,,,,,,,,,4345,-85,-45,1,0,0,response5disk,,2,-32,-12,1,0,0,rectangle,-32,-12,1,0,0,-32,-12,1,0,0,0,152,152,132,1,,,,,,,,
,,,,,,,,,,,,,FF,,,,,,,,0.917,,,,,,,,,,,,,,,,,,,,,,61035fdca8e42cfdbbca31f2,610364c6015507cf1849f4b3,2021-07-29_19h34.57.815,Simcolourproject_2stim_asymm_v5,2020.2.10,MacIntel,60,61025ae37ef11b136ea224fe,,,,,,,,,2258,26,105,1,0,0,response1disk,,7,-22,9,1,0,0,rectangle,-22,9,1,0,0,-22,9,1,0,0,0,153,153,52,1,,,,,,,,
,,,,,,,,,,,,,FF,,,,,,,,0.693,,,,,,,,,,,,,,,,,,,,,,61035fdca8e42cfdbbca31f2,610364c6015507cf1849f4b3,2021-07-29_19h34.57.815,Simcolourproject_2stim_asymm_v5,2020.2.10,MacIntel,60,61025ae37ef11b136ea224fe,,,,,,,,,1638,48,109,1,0,0,response1disk,,7,-7,2,1,0,0,rectangle,-7,2,1,0,0,-7,2,1,0,0,0,154,154,16,1,,,,,,,,
,,,,,,,,,,,,,FF,,,,,,,,0.823,,,,,,,,,,,,,,,,,,,,,,61035fdca8e42cfdbbca31f2,610364c6015507cf1849f4b3,2021-07-29_19h34.57.815,Simcolourproject_2stim_asymm_v5,2020.2.10,MacIntel,60,61025ae37ef11b136ea224fe,,,,,,,,,4172,52,93,1,0,0,response1disk,,7,-5,-2,1,0,0,rectangle,-5,-2,1,0,0,-5,-2,1,0,0,0,155,155,42,1,,,,,,,,
,,,,,,,,,,,,,FF,,,,,,,,0.769,,,,,,,,,,,,,,,,,,,,,,61035fdca8e42cfdbbca31f2,610364c6015507cf1849f4b3,2021-07-29_19h34.57.815,Simcolourproject_2stim_asymm_v5,2020.2.10,MacIntel,60,61025ae37ef11b136ea224fe,,,,,,,,,3026,60,114,1,0,0,response1disk,,7,-4,1,1,0,0,rectangle,-4,1,1,0,0,-4,1,1,0,0,0,156,156,9,1,,,,,,,,
,,,,,,,,,,,,,FF,,,,,,,,0.624,,,,,,,,,,,,,,,,,,,,,,61035fdca8e42cfdbbca31f2,610364c6015507cf1849f4b3,2021-07-29_19h34.57.815,Simcolourproject_2stim_asymm_v5,2020.2.10,MacIntel,60,61025ae37ef11b136ea224fe,,,,,,,,,470,43,96,1,0,0,response1disk,,7,-4,7,1,0,0,rectangle,-4,7,1,0,0,-4,7,1,0,0,0,157,157,38,1,,,,,,,,
,,,,,,,,,,,,,FF,,,,,,,,2.264,,,,,,,,,,,,,,,,,,,,,,61035fdca8e42cfdbbca31f2,610364c6015507cf1849f4b3,2021-07-29_19h34.57.815,Simcolourproject_2stim_asymm_v5,2020.2.10,MacIntel,60,61025ae37ef11b136ea224fe,,,,,,,,,2769,-55,-106,1,0,0,response5disk,,3,-14,7,1,0,0,rectangle,-14,7,1,0,0,-14,7,1,0,0,0,158,158,77,1,,,,,,,,
,,,,,,,,,,,,,FF,,,,,,,,1.541,,,,,,,,,,,,,,,,,,,,,,61035fdca8e42cfdbbca31f2,610364c6015507cf1849f4b3,2021-07-29_19h34.57.815,Simcolourproject_2stim_asymm_v5,2020.2.10,MacIntel,60,61025ae37ef11b136ea224fe,,,,,,,,,3090,-67,-139,1,0,0,response5disk,,3,-9,-13,1,0,0,rectangle,-9,-13,1,0,0,-9,-13,1,0,0,0,159,159,101,1,,,,,,,,
,,,,,,,,,,,,,FF,,,,,,,,1.099,,,,,,,,,,,,,,,,,,,,,,61035fdca8e42cfdbbca31f2,610364c6015507cf1849f4b3,2021-07-29_19h34.57.815,Simcolourproject_2stim_asymm_v5,2020.2.10,MacIntel,60,61025ae37ef11b136ea224fe,,,,,,,,,1474,60,123,1,0,0,response1disk,,7,-8,21,1,0,0,rectangle,-8,21,1,0,0,-8,21,1,0,0,1,0,160,1,1,,,,,,,,
,,,,,,,,,,,,,FF,,,,,,,,1.557,,,,,,,,,,,,,,,,,,,,,,61035fdca8e42cfdbbca31f2,610364c6015507cf1849f4b3,2021-07-29_19h34.57.815,Simcolourproject_2stim_asymm_v5,2020.2.10,MacIntel,60,61025ae37ef11b136ea224fe,,,,,,,,,2789,-76,-138,1,0,0,response5disk,,3,7,12,1,0,0,rectangle,7,12,1,0,0,7,12,1,0,0,1,1,161,102,1,,,,,,,,
,,,,,,,,,,,,,FF,,,,,,,,1.602,,,,,,,,,,,,,,,,,,,,,,61035fdca8e42cfdbbca31f2,610364c6015507cf1849f4b3,2021-07-29_19h34.57.815,Simcolourproject_2stim_asymm_v5,2020.2.10,MacIntel,60,61025ae37ef11b136ea224fe,,,,,,,,,3285,-38,-77,1,0,0,response5disk,,3,-10,-17,1,0,0,rectangle,-10,-17,1,0,0,-10,-17,1,0,0,1,2,162,137,1,,,,,,,,
,,,,,,,,,,,,,FF,,,,,,,,0.686,,,,,,,,,,,,,,,,,,,,,,61035fdca8e42cfdbbca31f2,610364c6015507cf1849f4b3,2021-07-29_19h34.57.815,Simcolourproject_2stim_asymm_v5,2020.2.10,MacIntel,60,61025ae37ef11b136ea224fe,,,,,,,,,2118,43,104,1,0,0,response1disk,,7,-16,0,1,0,0,rectangle,-16,0,1,0,0,-16,0,1,0,0,1,3,163,15,1,,,,,,,,
,,,,,,,,,,,,,FF,,,,,,,,0.892,,,,,,,,,,,,,,,,,,,,,,61035fdca8e42cfdbbca31f2,610364c6015507cf1849f4b3,2021-07-29_19h34.57.815,Simcolourproject_2stim_asymm_v5,2020.2.10,MacIntel,60,61025ae37ef11b136ea224fe,,,,,,,,,4063,49,89,1,0,0,response1disk,,7,-44,-10,1,0,0,rectangle,-44,-10,1,0,0,-44,-10,1,0,0,1,4,164,22,1,,,,,,,,
,,,,,,,,,,,,,FF,,,,,,,,0.907,,,,,,,,,,,,,,,,,,,,,,61035fdca8e42cfdbbca31f2,610364c6015507cf1849f4b3,2021-07-29_19h34.57.815,Simcolourproject_2stim_asymm_v5,2020.2.10,MacIntel,60,61025ae37ef11b136ea224fe,,,,,,,,,931,44,83,1,0,0,response1disk,,7,-11,-1,1,0,0,rectangle,-11,-1,1,0,0,-11,-1,1,0,0,1,5,165,110,1,,,,,,,,
,,,,,,,,,,,,,FF,,,,,,,,0.815,,,,,,,,,,,,,,,,,,,,,,61035fdca8e42cfdbbca31f2,610364c6015507cf1849f4b3,2021-07-29_19h34.57.815,Simcolourproject_2stim_asymm_v5,2020.2.10,MacIntel,60,61025ae37ef11b136ea224fe,,,,,,,,,2762,53,94,1,0,0,response1disk,,7,-2,-8,1,0,0,rectangle,-2,-8,1,0,0,-2,-8,1,0,0,1,6,166,142,1,,,,,,,,
,,,,,,,,,,,,,FF,,,,,,,,0.672,,,,,,,,,,,,,,,,,,,,,,61035fdca8e42cfdbbca31f2,610364c6015507cf1849f4b3,2021-07-29_19h34.57.815,Simcolourproject_2stim_asymm_v5,2020.2.10,MacIntel,60,61025ae37ef11b136ea224fe,,,,,,,,,51,55,76,1,0,0,response1disk,,7,26,6,1,0,0,rectangle,26,6,1,0,0,26,6,1,0,0,1,7,167,115,1,,,,,,,,
,,,,,,,,,,,,,FF,,,,,,,,0.822,,,,,,,,,,,,,,,,,,,,,,61035fdca8e42cfdbbca31f2,610364c6015507cf1849f4b3,2021-07-29_19h34.57.815,Simcolourproject_2stim_asymm_v5,2020.2.10,MacIntel,60,61025ae37ef11b136ea224fe,,,,,,,,,2273,46,82,1,0,0,response1disk,,7,9,0,1,0,0,rectangle,9,0,1,0,0,9,0,1,0,0,1,8,168,100,1,,,,,,,,
,,,,,,,,,,,,,FF,,,,,,,,2.083,,,,,,,,,,,,,,,,,,,,,,61035fdca8e42cfdbbca31f2,610364c6015507cf1849f4b3,2021-07-29_19h34.57.815,Simcolourproject_2stim_asymm_v5,2020.2.10,MacIntel,60,61025ae37ef11b136ea224fe,,,,,,,,,1411,43,82,1,0,0,response1disk,,7,6,-10,1,0,0,rectangle,-63,-55,1,0,0,6,8,1,0,0,1,9,169,114,1,,response5disk_3,TRUE,2,2,"[81,42,149,216,263,301,311,317,115,71,104,135,305,101,56,316,106,170,79,271]",2.114,rectangle
,,,,,,,,,,,,,FF,,,,,,,,0.857,,,,,,,,,,,,,,,,,,,,,,61035fdca8e42cfdbbca31f2,610364c6015507cf1849f4b3,2021-07-29_19h34.57.815,Simcolourproject_2stim_asymm_v5,2020.2.10,MacIntel,60,61025ae37ef11b136ea224fe,,,,,,,,,1466,57,121,1,0,0,response1disk,,7,-5,2,1,0,0,rectangle,-5,2,1,0,0,-5,2,1,0,0,1,10,170,159,1,,,,,,,,
,,,,,,,,,,,,,FF,,,,,,,,0.684,,,,,,,,,,,,,,,,,,,,,,61035fdca8e42cfdbbca31f2,610364c6015507cf1849f4b3,2021-07-29_19h34.57.815,Simcolourproject_2stim_asymm_v5,2020.2.10,MacIntel,60,61025ae37ef11b136ea224fe,,,,,,,,,4081,52,102,1,0,0,response1disk,,7,7,13,1,0,0,rectangle,7,13,1,0,0,7,13,1,0,0,1,11,171,43,1,,,,,,,,
,,,,,,,,,,,,,FF,,,,,,,,1.348,,,,,,,,,,,,,,,,,,,,,,61035fdca8e42cfdbbca31f2,610364c6015507cf1849f4b3,2021-07-29_19h34.57.815,Simcolourproject_2stim_asymm_v5,2020.2.10,MacIntel,60,61025ae37ef11b136ea224fe,,,,,,,,,3909,-44,-89,1,0,0,response5disk,,3,-3,3,1,0,0,rectangle,-3,3,1,0,0,-3,3,1,0,0,1,12,172,130,1,,,,,,,,
,,,,,,,,,,,,,FF,,,,,,,,0.719,,,,,,,,,,,,,,,,,,,,,,61035fdca8e42cfdbbca31f2,610364c6015507cf1849f4b3,2021-07-29_19h34.57.815,Simcolourproject_2stim_asymm_v5,2020.2.10,MacIntel,60,61025ae37ef11b136ea224fe,,,,,,,,,2500,30,80,1,0,0,response1disk,,7,-11,1,1,0,0,rectangle,-11,1,1,0,0,-11,1,1,0,0,1,13,173,37,1,,,,,,,,
,,,,,,,,,,,,,FF,,,,,,,,1.793,,,,,,,,,,,,,,,,,,,,,,61035fdca8e42cfdbbca31f2,610364c6015507cf1849f4b3,2021-07-29_19h34.57.815,Simcolourproject_2stim_asymm_v5,2020.2.10,MacIntel,60,61025ae37ef11b136ea224fe,,,,,,,,,1375,-46,-75,1,0,0,response5disk,,3,-27,4,1,0,0,rectangle,-27,4,1,0,0,-27,4,1,0,0,1,14,174,19,1,,,,,,,,
,,,,,,,,,,,,,FF,,,,,,,,2.018,,,,,,,,,,,,,,,,,,,,,,61035fdca8e42cfdbbca31f2,610364c6015507cf1849f4b3,2021-07-29_19h34.57.815,Simcolourproject_2stim_asymm_v5,2020.2.10,MacIntel,60,61025ae37ef11b136ea224fe,,,,,,,,,4359,-90,-52,1,0,0,response5disk,,2,-16,11,1,0,0,rectangle,-16,11,1,0,0,-16,11,1,0,0,1,15,175,121,1,,,,,,,,
,,,,,,,,,,,,,FF,,,,,,,,2.069,,,,,,,,,,,,,,,,,,,,,,61035fdca8e42cfdbbca31f2,610364c6015507cf1849f4b3,2021-07-29_19h34.57.815,Simcolourproject_2stim_asymm_v5,2020.2.10,MacIntel,60,61025ae37ef11b136ea224fe,,,,,,,,,11,76,-108,1,0,0,response3disk,,4,2,19,1,0,0,rectangle,2,19,1,0,0,2,19,1,0,0,1,16,176,140,1,,,,,,,,
,,,,,,,,,,,,,FF,,,,,,,,1.197,,,,,,,,,,,,,,,,,,,,,,61035fdca8e42cfdbbca31f2,610364c6015507cf1849f4b3,2021-07-29_19h34.57.815,Simcolourproject_2stim_asymm_v5,2020.2.10,MacIntel,60,61025ae37ef11b136ea224fe,,,,,,,,,3803,72,-39,1,0,0,response3disk,,5,-2,7,1,0,0,rectangle,-2,7,1,0,0,-2,7,1,0,0,1,17,177,58,1,,,,,,,,
,,,,,,,,,,,,,FF,,,,,,,,1.489,,,,,,,,,,,,,,,,,,,,,,61035fdca8e42cfdbbca31f2,610364c6015507cf1849f4b3,2021-07-29_19h34.57.815,Simcolourproject_2stim_asymm_v5,2020.2.10,MacIntel,60,61025ae37ef11b136ea224fe,,,,,,,,,2226,-45,93,1,0,0,response7disk,,0,-22,20,1,0,0,rectangle,-22,20,1,0,0,-22,20,1,0,0,1,18,178,132,1,,,,,,,,
,,,,,,,,,,,,,FF,,,,,,,,1.012,,,,,,,,,,,,,,,,,,,,,,61035fdca8e42cfdbbca31f2,610364c6015507cf1849f4b3,2021-07-29_19h34.57.815,Simcolourproject_2stim_asymm_v5,2020.2.10,MacIntel,60,61025ae37ef11b136ea224fe,,,,,,,,,3162,-78,42,1,0,0,response7disk,,1,18,-5,1,0,0,rectangle,18,-5,1,0,0,18,-5,1,0,0,1,19,179,49,1,,,,,,,,
,,,,,,,,,,,,,FF,,,,,,,,0.929,,,,,,,,,,,,,,,,,,,,,,61035fdca8e42cfdbbca31f2,610364c6015507cf1849f4b3,2021-07-29_19h34.57.815,Simcolourproject_2stim_asymm_v5,2020.2.10,MacIntel,60,61025ae37ef11b136ea224fe,,,,,,,,,1757,-54,-41,1,0,0,response5disk,,2,30,0,1,0,0,rectangle,30,0,1,0,0,30,0,1,0,0,1,20,180,56,1,,,,,,,,
,,,,,,,,,,,,,FF,,,,,,,,0.729,,,,,,,,,,,,,,,,,,,,,,61035fdca8e42cfdbbca31f2,610364c6015507cf1849f4b3,2021-07-29_19h34.57.815,Simcolourproject_2stim_asymm_v5,2020.2.10,MacIntel,60,61025ae37ef11b136ea224fe,,,,,,,,,1861,42,83,1,0,0,response1disk,,7,5,-2,1,0,0,rectangle,5,-2,1,0,0,5,-2,1,0,0,1,21,181,62,1,,,,,,,,
,,,,,,,,,,,,,FF,,,,,,,,1.898,,,,,,,,,,,,,,,,,,,,,,61035fdca8e42cfdbbca31f2,610364c6015507cf1849f4b3,2021-07-29_19h34.57.815,Simcolourproject_2stim_asymm_v5,2020.2.10,MacIntel,60,61025ae37ef11b136ea224fe,,,,,,,,,2738,119,-56,1,0,0,response3disk,,5,-20,18,1,0,0,rectangle,-20,18,1,0,0,-20,18,1,0,0,1,22,182,46,1,,,,,,,,
,,,,,,,,,,,,,FF,,,,,,,,0.827,,,,,,,,,,,,,,,,,,,,,,61035fdca8e42cfdbbca31f2,610364c6015507cf1849f4b3,2021-07-29_19h34.57.815,Simcolourproject_2stim_asymm_v5,2020.2.10,MacIntel,60,61025ae37ef11b136ea224fe,,,,,,,,,290,45,110,1,0,0,response1disk,,7,-19,-9,1,0,0,rectangle,-19,-9,1,0,0,-19,-9,1,0,0,1,23,183,55,1,,,,,,,,
,,,,,,,,,,,,,FF,,,,,,,,2.041,,,,,,,,,,,,,,,,,,,,,,61035fdca8e42cfdbbca31f2,610364c6015507cf1849f4b3,2021-07-29_19h34.57.815,Simcolourproject_2stim_asymm_v5,2020.2.10,MacIntel,60,61025ae37ef11b136ea224fe,,,,,,,,,98,92,-38,1,0,0,response3disk,,5,7,16,1,0,0,rectangle,7,16,1,0,0,7,16,1,0,0,1,24,184,8,1,,,,,,,,
,,,,,,,,,,,,,FF,,,,,,,,1.03,,,,,,,,,,,,,,,,,,,,,,61035fdca8e42cfdbbca31f2,610364c6015507cf1849f4b3,2021-07-29_19h34.57.815,Simcolourproject_2stim_asymm_v5,2020.2.10,MacIntel,60,61025ae37ef11b136ea224fe,,,,,,,,,3634,57,92,1,0,0,response1disk,,7,17,22,1,0,0,rectangle,17,22,1,0,0,17,22,1,0,0,1,25,185,42,1,,,,,,,,
,,,,,,,,,,,,,FF,,,,,,,,0.732,,,,,,,,,,,,,,,,,,,,,,61035fdca8e42cfdbbca31f2,610364c6015507cf1849f4b3,2021-07-29_19h34.57.815,Simcolourproject_2stim_asymm_v5,2020.2.10,MacIntel,60,61025ae37ef11b136ea224fe,,,,,,,,,1163,36,67,1,0,0,response1disk,,7,5,-4,1,0,0,rectangle,5,-4,1,0,0,5,-4,1,0,0,1,26,186,69,1,,,,,,,,
,,,,,,,,,,,,,FF,,,,,,,,1.928,,,,,,,,,,,,,,,,,,,,,,61035fdca8e42cfdbbca31f2,610364c6015507cf1849f4b3,2021-07-29_19h34.57.815,Simcolourproject_2stim_asymm_v5,2020.2.10,MacIntel,60,61025ae37ef11b136ea224fe,,,,,,,,,3867,110,37,1,0,0,response1disk,,6,14,11,1,0,0,rectangle,14,11,1,0,0,14,11,1,0,0,1,27,187,131,1,,,,,,,,
,,,,,,,,,,,,,FF,,,,,,,,1.842,,,,,,,,,,,,,,,,,,,,,,61035fdca8e42cfdbbca31f2,610364c6015507cf1849f4b3,2021-07-29_19h34.57.815,Simcolourproject_2stim_asymm_v5,2020.2.10,MacIntel,60,61025ae37ef11b136ea224fe,,,,,,,,,3109,97,-41,1,0,0,response3disk,,5,10,-4,1,0,0,rectangle,10,-4,1,0,0,10,-4,1,0,0,1,28,188,143,1,,,,,,,,
,,,,,,,,,,,,,FF,,,,,,,,0.771,,,,,,,,,,,,,,,,,,,,,,61035fdca8e42cfdbbca31f2,610364c6015507cf1849f4b3,2021-07-29_19h34.57.815,Simcolourproject_2stim_asymm_v5,2020.2.10,MacIntel,60,61025ae37ef11b136ea224fe,,,,,,,,,4317,58,96,1,0,0,response1disk,,7,21,9,1,0,0,rectangle,21,9,1,0,0,21,9,1,0,0,1,29,189,21,1,,,,,,,,
,,,,,,,,,,,,,FF,,,,,,,,1.17,,,,,,,,,,,,,,,,,,,,,,61035fdca8e42cfdbbca31f2,610364c6015507cf1849f4b3,2021-07-29_19h34.57.815,Simcolourproject_2stim_asymm_v5,2020.2.10,MacIntel,60,61025ae37ef11b136ea224fe,,,,,,,,,377,49,86,1,0,0,response1disk,,7,17,4,1,0,0,rectangle,17,4,1,0,0,17,4,1,0,0,1,30,190,78,1,,,,,,,,
,,,,,,,,,,,,,FF,,,,,,,,0.755,,,,,,,,,,,,,,,,,,,,,,61035fdca8e42cfdbbca31f2,610364c6015507cf1849f4b3,2021-07-29_19h34.57.815,Simcolourproject_2stim_asymm_v5,2020.2.10,MacIntel,60,61025ae37ef11b136ea224fe,,,,,,,,,2569,57,77,1,0,0,response1disk,,7,11,-11,1,0,0,rectangle,11,-11,1,0,0,11,-11,1,0,0,1,31,191,157,1,,,,,,,,
,,,,,,,,,,,,,FF,,,,,,,,1.436,,,,,,,,,,,,,,,,,,,,,,61035fdca8e42cfdbbca31f2,610364c6015507cf1849f4b3,2021-07-29_19h34.57.815,Simcolourproject_2stim_asymm_v5,2020.2.10,MacIntel,60,61025ae37ef11b136ea224fe,,,,,,,,,3466,49,79,1,0,0,response1disk,,7,19,-3,1,0,0,rectangle,19,-3,1,0,0,19,-3,1,0,0,1,32,192,3,1,,,,,,,,
,,,,,,,,,,,,,FF,,,,,,,,0.706,,,,,,,,,,,,,,,,,,,,,,61035fdca8e42cfdbbca31f2,610364c6015507cf1849f4b3,2021-07-29_19h34.57.815,Simcolourproject_2stim_asymm_v5,2020.2.10,MacIntel,60,61025ae37ef11b136ea224fe,,,,,,,,,311,44,87,1,0,0,response1disk,,7,0,-1,1,0,0,rectangle,0,-1,1,0,0,0,-1,1,0,0,1,33,193,39,1,,,,,,,,
,,,,,,,,,,,,,FF,,,,,,,,0.625,,,,,,,,,,,,,,,,,,,,,,61035fdca8e42cfdbbca31f2,610364c6015507cf1849f4b3,2021-07-29_19h34.57.815,Simcolourproject_2stim_asymm_v5,2020.2.10,MacIntel,60,61025ae37ef11b136ea224fe,,,,,,,,,919,31,69,1,0,0,response1disk,,7,-7,-10,1,0,0,rectangle,-7,-10,1,0,0,-7,-10,1,0,0,1,34,194,51,1,,,,,,,,
,,,,,,,,,,,,,FF,,,,,,,,0.719,,,,,,,,,,,,,,,,,,,,,,61035fdca8e42cfdbbca31f2,610364c6015507cf1849f4b3,2021-07-29_19h34.57.815,Simcolourproject_2stim_asymm_v5,2020.2.10,MacIntel,60,61025ae37ef11b136ea224fe,,,,,,,,,2158,44,94,1,0,0,response1disk,,7,13,13,1,0,0,rectangle,13,13,1,0,0,13,13,1,0,0,1,35,195,126,1,,,,,,,,
,,,,,,,,,,,,,FF,,,,,,,,1.476,,,,,,,,,,,,,,,,,,,,,,61035fdca8e42cfdbbca31f2,610364c6015507cf1849f4b3,2021-07-29_19h34.57.815,Simcolourproject_2stim_asymm_v5,2020.2.10,MacIntel,60,61025ae37ef11b136ea224fe,,,,,,,,,1970,-37,-92,1,0,0,response5disk,,3,2,-11,1,0,0,rectangle,2,-11,1,0,0,2,-11,1,0,0,1,36,196,94,1,,,,,,,,
,,,,,,,,,,,,,FF,,,,,,,,0.802,,,,,,,,,,,,,,,,,,,,,,61035fdca8e42cfdbbca31f2,610364c6015507cf1849f4b3,2021-07-29_19h34.57.815,Simcolourproject_2stim_asymm_v5,2020.2.10,MacIntel,60,61025ae37ef11b136ea224fe,,,,,,,,,4214,46,100,1,0,0,response1disk,,7,8,4,1,0,0,rectangle,8,4,1,0,0,8,4,1,0,0,1,37,197,45,1,,,,,,,,
,,,,,,,,,,,,,FF,,,,,,,,0.741,,,,,,,,,,,,,,,,,,,,,,61035fdca8e42cfdbbca31f2,610364c6015507cf1849f4b3,2021-07-29_19h34.57.815,Simcolourproject_2stim_asymm_v5,2020.2.10,MacIntel,60,61025ae37ef11b136ea224fe,,,,,,,,,2405,50,93,1,0,0,response1disk,,7,10,17,1,0,0,rectangle,10,17,1,0,0,10,17,1,0,0,1,38,198,52,1,,,,,,,,
,,,,,,,,,,,,,FF,,,,,,,,3.045,,,,,,,,,,,,,,,,,,,,,,61035fdca8e42cfdbbca31f2,610364c6015507cf1849f4b3,2021-07-29_19h34.57.815,Simcolourproject_2stim_asymm_v5,2020.2.10,MacIntel,60,61025ae37ef11b136ea224fe,,,,,,,,,2752,42,94,1,0,0,response1disk,,7,3,16,1,0,0,rectangle,3,16,1,0,0,3,16,1,0,0,1,39,199,117,1,,,,,,,,
,,,,,,,,,,,,,FF,,,,,,,,2.03,,,,,,,,,,,,,,,,,,,,,,61035fdca8e42cfdbbca31f2,610364c6015507cf1849f4b3,2021-07-29_19h34.57.815,Simcolourproject_2stim_asymm_v5,2020.2.10,MacIntel,60,61025ae37ef11b136ea224fe,,,,,,,,,3562,77,-31,1,0,0,response3disk,,5,16,7,1,0,0,rectangle,16,7,1,0,0,16,7,1,0,0,1,40,200,36,1,,,,,,,,
,,,,,,,,,,,,,FF,,,,,,,,0.947,,,,,,,,,,,,,,,,,,,,,,61035fdca8e42cfdbbca31f2,610364c6015507cf1849f4b3,2021-07-29_19h34.57.815,Simcolourproject_2stim_asymm_v5,2020.2.10,MacIntel,60,61025ae37ef11b136ea224fe,,,,,,,,,19,48,82,1,0,0,response1disk,,7,16,3,1,0,0,rectangle,16,3,1,0,0,16,3,1,0,0,1,41,201,144,1,,,,,,,,
,,,,,,,,,,,,,FF,,,,,,,,0.665,,,,,,,,,,,,,,,,,,,,,,61035fdca8e42cfdbbca31f2,610364c6015507cf1849f4b3,2021-07-29_19h34.57.815,Simcolourproject_2stim_asymm_v5,2020.2.10,MacIntel,60,61025ae37ef11b136ea224fe,,,,,,,,,2004,57,92,1,0,0,response1disk,,7,29,21,1,0,0,rectangle,29,21,1,0,0,29,21,1,0,0,1,42,202,158,1,,,,,,,,
,,,,,,,,,,,,,FF,,,,,,,,2.001,,,,,,,,,,,,,,,,,,,,,,61035fdca8e42cfdbbca31f2,610364c6015507cf1849f4b3,2021-07-29_19h34.57.815,Simcolourproject_2stim_asymm_v5,2020.2.10,MacIntel,60,61025ae37ef11b136ea224fe,,,,,,,,,4337,-39,-120,1,0,0,response5disk,,3,-15,-18,1,0,0,rectangle,-15,-18,1,0,0,-15,-18,1,0,0,1,43,203,79,1,,,,,,,,
,,,,,,,,,,,,,FF,,,,,,,,0.594,,,,,,,,,,,,,,,,,,,,,,61035fdca8e42cfdbbca31f2,610364c6015507cf1849f4b3,2021-07-29_19h34.57.815,Simcolourproject_2stim_asymm_v5,2020.2.10,MacIntel,60,61025ae37ef11b136ea224fe,,,,,,,,,2813,53,108,1,0,0,response1disk,,7,4,10,1,0,0,rectangle,4,10,1,0,0,4,10,1,0,0,1,44,204,129,1,,,,,,,,
,,,,,,,,,,,,,FF,,,,,,,,0.731,,,,,,,,,,,,,,,,,,,,,,61035fdca8e42cfdbbca31f2,610364c6015507cf1849f4b3,2021-07-29_19h34.57.815,Simcolourproject_2stim_asymm_v5,2020.2.10,MacIntel,60,61025ae37ef11b136ea224fe,,,,,,,,,1706,52,84,1,0,0,response1disk,,7,11,-12,1,0,0,rectangle,11,-12,1,0,0,11,-12,1,0,0,1,45,205,72,1,,,,,,,,
,,,,,,,,,,,,,FF,,,,,,,,1.27,,,,,,,,,,,,,,,,,,,,,,61035fdca8e42cfdbbca31f2,610364c6015507cf1849f4b3,2021-07-29_19h34.57.815,Simcolourproject_2stim_asymm_v5,2020.2.10,MacIntel,60,61025ae37ef11b136ea224fe,,,,,,,,,1032,43,79,1,0,0,response1disk,,7,16,-6,1,0,0,rectangle,16,-6,1,0,0,16,-6,1,0,0,1,46,206,47,1,,,,,,,,
,,,,,,,,,,,,,FF,,,,,,,,0.868,,,,,,,,,,,,,,,,,,,,,,61035fdca8e42cfdbbca31f2,610364c6015507cf1849f4b3,2021-07-29_19h34.57.815,Simcolourproject_2stim_asymm_v5,2020.2.10,MacIntel,60,61025ae37ef11b136ea224fe,,,,,,,,,1126,40,92,1,0,0,response1disk,,7,8,1,1,0,0,rectangle,8,1,1,0,0,8,1,1,0,0,1,47,207,128,1,,,,,,,,
,,,,,,,,,,,,,FF,,,,,,,,1.019,,,,,,,,,,,,,,,,,,,,,,61035fdca8e42cfdbbca31f2,610364c6015507cf1849f4b3,2021-07-29_19h34.57.815,Simcolourproject_2stim_asymm_v5,2020.2.10,MacIntel,60,61025ae37ef11b136ea224fe,,,,,,,,,3597,71,-38,1,0,0,response3disk,,5,5,1,1,0,0,rectangle,5,1,1,0,0,5,1,1,0,0,1,48,208,25,1,,,,,,,,
,,,,,,,,,,,,,FF,,,,,,,,0.73,,,,,,,,,,,,,,,,,,,,,,61035fdca8e42cfdbbca31f2,610364c6015507cf1849f4b3,2021-07-29_19h34.57.815,Simcolourproject_2stim_asymm_v5,2020.2.10,MacIntel,60,61025ae37ef11b136ea224fe,,,,,,,,,3209,43,94,1,0,0,response1disk,,7,5,9,1,0,0,rectangle,5,9,1,0,0,5,9,1,0,0,1,49,209,125,1,,,,,,,,
,,,,,,,,,,,,,FF,,,,,,,,0.856,,,,,,,,,,,,,,,,,,,,,,61035fdca8e42cfdbbca31f2,610364c6015507cf1849f4b3,2021-07-29_19h34.57.815,Simcolourproject_2stim_asymm_v5,2020.2.10,MacIntel,60,61025ae37ef11b136ea224fe,,,,,,,,,4044,37,83,1,0,0,response1disk,,7,2,8,1,0,0,rectangle,2,8,1,0,0,2,8,1,0,0,1,50,210,68,1,,,,,,,,
,,,,,,,,,,,,,FF,,,,,,,,0.903,,,,,,,,,,,,,,,,,,,,,,61035fdca8e42cfdbbca31f2,610364c6015507cf1849f4b3,2021-07-29_19h34.57.815,Simcolourproject_2stim_asymm_v5,2020.2.10,MacIntel,60,61025ae37ef11b136ea224fe,,,,,,,,,3064,49,87,1,0,0,response1disk,,7,19,10,1,0,0,rectangle,19,10,1,0,0,19,10,1,0,0,1,51,211,119,1,,,,,,,,
,,,,,,,,,,,,,FF,,,,,,,,0.937,,,,,,,,,,,,,,,,,,,,,,61035fdca8e42cfdbbca31f2,610364c6015507cf1849f4b3,2021-07-29_19h34.57.815,Simcolourproject_2stim_asymm_v5,2020.2.10,MacIntel,60,61025ae37ef11b136ea224fe,,,,,,,,,575,60,84,1,0,0,response1disk,,7,21,-2,1,0,0,rectangle,21,-2,1,0,0,21,-2,1,0,0,1,52,212,14,1,,,,,,,,
,,,,,,,,,,,,,FF,,,,,,,,0.762,,,,,,,,,,,,,,,,,,,,,,61035fdca8e42cfdbbca31f2,610364c6015507cf1849f4b3,2021-07-29_19h34.57.815,Simcolourproject_2stim_asymm_v5,2020.2.10,MacIntel,60,61025ae37ef11b136ea224fe,,,,,,,,,2869,37,66,1,0,0,response1disk,,7,13,1,1,0,0,rectangle,13,1,1,0,0,13,1,1,0,0,1,53,213,87,1,,,,,,,,
,,,,,,,,,,,,,FF,,,,,,,,0.638,,,,,,,,,,,,,,,,,,,,,,61035fdca8e42cfdbbca31f2,610364c6015507cf1849f4b3,2021-07-29_19h34.57.815,Simcolourproject_2stim_asymm_v5,2020.2.10,MacIntel,60,61025ae37ef11b136ea224fe,,,,,,,,,585,52,84,1,0,0,response1disk,,7,22,11,1,0,0,rectangle,22,11,1,0,0,22,11,1,0,0,1,54,214,71,1,,,,,,,,
,,,,,,,,,,,,,FF,,,,,,,,0.91,,,,,,,,,,,,,,,,,,,,,,61035fdca8e42cfdbbca31f2,610364c6015507cf1849f4b3,2021-07-29_19h34.57.815,Simcolourproject_2stim_asymm_v5,2020.2.10,MacIntel,60,61025ae37ef11b136ea224fe,,,,,,,,,2586,50,84,1,0,0,response1disk,,7,5,-6,1,0,0,rectangle,46,-86,1,0,0,6,0,1,0,0,1,55,215,150,1,,response3disk_3,TRUE,4,4,"[81,42,149,216,263,301,311,317,115,71,104,135,305,101,56,316,106,170,79,271]",2.298,rectangle
,,,,,,,,,,,,,FF,,,,,,,,9.781,,,,,,,,,,,,,,,,,,,,,,61035fdca8e42cfdbbca31f2,610364c6015507cf1849f4b3,2021-07-29_19h34.57.815,Simcolourproject_2stim_asymm_v5,2020.2.10,MacIntel,60,61025ae37ef11b136ea224fe,,,,,,,,,4087,81,-55,1,0,0,response3disk,,5,-9,-12,1,0,0,rectangle,-9,-12,1,0,0,-9,-12,1,0,0,1,56,216,127,1,,,,,,,,
,,,,,,,,,,,,,FF,,,,,,,,1.713,,,,,,,,,,,,,,,,,,,,,,61035fdca8e42cfdbbca31f2,610364c6015507cf1849f4b3,2021-07-29_19h34.57.815,Simcolourproject_2stim_asymm_v5,2020.2.10,MacIntel,60,61025ae37ef11b136ea224fe,,,,,,,,,303,36,78,1,0,0,response1disk,,7,-23,-6,1,0,0,rectangle,-23,-6,1,0,0,-23,-6,1,0,0,1,57,217,147,1,,,,,,,,
,,,,,,,,,,,,,FF,,,,,,,,0.689,,,,,,,,,,,,,,,,,,,,,,61035fdca8e42cfdbbca31f2,610364c6015507cf1849f4b3,2021-07-29_19h34.57.815,Simcolourproject_2stim_asymm_v5,2020.2.10,MacIntel,60,61025ae37ef11b136ea224fe,,,,,,,,,239,58,87,1,0,0,response1disk,,7,13,1,1,0,0,rectangle,13,1,1,0,0,13,1,1,0,0,1,58,218,95,1,,,,,,,,
,,,,,,,,,,,,,FF,,,,,,,,0.618,,,,,,,,,,,,,,,,,,,,,,61035fdca8e42cfdbbca31f2,610364c6015507cf1849f4b3,2021-07-29_19h34.57.815,Simcolourproject_2stim_asymm_v5,2020.2.10,MacIntel,60,61025ae37ef11b136ea224fe,,,,,,,,,3239,61,93,1,0,0,response1disk,,7,8,-9,1,0,0,rectangle,8,-9,1,0,0,8,-9,1,0,0,1,59,219,63,1,,,,,,,,
,,,,,,,,,,,,,FF,,,,,,,,0.668,,,,,,,,,,,,,,,,,,,,,,61035fdca8e42cfdbbca31f2,610364c6015507cf1849f4b3,2021-07-29_19h34.57.815,Simcolourproject_2stim_asymm_v5,2020.2.10,MacIntel,60,61025ae37ef11b136ea224fe,,,,,,,,,1323,48,94,1,0,0,response1disk,,7,7,12,1,0,0,rectangle,7,12,1,0,0,7,12,1,0,0,1,60,220,53,1,,,,,,,,
,,,,,,,,,,,,,FF,,,,,,,,1.817,,,,,,,,,,,,,,,,,,,,,,61035fdca8e42cfdbbca31f2,610364c6015507cf1849f4b3,2021-07-29_19h34.57.815,Simcolourproject_2stim_asymm_v5,2020.2.10,MacIntel,60,61025ae37ef11b136ea224fe,,,,,,,,,94,-132,-52,1,0,0,response5disk,,2,-13,5,1,0,0,rectangle,-13,5,1,0,0,-13,5,1,0,0,1,61,221,136,1,,,,,,,,
,,,,,,,,,,,,,FF,,,,,,,,0.982,,,,,,,,,,,,,,,,,,,,,,61035fdca8e42cfdbbca31f2,610364c6015507cf1849f4b3,2021-07-29_19h34.57.815,Simcolourproject_2stim_asymm_v5,2020.2.10,MacIntel,60,61025ae37ef11b136ea224fe,,,,,,,,,2750,21,88,1,0,0,response1disk,,7,-12,16,1,0,0,rectangle,-12,16,1,0,0,-12,16,1,0,0,1,62,222,104,1,,,,,,,,
,,,,,,,,,,,,,FF,,,,,,,,0.81,,,,,,,,,,,,,,,,,,,,,,61035fdca8e42cfdbbca31f2,610364c6015507cf1849f4b3,2021-07-29_19h34.57.815,Simcolourproject_2stim_asymm_v5,2020.2.10,MacIntel,60,61025ae37ef11b136ea224fe,,,,,,,,,3060,37,88,1,0,0,response1disk,,7,-11,-6,1,0,0,rectangle,-11,-6,1,0,0,-11,-6,1,0,0,1,63,223,11,1,,,,,,,,
,,,,,,,,,,,,,FF,,,,,,,,0.673,,,,,,,,,,,,,,,,,,,,,,61035fdca8e42cfdbbca31f2,610364c6015507cf1849f4b3,2021-07-29_19h34.57.815,Simcolourproject_2stim_asymm_v5,2020.2.10,MacIntel,60,61025ae37ef11b136ea224fe,,,,,,,,,3184,50,80,1,0,0,response1disk,,7,17,4,1,0,0,rectangle,17,4,1,0,0,17,4,1,0,0,1,64,224,101,1,,,,,,,,
,,,,,,,,,,,,,FF,,,,,,,,0.925,,,,,,,,,,,,,,,,,,,,,,61035fdca8e42cfdbbca31f2,610364c6015507cf1849f4b3,2021-07-29_19h34.57.815,Simcolourproject_2stim_asymm_v5,2020.2.10,MacIntel,60,61025ae37ef11b136ea224fe,,,,,,,,,3839,48,85,1,0,0,response1disk,,7,8,-1,1,0,0,rectangle,8,-1,1,0,0,8,-1,1,0,0,1,65,225,86,1,,,,,,,,
,,,,,,,,,,,,,FF,,,,,,,,0.599,,,,,,,,,,,,,,,,,,,,,,61035fdca8e42cfdbbca31f2,610364c6015507cf1849f4b3,2021-07-29_19h34.57.815,Simcolourproject_2stim_asymm_v5,2020.2.10,MacIntel,60,61025ae37ef11b136ea224fe,,,,,,,,,3491,52,92,1,0,0,response1disk,,7,15,1,1,0,0,rectangle,15,1,1,0,0,15,1,1,0,0,1,66,226,9,1,,,,,,,,
,,,,,,,,,,,,,FF,,,,,,,,0.573,,,,,,,,,,,,,,,,,,,,,,61035fdca8e42cfdbbca31f2,610364c6015507cf1849f4b3,2021-07-29_19h34.57.815,Simcolourproject_2stim_asymm_v5,2020.2.10,MacIntel,60,61025ae37ef11b136ea224fe,,,,,,,,,1981,59,84,1,0,0,response1disk,,7,19,1,1,0,0,rectangle,19,1,1,0,0,19,1,1,0,0,1,67,227,84,1,,,,,,,,
,,,,,,,,,,,,,FF,,,,,,,,0.486,,,,,,,,,,,,,,,,,,,,,,61035fdca8e42cfdbbca31f2,610364c6015507cf1849f4b3,2021-07-29_19h34.57.815,Simcolourproject_2stim_asymm_v5,2020.2.10,MacIntel,60,61025ae37ef11b136ea224fe,,,,,,,,,307,59,97,1,0,0,response1disk,,7,21,15,1,0,0,rectangle,21,15,1,0,0,21,15,1,0,0,1,68,228,29,1,,,,,,,,
,,,,,,,,,,,,,FF,,,,,,,,0.575,,,,,,,,,,,,,,,,,,,,,,61035fdca8e42cfdbbca31f2,610364c6015507cf1849f4b3,2021-07-29_19h34.57.815,Simcolourproject_2stim_asymm_v5,2020.2.10,MacIntel,60,61025ae37ef11b136ea224fe,,,,,,,,,1479,52,92,1,0,0,response1disk,,7,13,6,1,0,0,rectangle,13,6,1,0,0,13,6,1,0,0,1,69,229,73,1,,,,,,,,
,,,,,,,,,,,,,FF,,,,,,,,1.04,,,,,,,,,,,,,,,,,,,,,,61035fdca8e42cfdbbca31f2,610364c6015507cf1849f4b3,2021-07-29_19h34.57.815,Simcolourproject_2stim_asymm_v5,2020.2.10,MacIntel,60,61025ae37ef11b136ea224fe,,,,,,,,,2589,36,72,1,0,0,response1disk,,7,-3,-12,1,0,0,rectangle,-3,-12,1,0,0,-3,-12,1,0,0,1,70,230,60,1,,,,,,,,
,,,,,,,,,,,,,FF,,,,,,,,0.685,,,,,,,,,,,,,,,,,,,,,,61035fdca8e42cfdbbca31f2,610364c6015507cf1849f4b3,2021-07-29_19h34.57.815,Simcolourproject_2stim_asymm_v5,2020.2.10,MacIntel,60,61025ae37ef11b136ea224fe,,,,,,,,,2103,39,77,1,0,0,response1disk,,7,0,5,1,0,0,rectangle,0,5,1,0,0,0,5,1,0,0,1,71,231,2,1,,,,,,,,
,,,,,,,,,,,,,FF,,,,,,,,0.656,,,,,,,,,,,,,,,,,,,,,,61035fdca8e42cfdbbca31f2,610364c6015507cf1849f4b3,2021-07-29_19h34.57.815,Simcolourproject_2stim_asymm_v5,2020.2.10,MacIntel,60,61025ae37ef11b136ea224fe,,,,,,,,,3658,47,88,1,0,0,response1disk,,7,-2,-5,1,0,0,rectangle,-2,-5,1,0,0,-2,-5,1,0,0,1,72,232,89,1,,,,,,,,
,,,,,,,,,,,,,FF,,,,,,,,1.572,,,,,,,,,,,,,,,,,,,,,,61035fdca8e42cfdbbca31f2,610364c6015507cf1849f4b3,2021-07-29_19h34.57.815,Simcolourproject_2stim_asymm_v5,2020.2.10,MacIntel,60,61025ae37ef11b136ea224fe,,,,,,,,,2232,43,-88,1,0,0,response3disk,,4,-15,9,1,0,0,rectangle,-15,9,1,0,0,-15,9,1,0,0,1,73,233,31,1,,,,,,,,
,,,,,,,,,,,,,FF,,,,,,,,0.813,,,,,,,,,,,,,,,,,,,,,,61035fdca8e42cfdbbca31f2,610364c6015507cf1849f4b3,2021-07-29_19h34.57.815,Simcolourproject_2stim_asymm_v5,2020.2.10,MacIntel,60,61025ae37ef11b136ea224fe,,,,,,,,,2191,21,96,1,0,0,response1disk,,7,-29,4,1,0,0,rectangle,-29,4,1,0,0,-29,4,1,0,0,1,74,234,83,1,,,,,,,,
,,,,,,,,,,,,,FF,,,,,,,,0.828,,,,,,,,,,,,,,,,,,,,,,61035fdca8e42cfdbbca31f2,610364c6015507cf1849f4b3,2021-07-29_19h34.57.815,Simcolourproject_2stim_asymm_v5,2020.2.10,MacIntel,60,61025ae37ef11b136ea224fe,,,,,,,,,2758,48,92,1,0,0,response1disk,,7,-7,3,1,0,0,rectangle,-7,3,1,0,0,-7,3,1,0,0,1,75,235,32,1,,,,,,,,
,,,,,,,,,,,,,FF,,,,,,,,1.297,,,,,,,,,,,,,,,,,,,,,,61035fdca8e42cfdbbca31f2,610364c6015507cf1849f4b3,2021-07-29_19h34.57.815,Simcolourproject_2stim_asymm_v5,2020.2.10,MacIntel,60,61025ae37ef11b136ea224fe,,,,,,,,,3546,-72,-88,1,0,0,response5disk,,3,0,14,1,0,0,rectangle,0,14,1,0,0,0,14,1,0,0,1,76,236,35,1,,,,,,,,
,,,,,,,,,,,,,FF,,,,,,,,0.923,,,,,,,,,,,,,,,,,,,,,,61035fdca8e42cfdbbca31f2,610364c6015507cf1849f4b3,2021-07-29_19h34.57.815,Simcolourproject_2stim_asymm_v5,2020.2.10,MacIntel,60,61025ae37ef11b136ea224fe,,,,,,,,,3452,56,89,1,0,0,response1disk,,7,11,8,1,0,0,rectangle,11,8,1,0,0,11,8,1,0,0,1,77,237,93,1,,,,,,,,
,,,,,,,,,,,,,FF,,,,,,,,1.748,,,,,,,,,,,,,,,,,,,,,,61035fdca8e42cfdbbca31f2,610364c6015507cf1849f4b3,2021-07-29_19h34.57.815,Simcolourproject_2stim_asymm_v5,2020.2.10,MacIntel,60,61025ae37ef11b136ea224fe,,,,,,,,,2290,57,93,1,0,0,response1disk,,7,3,-1,1,0,0,rectangle,3,-1,1,0,0,3,-1,1,0,0,1,78,238,153,1,,,,,,,,
,,,,,,,,,,,,,FF,,,,,,,,0.825,,,,,,,,,,,,,,,,,,,,,,61035fdca8e42cfdbbca31f2,610364c6015507cf1849f4b3,2021-07-29_19h34.57.815,Simcolourproject_2stim_asymm_v5,2020.2.10,MacIntel,60,61025ae37ef11b136ea224fe,,,,,,,,,3654,49,97,1,0,0,response1disk,,7,3,-3,1,0,0,rectangle,3,-3,1,0,0,3,-3,1,0,0,1,79,239,13,1,,,,,,,,
,,,,,,,,,,,,,FF,,,,,,,,0.951,,,,,,,,,,,,,,,,,,,,,,61035fdca8e42cfdbbca31f2,610364c6015507cf1849f4b3,2021-07-29_19h34.57.815,Simcolourproject_2stim_asymm_v5,2020.2.10,MacIntel,60,61025ae37ef11b136ea224fe,,,,,,,,,480,49,87,1,0,0,response1disk,,7,7,-4,1,0,0,rectangle,7,-4,1,0,0,7,-4,1,0,0,1,80,240,44,1,,,,,,,,
,,,,,,,,,,,,,FF,,,,,,,,0.622,,,,,,,,,,,,,,,,,,,,,,61035fdca8e42cfdbbca31f2,610364c6015507cf1849f4b3,2021-07-29_19h34.57.815,Simcolourproject_2stim_asymm_v5,2020.2.10,MacIntel,60,61025ae37ef11b136ea224fe,,,,,,,,,3540,53,92,1,0,0,response1disk,,7,10,6,1,0,0,rectangle,10,6,1,0,0,10,6,1,0,0,1,81,241,30,1,,,,,,,,
,,,,,,,,,,,,,FF,,,,,,,,0.503,,,,,,,,,,,,,,,,,,,,,,61035fdca8e42cfdbbca31f2,610364c6015507cf1849f4b3,2021-07-29_19h34.57.815,Simcolourproject_2stim_asymm_v5,2020.2.10,MacIntel,60,61025ae37ef11b136ea224fe,,,,,,,,,2498,51,101,1,0,0,response1disk,,7,7,-9,1,0,0,rectangle,7,-9,1,0,0,7,-9,1,0,0,1,82,242,24,1,,,,,,,,
,,,,,,,,,,,,,FF,,,,,,,,0.726,,,,,,,,,,,,,,,,,,,,,,61035fdca8e42cfdbbca31f2,610364c6015507cf1849f4b3,2021-07-29_19h34.57.815,Simcolourproject_2stim_asymm_v5,2020.2.10,MacIntel,60,61025ae37ef11b136ea224fe,,,,,,,,,1022,33,68,1,0,0,response1disk,,7,10,19,1,0,0,rectangle,10,19,1,0,0,10,19,1,0,0,1,83,243,146,1,,,,,,,,
,,,,,,,,,,,,,FF,,,,,,,,2.317,,,,,,,,,,,,,,,,,,,,,,61035fdca8e42cfdbbca31f2,610364c6015507cf1849f4b3,2021-07-29_19h34.57.815,Simcolourproject_2stim_asymm_v5,2020.2.10,MacIntel,60,61025ae37ef11b136ea224fe,,,,,,,,,2986,-62,-84,1,0,0,response5disk,,3,-13,-4,1,0,0,rectangle,-13,-4,1,0,0,-13,-4,1,0,0,1,84,244,122,1,,,,,,,,
,,,,,,,,,,,,,FF,,,,,,,,1.024,,,,,,,,,,,,,,,,,,,,,,61035fdca8e42cfdbbca31f2,610364c6015507cf1849f4b3,2021-07-29_19h34.57.815,Simcolourproject_2stim_asymm_v5,2020.2.10,MacIntel,60,61025ae37ef11b136ea224fe,,,,,,,,,1669,45,87,1,0,0,response1disk,,7,-14,-9,1,0,0,rectangle,-14,-9,1,0,0,-14,-9,1,0,0,1,85,245,134,1,,,,,,,,
,,,,,,,,,,,,,FF,,,,,,,,0.836,,,,,,,,,,,,,,,,,,,,,,61035fdca8e42cfdbbca31f2,610364c6015507cf1849f4b3,2021-07-29_19h34.57.815,Simcolourproject_2stim_asymm_v5,2020.2.10,MacIntel,60,61025ae37ef11b136ea224fe,,,,,,,,,946,45,86,1,0,0,response1disk,,7,7,6,1,0,0,rectangle,7,6,1,0,0,7,6,1,0,0,1,86,246,38,1,,,,,,,,
,,,,,,,,,,,,,FF,,,,,,,,0.509,,,,,,,,,,,,,,,,,,,,,,61035fdca8e42cfdbbca31f2,610364c6015507cf1849f4b3,2021-07-29_19h34.57.815,Simcolourproject_2stim_asymm_v5,2020.2.10,MacIntel,60,61025ae37ef11b136ea224fe,,,,,,,,,203,54,87,1,0,0,response1disk,,7,11,-6,1,0,0,rectangle,11,-6,1,0,0,11,-6,1,0,0,1,87,247,66,1,,,,,,,,
,,,,,,,,,,,,,FF,,,,,,,,1.54,,,,,,,,,,,,,,,,,,,,,,61035fdca8e42cfdbbca31f2,610364c6015507cf1849f4b3,2021-07-29_19h34.57.815,Simcolourproject_2stim_asymm_v5,2020.2.10,MacIntel,60,61025ae37ef11b136ea224fe,,,,,,,,,3480,-54,-105,1,0,0,response5disk,,3,-9,21,1,0,0,rectangle,-9,21,1,0,0,-9,21,1,0,0,1,88,248,152,1,,,,,,,,
,,,,,,,,,,,,,FF,,,,,,,,0.631,,,,,,,,,,,,,,,,,,,,,,61035fdca8e42cfdbbca31f2,610364c6015507cf1849f4b3,2021-07-29_19h34.57.815,Simcolourproject_2stim_asymm_v5,2020.2.10,MacIntel,60,61025ae37ef11b136ea224fe,,,,,,,,,3732,40,92,1,0,0,response1disk,,7,-3,1,1,0,0,rectangle,-3,1,1,0,0,-3,1,1,0,0,1,89,249,81,1,,,,,,,,
,,,,,,,,,,,,,FF,,,,,,,,1.077,,,,,,,,,,,,,,,,,,,,,,61035fdca8e42cfdbbca31f2,610364c6015507cf1849f4b3,2021-07-29_19h34.57.815,Simcolourproject_2stim_asymm_v5,2020.2.10,MacIntel,60,61025ae37ef11b136ea224fe,,,,,,,,,2393,36,76,1,0,0,response1disk,,7,11,-17,1,0,0,rectangle,11,-17,1,0,0,11,-17,1,0,0,1,90,250,91,1,,,,,,,,
,,,,,,,,,,,,,FF,,,,,,,,0.887,,,,,,,,,,,,,,,,,,,,,,61035fdca8e42cfdbbca31f2,610364c6015507cf1849f4b3,2021-07-29_19h34.57.815,Simcolourproject_2stim_asymm_v5,2020.2.10,MacIntel,60,61025ae37ef11b136ea224fe,,,,,,,,,2846,54,89,1,0,0,response1disk,,7,13,-12,1,0,0,rectangle,13,-12,1,0,0,13,-12,1,0,0,1,91,251,80,1,,,,,,,,
,,,,,,,,,,,,,FF,,,,,,,,2.428,,,,,,,,,,,,,,,,,,,,,,61035fdca8e42cfdbbca31f2,610364c6015507cf1849f4b3,2021-07-29_19h34.57.815,Simcolourproject_2stim_asymm_v5,2020.2.10,MacIntel,60,61025ae37ef11b136ea224fe,,,,,,,,,1478,40,112,1,0,0,response1disk,,7,13,1,1,0,0,rectangle,13,1,1,0,0,13,1,1,0,0,1,92,252,116,1,,,,,,,,
,,,,,,,,,,,,,FF,,,,,,,,1.41,,,,,,,,,,,,,,,,,,,,,,61035fdca8e42cfdbbca31f2,610364c6015507cf1849f4b3,2021-07-29_19h34.57.815,Simcolourproject_2stim_asymm_v5,2020.2.10,MacIntel,60,61025ae37ef11b136ea224fe,,,,,,,,,723,-43,-109,1,0,0,response5disk,,3,13,3,1,0,0,rectangle,13,3,1,0,0,13,3,1,0,0,1,93,253,148,1,,,,,,,,
,,,,,,,,,,,,,FF,,,,,,,,0.91,,,,,,,,,,,,,,,,,,,,,,61035fdca8e42cfdbbca31f2,610364c6015507cf1849f4b3,2021-07-29_19h34.57.815,Simcolourproject_2stim_asymm_v5,2020.2.10,MacIntel,60,61025ae37ef11b136ea224fe,,,,,,,,,1056,-64,-20,1,0,0,response5disk,,2,30,12,1,0,0,rectangle,30,12,1,0,0,30,12,1,0,0,1,94,254,145,1,,,,,,,,
,,,,,,,,,,,,,FF,,,,,,,,0.816,,,,,,,,,,,,,,,,,,,,,,61035fdca8e42cfdbbca31f2,610364c6015507cf1849f4b3,2021-07-29_19h34.57.815,Simcolourproject_2stim_asymm_v5,2020.2.10,MacIntel,60,61025ae37ef11b136ea224fe,,,,,,,,,4023,-62,30,1,0,0,response7disk,,1,24,4,1,0,0,rectangle,24,4,1,0,0,24,4,1,0,0,1,95,255,123,1,,,,,,,,
,,,,,,,,,,,,,FF,,,,,,,,0.675,,,,,,,,,,,,,,,,,,,,,,61035fdca8e42cfdbbca31f2,610364c6015507cf1849f4b3,2021-07-29_19h34.57.815,Simcolourproject_2stim_asymm_v5,2020.2.10,MacIntel,60,61025ae37ef11b136ea224fe,,,,,,,,,148,45,96,1,0,0,response1disk,,7,10,3,1,0,0,rectangle,10,3,1,0,0,10,3,1,0,0,1,96,256,97,1,,,,,,,,
,,,,,,,,,,,,,FF,,,,,,,,0.633,,,,,,,,,,,,,,,,,,,,,,61035fdca8e42cfdbbca31f2,610364c6015507cf1849f4b3,2021-07-29_19h34.57.815,Simcolourproject_2stim_asymm_v5,2020.2.10,MacIntel,60,61025ae37ef11b136ea224fe,,,,,,,,,922,49,89,1,0,0,response1disk,,7,13,-1,1,0,0,rectangle,13,-1,1,0,0,13,-1,1,0,0,1,97,257,118,1,,,,,,,,
,,,,,,,,,,,,,FF,,,,,,,,1.875,,,,,,,,,,,,,,,,,,,,,,61035fdca8e42cfdbbca31f2,610364c6015507cf1849f4b3,2021-07-29_19h34.57.815,Simcolourproject_2stim_asymm_v5,2020.2.10,MacIntel,60,61025ae37ef11b136ea224fe,,,,,,,,,1394,79,30,1,0,0,response1disk,,6,4,-18,1,0,0,rectangle,4,-18,1,0,0,4,-18,1,0,0,1,98,258,16,1,,,,,,,,
,,,,,,,,,,,,,FF,,,,,,,,1.132,,,,,,,,,,,,,,,,,,,,,,61035fdca8e42cfdbbca31f2,610364c6015507cf1849f4b3,2021-07-29_19h34.57.815,Simcolourproject_2stim_asymm_v5,2020.2.10,MacIntel,60,61025ae37ef11b136ea224fe,,,,,,,,,4229,32,64,1,0,0,response1disk,,7,-4,-19,1,0,0,rectangle,-4,-19,1,0,0,-4,-19,1,0,0,1,99,259,5,1,,,,,,,,
,,,,,,,,,,,,,FF,,,,,,,,1.33,,,,,,,,,,,,,,,,,,,,,,61035fdca8e42cfdbbca31f2,610364c6015507cf1849f4b3,2021-07-29_19h34.57.815,Simcolourproject_2stim_asymm_v5,2020.2.10,MacIntel,60,61025ae37ef11b136ea224fe,,,,,,,,,70,-45,-118,1,0,0,response5disk,,3,8,-1,1,0,0,rectangle,8,-1,1,0,0,8,-1,1,0,0,1,100,260,17,1,,,,,,,,
,,,,,,,,,,,,,FF,,,,,,,,1.596,,,,,,,,,,,,,,,,,,,,,,61035fdca8e42cfdbbca31f2,610364c6015507cf1849f4b3,2021-07-29_19h34.57.815,Simcolourproject_2stim_asymm_v5,2020.2.10,MacIntel,60,61025ae37ef11b136ea224fe,,,,,,,,,1310,64,-69,1,0,0,response3disk,,4,5,2,1,0,0,rectangle,5,2,1,0,0,5,2,1,0,0,1,101,261,75,1,,,,,,,,
,,,,,,,,,,,,,FF,,,,,,,,2.169,,,,,,,,,,,,,,,,,,,,,,61035fdca8e42cfdbbca31f2,610364c6015507cf1849f4b3,2021-07-29_19h34.57.815,Simcolourproject_2stim_asymm_v5,2020.2.10,MacIntel,60,61025ae37ef11b136ea224fe,,,,,,,,,353,56,-97,1,0,0,response3disk,,4,22,-2,1,0,0,rectangle,-101,-48,1,0,0,-17,-7,1,0,0,1,102,262,90,1,,response5disk_3,TRUE,2,2,"[81,42,149,216,263,301,311,317,115,71,104,135,305,101,56,316,106,170,79,271]",2.118,rectangle
,,,,,,,,,,,,,FF,,,,,,,,2.349,,,,,,,,,,,,,,,,,,,,,,61035fdca8e42cfdbbca31f2,610364c6015507cf1849f4b3,2021-07-29_19h34.57.815,Simcolourproject_2stim_asymm_v5,2020.2.10,MacIntel,60,61025ae37ef11b136ea224fe,,,,,,,,,3,73,-41,1,0,0,response3disk,,5,5,-6,1,0,0,rectangle,5,-6,1,0,0,5,-6,1,0,0,1,103,263,154,1,,,,,,,,
,,,,,,,,,,,,,FF,,,,,,,,1.282,,,,,,,,,,,,,,,,,,,,,,61035fdca8e42cfdbbca31f2,610364c6015507cf1849f4b3,2021-07-29_19h34.57.815,Simcolourproject_2stim_asymm_v5,2020.2.10,MacIntel,60,61025ae37ef11b136ea224fe,,,,,,,,,2079,43,89,1,0,0,response1disk,,7,-15,-18,1,0,0,rectangle,-15,-18,1,0,0,-15,-18,1,0,0,1,104,264,54,1,,,,,,,,
,,,,,,,,,,,,,FF,,,,,,,,1.489,,,,,,,,,,,,,,,,,,,,,,61035fdca8e42cfdbbca31f2,610364c6015507cf1849f4b3,2021-07-29_19h34.57.815,Simcolourproject_2stim_asymm_v5,2020.2.10,MacIntel,60,61025ae37ef11b136ea224fe,,,,,,,,,4189,39,78,1,0,0,response1disk,,7,-8,-7,1,0,0,rectangle,-8,-7,1,0,0,-8,-7,1,0,0,1,105,265,105,1,,,,,,,,
,,,,,,,,,,,,,FF,,,,,,,,0.796,,,,,,,,,,,,,,,,,,,,,,61035fdca8e42cfdbbca31f2,610364c6015507cf1849f4b3,2021-07-29_19h34.57.815,Simcolourproject_2stim_asymm_v5,2020.2.10,MacIntel,60,61025ae37ef11b136ea224fe,,,,,,,,,155,50,92,1,0,0,response1disk,,7,5,8,1,0,0,rectangle,5,8,1,0,0,5,8,1,0,0,1,106,266,108,1,,,,,,,,
,,,,,,,,,,,,,FF,,,,,,,,1.233,,,,,,,,,,,,,,,,,,,,,,61035fdca8e42cfdbbca31f2,610364c6015507cf1849f4b3,2021-07-29_19h34.57.815,Simcolourproject_2stim_asymm_v5,2020.2.10,MacIntel,60,61025ae37ef11b136ea224fe,,,,,,,,,3469,-77,-53,1,0,0,response5disk,,2,-19,0,1,0,0,rectangle,-19,0,1,0,0,-19,0,1,0,0,1,107,267,98,1,,,,,,,,
,,,,,,,,,,,,,FF,,,,,,,,0.843,,,,,,,,,,,,,,,,,,,,,,61035fdca8e42cfdbbca31f2,610364c6015507cf1849f4b3,2021-07-29_19h34.57.815,Simcolourproject_2stim_asymm_v5,2020.2.10,MacIntel,60,61025ae37ef11b136ea224fe,,,,,,,,,2641,54,95,1,0,0,response1disk,,7,6,13,1,0,0,rectangle,6,13,1,0,0,6,13,1,0,0,1,108,268,23,1,,,,,,,,
,,,,,,,,,,,,,FF,,,,,,,,0.61,,,,,,,,,,,,,,,,,,,,,,61035fdca8e42cfdbbca31f2,610364c6015507cf1849f4b3,2021-07-29_19h34.57.815,Simcolourproject_2stim_asymm_v5,2020.2.10,MacIntel,60,61025ae37ef11b136ea224fe,,,,,,,,,2852,63,106,1,0,0,response1disk,,7,14,10,1,0,0,rectangle,14,10,1,0,0,14,10,1,0,0,1,109,269,48,1,,,,,,,,
,,,,,,,,,,,,,FF,,,,,,,,2.385,,,,,,,,,,,,,,,,,,,,,,61035fdca8e42cfdbbca31f2,610364c6015507cf1849f4b3,2021-07-29_19h34.57.815,Simcolourproject_2stim_asymm_v5,2020.2.10,MacIntel,60,61025ae37ef11b136ea224fe,,,,,,,,,3058,21,57,1,0,0,response1disk,,7,-8,-16,1,0,0,rectangle,37,-99,1,0,0,-7,11,1,0,0,1,110,270,6,1,,response3disk_3,TRUE,4,4,"[81,42,149,216,263,301,311,317,115,71,104,135,305,101,56,316,106,170,79,271]",1.692,rectangle
,,,,,,,,,,,,,FF,,,,,,,,8.488,,,,,,,,,,,,,,,,,,,,,,61035fdca8e42cfdbbca31f2,610364c6015507cf1849f4b3,2021-07-29_19h34.57.815,Simcolourproject_2stim_asymm_v5,2020.2.10,MacIntel,60,61025ae37ef11b136ea224fe,,,,,,,,,2399,29,73,1,0,0,response1disk,,7,-2,13,1,0,0,rectangle,-2,13,1,0,0,-2,13,1,0,0,1,111,271,67,1,,,,,,,,
,,,,,,,,,,,,,FF,,,,,,,,0.616,,,,,,,,,,,,,,,,,,,,,,61035fdca8e42cfdbbca31f2,610364c6015507cf1849f4b3,2021-07-29_19h34.57.815,Simcolourproject_2stim_asymm_v5,2020.2.10,MacIntel,60,61025ae37ef11b136ea224fe,,,,,,,,,3410,45,81,1,0,0,response1disk,,7,-1,-10,1,0,0,rectangle,-1,-10,1,0,0,-1,-10,1,0,0,1,112,272,124,1,,,,,,,,
,,,,,,,,,,,,,FF,,,,,,,,1.79,,,,,,,,,,,,,,,,,,,,,,61035fdca8e42cfdbbca31f2,610364c6015507cf1849f4b3,2021-07-29_19h34.57.815,Simcolourproject_2stim_asymm_v5,2020.2.10,MacIntel,60,61025ae37ef11b136ea224fe,,,,,,,,,3462,59,-119,1,0,0,response3disk,,4,-7,11,1,0,0,rectangle,-7,11,1,0,0,-7,11,1,0,0,1,113,273,135,1,,,,,,,,
,,,,,,,,,,,,,FF,,,,,,,,1.143,,,,,,,,,,,,,,,,,,,,,,61035fdca8e42cfdbbca31f2,610364c6015507cf1849f4b3,2021-07-29_19h34.57.815,Simcolourproject_2stim_asymm_v5,2020.2.10,MacIntel,60,61025ae37ef11b136ea224fe,,,,,,,,,1439,73,97,1,0,0,response1disk,,7,18,5,1,0,0,rectangle,18,5,1,0,0,18,5,1,0,0,1,114,274,64,1,,,,,,,,
,,,,,,,,,,,,,FF,,,,,,,,0.68,,,,,,,,,,,,,,,,,,,,,,61035fdca8e42cfdbbca31f2,610364c6015507cf1849f4b3,2021-07-29_19h34.57.815,Simcolourproject_2stim_asymm_v5,2020.2.10,MacIntel,60,61025ae37ef11b136ea224fe,,,,,,,,,3230,56,92,1,0,0,response1disk,,7,12,14,1,0,0,rectangle,12,14,1,0,0,12,14,1,0,0,1,115,275,113,1,,,,,,,,
,,,,,,,,,,,,,FF,,,,,,,,0.659,,,,,,,,,,,,,,,,,,,,,,61035fdca8e42cfdbbca31f2,610364c6015507cf1849f4b3,2021-07-29_19h34.57.815,Simcolourproject_2stim_asymm_v5,2020.2.10,MacIntel,60,61025ae37ef11b136ea224fe,,,,,,,,,4271,52,85,1,0,0,response1disk,,7,8,-3,1,0,0,rectangle,8,-3,1,0,0,8,-3,1,0,0,1,116,276,77,1,,,,,,,,
,,,,,,,,,,,,,FF,,,,,,,,0.473,,,,,,,,,,,,,,,,,,,,,,61035fdca8e42cfdbbca31f2,610364c6015507cf1849f4b3,2021-07-29_19h34.57.815,Simcolourproject_2stim_asymm_v5,2020.2.10,MacIntel,60,61025ae37ef11b136ea224fe,,,,,,,,,913,63,78,1,0,0,response1disk,,7,25,2,1,0,0,rectangle,25,2,1,0,0,25,2,1,0,0,1,117,277,88,1,,,,,,,,
,,,,,,,,,,,,,FF,,,,,,,,1.736,,,,,,,,,,,,,,,,,,,,,,61035fdca8e42cfdbbca31f2,610364c6015507cf1849f4b3,2021-07-29_19h34.57.815,Simcolourproject_2stim_asymm_v5,2020.2.10,MacIntel,60,61025ae37ef11b136ea224fe,,,,,,,,,2039,43,-81,1,0,0,response3disk,,4,-10,-2,1,0,0,rectangle,-10,-2,1,0,0,-10,-2,1,0,0,1,118,278,28,1,,,,,,,,
,,,,,,,,,,,,,FF,,,,,,,,0.715,,,,,,,,,,,,,,,,,,,,,,61035fdca8e42cfdbbca31f2,610364c6015507cf1849f4b3,2021-07-29_19h34.57.815,Simcolourproject_2stim_asymm_v5,2020.2.10,MacIntel,60,61025ae37ef11b136ea224fe,,,,,,,,,1647,29,105,1,0,0,response1disk,,7,5,0,1,0,0,rectangle,5,0,1,0,0,5,0,1,0,0,1,119,279,112,1,,,,,,,,
,,,,,,,,,,,,,FF,,,,,,,,0.711,,,,,,,,,,,,,,,,,,,,,,61035fdca8e42cfdbbca31f2,610364c6015507cf1849f4b3,2021-07-29_19h34.57.815,Simcolourproject_2stim_asymm_v5,2020.2.10,MacIntel,60,61025ae37ef11b136ea224fe,,,,,,,,,979,57,80,1,0,0,response1disk,,7,33,12,1,0,0,rectangle,33,12,1,0,0,33,12,1,0,0,1,120,280,151,1,,,,,,,,
,,,,,,,,,,,,,FF,,,,,,,,0.627,,,,,,,,,,,,,,,,,,,,,,61035fdca8e42cfdbbca31f2,610364c6015507cf1849f4b3,2021-07-29_19h34.57.815,Simcolourproject_2stim_asymm_v5,2020.2.10,MacIntel,60,61025ae37ef11b136ea224fe,,,,,,,,,4215,50,91,1,0,0,response1disk,,7,13,1,1,0,0,rectangle,13,1,1,0,0,13,1,1,0,0,1,121,281,99,1,,,,,,,,
,,,,,,,,,,,,,FF,,,,,,,,0.751,,,,,,,,,,,,,,,,,,,,,,61035fdca8e42cfdbbca31f2,610364c6015507cf1849f4b3,2021-07-29_19h34.57.815,Simcolourproject_2stim_asymm_v5,2020.2.10,MacIntel,60,61025ae37ef11b136ea224fe,,,,,,,,,3576,45,97,1,0,0,response1disk,,7,15,8,1,0,0,rectangle,15,8,1,0,0,15,8,1,0,0,1,122,282,133,1,,,,,,,,
,,,,,,,,,,,,,FF,,,,,,,,0.824,,,,,,,,,,,,,,,,,,,,,,61035fdca8e42cfdbbca31f2,610364c6015507cf1849f4b3,2021-07-29_19h34.57.815,Simcolourproject_2stim_asymm_v5,2020.2.10,MacIntel,60,61025ae37ef11b136ea224fe,,,,,,,,,2971,46,127,1,0,0,response1disk,,7,10,5,1,0,0,rectangle,10,5,1,0,0,10,5,1,0,0,1,123,283,61,1,,,,,,,,
,,,,,,,,,,,,,FF,,,,,,,,1.166,,,,,,,,,,,,,,,,,,,,,,61035fdca8e42cfdbbca31f2,610364c6015507cf1849f4b3,2021-07-29_19h34.57.815,Simcolourproject_2stim_asymm_v5,2020.2.10,MacIntel,60,61025ae37ef11b136ea224fe,,,,,,,,,3556,-47,-108,1,0,0,response5disk,,3,-9,12,1,0,0,rectangle,-9,12,1,0,0,-9,12,1,0,0,1,124,284,120,1,,,,,,,,
,,,,,,,,,,,,,FF,,,,,,,,0.833,,,,,,,,,,,,,,,,,,,,,,61035fdca8e42cfdbbca31f2,610364c6015507cf1849f4b3,2021-07-29_19h34.57.815,Simcolourproject_2stim_asymm_v5,2020.2.10,MacIntel,60,61025ae37ef11b136ea224fe,,,,,,,,,3458,60,118,1,0,0,response1disk,,7,-3,10,1,0,0,rectangle,-3,10,1,0,0,-3,10,1,0,0,1,125,285,40,1,,,,,,,,
,,,,,,,,,,,,,FF,,,,,,,,0.739,,,,,,,,,,,,,,,,,,,,,,61035fdca8e42cfdbbca31f2,610364c6015507cf1849f4b3,2021-07-29_19h34.57.815,Simcolourproject_2stim_asymm_v5,2020.2.10,MacIntel,60,61025ae37ef11b136ea224fe,,,,,,,,,13,25,70,1,0,0,response1disk,,7,-14,6,1,0,0,rectangle,-14,6,1,0,0,-14,6,1,0,0,1,126,286,76,1,,,,,,,,
,,,,,,,,,,,,,FF,,,,,,,,2.775,,,,,,,,,,,,,,,,,,,,,,61035fdca8e42cfdbbca31f2,610364c6015507cf1849f4b3,2021-07-29_19h34.57.815,Simcolourproject_2stim_asymm_v5,2020.2.10,MacIntel,60,61025ae37ef11b136ea224fe,,,,,,,,,2880,54,-95,1,0,0,response3disk,,4,16,4,1,0,0,rectangle,16,4,1,0,0,16,4,1,0,0,1,127,287,12,1,,,,,,,,
,,,,,,,,,,,,,FF,,,,,,,,0.721,,,,,,,,,,,,,,,,,,,,,,61035fdca8e42cfdbbca31f2,610364c6015507cf1849f4b3,2021-07-29_19h34.57.815,Simcolourproject_2stim_asymm_v5,2020.2.10,MacIntel,60,61025ae37ef11b136ea224fe,,,,,,,,,2526,42,102,1,0,0,response1disk,,7,6,-1,1,0,0,rectangle,6,-1,1,0,0,6,-1,1,0,0,1,128,288,26,1,,,,,,,,
,,,,,,,,,,,,,FF,,,,,,,,1.175,,,,,,,,,,,,,,,,,,,,,,61035fdca8e42cfdbbca31f2,610364c6015507cf1849f4b3,2021-07-29_19h34.57.815,Simcolourproject_2stim_asymm_v5,2020.2.10,MacIntel,60,61025ae37ef11b136ea224fe,,,,,,,,,1296,-52,-71,1,0,0,response5disk,,3,-23,4,1,0,0,rectangle,-23,4,1,0,0,-23,4,1,0,0,1,129,289,57,1,,,,,,,,
,,,,,,,,,,,,,FF,,,,,,,,0.643,,,,,,,,,,,,,,,,,,,,,,61035fdca8e42cfdbbca31f2,610364c6015507cf1849f4b3,2021-07-29_19h34.57.815,Simcolourproject_2stim_asymm_v5,2020.2.10,MacIntel,60,61025ae37ef11b136ea224fe,,,,,,,,,1144,67,115,1,0,0,response1disk,,7,20,13,1,0,0,rectangle,20,13,1,0,0,20,13,1,0,0,1,130,290,92,1,,,,,,,,
,,,,,,,,,,,,,FF,,,,,,,,0.604,,,,,,,,,,,,,,,,,,,,,,61035fdca8e42cfdbbca31f2,610364c6015507cf1849f4b3,2021-07-29_19h34.57.815,Simcolourproject_2stim_asymm_v5,2020.2.10,MacIntel,60,61025ae37ef11b136ea224fe,,,,,,,,,2539,70,85,1,0,0,response1disk,,7,26,12,1,0,0,rectangle,26,12,1,0,0,26,12,1,0,0,1,131,291,106,1,,,,,,,,
,,,,,,,,,,,,,FF,,,,,,,,1.478,,,,,,,,,,,,,,,,,,,,,,61035fdca8e42cfdbbca31f2,610364c6015507cf1849f4b3,2021-07-29_19h34.57.815,Simcolourproject_2stim_asymm_v5,2020.2.10,MacIntel,60,61025ae37ef11b136ea224fe,,,,,,,,,3638,64,99,1,0,0,response1disk,,7,30,6,1,0,0,rectangle,30,6,1,0,0,30,6,1,0,0,1,132,292,107,1,,,,,,,,
,,,,,,,,,,,,,FF,,,,,,,,1.012,,,,,,,,,,,,,,,,,,,,,,61035fdca8e42cfdbbca31f2,610364c6015507cf1849f4b3,2021-07-29_19h34.57.815,Simcolourproject_2stim_asymm_v5,2020.2.10,MacIntel,60,61025ae37ef11b136ea224fe,,,,,,,,,4277,104,50,1,0,0,response1disk,,6,3,4,1,0,0,rectangle,3,4,1,0,0,3,4,1,0,0,1,133,293,65,1,,,,,,,,
,,,,,,,,,,,,,FF,,,,,,,,0.798,,,,,,,,,,,,,,,,,,,,,,61035fdca8e42cfdbbca31f2,610364c6015507cf1849f4b3,2021-07-29_19h34.57.815,Simcolourproject_2stim_asymm_v5,2020.2.10,MacIntel,60,61025ae37ef11b136ea224fe,,,,,,,,,4058,45,98,1,0,0,response1disk,,7,-1,-2,1,0,0,rectangle,-1,-2,1,0,0,-1,-2,1,0,0,1,134,294,4,1,,,,,,,,
,,,,,,,,,,,,,FF,,,,,,,,1.252,,,,,,,,,,,,,,,,,,,,,,61035fdca8e42cfdbbca31f2,610364c6015507cf1849f4b3,2021-07-29_19h34.57.815,Simcolourproject_2stim_asymm_v5,2020.2.10,MacIntel,60,61025ae37ef11b136ea224fe,,,,,,,,,3969,69,125,1,0,0,response1disk,,7,2,-1,1,0,0,rectangle,2,-1,1,0,0,2,-1,1,0,0,1,135,295,41,1,,,,,,,,
,,,,,,,,,,,,,FF,,,,,,,,0.663,,,,,,,,,,,,,,,,,,,,,,61035fdca8e42cfdbbca31f2,610364c6015507cf1849f4b3,2021-07-29_19h34.57.815,Simcolourproject_2stim_asymm_v5,2020.2.10,MacIntel,60,61025ae37ef11b136ea224fe,,,,,,,,,1997,53,108,1,0,0,response1disk,,7,-9,-16,1,0,0,rectangle,-9,-16,1,0,0,-9,-16,1,0,0,1,136,296,27,1,,,,,,,,
,,,,,,,,,,,,,FF,,,,,,,,1.441,,,,,,,,,,,,,,,,,,,,,,61035fdca8e42cfdbbca31f2,610364c6015507cf1849f4b3,2021-07-29_19h34.57.815,Simcolourproject_2stim_asymm_v5,2020.2.10,MacIntel,60,61025ae37ef11b136ea224fe,,,,,,,,,1884,51,94,1,0,0,response1disk,,7,13,13,1,0,0,rectangle,13,13,1,0,0,13,13,1,0,0,1,137,297,20,1,,,,,,,,
,,,,,,,,,,,,,FF,,,,,,,,0.913,,,,,,,,,,,,,,,,,,,,,,61035fdca8e42cfdbbca31f2,610364c6015507cf1849f4b3,2021-07-29_19h34.57.815,Simcolourproject_2stim_asymm_v5,2020.2.10,MacIntel,60,61025ae37ef11b136ea224fe,,,,,,,,,3895,52,114,1,0,0,response1disk,,7,13,-3,1,0,0,rectangle,13,-3,1,0,0,13,-3,1,0,0,1,138,298,155,1,,,,,,,,
,,,,,,,,,,,,,FF,,,,,,,,1.434,,,,,,,,,,,,,,,,,,,,,,61035fdca8e42cfdbbca31f2,610364c6015507cf1849f4b3,2021-07-29_19h34.57.815,Simcolourproject_2stim_asymm_v5,2020.2.10,MacIntel,60,61025ae37ef11b136ea224fe,,,,,,,,,1830,-55,-125,1,0,0,response5disk,,3,-6,5,1,0,0,rectangle,-6,5,1,0,0,-6,5,1,0,0,1,139,299,74,1,,,,,,,,
,,,,,,,,,,,,,FF,,,,,,,,1.005,,,,,,,,,,,,,,,,,,,,,,61035fdca8e42cfdbbca31f2,610364c6015507cf1849f4b3,2021-07-29_19h34.57.815,Simcolourproject_2stim_asymm_v5,2020.2.10,MacIntel,60,61025ae37ef11b136ea224fe,,,,,,,,,1712,37,80,1,0,0,response1disk,,7,-4,0,1,0,0,rectangle,41,96,1,0,0,9,4,1,0,0,1,140,300,139,1,,response1disk_3,TRUE,7,7,"[81,42,149,216,263,301,311,317,115,71,104,135,305,101,56,316,106,170,79,271]",1.476,rectangle
