key_resp.keys,key_resp.rt,key_resp_14.keys,key_resp_14.rt,key_resp_15.keys,key_resp_15.rt,key_resp_17.keys,key_resp_17.rt,key_resp_9.keys,key_resp_9.rt,key_resp_10.keys,key_resp_10.rt,practice_comparison,Ecc,mouse_5.x,mouse_5.y,mouse_5.leftButton,mouse_5.midButton,mouse_5.rightButton,mouse_5.clicked_name,pracsimilarity,response_time,mouse_10.x,mouse_10.y,mouse_10.leftButton,mouse_10.midButton,mouse_10.rightButton,mouse_10.clicked_name,mouse_7.x,mouse_7.y,mouse_7.leftButton,mouse_7.midButton,mouse_7.rightButton,mouse_6.x,mouse_6.y,mouse_6.leftButton,mouse_6.midButton,mouse_6.rightButton,duringprac.thisRepN,duringprac.thisTrialN,duringprac.thisN,duringprac.thisIndex,duringprac.ran,participant,session,date,expName,psychopyVersion,OS,frameRate,study_id,mouse_7.clicked_name,catchpracsimilarity,catch_response_time,catchnumberprac,catchtrialorderprac,mouse_6.clicked_name,key_resp_22.keys,key_resp_22.rt,realcomparison,mouse.x,mouse.y,mouse.leftButton,mouse.midButton,mouse.rightButton,mouse.clicked_name,Colour2,similarity,mouse_2.x,mouse_2.y,mouse_2.leftButton,mouse_2.midButton,mouse_2.rightButton,mouse_2.clicked_name,mouse_3.x,mouse_3.y,mouse_3.leftButton,mouse_3.midButton,mouse_3.rightButton,mouse_11.x,mouse_11.y,mouse_11.leftButton,mouse_11.midButton,mouse_11.rightButton,trials_2.thisRepN,trials_2.thisTrialN,trials_2.thisN,trials_2.thisIndex,trials_2.ran,Colour1,mouse_3.clicked_name,catchornah,catchsimilarity,catchnumber,catchtrialorder,catchRT,mouse_11.clicked_name
space,0.9206,space,12.7134,space,12.708,space,3.7162,space,0.6278,space,4.6402,80,PF,59.24127197,-39.84036255,1,0,0,response3disk_5,5,10.6128,0.757141113,9.037445068,1,0,0,rectangle_8,0.757141113,9.037445068,1,0,0,0.757141113,9.037445068,1,0,0,0,0,0,6,1,61036b50ca5be39e19acdc3d,61036e800932c682af6e03e7,2021-07-29_22h14.44.541,Simcolourproject_2stim_asymm_v5,2020.2.10,Linux aarch64,60,61025ae37ef11b136ea224fe,,,,,,,,,,,,,,,,,,,,,,,,,,,,,,,,,,,,,,,,,,,,,,
,,,,,,,,,,,,80,FF,41.27484131,31.58822632,1,0,0,response1disk_5,6,6.1932,11.72875977,-6.319152832,1,0,0,rectangle_8,84.15808105,37.26419067,1,0,0,-12.43829346,10.74920654,1,0,0,0,1,1,5,1,61036b50ca5be39e19acdc3d,61036e800932c682af6e03e7,2021-07-29_22h14.44.541,Simcolourproject_2stim_asymm_v5,2020.2.10,Linux aarch64,60,61025ae37ef11b136ea224fe,response1disk_7,6,4.8287,6,"[2,5]",rectangle_4,,,,,,,,,,,,,,,,,,,,,,,,,,,,,,,,,,,,,,,,
,,,,,,,,,,,,59,FF,83.08612061,71.53207397,1,0,0,response1disk_5,6,5.0296,1.525268555,-7.922790527,1,0,0,rectangle_8,1.525268555,-7.922790527,1,0,0,1.525268555,-7.922790527,1,0,0,0,2,2,0,1,61036b50ca5be39e19acdc3d,61036e800932c682af6e03e7,2021-07-29_22h14.44.541,Simcolourproject_2stim_asymm_v5,2020.2.10,Linux aarch64,60,61025ae37ef11b136ea224fe,,,,,,,,,,,,,,,,,,,,,,,,,,,,,,,,,,,,,,,,,,,,,,
,,,,,,,,,,,,79,PF,69.48980713,72.49307251,1,0,0,response1disk_5,7,3.7126,10.9029541,3.038360596,1,0,0,rectangle_8,10.9029541,3.038360596,1,0,0,10.9029541,3.038360596,1,0,0,0,3,3,2,1,61036b50ca5be39e19acdc3d,61036e800932c682af6e03e7,2021-07-29_22h14.44.541,Simcolourproject_2stim_asymm_v5,2020.2.10,Linux aarch64,60,61025ae37ef11b136ea224fe,,,,,,,,,,,,,,,,,,,,,,,,,,,,,,,,,,,,,,,,,,,,,,
,,,,,,,,,,,,143,PF,-79.30145264,-39.93395996,1,0,0,response5disk_5,2,4.146,17.30187988,3.984100342,1,0,0,rectangle_8,81.18591309,55.54345703,1,0,0,-1.180908203,-4.483306885,1,0,0,0,4,4,1,1,61036b50ca5be39e19acdc3d,61036e800932c682af6e03e7,2021-07-29_22h14.44.541,Simcolourproject_2stim_asymm_v5,2020.2.10,Linux aarch64,60,61025ae37ef11b136ea224fe,response1disk_7,6,1.9314,6,"[2,5]",rectangle_4,,,,,,,,,,,,,,,,,,,,,,,,,,,,,,,,,,,,,,,,
,,,,,,,,,,,,112,FF,31.66876221,-44.51992798,1,0,0,response3disk_5,4,2.531,3.511962891,-8.391204834,1,0,0,rectangle_8,3.511962891,-8.391204834,1,0,0,3.511962891,-8.391204834,1,0,0,0,5,5,3,1,61036b50ca5be39e19acdc3d,61036e800932c682af6e03e7,2021-07-29_22h14.44.541,Simcolourproject_2stim_asymm_v5,2020.2.10,Linux aarch64,60,61025ae37ef11b136ea224fe,,,,,,,,,,,,,,,,,,,,,,,,,,,,,,,,,,,,,,,,,,,,,,
,,,,,,,,,,,,111,PF,-52.17797852,-65.91293335,1,0,0,response5disk_5,3,3.9965,18.44476318,-5.769500732,1,0,0,rectangle_8,18.44476318,-5.769500732,1,0,0,18.44476318,-5.769500732,1,0,0,0,6,6,4,1,61036b50ca5be39e19acdc3d,61036e800932c682af6e03e7,2021-07-29_22h14.44.541,Simcolourproject_2stim_asymm_v5,2020.2.10,Linux aarch64,60,61025ae37ef11b136ea224fe,,,,,,,,,,,,,,,,,,,,,,,,,,,,,,,,,,,,,,,,,,,,,,
,,,,,,,,,,,,,FF,,,,,,,,2.7318,,,,,,,,,,,,,,,,,,,,,,61036b50ca5be39e19acdc3d,61036e800932c682af6e03e7,2021-07-29_22h14.44.541,Simcolourproject_2stim_asymm_v5,2020.2.10,Linux aarch64,60,61025ae37ef11b136ea224fe,,,,,,,space,3.3157,3349,65.36657715,89.58288574,1,0,0,response1disk,,7,-22.05029297,4.311767578,1,0,0,rectangle,-22.05029297,4.311767578,1,0,0,-22.05029297,4.311767578,1,0,0,0,0,0,112,1,,,,,,,,
,,,,,,,,,,,,,FF,,,,,,,,1.8832,,,,,,,,,,,,,,,,,,,,,,61036b50ca5be39e19acdc3d,61036e800932c682af6e03e7,2021-07-29_22h14.44.541,Simcolourproject_2stim_asymm_v5,2020.2.10,Linux aarch64,60,61025ae37ef11b136ea224fe,,,,,,,,,2339,29.67987061,27.29953003,1,0,0,response1disk,,6,2.154052734,-8.908966064,1,0,0,rectangle,2.154052734,-8.908966064,1,0,0,2.154052734,-8.908966064,1,0,0,0,1,1,2,1,,,,,,,,
,,,,,,,,,,,,,FF,,,,,,,,3.6453,,,,,,,,,,,,,,,,,,,,,,61036b50ca5be39e19acdc3d,61036e800932c682af6e03e7,2021-07-29_22h14.44.541,Simcolourproject_2stim_asymm_v5,2020.2.10,Linux aarch64,60,61025ae37ef11b136ea224fe,,,,,,,,,2474,-32.20617676,-39.88299561,1,0,0,response5disk,,3,22.70037842,8.944824219,1,0,0,rectangle,22.70037842,8.944824219,1,0,0,22.70037842,8.944824219,1,0,0,0,2,2,3,1,,,,,,,,
,,,,,,,,,,,,,FF,,,,,,,,3.6301,,,,,,,,,,,,,,,,,,,,,,61036b50ca5be39e19acdc3d,61036e800932c682af6e03e7,2021-07-29_22h14.44.541,Simcolourproject_2stim_asymm_v5,2020.2.10,Linux aarch64,60,61025ae37ef11b136ea224fe,,,,,,,,,828,54.65441895,-28.72897339,1,0,0,response3disk,,5,6.102111816,6.089172363,1,0,0,rectangle,84.04962158,-29.41516113,1,0,0,19.7298584,-13.20004272,1,0,0,0,3,3,105,1,,response3disk_3,TRUE,5,5,"[228,150,166,256,11,267,116,233,244,94,167,66,4,107,247,85,74,283,170,265]",3.198,rectangle
,,,,,,,,,,,,,FF,,,,,,,,1.4981,,,,,,,,,,,,,,,,,,,,,,61036b50ca5be39e19acdc3d,61036e800932c682af6e03e7,2021-07-29_22h14.44.541,Simcolourproject_2stim_asymm_v5,2020.2.10,Linux aarch64,60,61025ae37ef11b136ea224fe,,,,,,,,,147,90.86865234,55.87182617,1,0,0,response1disk,,6,-13.04736328,3.610992432,1,0,0,rectangle,-13.04736328,3.610992432,1,0,0,-13.04736328,3.610992432,1,0,0,0,4,4,115,1,,,,,,,,
,,,,,,,,,,,,,FF,,,,,,,,2.0318,,,,,,,,,,,,,,,,,,,,,,61036b50ca5be39e19acdc3d,61036e800932c682af6e03e7,2021-07-29_22h14.44.541,Simcolourproject_2stim_asymm_v5,2020.2.10,Linux aarch64,60,61025ae37ef11b136ea224fe,,,,,,,,,702,51.28485107,-24.70532227,1,0,0,response3disk,,5,-12.73840332,8.577941895,1,0,0,rectangle,-12.73840332,8.577941895,1,0,0,-12.73840332,8.577941895,1,0,0,0,5,5,143,1,,,,,,,,
,,,,,,,,,,,,,FF,,,,,,,,2.8644,,,,,,,,,,,,,,,,,,,,,,61036b50ca5be39e19acdc3d,61036e800932c682af6e03e7,2021-07-29_22h14.44.541,Simcolourproject_2stim_asymm_v5,2020.2.10,Linux aarch64,60,61025ae37ef11b136ea224fe,,,,,,,,,2110,43.22937012,-55.90063477,1,0,0,response3disk,,4,10.7980957,-2.881713867,1,0,0,rectangle,10.7980957,-2.881713867,1,0,0,10.7980957,-2.881713867,1,0,0,0,6,6,11,1,,,,,,,,
,,,,,,,,,,,,,FF,,,,,,,,1.9651,,,,,,,,,,,,,,,,,,,,,,61036b50ca5be39e19acdc3d,61036e800932c682af6e03e7,2021-07-29_22h14.44.541,Simcolourproject_2stim_asymm_v5,2020.2.10,Linux aarch64,60,61025ae37ef11b136ea224fe,,,,,,,,,79,-54.85522461,-37.30551147,1,0,0,response5disk,,2,-13.99261475,2.854064941,1,0,0,rectangle,-13.99261475,2.854064941,1,0,0,-13.99261475,2.854064941,1,0,0,0,7,7,65,1,,,,,,,,
,,,,,,,,,,,,,FF,,,,,,,,2.5131,,,,,,,,,,,,,,,,,,,,,,61036b50ca5be39e19acdc3d,61036e800932c682af6e03e7,2021-07-29_22h14.44.541,Simcolourproject_2stim_asymm_v5,2020.2.10,Linux aarch64,60,61025ae37ef11b136ea224fe,,,,,,,,,298,43.48797607,63.87759399,1,0,0,response1disk,,7,-1.119812012,2.708312988,1,0,0,rectangle,-1.119812012,2.708312988,1,0,0,-1.119812012,2.708312988,1,0,0,0,8,8,63,1,,,,,,,,
,,,,,,,,,,,,,FF,,,,,,,,1.6823,,,,,,,,,,,,,,,,,,,,,,61036b50ca5be39e19acdc3d,61036e800932c682af6e03e7,2021-07-29_22h14.44.541,Simcolourproject_2stim_asymm_v5,2020.2.10,Linux aarch64,60,61025ae37ef11b136ea224fe,,,,,,,,,3471,-52.98583984,-46.53775024,1,0,0,response5disk,,2,1.154296875,1.904388428,1,0,0,rectangle,1.154296875,1.904388428,1,0,0,1.154296875,1.904388428,1,0,0,0,9,9,74,1,,,,,,,,
,,,,,,,,,,,,,FF,,,,,,,,1.5846,,,,,,,,,,,,,,,,,,,,,,61036b50ca5be39e19acdc3d,61036e800932c682af6e03e7,2021-07-29_22h14.44.541,Simcolourproject_2stim_asymm_v5,2020.2.10,Linux aarch64,60,61025ae37ef11b136ea224fe,,,,,,,,,416,50.00994873,44.64859009,1,0,0,response1disk,,6,4.138244629,0.305389404,1,0,0,rectangle,-74.87060547,37.12731934,1,0,0,7.710021973,-5.951293945,1,0,0,0,10,10,127,1,,response7disk_3,TRUE,1,1,"[228,150,166,256,11,267,116,233,244,94,167,66,4,107,247,85,74,283,170,265]",2.4792,rectangle
,,,,,,,,,,,,,FF,,,,,,,,2.2993,,,,,,,,,,,,,,,,,,,,,,61036b50ca5be39e19acdc3d,61036e800932c682af6e03e7,2021-07-29_22h14.44.541,Simcolourproject_2stim_asymm_v5,2020.2.10,Linux aarch64,60,61025ae37ef11b136ea224fe,,,,,,,,,2088,51.49151611,-27.95968628,1,0,0,response3disk,,5,1.730651855,-0.436157227,1,0,0,rectangle,1.730651855,-0.436157227,1,0,0,1.730651855,-0.436157227,1,0,0,0,11,11,0,1,,,,,,,,
,,,,,,,,,,,,,FF,,,,,,,,2.5972,,,,,,,,,,,,,,,,,,,,,,61036b50ca5be39e19acdc3d,61036e800932c682af6e03e7,2021-07-29_22h14.44.541,Simcolourproject_2stim_asymm_v5,2020.2.10,Linux aarch64,60,61025ae37ef11b136ea224fe,,,,,,,,,2902,-30.57293701,-36.97225952,1,0,0,response5disk,,3,7.872253418,-7.329742432,1,0,0,rectangle,7.872253418,-7.329742432,1,0,0,7.872253418,-7.329742432,1,0,0,0,12,12,32,1,,,,,,,,
,,,,,,,,,,,,,FF,,,,,,,,1.3985,,,,,,,,,,,,,,,,,,,,,,61036b50ca5be39e19acdc3d,61036e800932c682af6e03e7,2021-07-29_22h14.44.541,Simcolourproject_2stim_asymm_v5,2020.2.10,Linux aarch64,60,61025ae37ef11b136ea224fe,,,,,,,,,3134,36.31500244,32.96704102,1,0,0,response1disk,,6,8.076171875,-4.106536865,1,0,0,rectangle,8.076171875,-4.106536865,1,0,0,8.076171875,-4.106536865,1,0,0,0,13,13,125,1,,,,,,,,
,,,,,,,,,,,,,FF,,,,,,,,1.2816,,,,,,,,,,,,,,,,,,,,,,61036b50ca5be39e19acdc3d,61036e800932c682af6e03e7,2021-07-29_22h14.44.541,Simcolourproject_2stim_asymm_v5,2020.2.10,Linux aarch64,60,61025ae37ef11b136ea224fe,,,,,,,,,1156,59.81744385,-53.41088867,1,0,0,response3disk,,5,-7.43182373,9.33013916,1,0,0,rectangle,-7.43182373,9.33013916,1,0,0,-7.43182373,9.33013916,1,0,0,0,14,14,88,1,,,,,,,,
,,,,,,,,,,,,,FF,,,,,,,,4.9776,,,,,,,,,,,,,,,,,,,,,,61036b50ca5be39e19acdc3d,61036e800932c682af6e03e7,2021-07-29_22h14.44.541,Simcolourproject_2stim_asymm_v5,2020.2.10,Linux aarch64,60,61025ae37ef11b136ea224fe,,,,,,,,,1698,93.01855469,-31.96591187,1,0,0,response3disk,,5,14.76409912,-8.768371582,1,0,0,rectangle,14.76409912,-8.768371582,1,0,0,14.76409912,-8.768371582,1,0,0,0,15,15,67,1,,,,,,,,
,,,,,,,,,,,,,FF,,,,,,,,1.282,,,,,,,,,,,,,,,,,,,,,,61036b50ca5be39e19acdc3d,61036e800932c682af6e03e7,2021-07-29_22h14.44.541,Simcolourproject_2stim_asymm_v5,2020.2.10,Linux aarch64,60,61025ae37ef11b136ea224fe,,,,,,,,,1544,-88.74682617,-89.89825439,1,0,0,response5disk,,3,-10.78668213,12.60760498,1,0,0,rectangle,-10.78668213,12.60760498,1,0,0,-10.78668213,12.60760498,1,0,0,0,16,16,78,1,,,,,,,,
,,,,,,,,,,,,,FF,,,,,,,,1.2639,,,,,,,,,,,,,,,,,,,,,,61036b50ca5be39e19acdc3d,61036e800932c682af6e03e7,2021-07-29_22h14.44.541,Simcolourproject_2stim_asymm_v5,2020.2.10,Linux aarch64,60,61025ae37ef11b136ea224fe,,,,,,,,,1391,-36.19042969,-25.77252197,1,0,0,response5disk,,2,-17.14428711,-10.24945068,1,0,0,rectangle,-17.14428711,-10.24945068,1,0,0,-17.14428711,-10.24945068,1,0,0,0,17,17,40,1,,,,,,,,
,,,,,,,,,,,,,FF,,,,,,,,2.9637,,,,,,,,,,,,,,,,,,,,,,61036b50ca5be39e19acdc3d,61036e800932c682af6e03e7,2021-07-29_22h14.44.541,Simcolourproject_2stim_asymm_v5,2020.2.10,Linux aarch64,60,61025ae37ef11b136ea224fe,,,,,,,,,3691,82.92871094,-90.13592529,1,0,0,response3disk,,4,25.46002197,8.029602051,1,0,0,rectangle,25.46002197,8.029602051,1,0,0,25.46002197,8.029602051,1,0,0,0,18,18,91,1,,,,,,,,
,,,,,,,,,,,,,FF,,,,,,,,2.4986,,,,,,,,,,,,,,,,,,,,,,61036b50ca5be39e19acdc3d,61036e800932c682af6e03e7,2021-07-29_22h14.44.541,Simcolourproject_2stim_asymm_v5,2020.2.10,Linux aarch64,60,61025ae37ef11b136ea224fe,,,,,,,,,2953,23.95599365,-23.51379395,1,0,0,response3disk,,5,8.250366211,-6.674591064,1,0,0,rectangle,8.250366211,-6.674591064,1,0,0,8.250366211,-6.674591064,1,0,0,0,19,19,64,1,,,,,,,,
,,,,,,,,,,,,,FF,,,,,,,,1.4342,,,,,,,,,,,,,,,,,,,,,,61036b50ca5be39e19acdc3d,61036e800932c682af6e03e7,2021-07-29_22h14.44.541,Simcolourproject_2stim_asymm_v5,2020.2.10,Linux aarch64,60,61025ae37ef11b136ea224fe,,,,,,,,,1785,106.010437,58.0526123,1,0,0,response1disk,,6,-12.09124756,-2.144134521,1,0,0,rectangle,-12.09124756,-2.144134521,1,0,0,-12.09124756,-2.144134521,1,0,0,0,20,20,118,1,,,,,,,,
,,,,,,,,,,,,,FF,,,,,,,,1.3172,,,,,,,,,,,,,,,,,,,,,,61036b50ca5be39e19acdc3d,61036e800932c682af6e03e7,2021-07-29_22h14.44.541,Simcolourproject_2stim_asymm_v5,2020.2.10,Linux aarch64,60,61025ae37ef11b136ea224fe,,,,,,,,,3229,63.51361084,43.58056641,1,0,0,response1disk,,6,19.10626221,7.64855957,1,0,0,rectangle,19.10626221,7.64855957,1,0,0,19.10626221,7.64855957,1,0,0,0,21,21,132,1,,,,,,,,
,,,,,,,,,,,,,FF,,,,,,,,1.3325,,,,,,,,,,,,,,,,,,,,,,61036b50ca5be39e19acdc3d,61036e800932c682af6e03e7,2021-07-29_22h14.44.541,Simcolourproject_2stim_asymm_v5,2020.2.10,Linux aarch64,60,61025ae37ef11b136ea224fe,,,,,,,,,729,-42.64215088,-38.97616577,1,0,0,response5disk,,2,2.332763672,12.52926636,1,0,0,rectangle,2.332763672,12.52926636,1,0,0,2.332763672,12.52926636,1,0,0,0,22,22,36,1,,,,,,,,
,,,,,,,,,,,,,FF,,,,,,,,1.5318,,,,,,,,,,,,,,,,,,,,,,61036b50ca5be39e19acdc3d,61036e800932c682af6e03e7,2021-07-29_22h14.44.541,Simcolourproject_2stim_asymm_v5,2020.2.10,Linux aarch64,60,61025ae37ef11b136ea224fe,,,,,,,,,193,90.59881592,-44.69824219,1,0,0,response3disk,,5,4.00201416,2.026031494,1,0,0,rectangle,4.00201416,2.026031494,1,0,0,4.00201416,2.026031494,1,0,0,0,23,23,131,1,,,,,,,,
,,,,,,,,,,,,,FF,,,,,,,,3.5126,,,,,,,,,,,,,,,,,,,,,,61036b50ca5be39e19acdc3d,61036e800932c682af6e03e7,2021-07-29_22h14.44.541,Simcolourproject_2stim_asymm_v5,2020.2.10,Linux aarch64,60,61025ae37ef11b136ea224fe,,,,,,,,,2259,89.24719238,44.09872437,1,0,0,response1disk,,6,19.34143066,0.089508057,1,0,0,rectangle,19.34143066,0.089508057,1,0,0,19.34143066,0.089508057,1,0,0,0,24,24,31,1,,,,,,,,
,,,,,,,,,,,,,FF,,,,,,,,2.0987,,,,,,,,,,,,,,,,,,,,,,61036b50ca5be39e19acdc3d,61036e800932c682af6e03e7,2021-07-29_22h14.44.541,Simcolourproject_2stim_asymm_v5,2020.2.10,Linux aarch64,60,61025ae37ef11b136ea224fe,,,,,,,,,1649,20.1887207,102.1152649,1,0,0,response1disk,,7,14.92431641,-1.650177002,1,0,0,rectangle,14.92431641,-1.650177002,1,0,0,14.92431641,-1.650177002,1,0,0,0,25,25,87,1,,,,,,,,
,,,,,,,,,,,,,FF,,,,,,,,3.4129,,,,,,,,,,,,,,,,,,,,,,61036b50ca5be39e19acdc3d,61036e800932c682af6e03e7,2021-07-29_22h14.44.541,Simcolourproject_2stim_asymm_v5,2020.2.10,Linux aarch64,60,61025ae37ef11b136ea224fe,,,,,,,,,528,34.12799072,-43.82678223,1,0,0,response3disk,,4,10.16235352,1.508117676,1,0,0,rectangle,10.16235352,1.508117676,1,0,0,10.16235352,1.508117676,1,0,0,0,26,26,28,1,,,,,,,,
,,,,,,,,,,,,,FF,,,,,,,,1.5482,,,,,,,,,,,,,,,,,,,,,,61036b50ca5be39e19acdc3d,61036e800932c682af6e03e7,2021-07-29_22h14.44.541,Simcolourproject_2stim_asymm_v5,2020.2.10,Linux aarch64,60,61025ae37ef11b136ea224fe,,,,,,,,,3264,44.42077637,79.63244629,1,0,0,response1disk,,7,19.5524292,2.278533936,1,0,0,rectangle,19.5524292,2.278533936,1,0,0,19.5524292,2.278533936,1,0,0,0,27,27,30,1,,,,,,,,
,,,,,,,,,,,,,FF,,,,,,,,1.5645,,,,,,,,,,,,,,,,,,,,,,61036b50ca5be39e19acdc3d,61036e800932c682af6e03e7,2021-07-29_22h14.44.541,Simcolourproject_2stim_asymm_v5,2020.2.10,Linux aarch64,60,61025ae37ef11b136ea224fe,,,,,,,,,1452,-40.45623779,107.9641418,1,0,0,response7disk,,0,-17.64465332,-12.86798096,1,0,0,rectangle,-17.64465332,-12.86798096,1,0,0,-17.64465332,-12.86798096,1,0,0,0,28,28,140,1,,,,,,,,
,,,,,,,,,,,,,FF,,,,,,,,4.3446,,,,,,,,,,,,,,,,,,,,,,61036b50ca5be39e19acdc3d,61036e800932c682af6e03e7,2021-07-29_22h14.44.541,Simcolourproject_2stim_asymm_v5,2020.2.10,Linux aarch64,60,61025ae37ef11b136ea224fe,,,,,,,,,3565,109.5143433,-19.08337402,1,0,0,response3disk,,5,6.524108887,-2.438415527,1,0,0,rectangle,6.524108887,-2.438415527,1,0,0,6.524108887,-2.438415527,1,0,0,0,29,29,133,1,,,,,,,,
,,,,,,,,,,,,,FF,,,,,,,,1.3651,,,,,,,,,,,,,,,,,,,,,,61036b50ca5be39e19acdc3d,61036e800932c682af6e03e7,2021-07-29_22h14.44.541,Simcolourproject_2stim_asymm_v5,2020.2.10,Linux aarch64,60,61025ae37ef11b136ea224fe,,,,,,,,,224,24.44171143,74.35958862,1,0,0,response1disk,,7,10.15917969,-6.61050415,1,0,0,rectangle,10.15917969,-6.61050415,1,0,0,10.15917969,-6.61050415,1,0,0,0,30,30,151,1,,,,,,,,
,,,,,,,,,,,,,FF,,,,,,,,1.6267,,,,,,,,,,,,,,,,,,,,,,61036b50ca5be39e19acdc3d,61036e800932c682af6e03e7,2021-07-29_22h14.44.541,Simcolourproject_2stim_asymm_v5,2020.2.10,Linux aarch64,60,61025ae37ef11b136ea224fe,,,,,,,,,953,66.27258301,-49.21517944,1,0,0,response3disk,,5,-8.715576172,-8.047607422,1,0,0,rectangle,-8.715576172,-8.047607422,1,0,0,-8.715576172,-8.047607422,1,0,0,0,31,31,49,1,,,,,,,,
,,,,,,,,,,,,,FF,,,,,,,,2.2154,,,,,,,,,,,,,,,,,,,,,,61036b50ca5be39e19acdc3d,61036e800932c682af6e03e7,2021-07-29_22h14.44.541,Simcolourproject_2stim_asymm_v5,2020.2.10,Linux aarch64,60,61025ae37ef11b136ea224fe,,,,,,,,,1070,-16.17333984,-47.31494141,1,0,0,response5disk,,3,20.34893799,-3.412719727,1,0,0,rectangle,20.34893799,-3.412719727,1,0,0,20.34893799,-3.412719727,1,0,0,0,32,32,29,1,,,,,,,,
,,,,,,,,,,,,,FF,,,,,,,,1.9475,,,,,,,,,,,,,,,,,,,,,,61036b50ca5be39e19acdc3d,61036e800932c682af6e03e7,2021-07-29_22h14.44.541,Simcolourproject_2stim_asymm_v5,2020.2.10,Linux aarch64,60,61025ae37ef11b136ea224fe,,,,,,,,,4234,70.14117432,82.33627319,1,0,0,response1disk,,7,-14.6651001,-8.150756836,1,0,0,rectangle,-14.6651001,-8.150756836,1,0,0,-14.6651001,-8.150756836,1,0,0,0,33,33,39,1,,,,,,,,
,,,,,,,,,,,,,FF,,,,,,,,1.2154,,,,,,,,,,,,,,,,,,,,,,61036b50ca5be39e19acdc3d,61036e800932c682af6e03e7,2021-07-29_22h14.44.541,Simcolourproject_2stim_asymm_v5,2020.2.10,Linux aarch64,60,61025ae37ef11b136ea224fe,,,,,,,,,4271,28.16882324,47.46456909,1,0,0,response1disk,,7,22.38684082,2.388946533,1,0,0,rectangle,22.38684082,2.388946533,1,0,0,22.38684082,2.388946533,1,0,0,0,34,34,138,1,,,,,,,,
,,,,,,,,,,,,,FF,,,,,,,,2.5638,,,,,,,,,,,,,,,,,,,,,,61036b50ca5be39e19acdc3d,61036e800932c682af6e03e7,2021-07-29_22h14.44.541,Simcolourproject_2stim_asymm_v5,2020.2.10,Linux aarch64,60,61025ae37ef11b136ea224fe,,,,,,,,,1806,34.3190918,30.70169067,1,0,0,response1disk,,6,17.65405273,-12.41555786,1,0,0,rectangle,17.65405273,-12.41555786,1,0,0,17.65405273,-12.41555786,1,0,0,0,35,35,90,1,,,,,,,,
,,,,,,,,,,,,,FF,,,,,,,,2.0318,,,,,,,,,,,,,,,,,,,,,,61036b50ca5be39e19acdc3d,61036e800932c682af6e03e7,2021-07-29_22h14.44.541,Simcolourproject_2stim_asymm_v5,2020.2.10,Linux aarch64,60,61025ae37ef11b136ea224fe,,,,,,,,,750,30.91680908,58.93585205,1,0,0,response1disk,,7,18.99578857,7.509490967,1,0,0,rectangle,18.99578857,7.509490967,1,0,0,18.99578857,7.509490967,1,0,0,0,36,36,14,1,,,,,,,,
,,,,,,,,,,,,,FF,,,,,,,,4.5938,,,,,,,,,,,,,,,,,,,,,,61036b50ca5be39e19acdc3d,61036e800932c682af6e03e7,2021-07-29_22h14.44.541,Simcolourproject_2stim_asymm_v5,2020.2.10,Linux aarch64,60,61025ae37ef11b136ea224fe,,,,,,,,,3456,114.3671265,-34.51992798,1,0,0,response3disk,,5,13.44299316,-0.934448242,1,0,0,rectangle,13.44299316,-0.934448242,1,0,0,13.44299316,-0.934448242,1,0,0,0,37,37,149,1,,,,,,,,
,,,,,,,,,,,,,FF,,,,,,,,1.5815,,,,,,,,,,,,,,,,,,,,,,61036b50ca5be39e19acdc3d,61036e800932c682af6e03e7,2021-07-29_22h14.44.541,Simcolourproject_2stim_asymm_v5,2020.2.10,Linux aarch64,60,61025ae37ef11b136ea224fe,,,,,,,,,3519,-67.85980225,-40.56051636,1,0,0,response5disk,,2,8.53527832,-5.57611084,1,0,0,rectangle,8.53527832,-5.57611084,1,0,0,8.53527832,-5.57611084,1,0,0,0,38,38,156,1,,,,,,,,
,,,,,,,,,,,,,FF,,,,,,,,1.9321,,,,,,,,,,,,,,,,,,,,,,61036b50ca5be39e19acdc3d,61036e800932c682af6e03e7,2021-07-29_22h14.44.541,Simcolourproject_2stim_asymm_v5,2020.2.10,Linux aarch64,60,61025ae37ef11b136ea224fe,,,,,,,,,2677,83.75854492,33.30548096,1,0,0,response1disk,,6,12.42974854,-11.22103882,1,0,0,rectangle,12.42974854,-11.22103882,1,0,0,12.42974854,-11.22103882,1,0,0,0,39,39,50,1,,,,,,,,
,,,,,,,,,,,,,FF,,,,,,,,2.4815,,,,,,,,,,,,,,,,,,,,,,61036b50ca5be39e19acdc3d,61036e800932c682af6e03e7,2021-07-29_22h14.44.541,Simcolourproject_2stim_asymm_v5,2020.2.10,Linux aarch64,60,61025ae37ef11b136ea224fe,,,,,,,,,1150,-20.67791748,-67.44100952,1,0,0,response5disk,,3,26.78942871,10.26641846,1,0,0,rectangle,26.78942871,10.26641846,1,0,0,26.78942871,10.26641846,1,0,0,0,40,40,5,1,,,,,,,,
,,,,,,,,,,,,,FF,,,,,,,,3.5948,,,,,,,,,,,,,,,,,,,,,,61036b50ca5be39e19acdc3d,61036e800932c682af6e03e7,2021-07-29_22h14.44.541,Simcolourproject_2stim_asymm_v5,2020.2.10,Linux aarch64,60,61025ae37ef11b136ea224fe,,,,,,,,,1308,-57.15380859,-30.32452393,1,0,0,response5disk,,2,0.223144531,14.05831909,1,0,0,rectangle,0.223144531,14.05831909,1,0,0,0.223144531,14.05831909,1,0,0,0,41,41,48,1,,,,,,,,
,,,,,,,,,,,,,FF,,,,,,,,1.6146,,,,,,,,,,,,,,,,,,,,,,61036b50ca5be39e19acdc3d,61036e800932c682af6e03e7,2021-07-29_22h14.44.541,Simcolourproject_2stim_asymm_v5,2020.2.10,Linux aarch64,60,61025ae37ef11b136ea224fe,,,,,,,,,2725,40.78204346,-70.46133423,1,0,0,response3disk,,4,6.823425293,-7.598602295,1,0,0,rectangle,6.823425293,-7.598602295,1,0,0,6.823425293,-7.598602295,1,0,0,0,42,42,22,1,,,,,,,,
,,,,,,,,,,,,,FF,,,,,,,,1.199,,,,,,,,,,,,,,,,,,,,,,61036b50ca5be39e19acdc3d,61036e800932c682af6e03e7,2021-07-29_22h14.44.541,Simcolourproject_2stim_asymm_v5,2020.2.10,Linux aarch64,60,61025ae37ef11b136ea224fe,,,,,,,,,145,40.30548096,61.96539307,1,0,0,response1disk,,7,-2.326171875,1.816497803,1,0,0,rectangle,-2.326171875,1.816497803,1,0,0,-2.326171875,1.816497803,1,0,0,0,43,43,1,1,,,,,,,,
,,,,,,,,,,,,,FF,,,,,,,,1.4154,,,,,,,,,,,,,,,,,,,,,,61036b50ca5be39e19acdc3d,61036e800932c682af6e03e7,2021-07-29_22h14.44.541,Simcolourproject_2stim_asymm_v5,2020.2.10,Linux aarch64,60,61025ae37ef11b136ea224fe,,,,,,,,,611,81.03143311,71.35174561,1,0,0,response1disk,,6,-12.38702393,1.241149902,1,0,0,rectangle,-12.38702393,1.241149902,1,0,0,-12.38702393,1.241149902,1,0,0,0,44,44,44,1,,,,,,,,
,,,,,,,,,,,,,FF,,,,,,,,1.482,,,,,,,,,,,,,,,,,,,,,,61036b50ca5be39e19acdc3d,61036e800932c682af6e03e7,2021-07-29_22h14.44.541,Simcolourproject_2stim_asymm_v5,2020.2.10,Linux aarch64,60,61025ae37ef11b136ea224fe,,,,,,,,,1212,-24.43383789,-42.29931641,1,0,0,response5disk,,3,-4.137695313,-0.532867432,1,0,0,rectangle,-4.137695313,-0.532867432,1,0,0,-4.137695313,-0.532867432,1,0,0,0,45,45,102,1,,,,,,,,
,,,,,,,,,,,,,FF,,,,,,,,1.0329,,,,,,,,,,,,,,,,,,,,,,61036b50ca5be39e19acdc3d,61036e800932c682af6e03e7,2021-07-29_22h14.44.541,Simcolourproject_2stim_asymm_v5,2020.2.10,Linux aarch64,60,61025ae37ef11b136ea224fe,,,,,,,,,3866,73.02331543,98.19995117,1,0,0,response1disk,,7,-19.03051758,-5.620788574,1,0,0,rectangle,-19.03051758,-5.620788574,1,0,0,-19.03051758,-5.620788574,1,0,0,0,46,46,21,1,,,,,,,,
,,,,,,,,,,,,,FF,,,,,,,,2.7311,,,,,,,,,,,,,,,,,,,,,,61036b50ca5be39e19acdc3d,61036e800932c682af6e03e7,2021-07-29_22h14.44.541,Simcolourproject_2stim_asymm_v5,2020.2.10,Linux aarch64,60,61025ae37ef11b136ea224fe,,,,,,,,,1574,71.88140869,42.52178955,1,0,0,response1disk,,6,11.95422363,-7.569763184,1,0,0,rectangle,11.95422363,-7.569763184,1,0,0,11.95422363,-7.569763184,1,0,0,0,47,47,7,1,,,,,,,,
,,,,,,,,,,,,,FF,,,,,,,,1.2663,,,,,,,,,,,,,,,,,,,,,,61036b50ca5be39e19acdc3d,61036e800932c682af6e03e7,2021-07-29_22h14.44.541,Simcolourproject_2stim_asymm_v5,2020.2.10,Linux aarch64,60,61025ae37ef11b136ea224fe,,,,,,,,,1025,49.58135986,28.18011475,1,0,0,response1disk,,6,-6.768188477,-6.438903809,1,0,0,rectangle,-6.768188477,-6.438903809,1,0,0,-6.768188477,-6.438903809,1,0,0,0,48,48,61,1,,,,,,,,
,,,,,,,,,,,,,FF,,,,,,,,2.0649,,,,,,,,,,,,,,,,,,,,,,61036b50ca5be39e19acdc3d,61036e800932c682af6e03e7,2021-07-29_22h14.44.541,Simcolourproject_2stim_asymm_v5,2020.2.10,Linux aarch64,60,61025ae37ef11b136ea224fe,,,,,,,,,1331,118.0741577,-25.49996948,1,0,0,response3disk,,5,23.30908203,-7.563140869,1,0,0,rectangle,23.30908203,-7.563140869,1,0,0,23.30908203,-7.563140869,1,0,0,0,49,49,157,1,,,,,,,,
,,,,,,,,,,,,,FF,,,,,,,,1.1831,,,,,,,,,,,,,,,,,,,,,,61036b50ca5be39e19acdc3d,61036e800932c682af6e03e7,2021-07-29_22h14.44.541,Simcolourproject_2stim_asymm_v5,2020.2.10,Linux aarch64,60,61025ae37ef11b136ea224fe,,,,,,,,,3277,30.12609863,65.53063965,1,0,0,response1disk,,7,8.718261719,2.960144043,1,0,0,rectangle,8.718261719,2.960144043,1,0,0,8.718261719,2.960144043,1,0,0,0,50,50,106,1,,,,,,,,
,,,,,,,,,,,,,FF,,,,,,,,3.4964,,,,,,,,,,,,,,,,,,,,,,61036b50ca5be39e19acdc3d,61036e800932c682af6e03e7,2021-07-29_22h14.44.541,Simcolourproject_2stim_asymm_v5,2020.2.10,Linux aarch64,60,61025ae37ef11b136ea224fe,,,,,,,,,4069,53.64129639,68.83898926,1,0,0,response1disk,,7,-1.092895508,-5.818511963,1,0,0,rectangle,-1.092895508,-5.818511963,1,0,0,-1.092895508,-5.818511963,1,0,0,0,51,51,121,1,,,,,,,,
,,,,,,,,,,,,,FF,,,,,,,,1.3483,,,,,,,,,,,,,,,,,,,,,,61036b50ca5be39e19acdc3d,61036e800932c682af6e03e7,2021-07-29_22h14.44.541,Simcolourproject_2stim_asymm_v5,2020.2.10,Linux aarch64,60,61025ae37ef11b136ea224fe,,,,,,,,,4340,-59.44714355,-32.61251831,1,0,0,response5disk,,2,6.324035645,5.254943848,1,0,0,rectangle,6.324035645,5.254943848,1,0,0,6.324035645,5.254943848,1,0,0,0,52,52,150,1,,,,,,,,
,,,,,,,,,,,,,FF,,,,,,,,2.165,,,,,,,,,,,,,,,,,,,,,,61036b50ca5be39e19acdc3d,61036e800932c682af6e03e7,2021-07-29_22h14.44.541,Simcolourproject_2stim_asymm_v5,2020.2.10,Linux aarch64,60,61025ae37ef11b136ea224fe,,,,,,,,,867,85.36035156,78.24633789,1,0,0,response1disk,,6,-9.606506348,10.56616211,1,0,0,rectangle,-9.606506348,10.56616211,1,0,0,-9.606506348,10.56616211,1,0,0,0,53,53,85,1,,,,,,,,
,,,,,,,,,,,,,FF,,,,,,,,1.1484,,,,,,,,,,,,,,,,,,,,,,61036b50ca5be39e19acdc3d,61036e800932c682af6e03e7,2021-07-29_22h14.44.541,Simcolourproject_2stim_asymm_v5,2020.2.10,Linux aarch64,60,61025ae37ef11b136ea224fe,,,,,,,,,1497,39.65814209,59.63735962,1,0,0,response1disk,,7,16.96270752,6.944915771,1,0,0,rectangle,16.96270752,6.944915771,1,0,0,16.96270752,6.944915771,1,0,0,0,54,54,26,1,,,,,,,,
,,,,,,,,,,,,,FF,,,,,,,,1.516,,,,,,,,,,,,,,,,,,,,,,61036b50ca5be39e19acdc3d,61036e800932c682af6e03e7,2021-07-29_22h14.44.541,Simcolourproject_2stim_asymm_v5,2020.2.10,Linux aarch64,60,61025ae37ef11b136ea224fe,,,,,,,,,4363,-78.97198486,23.60244751,1,0,0,response7disk,,1,0.019042969,-1.129241943,1,0,0,rectangle,0.019042969,-1.129241943,1,0,0,0.019042969,-1.129241943,1,0,0,0,55,55,34,1,,,,,,,,
,,,,,,,,,,,,,FF,,,,,,,,1.4984,,,,,,,,,,,,,,,,,,,,,,61036b50ca5be39e19acdc3d,61036e800932c682af6e03e7,2021-07-29_22h14.44.541,Simcolourproject_2stim_asymm_v5,2020.2.10,Linux aarch64,60,61025ae37ef11b136ea224fe,,,,,,,,,1261,46.48199463,-29.68829346,1,0,0,response3disk,,5,17.67059326,-11.89312744,1,0,0,rectangle,17.67059326,-11.89312744,1,0,0,17.67059326,-11.89312744,1,0,0,0,56,56,137,1,,,,,,,,
,,,,,,,,,,,,,FF,,,,,,,,1.1671,,,,,,,,,,,,,,,,,,,,,,61036b50ca5be39e19acdc3d,61036e800932c682af6e03e7,2021-07-29_22h14.44.541,Simcolourproject_2stim_asymm_v5,2020.2.10,Linux aarch64,60,61025ae37ef11b136ea224fe,,,,,,,,,2353,71.80413818,34.19708252,1,0,0,response1disk,,6,0.922912598,-5.649627686,1,0,0,rectangle,0.922912598,-5.649627686,1,0,0,0.922912598,-5.649627686,1,0,0,0,57,57,24,1,,,,,,,,
,,,,,,,,,,,,,FF,,,,,,,,1.7818,,,,,,,,,,,,,,,,,,,,,,61036b50ca5be39e19acdc3d,61036e800932c682af6e03e7,2021-07-29_22h14.44.541,Simcolourproject_2stim_asymm_v5,2020.2.10,Linux aarch64,60,61025ae37ef11b136ea224fe,,,,,,,,,3198,-19.86383057,-51.34176636,1,0,0,response5disk,,3,3.479553223,7.911315918,1,0,0,rectangle,3.479553223,7.911315918,1,0,0,3.479553223,7.911315918,1,0,0,0,58,58,154,1,,,,,,,,
,,,,,,,,,,,,,FF,,,,,,,,1.116,,,,,,,,,,,,,,,,,,,,,,61036b50ca5be39e19acdc3d,61036e800932c682af6e03e7,2021-07-29_22h14.44.541,Simcolourproject_2stim_asymm_v5,2020.2.10,Linux aarch64,60,61025ae37ef11b136ea224fe,,,,,,,,,2637,34.1739502,55.57806396,1,0,0,response1disk,,7,15.90429688,2.507537842,1,0,0,rectangle,15.90429688,2.507537842,1,0,0,15.90429688,2.507537842,1,0,0,0,59,59,60,1,,,,,,,,
,,,,,,,,,,,,,FF,,,,,,,,1.7673,,,,,,,,,,,,,,,,,,,,,,61036b50ca5be39e19acdc3d,61036e800932c682af6e03e7,2021-07-29_22h14.44.541,Simcolourproject_2stim_asymm_v5,2020.2.10,Linux aarch64,60,61025ae37ef11b136ea224fe,,,,,,,,,260,-93.40722656,-41.71469116,1,0,0,response5disk,,2,-23.70507813,-1.75604248,1,0,0,rectangle,-23.70507813,-1.75604248,1,0,0,-23.70507813,-1.75604248,1,0,0,0,60,60,75,1,,,,,,,,
,,,,,,,,,,,,,FF,,,,,,,,1.8318,,,,,,,,,,,,,,,,,,,,,,61036b50ca5be39e19acdc3d,61036e800932c682af6e03e7,2021-07-29_22h14.44.541,Simcolourproject_2stim_asymm_v5,2020.2.10,Linux aarch64,60,61025ae37ef11b136ea224fe,,,,,,,,,602,50.35620117,-19.48226929,1,0,0,response3disk,,5,24.14648438,-5.742919922,1,0,0,rectangle,24.14648438,-5.742919922,1,0,0,24.14648438,-5.742919922,1,0,0,0,61,61,20,1,,,,,,,,
,,,,,,,,,,,,,FF,,,,,,,,2.1802,,,,,,,,,,,,,,,,,,,,,,61036b50ca5be39e19acdc3d,61036e800932c682af6e03e7,2021-07-29_22h14.44.541,Simcolourproject_2stim_asymm_v5,2020.2.10,Linux aarch64,60,61025ae37ef11b136ea224fe,,,,,,,,,1695,104.8573608,73.12646484,1,0,0,response1disk,,6,-12.07946777,-4.545227051,1,0,0,rectangle,-12.07946777,-4.545227051,1,0,0,-12.07946777,-4.545227051,1,0,0,0,62,62,15,1,,,,,,,,
,,,,,,,,,,,,,FF,,,,,,,,1.2657,,,,,,,,,,,,,,,,,,,,,,61036b50ca5be39e19acdc3d,61036e800932c682af6e03e7,2021-07-29_22h14.44.541,Simcolourproject_2stim_asymm_v5,2020.2.10,Linux aarch64,60,61025ae37ef11b136ea224fe,,,,,,,,,3825,84.09161377,-41.8034668,1,0,0,response3disk,,5,-15.27337646,14.03747559,1,0,0,rectangle,-15.27337646,14.03747559,1,0,0,-15.27337646,14.03747559,1,0,0,0,63,63,81,1,,,,,,,,
,,,,,,,,,,,,,FF,,,,,,,,1.0159,,,,,,,,,,,,,,,,,,,,,,61036b50ca5be39e19acdc3d,61036e800932c682af6e03e7,2021-07-29_22h14.44.541,Simcolourproject_2stim_asymm_v5,2020.2.10,Linux aarch64,60,61025ae37ef11b136ea224fe,,,,,,,,,1865,58.00244141,66.52804565,1,0,0,response1disk,,7,5.900695801,-13.54824829,1,0,0,rectangle,5.900695801,-13.54824829,1,0,0,5.900695801,-13.54824829,1,0,0,0,64,64,84,1,,,,,,,,
,,,,,,,,,,,,,FF,,,,,,,,1.4324,,,,,,,,,,,,,,,,,,,,,,61036b50ca5be39e19acdc3d,61036e800932c682af6e03e7,2021-07-29_22h14.44.541,Simcolourproject_2stim_asymm_v5,2020.2.10,Linux aarch64,60,61025ae37ef11b136ea224fe,,,,,,,,,463,21.34844971,-52.55688477,1,0,0,response3disk,,4,0.964660645,-8.931182861,1,0,0,rectangle,111.7161865,56.47839355,1,0,0,16.95776367,-2.18447876,1,0,0,0,65,65,56,1,,response1disk_3,TRUE,6,6,"[228,150,166,256,11,267,116,233,244,94,167,66,4,107,247,85,74,283,170,265]",2.3972,rectangle
,,,,,,,,,,,,,FF,,,,,,,,1.365,,,,,,,,,,,,,,,,,,,,,,61036b50ca5be39e19acdc3d,61036e800932c682af6e03e7,2021-07-29_22h14.44.541,Simcolourproject_2stim_asymm_v5,2020.2.10,Linux aarch64,60,61025ae37ef11b136ea224fe,,,,,,,,,1274,26.23828125,-49.09030151,1,0,0,response3disk,,4,4.795654297,-0.72845459,1,0,0,rectangle,4.795654297,-0.72845459,1,0,0,4.795654297,-0.72845459,1,0,0,0,66,66,59,1,,,,,,,,
,,,,,,,,,,,,,FF,,,,,,,,2.0483,,,,,,,,,,,,,,,,,,,,,,61036b50ca5be39e19acdc3d,61036e800932c682af6e03e7,2021-07-29_22h14.44.541,Simcolourproject_2stim_asymm_v5,2020.2.10,Linux aarch64,60,61025ae37ef11b136ea224fe,,,,,,,,,244,47.5612793,72.69525146,1,0,0,response1disk,,7,21.60357666,5.654998779,1,0,0,rectangle,21.60357666,5.654998779,1,0,0,21.60357666,5.654998779,1,0,0,0,67,67,93,1,,,,,,,,
,,,,,,,,,,,,,FF,,,,,,,,1.4979,,,,,,,,,,,,,,,,,,,,,,61036b50ca5be39e19acdc3d,61036e800932c682af6e03e7,2021-07-29_22h14.44.541,Simcolourproject_2stim_asymm_v5,2020.2.10,Linux aarch64,60,61025ae37ef11b136ea224fe,,,,,,,,,794,93.80938721,-51.78192139,1,0,0,response3disk,,5,-1.205627441,-3.610809326,1,0,0,rectangle,-1.205627441,-3.610809326,1,0,0,-1.205627441,-3.610809326,1,0,0,0,68,68,97,1,,,,,,,,
,,,,,,,,,,,,,FF,,,,,,,,1,,,,,,,,,,,,,,,,,,,,,,61036b50ca5be39e19acdc3d,61036e800932c682af6e03e7,2021-07-29_22h14.44.541,Simcolourproject_2stim_asymm_v5,2020.2.10,Linux aarch64,60,61025ae37ef11b136ea224fe,,,,,,,,,202,95.60577393,46.31558228,1,0,0,response1disk,,6,16.8996582,2.508666992,1,0,0,rectangle,16.8996582,2.508666992,1,0,0,16.8996582,2.508666992,1,0,0,0,69,69,142,1,,,,,,,,
,,,,,,,,,,,,,FF,,,,,,,,2.3971,,,,,,,,,,,,,,,,,,,,,,61036b50ca5be39e19acdc3d,61036e800932c682af6e03e7,2021-07-29_22h14.44.541,Simcolourproject_2stim_asymm_v5,2020.2.10,Linux aarch64,60,61025ae37ef11b136ea224fe,,,,,,,,,617,62.4864502,-28.70773315,1,0,0,response3disk,,5,-18.12487793,-6.986633301,1,0,0,rectangle,-18.12487793,-6.986633301,1,0,0,-18.12487793,-6.986633301,1,0,0,0,70,70,46,1,,,,,,,,
,,,,,,,,,,,,,FF,,,,,,,,1.3486,,,,,,,,,,,,,,,,,,,,,,61036b50ca5be39e19acdc3d,61036e800932c682af6e03e7,2021-07-29_22h14.44.541,Simcolourproject_2stim_asymm_v5,2020.2.10,Linux aarch64,60,61025ae37ef11b136ea224fe,,,,,,,,,699,51.90313721,-24.69110107,1,0,0,response3disk,,5,17.74810791,3.0546875,1,0,0,rectangle,17.74810791,3.0546875,1,0,0,17.74810791,3.0546875,1,0,0,0,71,71,94,1,,,,,,,,
,,,,,,,,,,,,,FF,,,,,,,,1.4148,,,,,,,,,,,,,,,,,,,,,,61036b50ca5be39e19acdc3d,61036e800932c682af6e03e7,2021-07-29_22h14.44.541,Simcolourproject_2stim_asymm_v5,2020.2.10,Linux aarch64,60,61025ae37ef11b136ea224fe,,,,,,,,,1069,29.45947266,-55.61654663,1,0,0,response3disk,,4,14.46356201,-2.088012695,1,0,0,rectangle,14.46356201,-2.088012695,1,0,0,14.46356201,-2.088012695,1,0,0,0,72,72,37,1,,,,,,,,
,,,,,,,,,,,,,FF,,,,,,,,1.4491,,,,,,,,,,,,,,,,,,,,,,61036b50ca5be39e19acdc3d,61036e800932c682af6e03e7,2021-07-29_22h14.44.541,Simcolourproject_2stim_asymm_v5,2020.2.10,Linux aarch64,60,61025ae37ef11b136ea224fe,,,,,,,,,1816,-71.6348877,-61.7984314,1,0,0,response5disk,,2,4.422302246,-4.672485352,1,0,0,rectangle,-100.1990967,29.89620972,1,0,0,13.13079834,-4.351318359,1,0,0,0,73,73,57,1,,response7disk_3,TRUE,1,1,"[228,150,166,256,11,267,116,233,244,94,167,66,4,107,247,85,74,283,170,265]",2.4626,rectangle
,,,,,,,,,,,,,FF,,,,,,,,1.2485,,,,,,,,,,,,,,,,,,,,,,61036b50ca5be39e19acdc3d,61036e800932c682af6e03e7,2021-07-29_22h14.44.541,Simcolourproject_2stim_asymm_v5,2020.2.10,Linux aarch64,60,61025ae37ef11b136ea224fe,,,,,,,,,3362,35.89343262,54.98864746,1,0,0,response1disk,,7,20.65539551,-1.412078857,1,0,0,rectangle,20.65539551,-1.412078857,1,0,0,20.65539551,-1.412078857,1,0,0,0,74,74,52,1,,,,,,,,
,,,,,,,,,,,,,FF,,,,,,,,1.1155,,,,,,,,,,,,,,,,,,,,,,61036b50ca5be39e19acdc3d,61036e800932c682af6e03e7,2021-07-29_22h14.44.541,Simcolourproject_2stim_asymm_v5,2020.2.10,Linux aarch64,60,61025ae37ef11b136ea224fe,,,,,,,,,996,105.8643188,74.42669678,1,0,0,response1disk,,6,-13.82550049,-5.064361572,1,0,0,rectangle,-13.82550049,-5.064361572,1,0,0,-13.82550049,-5.064361572,1,0,0,0,75,75,68,1,,,,,,,,
,,,,,,,,,,,,,FF,,,,,,,,1.3485,,,,,,,,,,,,,,,,,,,,,,61036b50ca5be39e19acdc3d,61036e800932c682af6e03e7,2021-07-29_22h14.44.541,Simcolourproject_2stim_asymm_v5,2020.2.10,Linux aarch64,60,61025ae37ef11b136ea224fe,,,,,,,,,1162,61.42651367,62.56838989,1,0,0,response1disk,,7,18.87957764,7.409423828,1,0,0,rectangle,18.87957764,7.409423828,1,0,0,18.87957764,7.409423828,1,0,0,0,76,76,92,1,,,,,,,,
,,,,,,,,,,,,,FF,,,,,,,,1.0156,,,,,,,,,,,,,,,,,,,,,,61036b50ca5be39e19acdc3d,61036e800932c682af6e03e7,2021-07-29_22h14.44.541,Simcolourproject_2stim_asymm_v5,2020.2.10,Linux aarch64,60,61025ae37ef11b136ea224fe,,,,,,,,,2060,61.54156494,50.55371094,1,0,0,response1disk,,6,8.922241211,2.247436523,1,0,0,rectangle,8.922241211,2.247436523,1,0,0,8.922241211,2.247436523,1,0,0,0,77,77,58,1,,,,,,,,
,,,,,,,,,,,,,FF,,,,,,,,1.0162,,,,,,,,,,,,,,,,,,,,,,61036b50ca5be39e19acdc3d,61036e800932c682af6e03e7,2021-07-29_22h14.44.541,Simcolourproject_2stim_asymm_v5,2020.2.10,Linux aarch64,60,61025ae37ef11b136ea224fe,,,,,,,,,304,34.57275391,72.34820557,1,0,0,response1disk,,7,1.938903809,2.845947266,1,0,0,rectangle,1.938903809,2.845947266,1,0,0,1.938903809,2.845947266,1,0,0,0,78,78,108,1,,,,,,,,
,,,,,,,,,,,,,FF,,,,,,,,1.5326,,,,,,,,,,,,,,,,,,,,,,61036b50ca5be39e19acdc3d,61036e800932c682af6e03e7,2021-07-29_22h14.44.541,Simcolourproject_2stim_asymm_v5,2020.2.10,Linux aarch64,60,61025ae37ef11b136ea224fe,,,,,,,,,1701,18.18566895,104.1360779,1,0,0,response1disk,,7,-0.325683594,10.25119019,1,0,0,rectangle,-0.325683594,10.25119019,1,0,0,-0.325683594,10.25119019,1,0,0,0,79,79,117,1,,,,,,,,
,,,,,,,,,,,,,FF,,,,,,,,0.8834,,,,,,,,,,,,,,,,,,,,,,61036b50ca5be39e19acdc3d,61036e800932c682af6e03e7,2021-07-29_22h14.44.541,Simcolourproject_2stim_asymm_v5,2020.2.10,Linux aarch64,60,61025ae37ef11b136ea224fe,,,,,,,,,2813,73.83422852,46.39105225,1,0,0,response1disk,,6,18.09844971,7.879974365,1,0,0,rectangle,18.09844971,7.879974365,1,0,0,18.09844971,7.879974365,1,0,0,0,80,80,82,1,,,,,,,,
,,,,,,,,,,,,,FF,,,,,,,,1.017,,,,,,,,,,,,,,,,,,,,,,61036b50ca5be39e19acdc3d,61036e800932c682af6e03e7,2021-07-29_22h14.44.541,Simcolourproject_2stim_asymm_v5,2020.2.10,Linux aarch64,60,61025ae37ef11b136ea224fe,,,,,,,,,513,25.54602051,71.33050537,1,0,0,response1disk,,7,11.61260986,-3.415618896,1,0,0,rectangle,11.61260986,-3.415618896,1,0,0,11.61260986,-3.415618896,1,0,0,0,81,81,123,1,,,,,,,,
,,,,,,,,,,,,,FF,,,,,,,,1.3147,,,,,,,,,,,,,,,,,,,,,,61036b50ca5be39e19acdc3d,61036e800932c682af6e03e7,2021-07-29_22h14.44.541,Simcolourproject_2stim_asymm_v5,2020.2.10,Linux aarch64,60,61025ae37ef11b136ea224fe,,,,,,,,,1587,93.68676758,27.29977417,1,0,0,response1disk,,6,-9.923950195,-5.652801514,1,0,0,rectangle,-9.923950195,-5.652801514,1,0,0,-9.923950195,-5.652801514,1,0,0,0,82,82,129,1,,,,,,,,
,,,,,,,,,,,,,FF,,,,,,,,1.4639,,,,,,,,,,,,,,,,,,,,,,61036b50ca5be39e19acdc3d,61036e800932c682af6e03e7,2021-07-29_22h14.44.541,Simcolourproject_2stim_asymm_v5,2020.2.10,Linux aarch64,60,61025ae37ef11b136ea224fe,,,,,,,,,2837,55.99108887,-42.73117065,1,0,0,response3disk,,5,-17.36505127,-3.224090576,1,0,0,rectangle,-17.36505127,-3.224090576,1,0,0,-17.36505127,-3.224090576,1,0,0,0,83,83,130,1,,,,,,,,
,,,,,,,,,,,,,FF,,,,,,,,0.9319,,,,,,,,,,,,,,,,,,,,,,61036b50ca5be39e19acdc3d,61036e800932c682af6e03e7,2021-07-29_22h14.44.541,Simcolourproject_2stim_asymm_v5,2020.2.10,Linux aarch64,60,61025ae37ef11b136ea224fe,,,,,,,,,1733,79.56933594,58.16625977,1,0,0,response1disk,,6,15.30041504,12.9090271,1,0,0,rectangle,79.96173096,40.09707642,1,0,0,6.715515137,-1.770080566,1,0,0,0,84,84,111,1,,response1disk_3,TRUE,6,6,"[228,150,166,256,11,267,116,233,244,94,167,66,4,107,247,85,74,283,170,265]",1.6803,rectangle
,,,,,,,,,,,,,FF,,,,,,,,2.3142,,,,,,,,,,,,,,,,,,,,,,61036b50ca5be39e19acdc3d,61036e800932c682af6e03e7,2021-07-29_22h14.44.541,Simcolourproject_2stim_asymm_v5,2020.2.10,Linux aarch64,60,61025ae37ef11b136ea224fe,,,,,,,,,1849,102.5956421,77.18804932,1,0,0,response1disk,,6,0.296508789,-3.028991699,1,0,0,rectangle,0.296508789,-3.028991699,1,0,0,0.296508789,-3.028991699,1,0,0,0,85,85,16,1,,,,,,,,
,,,,,,,,,,,,,FF,,,,,,,,1.7985,,,,,,,,,,,,,,,,,,,,,,61036b50ca5be39e19acdc3d,61036e800932c682af6e03e7,2021-07-29_22h14.44.541,Simcolourproject_2stim_asymm_v5,2020.2.10,Linux aarch64,60,61025ae37ef11b136ea224fe,,,,,,,,,2645,58.81829834,111.6817932,1,0,0,response1disk,,7,8.017028809,5.451049805,1,0,0,rectangle,8.017028809,5.451049805,1,0,0,8.017028809,5.451049805,1,0,0,0,86,86,100,1,,,,,,,,
,,,,,,,,,,,,,FF,,,,,,,,2.3325,,,,,,,,,,,,,,,,,,,,,,61036b50ca5be39e19acdc3d,61036e800932c682af6e03e7,2021-07-29_22h14.44.541,Simcolourproject_2stim_asymm_v5,2020.2.10,Linux aarch64,60,61025ae37ef11b136ea224fe,,,,,,,,,4284,89.88391113,57.25390625,1,0,0,response1disk,,6,5.333740234,6.648590088,1,0,0,rectangle,5.333740234,6.648590088,1,0,0,5.333740234,6.648590088,1,0,0,0,87,87,33,1,,,,,,,,
,,,,,,,,,,,,,FF,,,,,,,,2.4482,,,,,,,,,,,,,,,,,,,,,,61036b50ca5be39e19acdc3d,61036e800932c682af6e03e7,2021-07-29_22h14.44.541,Simcolourproject_2stim_asymm_v5,2020.2.10,Linux aarch64,60,61025ae37ef11b136ea224fe,,,,,,,,,3091,52.89263916,-61.17242432,1,0,0,response3disk,,4,20.93572998,-6.335693359,1,0,0,rectangle,20.93572998,-6.335693359,1,0,0,20.93572998,-6.335693359,1,0,0,0,88,88,148,1,,,,,,,,
,,,,,,,,,,,,,FF,,,,,,,,3.6985,,,,,,,,,,,,,,,,,,,,,,61036b50ca5be39e19acdc3d,61036e800932c682af6e03e7,2021-07-29_22h14.44.541,Simcolourproject_2stim_asymm_v5,2020.2.10,Linux aarch64,60,61025ae37ef11b136ea224fe,,,,,,,,,2888,-28.3782959,-63.76062012,1,0,0,response5disk,,3,17.58807373,-2.208251953,1,0,0,rectangle,17.58807373,-2.208251953,1,0,0,17.58807373,-2.208251953,1,0,0,0,89,89,158,1,,,,,,,,
,,,,,,,,,,,,,FF,,,,,,,,1.0656,,,,,,,,,,,,,,,,,,,,,,61036b50ca5be39e19acdc3d,61036e800932c682af6e03e7,2021-07-29_22h14.44.541,Simcolourproject_2stim_asymm_v5,2020.2.10,Linux aarch64,60,61025ae37ef11b136ea224fe,,,,,,,,,1097,45.84893799,54.33395386,1,0,0,response1disk,,7,11.46276855,-5.845275879,1,0,0,rectangle,11.46276855,-5.845275879,1,0,0,11.46276855,-5.845275879,1,0,0,0,90,90,135,1,,,,,,,,
,,,,,,,,,,,,,FF,,,,,,,,1.1821,,,,,,,,,,,,,,,,,,,,,,61036b50ca5be39e19acdc3d,61036e800932c682af6e03e7,2021-07-29_22h14.44.541,Simcolourproject_2stim_asymm_v5,2020.2.10,Linux aarch64,60,61025ae37ef11b136ea224fe,,,,,,,,,61,51.60437012,21.47821045,1,0,0,response1disk,,6,3.903137207,-14.03668213,1,0,0,rectangle,3.903137207,-14.03668213,1,0,0,3.903137207,-14.03668213,1,0,0,0,91,91,83,1,,,,,,,,
,,,,,,,,,,,,,FF,,,,,,,,1.0332,,,,,,,,,,,,,,,,,,,,,,61036b50ca5be39e19acdc3d,61036e800932c682af6e03e7,2021-07-29_22h14.44.541,Simcolourproject_2stim_asymm_v5,2020.2.10,Linux aarch64,60,61025ae37ef11b136ea224fe,,,,,,,,,1639,26.79003906,75.84622192,1,0,0,response1disk,,7,12.25604248,5.726531982,1,0,0,rectangle,12.25604248,5.726531982,1,0,0,12.25604248,5.726531982,1,0,0,0,92,92,66,1,,,,,,,,
,,,,,,,,,,,,,FF,,,,,,,,0.982,,,,,,,,,,,,,,,,,,,,,,61036b50ca5be39e19acdc3d,61036e800932c682af6e03e7,2021-07-29_22h14.44.541,Simcolourproject_2stim_asymm_v5,2020.2.10,Linux aarch64,60,61025ae37ef11b136ea224fe,,,,,,,,,1498,38.52770996,24.30923462,1,0,0,response1disk,,6,2.623291016,-7.717529297,1,0,0,rectangle,-90.8182373,29.81784058,1,0,0,-8.656982422,-8.391143799,1,0,0,0,93,93,122,1,,response7disk_3,TRUE,1,1,"[228,150,166,256,11,267,116,233,244,94,167,66,4,107,247,85,74,283,170,265]",1.565,rectangle
,,,,,,,,,,,,,FF,,,,,,,,1.4803,,,,,,,,,,,,,,,,,,,,,,61036b50ca5be39e19acdc3d,61036e800932c682af6e03e7,2021-07-29_22h14.44.541,Simcolourproject_2stim_asymm_v5,2020.2.10,Linux aarch64,60,61025ae37ef11b136ea224fe,,,,,,,,,3156,-22.625,-73.30419922,1,0,0,response5disk,,3,-0.28112793,-6.364501953,1,0,0,rectangle,-0.28112793,-6.364501953,1,0,0,-0.28112793,-6.364501953,1,0,0,0,94,94,71,1,,,,,,,,
,,,,,,,,,,,,,FF,,,,,,,,1.0661,,,,,,,,,,,,,,,,,,,,,,61036b50ca5be39e19acdc3d,61036e800932c682af6e03e7,2021-07-29_22h14.44.541,Simcolourproject_2stim_asymm_v5,2020.2.10,Linux aarch64,60,61025ae37ef11b136ea224fe,,,,,,,,,497,74.65649414,86.40036011,1,0,0,response1disk,,7,6.329223633,1.485900879,1,0,0,rectangle,6.329223633,1.485900879,1,0,0,6.329223633,1.485900879,1,0,0,0,95,95,119,1,,,,,,,,
,,,,,,,,,,,,,FF,,,,,,,,1.2144,,,,,,,,,,,,,,,,,,,,,,61036b50ca5be39e19acdc3d,61036e800932c682af6e03e7,2021-07-29_22h14.44.541,Simcolourproject_2stim_asymm_v5,2020.2.10,Linux aarch64,60,61025ae37ef11b136ea224fe,,,,,,,,,2668,-27.10314941,-76.76312256,1,0,0,response5disk,,3,-0.311645508,-4.457489014,1,0,0,rectangle,-0.311645508,-4.457489014,1,0,0,-0.311645508,-4.457489014,1,0,0,0,96,96,134,1,,,,,,,,
,,,,,,,,,,,,,FF,,,,,,,,1.2986,,,,,,,,,,,,,,,,,,,,,,61036b50ca5be39e19acdc3d,61036e800932c682af6e03e7,2021-07-29_22h14.44.541,Simcolourproject_2stim_asymm_v5,2020.2.10,Linux aarch64,60,61025ae37ef11b136ea224fe,,,,,,,,,3591,-54.40679932,89.25769043,1,0,0,response7disk,,0,1.258361816,-6.259399414,1,0,0,rectangle,1.258361816,-6.259399414,1,0,0,1.258361816,-6.259399414,1,0,0,0,97,97,113,1,,,,,,,,
,,,,,,,,,,,,,FF,,,,,,,,1.2982,,,,,,,,,,,,,,,,,,,,,,61036b50ca5be39e19acdc3d,61036e800932c682af6e03e7,2021-07-29_22h14.44.541,Simcolourproject_2stim_asymm_v5,2020.2.10,Linux aarch64,60,61025ae37ef11b136ea224fe,,,,,,,,,3430,-28.3069458,-46.42456055,1,0,0,response5disk,,3,-0.777282715,-2.957122803,1,0,0,rectangle,-0.777282715,-2.957122803,1,0,0,-0.777282715,-2.957122803,1,0,0,0,98,98,96,1,,,,,,,,
,,,,,,,,,,,,,FF,,,,,,,,1.6149,,,,,,,,,,,,,,,,,,,,,,61036b50ca5be39e19acdc3d,61036e800932c682af6e03e7,2021-07-29_22h14.44.541,Simcolourproject_2stim_asymm_v5,2020.2.10,Linux aarch64,60,61025ae37ef11b136ea224fe,,,,,,,,,3735,48.64337158,-31.39642334,1,0,0,response3disk,,5,-24.45898438,-0.312652588,1,0,0,rectangle,-24.45898438,-0.312652588,1,0,0,-24.45898438,-0.312652588,1,0,0,0,99,99,146,1,,,,,,,,
,,,,,,,,,,,,,FF,,,,,,,,1.1992,,,,,,,,,,,,,,,,,,,,,,61036b50ca5be39e19acdc3d,61036e800932c682af6e03e7,2021-07-29_22h14.44.541,Simcolourproject_2stim_asymm_v5,2020.2.10,Linux aarch64,60,61025ae37ef11b136ea224fe,,,,,,,,,1507,27.39666748,52.27783203,1,0,0,response1disk,,7,1.643798828,3.658813477,1,0,0,rectangle,1.643798828,3.658813477,1,0,0,1.643798828,3.658813477,1,0,0,0,100,100,51,1,,,,,,,,
,,,,,,,,,,,,,FF,,,,,,,,1.167,,,,,,,,,,,,,,,,,,,,,,61036b50ca5be39e19acdc3d,61036e800932c682af6e03e7,2021-07-29_22h14.44.541,Simcolourproject_2stim_asymm_v5,2020.2.10,Linux aarch64,60,61025ae37ef11b136ea224fe,,,,,,,,,3342,-31.67877197,-39.91241455,1,0,0,response5disk,,3,-4.1171875,-4.445220947,1,0,0,rectangle,-4.1171875,-4.445220947,1,0,0,-4.1171875,-4.445220947,1,0,0,0,101,101,139,1,,,,,,,,
,,,,,,,,,,,,,FF,,,,,,,,1.4815,,,,,,,,,,,,,,,,,,,,,,61036b50ca5be39e19acdc3d,61036e800932c682af6e03e7,2021-07-29_22h14.44.541,Simcolourproject_2stim_asymm_v5,2020.2.10,Linux aarch64,60,61025ae37ef11b136ea224fe,,,,,,,,,4296,24.43615723,66.57330322,1,0,0,response1disk,,7,9.688476563,-5.957672119,1,0,0,rectangle,9.688476563,-5.957672119,1,0,0,9.688476563,-5.957672119,1,0,0,0,102,102,72,1,,,,,,,,
,,,,,,,,,,,,,FF,,,,,,,,1.1489,,,,,,,,,,,,,,,,,,,,,,61036b50ca5be39e19acdc3d,61036e800932c682af6e03e7,2021-07-29_22h14.44.541,Simcolourproject_2stim_asymm_v5,2020.2.10,Linux aarch64,60,61025ae37ef11b136ea224fe,,,,,,,,,2379,46.03442383,-89.84020996,1,0,0,response3disk,,4,-0.420043945,1.105163574,1,0,0,rectangle,-0.420043945,1.105163574,1,0,0,-0.420043945,1.105163574,1,0,0,0,103,103,38,1,,,,,,,,
,,,,,,,,,,,,,FF,,,,,,,,0.9159,,,,,,,,,,,,,,,,,,,,,,61036b50ca5be39e19acdc3d,61036e800932c682af6e03e7,2021-07-29_22h14.44.541,Simcolourproject_2stim_asymm_v5,2020.2.10,Linux aarch64,60,61025ae37ef11b136ea224fe,,,,,,,,,3589,29.19274902,-69.49060059,1,0,0,response3disk,,4,7.590332031,-3.978393555,1,0,0,rectangle,7.590332031,-3.978393555,1,0,0,7.590332031,-3.978393555,1,0,0,0,104,104,159,1,,,,,,,,
,,,,,,,,,,,,,FF,,,,,,,,1.1157,,,,,,,,,,,,,,,,,,,,,,61036b50ca5be39e19acdc3d,61036e800932c682af6e03e7,2021-07-29_22h14.44.541,Simcolourproject_2stim_asymm_v5,2020.2.10,Linux aarch64,60,61025ae37ef11b136ea224fe,,,,,,,,,3830,105.7496338,-92.24917603,1,0,0,response3disk,,5,-7.863769531,-9.079467773,1,0,0,rectangle,-7.863769531,-9.079467773,1,0,0,-7.863769531,-9.079467773,1,0,0,0,105,105,89,1,,,,,,,,
,,,,,,,,,,,,,FF,,,,,,,,2.4149,,,,,,,,,,,,,,,,,,,,,,61036b50ca5be39e19acdc3d,61036e800932c682af6e03e7,2021-07-29_22h14.44.541,Simcolourproject_2stim_asymm_v5,2020.2.10,Linux aarch64,60,61025ae37ef11b136ea224fe,,,,,,,,,4356,-73.71624756,-49.63867188,1,0,0,response5disk,,2,-16.65881348,-14.56832886,1,0,0,rectangle,-60.34680176,-31.29821777,1,0,0,-6.08404541,-1.33392334,1,0,0,0,106,106,109,1,,response5disk_3,TRUE,2,2,"[228,150,166,256,11,267,116,233,244,94,167,66,4,107,247,85,74,283,170,265]",1.3975,rectangle
,,,,,,,,,,,,,FF,,,,,,,,1.1824,,,,,,,,,,,,,,,,,,,,,,61036b50ca5be39e19acdc3d,61036e800932c682af6e03e7,2021-07-29_22h14.44.541,Simcolourproject_2stim_asymm_v5,2020.2.10,Linux aarch64,60,61025ae37ef11b136ea224fe,,,,,,,,,2944,-26.2144165,-44.49716187,1,0,0,response5disk,,3,3.369812012,-6.540679932,1,0,0,rectangle,3.369812012,-6.540679932,1,0,0,3.369812012,-6.540679932,1,0,0,0,107,107,45,1,,,,,,,,
,,,,,,,,,,,,,FF,,,,,,,,1.2988,,,,,,,,,,,,,,,,,,,,,,61036b50ca5be39e19acdc3d,61036e800932c682af6e03e7,2021-07-29_22h14.44.541,Simcolourproject_2stim_asymm_v5,2020.2.10,Linux aarch64,60,61025ae37ef11b136ea224fe,,,,,,,,,1966,-28.77185059,-48.05151367,1,0,0,response5disk,,3,-1.594848633,-6.61706543,1,0,0,rectangle,-1.594848633,-6.61706543,1,0,0,-1.594848633,-6.61706543,1,0,0,0,108,108,124,1,,,,,,,,
,,,,,,,,,,,,,FF,,,,,,,,1.5814,,,,,,,,,,,,,,,,,,,,,,61036b50ca5be39e19acdc3d,61036e800932c682af6e03e7,2021-07-29_22h14.44.541,Simcolourproject_2stim_asymm_v5,2020.2.10,Linux aarch64,60,61025ae37ef11b136ea224fe,,,,,,,,,4244,64.79315186,-80.12701416,1,0,0,response3disk,,4,19.89038086,-12.79556274,1,0,0,rectangle,19.89038086,-12.79556274,1,0,0,19.89038086,-12.79556274,1,0,0,0,109,109,47,1,,,,,,,,
,,,,,,,,,,,,,FF,,,,,,,,1.514,,,,,,,,,,,,,,,,,,,,,,61036b50ca5be39e19acdc3d,61036e800932c682af6e03e7,2021-07-29_22h14.44.541,Simcolourproject_2stim_asymm_v5,2020.2.10,Linux aarch64,60,61025ae37ef11b136ea224fe,,,,,,,,,430,-32.1050415,-41.63790894,1,0,0,response5disk,,3,-12.27886963,3.750213623,1,0,0,rectangle,-12.27886963,3.750213623,1,0,0,-12.27886963,3.750213623,1,0,0,0,110,110,23,1,,,,,,,,
,,,,,,,,,,,,,FF,,,,,,,,1.3988,,,,,,,,,,,,,,,,,,,,,,61036b50ca5be39e19acdc3d,61036e800932c682af6e03e7,2021-07-29_22h14.44.541,Simcolourproject_2stim_asymm_v5,2020.2.10,Linux aarch64,60,61025ae37ef11b136ea224fe,,,,,,,,,1468,33.78771973,-69.19024658,1,0,0,response3disk,,4,21.02770996,7.656463623,1,0,0,rectangle,21.02770996,7.656463623,1,0,0,21.02770996,7.656463623,1,0,0,0,111,111,76,1,,,,,,,,
,,,,,,,,,,,,,FF,,,,,,,,2.3811,,,,,,,,,,,,,,,,,,,,,,61036b50ca5be39e19acdc3d,61036e800932c682af6e03e7,2021-07-29_22h14.44.541,Simcolourproject_2stim_asymm_v5,2020.2.10,Linux aarch64,60,61025ae37ef11b136ea224fe,,,,,,,,,994,61.03314209,66.05859375,1,0,0,response1disk,,7,-21.44677734,-0.50201416,1,0,0,rectangle,-21.44677734,-0.50201416,1,0,0,-21.44677734,-0.50201416,1,0,0,0,112,112,147,1,,,,,,,,
,,,,,,,,,,,,,FF,,,,,,,,1.0481,,,,,,,,,,,,,,,,,,,,,,61036b50ca5be39e19acdc3d,61036e800932c682af6e03e7,2021-07-29_22h14.44.541,Simcolourproject_2stim_asymm_v5,2020.2.10,Linux aarch64,60,61025ae37ef11b136ea224fe,,,,,,,,,3643,33.63208008,53.57449341,1,0,0,response1disk,,7,11.46142578,5.931304932,1,0,0,rectangle,11.46142578,5.931304932,1,0,0,11.46142578,5.931304932,1,0,0,0,113,113,62,1,,,,,,,,
,,,,,,,,,,,,,FF,,,,,,,,1.0823,,,,,,,,,,,,,,,,,,,,,,61036b50ca5be39e19acdc3d,61036e800932c682af6e03e7,2021-07-29_22h14.44.541,Simcolourproject_2stim_asymm_v5,2020.2.10,Linux aarch64,60,61025ae37ef11b136ea224fe,,,,,,,,,3109,26.71606445,-42.94845581,1,0,0,response3disk,,4,-8.866455078,-13.17456055,1,0,0,rectangle,-8.866455078,-13.17456055,1,0,0,-8.866455078,-13.17456055,1,0,0,0,114,114,79,1,,,,,,,,
,,,,,,,,,,,,,FF,,,,,,,,1.2696,,,,,,,,,,,,,,,,,,,,,,61036b50ca5be39e19acdc3d,61036e800932c682af6e03e7,2021-07-29_22h14.44.541,Simcolourproject_2stim_asymm_v5,2020.2.10,Linux aarch64,60,61025ae37ef11b136ea224fe,,,,,,,,,1664,37.57049561,33.30999756,1,0,0,response1disk,,6,6.692626953,2.875549316,1,0,0,rectangle,-45.44830322,-59.11514282,1,0,0,-25.89251709,-14.42700195,1,0,0,0,115,115,98,1,,response5disk_3,TRUE,3,3,"[228,150,166,256,11,267,116,233,244,94,167,66,4,107,247,85,74,283,170,265]",2.0808,rectangle
,,,,,,,,,,,,,FF,,,,,,,,1.2313,,,,,,,,,,,,,,,,,,,,,,61036b50ca5be39e19acdc3d,61036e800932c682af6e03e7,2021-07-29_22h14.44.541,Simcolourproject_2stim_asymm_v5,2020.2.10,Linux aarch64,60,61025ae37ef11b136ea224fe,,,,,,,,,2867,21.18774414,41.15560913,1,0,0,response1disk,,7,-2.112670898,-2.472625732,1,0,0,rectangle,-2.112670898,-2.472625732,1,0,0,-2.112670898,-2.472625732,1,0,0,0,116,116,42,1,,,,,,,,
,,,,,,,,,,,,,FF,,,,,,,,12.0394,,,,,,,,,,,,,,,,,,,,,,61036b50ca5be39e19acdc3d,61036e800932c682af6e03e7,2021-07-29_22h14.44.541,Simcolourproject_2stim_asymm_v5,2020.2.10,Linux aarch64,60,61025ae37ef11b136ea224fe,,,,,,,,,1875,72.83502197,33.943573,1,0,0,response1disk,,6,18.88275146,10.57266235,1,0,0,rectangle,18.88275146,10.57266235,1,0,0,18.88275146,10.57266235,1,0,0,0,117,117,103,1,,,,,,,,
,,,,,,,,,,,,,FF,,,,,,,,1.5151,,,,,,,,,,,,,,,,,,,,,,61036b50ca5be39e19acdc3d,61036e800932c682af6e03e7,2021-07-29_22h14.44.541,Simcolourproject_2stim_asymm_v5,2020.2.10,Linux aarch64,60,61025ae37ef11b136ea224fe,,,,,,,,,2125,31.52313232,82.10107422,1,0,0,response1disk,,7,23.10290527,4.933898926,1,0,0,rectangle,23.10290527,4.933898926,1,0,0,23.10290527,4.933898926,1,0,0,0,118,118,4,1,,,,,,,,
,,,,,,,,,,,,,FF,,,,,,,,1.2491,,,,,,,,,,,,,,,,,,,,,,61036b50ca5be39e19acdc3d,61036e800932c682af6e03e7,2021-07-29_22h14.44.541,Simcolourproject_2stim_asymm_v5,2020.2.10,Linux aarch64,60,61025ae37ef11b136ea224fe,,,,,,,,,2710,49.46588135,-18.6151123,1,0,0,response3disk,,5,21.57672119,-7.528076172,1,0,0,rectangle,21.57672119,-7.528076172,1,0,0,21.57672119,-7.528076172,1,0,0,0,119,119,69,1,,,,,,,,
,,,,,,,,,,,,,FF,,,,,,,,1.1486,,,,,,,,,,,,,,,,,,,,,,61036b50ca5be39e19acdc3d,61036e800932c682af6e03e7,2021-07-29_22h14.44.541,Simcolourproject_2stim_asymm_v5,2020.2.10,Linux aarch64,60,61025ae37ef11b136ea224fe,,,,,,,,,310,18.58032227,88.24264526,1,0,0,response1disk,,7,11.41699219,6.718933105,1,0,0,rectangle,11.41699219,6.718933105,1,0,0,11.41699219,6.718933105,1,0,0,0,120,120,13,1,,,,,,,,
,,,,,,,,,,,,,FF,,,,,,,,2.1638,,,,,,,,,,,,,,,,,,,,,,61036b50ca5be39e19acdc3d,61036e800932c682af6e03e7,2021-07-29_22h14.44.541,Simcolourproject_2stim_asymm_v5,2020.2.10,Linux aarch64,60,61025ae37ef11b136ea224fe,,,,,,,,,2320,50.44726563,87.08544922,1,0,0,response1disk,,7,24.18475342,3.08380127,1,0,0,rectangle,24.18475342,3.08380127,1,0,0,24.18475342,3.08380127,1,0,0,0,121,121,43,1,,,,,,,,
,,,,,,,,,,,,,FF,,,,,,,,1.4147,,,,,,,,,,,,,,,,,,,,,,61036b50ca5be39e19acdc3d,61036e800932c682af6e03e7,2021-07-29_22h14.44.541,Simcolourproject_2stim_asymm_v5,2020.2.10,Linux aarch64,60,61025ae37ef11b136ea224fe,,,,,,,,,2602,43.64672852,-34.08377075,1,0,0,response3disk,,5,4.958129883,4.228515625,1,0,0,rectangle,4.958129883,4.228515625,1,0,0,4.958129883,4.228515625,1,0,0,0,122,122,153,1,,,,,,,,
,,,,,,,,,,,,,FF,,,,,,,,1.2655,,,,,,,,,,,,,,,,,,,,,,61036b50ca5be39e19acdc3d,61036e800932c682af6e03e7,2021-07-29_22h14.44.541,Simcolourproject_2stim_asymm_v5,2020.2.10,Linux aarch64,60,61025ae37ef11b136ea224fe,,,,,,,,,674,24.41851807,57.58053589,1,0,0,response1disk,,7,26.37921143,2.196899414,1,0,0,rectangle,26.37921143,2.196899414,1,0,0,26.37921143,2.196899414,1,0,0,0,123,123,104,1,,,,,,,,
,,,,,,,,,,,,,FF,,,,,,,,1.0653,,,,,,,,,,,,,,,,,,,,,,61036b50ca5be39e19acdc3d,61036e800932c682af6e03e7,2021-07-29_22h14.44.541,Simcolourproject_2stim_asymm_v5,2020.2.10,Linux aarch64,60,61025ae37ef11b136ea224fe,,,,,,,,,3077,25.03173828,117.9346313,1,0,0,response1disk,,7,25.03173828,10.60464478,1,0,0,rectangle,25.03173828,10.60464478,1,0,0,25.03173828,10.60464478,1,0,0,0,124,124,70,1,,,,,,,,
,,,,,,,,,,,,,FF,,,,,,,,1.0659,,,,,,,,,,,,,,,,,,,,,,61036b50ca5be39e19acdc3d,61036e800932c682af6e03e7,2021-07-29_22h14.44.541,Simcolourproject_2stim_asymm_v5,2020.2.10,Linux aarch64,60,61025ae37ef11b136ea224fe,,,,,,,,,495,38.22473145,59.68103027,1,0,0,response1disk,,7,32.05047607,0.837249756,1,0,0,rectangle,32.05047607,0.837249756,1,0,0,32.05047607,0.837249756,1,0,0,0,125,125,128,1,,,,,,,,
,,,,,,,,,,,,,FF,,,,,,,,0.9828,,,,,,,,,,,,,,,,,,,,,,61036b50ca5be39e19acdc3d,61036e800932c682af6e03e7,2021-07-29_22h14.44.541,Simcolourproject_2stim_asymm_v5,2020.2.10,Linux aarch64,60,61025ae37ef11b136ea224fe,,,,,,,,,3323,37.44793701,67.88595581,1,0,0,response1disk,,7,29.55206299,12.05029297,1,0,0,rectangle,29.55206299,12.05029297,1,0,0,29.55206299,12.05029297,1,0,0,0,126,126,17,1,,,,,,,,
,,,,,,,,,,,,,FF,,,,,,,,0.8827,,,,,,,,,,,,,,,,,,,,,,61036b50ca5be39e19acdc3d,61036e800932c682af6e03e7,2021-07-29_22h14.44.541,Simcolourproject_2stim_asymm_v5,2020.2.10,Linux aarch64,60,61025ae37ef11b136ea224fe,,,,,,,,,2391,44.89855957,60.51690674,1,0,0,response1disk,,7,24.43231201,11.81634521,1,0,0,rectangle,24.43231201,11.81634521,1,0,0,24.43231201,11.81634521,1,0,0,0,127,127,35,1,,,,,,,,
,,,,,,,,,,,,,FF,,,,,,,,0.9162,,,,,,,,,,,,,,,,,,,,,,61036b50ca5be39e19acdc3d,61036e800932c682af6e03e7,2021-07-29_22h14.44.541,Simcolourproject_2stim_asymm_v5,2020.2.10,Linux aarch64,60,61025ae37ef11b136ea224fe,,,,,,,,,3962,38.00299072,58.68783569,1,0,0,response1disk,,7,16.89038086,-2.037567139,1,0,0,rectangle,16.89038086,-2.037567139,1,0,0,16.89038086,-2.037567139,1,0,0,0,128,128,80,1,,,,,,,,
,,,,,,,,,,,,,FF,,,,,,,,1.1334,,,,,,,,,,,,,,,,,,,,,,61036b50ca5be39e19acdc3d,61036e800932c682af6e03e7,2021-07-29_22h14.44.541,Simcolourproject_2stim_asymm_v5,2020.2.10,Linux aarch64,60,61025ae37ef11b136ea224fe,,,,,,,,,2836,75.81903076,-53.05303955,1,0,0,response3disk,,5,15.184021,-11.01696777,1,0,0,rectangle,15.184021,-11.01696777,1,0,0,15.184021,-11.01696777,1,0,0,0,129,129,54,1,,,,,,,,
,,,,,,,,,,,,,FF,,,,,,,,1.1652,,,,,,,,,,,,,,,,,,,,,,61036b50ca5be39e19acdc3d,61036e800932c682af6e03e7,2021-07-29_22h14.44.541,Simcolourproject_2stim_asymm_v5,2020.2.10,Linux aarch64,60,61025ae37ef11b136ea224fe,,,,,,,,,670,21.0881958,68.07223511,1,0,0,response1disk,,7,11.86309814,7.22454834,1,0,0,rectangle,11.86309814,7.22454834,1,0,0,11.86309814,7.22454834,1,0,0,0,130,130,95,1,,,,,,,,
,,,,,,,,,,,,,FF,,,,,,,,1.2991,,,,,,,,,,,,,,,,,,,,,,61036b50ca5be39e19acdc3d,61036e800932c682af6e03e7,2021-07-29_22h14.44.541,Simcolourproject_2stim_asymm_v5,2020.2.10,Linux aarch64,60,61025ae37ef11b136ea224fe,,,,,,,,,992,50.33886719,-37.55175781,1,0,0,response3disk,,5,8.975830078,-9.68460083,1,0,0,rectangle,8.975830078,-9.68460083,1,0,0,8.975830078,-9.68460083,1,0,0,0,131,131,141,1,,,,,,,,
,,,,,,,,,,,,,FF,,,,,,,,1.0979,,,,,,,,,,,,,,,,,,,,,,61036b50ca5be39e19acdc3d,61036e800932c682af6e03e7,2021-07-29_22h14.44.541,Simcolourproject_2stim_asymm_v5,2020.2.10,Linux aarch64,60,61025ae37ef11b136ea224fe,,,,,,,,,4168,-24.50695801,-66.80474854,1,0,0,response5disk,,3,-3.09197998,-8.247894287,1,0,0,rectangle,-3.09197998,-8.247894287,1,0,0,-3.09197998,-8.247894287,1,0,0,0,132,132,114,1,,,,,,,,
,,,,,,,,,,,,,FF,,,,,,,,1.083,,,,,,,,,,,,,,,,,,,,,,61036b50ca5be39e19acdc3d,61036e800932c682af6e03e7,2021-07-29_22h14.44.541,Simcolourproject_2stim_asymm_v5,2020.2.10,Linux aarch64,60,61025ae37ef11b136ea224fe,,,,,,,,,2091,-22.83361816,-42.06433105,1,0,0,response5disk,,3,-6.286071777,-6.111053467,1,0,0,rectangle,-6.286071777,-6.111053467,1,0,0,-6.286071777,-6.111053467,1,0,0,0,133,133,19,1,,,,,,,,
,,,,,,,,,,,,,FF,,,,,,,,1.1323,,,,,,,,,,,,,,,,,,,,,,61036b50ca5be39e19acdc3d,61036e800932c682af6e03e7,2021-07-29_22h14.44.541,Simcolourproject_2stim_asymm_v5,2020.2.10,Linux aarch64,60,61025ae37ef11b136ea224fe,,,,,,,,,715,30.25592041,-70.74368286,1,0,0,response3disk,,4,-3.471069336,6.355895996,1,0,0,rectangle,-3.471069336,6.355895996,1,0,0,-3.471069336,6.355895996,1,0,0,0,134,134,145,1,,,,,,,,
,,,,,,,,,,,,,FF,,,,,,,,1.5652,,,,,,,,,,,,,,,,,,,,,,61036b50ca5be39e19acdc3d,61036e800932c682af6e03e7,2021-07-29_22h14.44.541,Simcolourproject_2stim_asymm_v5,2020.2.10,Linux aarch64,60,61025ae37ef11b136ea224fe,,,,,,,,,1439,36.71557617,-74.94335938,1,0,0,response3disk,,4,16.46594238,-15.05963135,1,0,0,rectangle,16.46594238,-15.05963135,1,0,0,16.46594238,-15.05963135,1,0,0,0,135,135,12,1,,,,,,,,
,,,,,,,,,,,,,FF,,,,,,,,1.283,,,,,,,,,,,,,,,,,,,,,,61036b50ca5be39e19acdc3d,61036e800932c682af6e03e7,2021-07-29_22h14.44.541,Simcolourproject_2stim_asymm_v5,2020.2.10,Linux aarch64,60,61025ae37ef11b136ea224fe,,,,,,,,,1708,58.55950928,72.86309814,1,0,0,response1disk,,7,10.14837646,2.738372803,1,0,0,rectangle,10.14837646,2.738372803,1,0,0,10.14837646,2.738372803,1,0,0,0,136,136,55,1,,,,,,,,
,,,,,,,,,,,,,FF,,,,,,,,1.0849,,,,,,,,,,,,,,,,,,,,,,61036b50ca5be39e19acdc3d,61036e800932c682af6e03e7,2021-07-29_22h14.44.541,Simcolourproject_2stim_asymm_v5,2020.2.10,Linux aarch64,60,61025ae37ef11b136ea224fe,,,,,,,,,1063,36.16345215,-66.04934692,1,0,0,response3disk,,4,-2.765869141,9.648529053,1,0,0,rectangle,-2.765869141,9.648529053,1,0,0,-2.765869141,9.648529053,1,0,0,0,137,137,144,1,,,,,,,,
,,,,,,,,,,,,,FF,,,,,,,,1.7323,,,,,,,,,,,,,,,,,,,,,,61036b50ca5be39e19acdc3d,61036e800932c682af6e03e7,2021-07-29_22h14.44.541,Simcolourproject_2stim_asymm_v5,2020.2.10,Linux aarch64,60,61025ae37ef11b136ea224fe,,,,,,,,,30,79.50140381,22.19500732,1,0,0,response1disk,,6,1.010070801,1.720214844,1,0,0,rectangle,1.010070801,1.720214844,1,0,0,1.010070801,1.720214844,1,0,0,0,138,138,18,1,,,,,,,,
,,,,,,,,,,,,,FF,,,,,,,,1.114,,,,,,,,,,,,,,,,,,,,,,61036b50ca5be39e19acdc3d,61036e800932c682af6e03e7,2021-07-29_22h14.44.541,Simcolourproject_2stim_asymm_v5,2020.2.10,Linux aarch64,60,61025ae37ef11b136ea224fe,,,,,,,,,307,37.44476318,65.04315186,1,0,0,response1disk,,7,22.96838379,-11.48373413,1,0,0,rectangle,22.96838379,-11.48373413,1,0,0,22.96838379,-11.48373413,1,0,0,0,139,139,53,1,,,,,,,,
,,,,,,,,,,,,,FF,,,,,,,,1.4153,,,,,,,,,,,,,,,,,,,,,,61036b50ca5be39e19acdc3d,61036e800932c682af6e03e7,2021-07-29_22h14.44.541,Simcolourproject_2stim_asymm_v5,2020.2.10,Linux aarch64,60,61025ae37ef11b136ea224fe,,,,,,,,,1929,44.60632324,63.44464111,1,0,0,response1disk,,7,9.628662109,-7.23916626,1,0,0,rectangle,9.628662109,-7.23916626,1,0,0,9.628662109,-7.23916626,1,0,0,0,140,140,73,1,,,,,,,,
,,,,,,,,,,,,,FF,,,,,,,,1.5985,,,,,,,,,,,,,,,,,,,,,,61036b50ca5be39e19acdc3d,61036e800932c682af6e03e7,2021-07-29_22h14.44.541,Simcolourproject_2stim_asymm_v5,2020.2.10,Linux aarch64,60,61025ae37ef11b136ea224fe,,,,,,,,,1408,53.66516113,29.91949463,1,0,0,response1disk,,6,16.20684814,4.26751709,1,0,0,rectangle,16.20684814,4.26751709,1,0,0,16.20684814,4.26751709,1,0,0,0,141,141,120,1,,,,,,,,
,,,,,,,,,,,,,FF,,,,,,,,1.0655,,,,,,,,,,,,,,,,,,,,,,61036b50ca5be39e19acdc3d,61036e800932c682af6e03e7,2021-07-29_22h14.44.541,Simcolourproject_2stim_asymm_v5,2020.2.10,Linux aarch64,60,61025ae37ef11b136ea224fe,,,,,,,,,2492,38.08209229,-31.37774658,1,0,0,response3disk,,5,9.023071289,-1.058746338,1,0,0,rectangle,9.023071289,-1.058746338,1,0,0,9.023071289,-1.058746338,1,0,0,0,142,142,8,1,,,,,,,,
,,,,,,,,,,,,,FF,,,,,,,,1.3491,,,,,,,,,,,,,,,,,,,,,,61036b50ca5be39e19acdc3d,61036e800932c682af6e03e7,2021-07-29_22h14.44.541,Simcolourproject_2stim_asymm_v5,2020.2.10,Linux aarch64,60,61025ae37ef11b136ea224fe,,,,,,,,,1059,40.80987549,-63.07324219,1,0,0,response3disk,,4,1.755493164,3.58706665,1,0,0,rectangle,1.755493164,3.58706665,1,0,0,1.755493164,3.58706665,1,0,0,0,143,143,41,1,,,,,,,,
,,,,,,,,,,,,,FF,,,,,,,,0.9668,,,,,,,,,,,,,,,,,,,,,,61036b50ca5be39e19acdc3d,61036e800932c682af6e03e7,2021-07-29_22h14.44.541,Simcolourproject_2stim_asymm_v5,2020.2.10,Linux aarch64,60,61025ae37ef11b136ea224fe,,,,,,,,,1755,-38.21392822,-62.48522949,1,0,0,response5disk,,3,1.350769043,0.412506104,1,0,0,rectangle,1.350769043,0.412506104,1,0,0,1.350769043,0.412506104,1,0,0,0,144,144,110,1,,,,,,,,
,,,,,,,,,,,,,FF,,,,,,,,1.0994,,,,,,,,,,,,,,,,,,,,,,61036b50ca5be39e19acdc3d,61036e800932c682af6e03e7,2021-07-29_22h14.44.541,Simcolourproject_2stim_asymm_v5,2020.2.10,Linux aarch64,60,61025ae37ef11b136ea224fe,,,,,,,,,406,40.90014648,70.65118408,1,0,0,response1disk,,7,12.62823486,6.880004883,1,0,0,rectangle,12.62823486,6.880004883,1,0,0,12.62823486,6.880004883,1,0,0,0,145,145,136,1,,,,,,,,
,,,,,,,,,,,,,FF,,,,,,,,1.2154,,,,,,,,,,,,,,,,,,,,,,61036b50ca5be39e19acdc3d,61036e800932c682af6e03e7,2021-07-29_22h14.44.541,Simcolourproject_2stim_asymm_v5,2020.2.10,Linux aarch64,60,61025ae37ef11b136ea224fe,,,,,,,,,3779,54.88018799,-38.49377441,1,0,0,response3disk,,5,9.306396484,3.621551514,1,0,0,rectangle,9.306396484,3.621551514,1,0,0,9.306396484,3.621551514,1,0,0,0,146,146,86,1,,,,,,,,
,,,,,,,,,,,,,FF,,,,,,,,1.1163,,,,,,,,,,,,,,,,,,,,,,61036b50ca5be39e19acdc3d,61036e800932c682af6e03e7,2021-07-29_22h14.44.541,Simcolourproject_2stim_asymm_v5,2020.2.10,Linux aarch64,60,61025ae37ef11b136ea224fe,,,,,,,,,91,52.72357178,-34.63095093,1,0,0,response3disk,,5,13.54992676,5.873321533,1,0,0,rectangle,13.54992676,5.873321533,1,0,0,13.54992676,5.873321533,1,0,0,0,147,147,77,1,,,,,,,,
,,,,,,,,,,,,,FF,,,,,,,,1.1316,,,,,,,,,,,,,,,,,,,,,,61036b50ca5be39e19acdc3d,61036e800932c682af6e03e7,2021-07-29_22h14.44.541,Simcolourproject_2stim_asymm_v5,2020.2.10,Linux aarch64,60,61025ae37ef11b136ea224fe,,,,,,,,,3001,40.80627441,26.76296997,1,0,0,response1disk,,6,15.45776367,-7.927337646,1,0,0,rectangle,15.45776367,-7.927337646,1,0,0,15.45776367,-7.927337646,1,0,0,0,148,148,155,1,,,,,,,,
,,,,,,,,,,,,,FF,,,,,,,,0.967,,,,,,,,,,,,,,,,,,,,,,61036b50ca5be39e19acdc3d,61036e800932c682af6e03e7,2021-07-29_22h14.44.541,Simcolourproject_2stim_asymm_v5,2020.2.10,Linux aarch64,60,61025ae37ef11b136ea224fe,,,,,,,,,39,20.99993896,72.34521484,1,0,0,response1disk,,7,13.71478271,2.009552002,1,0,0,rectangle,53.53948975,102.4311829,1,0,0,10.07849121,2.964416504,1,0,0,0,149,149,27,1,,response1disk_3,TRUE,7,7,"[228,150,166,256,11,267,116,233,244,94,167,66,4,107,247,85,74,283,170,265]",2.4145,rectangle
,,,,,,,,,,,,,FF,,,,,,,,0.9666,,,,,,,,,,,,,,,,,,,,,,61036b50ca5be39e19acdc3d,61036e800932c682af6e03e7,2021-07-29_22h14.44.541,Simcolourproject_2stim_asymm_v5,2020.2.10,Linux aarch64,60,61025ae37ef11b136ea224fe,,,,,,,,,2567,34.35705566,91.37142944,1,0,0,response1disk,,7,17.52661133,-0.090667725,1,0,0,rectangle,17.52661133,-0.090667725,1,0,0,17.52661133,-0.090667725,1,0,0,0,150,150,9,1,,,,,,,,
,,,,,,,,,,,,,FF,,,,,,,,0.8986,,,,,,,,,,,,,,,,,,,,,,61036b50ca5be39e19acdc3d,61036e800932c682af6e03e7,2021-07-29_22h14.44.541,Simcolourproject_2stim_asymm_v5,2020.2.10,Linux aarch64,60,61025ae37ef11b136ea224fe,,,,,,,,,2041,55.2074585,-30.38516235,1,0,0,response3disk,,5,24.01898193,-6.69052124,1,0,0,rectangle,24.01898193,-6.69052124,1,0,0,24.01898193,-6.69052124,1,0,0,0,151,151,6,1,,,,,,,,
,,,,,,,,,,,,,FF,,,,,,,,1.1159,,,,,,,,,,,,,,,,,,,,,,61036b50ca5be39e19acdc3d,61036e800932c682af6e03e7,2021-07-29_22h14.44.541,Simcolourproject_2stim_asymm_v5,2020.2.10,Linux aarch64,60,61025ae37ef11b136ea224fe,,,,,,,,,1358,45.08026123,78.59451294,1,0,0,response1disk,,7,15.52032471,8.552459717,1,0,0,rectangle,15.52032471,8.552459717,1,0,0,15.52032471,8.552459717,1,0,0,0,152,152,25,1,,,,,,,,
,,,,,,,,,,,,,FF,,,,,,,,0.9654,,,,,,,,,,,,,,,,,,,,,,61036b50ca5be39e19acdc3d,61036e800932c682af6e03e7,2021-07-29_22h14.44.541,Simcolourproject_2stim_asymm_v5,2020.2.10,Linux aarch64,60,61025ae37ef11b136ea224fe,,,,,,,,,1835,44.41400146,-24.61584473,1,0,0,response3disk,,5,26.00134277,-13.4822998,1,0,0,rectangle,26.00134277,-13.4822998,1,0,0,26.00134277,-13.4822998,1,0,0,0,153,153,126,1,,,,,,,,
,,,,,,,,,,,,,FF,,,,,,,,0.9326,,,,,,,,,,,,,,,,,,,,,,61036b50ca5be39e19acdc3d,61036e800932c682af6e03e7,2021-07-29_22h14.44.541,Simcolourproject_2stim_asymm_v5,2020.2.10,Linux aarch64,60,61025ae37ef11b136ea224fe,,,,,,,,,2224,43.66235352,-27.85623169,1,0,0,response3disk,,5,27.05535889,-13.53323364,1,0,0,rectangle,27.05535889,-13.53323364,1,0,0,27.05535889,-13.53323364,1,0,0,0,154,154,152,1,,,,,,,,
,,,,,,,,,,,,,FF,,,,,,,,0.9154,,,,,,,,,,,,,,,,,,,,,,61036b50ca5be39e19acdc3d,61036e800932c682af6e03e7,2021-07-29_22h14.44.541,Simcolourproject_2stim_asymm_v5,2020.2.10,Linux aarch64,60,61025ae37ef11b136ea224fe,,,,,,,,,3037,27.05535889,-45.36697388,1,0,0,response3disk,,4,7.020080566,-8.448028564,1,0,0,rectangle,7.020080566,-8.448028564,1,0,0,7.020080566,-8.448028564,1,0,0,0,155,155,10,1,,,,,,,,
,,,,,,,,,,,,,FF,,,,,,,,1.2308,,,,,,,,,,,,,,,,,,,,,,61036b50ca5be39e19acdc3d,61036e800932c682af6e03e7,2021-07-29_22h14.44.541,Simcolourproject_2stim_asymm_v5,2020.2.10,Linux aarch64,60,61025ae37ef11b136ea224fe,,,,,,,,,2958,64.84729004,86.48605347,1,0,0,response1disk,,7,15.13085938,11.56109619,1,0,0,rectangle,15.13085938,11.56109619,1,0,0,15.13085938,11.56109619,1,0,0,0,156,156,101,1,,,,,,,,
,,,,,,,,,,,,,FF,,,,,,,,1.3041,,,,,,,,,,,,,,,,,,,,,,61036b50ca5be39e19acdc3d,61036e800932c682af6e03e7,2021-07-29_22h14.44.541,Simcolourproject_2stim_asymm_v5,2020.2.10,Linux aarch64,60,61025ae37ef11b136ea224fe,,,,,,,,,3199,45.03955078,-20.69934082,1,0,0,response3disk,,5,21.52325439,-7.961883545,1,0,0,rectangle,21.52325439,-7.961883545,1,0,0,21.52325439,-7.961883545,1,0,0,0,157,157,116,1,,,,,,,,
,,,,,,,,,,,,,FF,,,,,,,,0.9001,,,,,,,,,,,,,,,,,,,,,,61036b50ca5be39e19acdc3d,61036e800932c682af6e03e7,2021-07-29_22h14.44.541,Simcolourproject_2stim_asymm_v5,2020.2.10,Linux aarch64,60,61025ae37ef11b136ea224fe,,,,,,,,,1651,27.84436035,75.01669312,1,0,0,response1disk,,7,13.19647217,7.903259277,1,0,0,rectangle,13.19647217,7.903259277,1,0,0,13.19647217,7.903259277,1,0,0,0,158,158,107,1,,,,,,,,
,,,,,,,,,,,,,FF,,,,,,,,1.1825,,,,,,,,,,,,,,,,,,,,,,61036b50ca5be39e19acdc3d,61036e800932c682af6e03e7,2021-07-29_22h14.44.541,Simcolourproject_2stim_asymm_v5,2020.2.10,Linux aarch64,60,61025ae37ef11b136ea224fe,,,,,,,,,3967,25.08190918,-63.0718689,1,0,0,response3disk,,4,-2.366760254,14.02890015,1,0,0,rectangle,-2.366760254,14.02890015,1,0,0,-2.366760254,14.02890015,1,0,0,0,159,159,99,1,,,,,,,,
,,,,,,,,,,,,,FF,,,,,,,,1.6998,,,,,,,,,,,,,,,,,,,,,,61036b50ca5be39e19acdc3d,61036e800932c682af6e03e7,2021-07-29_22h14.44.541,Simcolourproject_2stim_asymm_v5,2020.2.10,Linux aarch64,60,61025ae37ef11b136ea224fe,,,,,,,,,3349,37.8447876,-32.21618652,1,0,0,response3disk,,5,-1.616943359,-3.388000488,1,0,0,rectangle,-1.616943359,-3.388000488,1,0,0,-1.616943359,-3.388000488,1,0,0,1,0,160,95,1,,,,,,,,
,,,,,,,,,,,,,FF,,,,,,,,1.1825,,,,,,,,,,,,,,,,,,,,,,61036b50ca5be39e19acdc3d,61036e800932c682af6e03e7,2021-07-29_22h14.44.541,Simcolourproject_2stim_asymm_v5,2020.2.10,Linux aarch64,60,61025ae37ef11b136ea224fe,,,,,,,,,2339,61.82739258,90.86920166,1,0,0,response1disk,,7,8.363220215,3.809875488,1,0,0,rectangle,8.363220215,3.809875488,1,0,0,8.363220215,3.809875488,1,0,0,1,1,161,107,1,,,,,,,,
,,,,,,,,,,,,,FF,,,,,,,,1.1789,,,,,,,,,,,,,,,,,,,,,,61036b50ca5be39e19acdc3d,61036e800932c682af6e03e7,2021-07-29_22h14.44.541,Simcolourproject_2stim_asymm_v5,2020.2.10,Linux aarch64,60,61025ae37ef11b136ea224fe,,,,,,,,,2474,34.96209717,-18.48867798,1,0,0,response3disk,,5,23.12426758,-7.828735352,1,0,0,rectangle,23.12426758,-7.828735352,1,0,0,23.12426758,-7.828735352,1,0,0,1,2,162,83,1,,,,,,,,
,,,,,,,,,,,,,FF,,,,,,,,1.513,,,,,,,,,,,,,,,,,,,,,,61036b50ca5be39e19acdc3d,61036e800932c682af6e03e7,2021-07-29_22h14.44.541,Simcolourproject_2stim_asymm_v5,2020.2.10,Linux aarch64,60,61025ae37ef11b136ea224fe,,,,,,,,,828,36.52734375,-20.181427,1,0,0,response3disk,,5,16.31408691,-8.702789307,1,0,0,rectangle,16.31408691,-8.702789307,1,0,0,16.31408691,-8.702789307,1,0,0,1,3,163,76,1,,,,,,,,
,,,,,,,,,,,,,FF,,,,,,,,1.3994,,,,,,,,,,,,,,,,,,,,,,61036b50ca5be39e19acdc3d,61036e800932c682af6e03e7,2021-07-29_22h14.44.541,Simcolourproject_2stim_asymm_v5,2020.2.10,Linux aarch64,60,61025ae37ef11b136ea224fe,,,,,,,,,147,51.44744873,70.38156128,1,0,0,response1disk,,7,12.16101074,-3.966430664,1,0,0,rectangle,12.16101074,-3.966430664,1,0,0,12.16101074,-3.966430664,1,0,0,1,4,164,11,1,,,,,,,,
,,,,,,,,,,,,,FF,,,,,,,,1.1169,,,,,,,,,,,,,,,,,,,,,,61036b50ca5be39e19acdc3d,61036e800932c682af6e03e7,2021-07-29_22h14.44.541,Simcolourproject_2stim_asymm_v5,2020.2.10,Linux aarch64,60,61025ae37ef11b136ea224fe,,,,,,,,,702,32.72143555,-57.90316772,1,0,0,response3disk,,4,7.154174805,-8.945953369,1,0,0,rectangle,52.84234619,34.29400635,1,0,0,16.82647705,5.36605835,1,0,0,1,5,165,127,1,,response1disk_3,TRUE,6,6,"[228,150,166,256,11,267,116,233,244,94,167,66,4,107,247,85,74,283,170,265]",1.6302,rectangle
,,,,,,,,,,,,,FF,,,,,,,,1.1661,,,,,,,,,,,,,,,,,,,,,,61036b50ca5be39e19acdc3d,61036e800932c682af6e03e7,2021-07-29_22h14.44.541,Simcolourproject_2stim_asymm_v5,2020.2.10,Linux aarch64,60,61025ae37ef11b136ea224fe,,,,,,,,,2110,44.80316162,-29.02908325,1,0,0,response3disk,,5,29.81396484,-7.847564697,1,0,0,rectangle,40.4597168,80.44555664,1,0,0,13.52435303,6.566680908,1,0,0,1,6,166,135,1,,response1disk_3,TRUE,7,7,"[228,150,166,256,11,267,116,233,244,94,167,66,4,107,247,85,74,283,170,265]",1.7485,rectangle
,,,,,,,,,,,,,FF,,,,,,,,1.6148,,,,,,,,,,,,,,,,,,,,,,61036b50ca5be39e19acdc3d,61036e800932c682af6e03e7,2021-07-29_22h14.44.541,Simcolourproject_2stim_asymm_v5,2020.2.10,Linux aarch64,60,61025ae37ef11b136ea224fe,,,,,,,,,79,30.17919922,-98.90228271,1,0,0,response3disk,,4,2.102905273,4.434051514,1,0,0,rectangle,2.102905273,4.434051514,1,0,0,2.102905273,4.434051514,1,0,0,1,7,167,47,1,,,,,,,,
,,,,,,,,,,,,,FF,,,,,,,,0.9673,,,,,,,,,,,,,,,,,,,,,,61036b50ca5be39e19acdc3d,61036e800932c682af6e03e7,2021-07-29_22h14.44.541,Simcolourproject_2stim_asymm_v5,2020.2.10,Linux aarch64,60,61025ae37ef11b136ea224fe,,,,,,,,,298,41.17297363,67.05508423,1,0,0,response1disk,,7,15.96643066,4.041107178,1,0,0,rectangle,15.96643066,4.041107178,1,0,0,15.96643066,4.041107178,1,0,0,1,8,168,27,1,,,,,,,,
,,,,,,,,,,,,,FF,,,,,,,,1.2494,,,,,,,,,,,,,,,,,,,,,,61036b50ca5be39e19acdc3d,61036e800932c682af6e03e7,2021-07-29_22h14.44.541,Simcolourproject_2stim_asymm_v5,2020.2.10,Linux aarch64,60,61025ae37ef11b136ea224fe,,,,,,,,,3471,-31.48175049,-91.99938965,1,0,0,response5disk,,3,11.73028564,-3.485015869,1,0,0,rectangle,38.14788818,-91.13937378,1,0,0,13.27020264,-3.305297852,1,0,0,1,9,169,126,1,,response3disk_3,TRUE,4,4,"[228,150,166,256,11,267,116,233,244,94,167,66,4,107,247,85,74,283,170,265]",1.549,rectangle
,,,,,,,,,,,,,FF,,,,,,,,1.2198,,,,,,,,,,,,,,,,,,,,,,61036b50ca5be39e19acdc3d,61036e800932c682af6e03e7,2021-07-29_22h14.44.541,Simcolourproject_2stim_asymm_v5,2020.2.10,Linux aarch64,60,61025ae37ef11b136ea224fe,,,,,,,,,416,34.22106934,45.97503662,1,0,0,response1disk,,7,19.62536621,-0.219268799,1,0,0,rectangle,19.62536621,-0.219268799,1,0,0,19.62536621,-0.219268799,1,0,0,1,10,170,7,1,,,,,,,,
,,,,,,,,,,,,,FF,,,,,,,,1.3835,,,,,,,,,,,,,,,,,,,,,,61036b50ca5be39e19acdc3d,61036e800932c682af6e03e7,2021-07-29_22h14.44.541,Simcolourproject_2stim_asymm_v5,2020.2.10,Linux aarch64,60,61025ae37ef11b136ea224fe,,,,,,,,,2088,-30.5838623,-51.51818848,1,0,0,response5disk,,3,2.050415039,3.272735596,1,0,0,rectangle,2.050415039,3.272735596,1,0,0,2.050415039,3.272735596,1,0,0,1,11,171,15,1,,,,,,,,
,,,,,,,,,,,,,FF,,,,,,,,1.1831,,,,,,,,,,,,,,,,,,,,,,61036b50ca5be39e19acdc3d,61036e800932c682af6e03e7,2021-07-29_22h14.44.541,Simcolourproject_2stim_asymm_v5,2020.2.10,Linux aarch64,60,61025ae37ef11b136ea224fe,,,,,,,,,2902,-36.3371582,-77.69174194,1,0,0,response5disk,,3,14.0322876,-2.681243896,1,0,0,rectangle,14.0322876,-2.681243896,1,0,0,14.0322876,-2.681243896,1,0,0,1,12,172,20,1,,,,,,,,
,,,,,,,,,,,,,FF,,,,,,,,0.8828,,,,,,,,,,,,,,,,,,,,,,61036b50ca5be39e19acdc3d,61036e800932c682af6e03e7,2021-07-29_22h14.44.541,Simcolourproject_2stim_asymm_v5,2020.2.10,Linux aarch64,60,61025ae37ef11b136ea224fe,,,,,,,,,3134,40.8536377,44.19488525,1,0,0,response1disk,,7,9.902709961,1.867248535,1,0,0,rectangle,9.902709961,1.867248535,1,0,0,9.902709961,1.867248535,1,0,0,1,13,173,34,1,,,,,,,,
,,,,,,,,,,,,,FF,,,,,,,,1.7495,,,,,,,,,,,,,,,,,,,,,,61036b50ca5be39e19acdc3d,61036e800932c682af6e03e7,2021-07-29_22h14.44.541,Simcolourproject_2stim_asymm_v5,2020.2.10,Linux aarch64,60,61025ae37ef11b136ea224fe,,,,,,,,,1156,82.68127441,-50.69625854,1,0,0,response3disk,,5,6.056884766,-12.02386475,1,0,0,rectangle,6.056884766,-12.02386475,1,0,0,6.056884766,-12.02386475,1,0,0,1,14,174,101,1,,,,,,,,
,,,,,,,,,,,,,FF,,,,,,,,1.1156,,,,,,,,,,,,,,,,,,,,,,61036b50ca5be39e19acdc3d,61036e800932c682af6e03e7,2021-07-29_22h14.44.541,Simcolourproject_2stim_asymm_v5,2020.2.10,Linux aarch64,60,61025ae37ef11b136ea224fe,,,,,,,,,1698,-40.37786865,-71.23040771,1,0,0,response5disk,,3,0.561950684,4.408172607,1,0,0,rectangle,0.561950684,4.408172607,1,0,0,0.561950684,4.408172607,1,0,0,1,15,175,49,1,,,,,,,,
,,,,,,,,,,,,,FF,,,,,,,,1.1985,,,,,,,,,,,,,,,,,,,,,,61036b50ca5be39e19acdc3d,61036e800932c682af6e03e7,2021-07-29_22h14.44.541,Simcolourproject_2stim_asymm_v5,2020.2.10,Linux aarch64,60,61025ae37ef11b136ea224fe,,,,,,,,,1544,62.88360596,-29.54510498,1,0,0,response3disk,,5,31.3447876,-9.263824463,1,0,0,rectangle,31.3447876,-9.263824463,1,0,0,31.3447876,-9.263824463,1,0,0,1,16,176,32,1,,,,,,,,
,,,,,,,,,,,,,FF,,,,,,,,1.1673,,,,,,,,,,,,,,,,,,,,,,61036b50ca5be39e19acdc3d,61036e800932c682af6e03e7,2021-07-29_22h14.44.541,Simcolourproject_2stim_asymm_v5,2020.2.10,Linux aarch64,60,61025ae37ef11b136ea224fe,,,,,,,,,1391,37.18164063,67.65380859,1,0,0,response1disk,,7,1.059753418,5.389862061,1,0,0,rectangle,1.059753418,5.389862061,1,0,0,1.059753418,5.389862061,1,0,0,1,17,177,120,1,,,,,,,,
,,,,,,,,,,,,,FF,,,,,,,,2.1339,,,,,,,,,,,,,,,,,,,,,,61036b50ca5be39e19acdc3d,61036e800932c682af6e03e7,2021-07-29_22h14.44.541,Simcolourproject_2stim_asymm_v5,2020.2.10,Linux aarch64,60,61025ae37ef11b136ea224fe,,,,,,,,,3691,57.12738037,-48.54574585,1,0,0,response3disk,,5,-0.971191406,1.789031982,1,0,0,rectangle,-0.971191406,1.789031982,1,0,0,-0.971191406,1.789031982,1,0,0,1,18,178,5,1,,,,,,,,
,,,,,,,,,,,,,FF,,,,,,,,3.7642,,,,,,,,,,,,,,,,,,,,,,61036b50ca5be39e19acdc3d,61036e800932c682af6e03e7,2021-07-29_22h14.44.541,Simcolourproject_2stim_asymm_v5,2020.2.10,Linux aarch64,60,61025ae37ef11b136ea224fe,,,,,,,,,2953,68.14788818,-26.26797485,1,0,0,response3disk,,5,-7.855041504,-0.956451416,1,0,0,rectangle,-7.855041504,-0.956451416,1,0,0,-7.855041504,-0.956451416,1,0,0,1,19,179,112,1,,,,,,,,
,,,,,,,,,,,,,FF,,,,,,,,1.2483,,,,,,,,,,,,,,,,,,,,,,61036b50ca5be39e19acdc3d,61036e800932c682af6e03e7,2021-07-29_22h14.44.541,Simcolourproject_2stim_asymm_v5,2020.2.10,Linux aarch64,60,61025ae37ef11b136ea224fe,,,,,,,,,1785,25.19995117,24.27145386,1,0,0,response1disk,,6,5.584533691,-8.873504639,1,0,0,rectangle,5.584533691,-8.873504639,1,0,0,5.584533691,-8.873504639,1,0,0,1,20,180,139,1,,,,,,,,
,,,,,,,,,,,,,FF,,,,,,,,1.499,,,,,,,,,,,,,,,,,,,,,,61036b50ca5be39e19acdc3d,61036e800932c682af6e03e7,2021-07-29_22h14.44.541,Simcolourproject_2stim_asymm_v5,2020.2.10,Linux aarch64,60,61025ae37ef11b136ea224fe,,,,,,,,,3229,40.73272705,58.10665894,1,0,0,response1disk,,7,18.01348877,2.903839111,1,0,0,rectangle,18.01348877,2.903839111,1,0,0,18.01348877,2.903839111,1,0,0,1,21,181,62,1,,,,,,,,
,,,,,,,,,,,,,FF,,,,,,,,2.1817,,,,,,,,,,,,,,,,,,,,,,61036b50ca5be39e19acdc3d,61036e800932c682af6e03e7,2021-07-29_22h14.44.541,Simcolourproject_2stim_asymm_v5,2020.2.10,Linux aarch64,60,61025ae37ef11b136ea224fe,,,,,,,,,729,36.62731934,-58.01083374,1,0,0,response3disk,,4,11.13757324,-8.986328125,1,0,0,rectangle,11.13757324,-8.986328125,1,0,0,11.13757324,-8.986328125,1,0,0,1,22,182,1,1,,,,,,,,
,,,,,,,,,,,,,FF,,,,,,,,1.1497,,,,,,,,,,,,,,,,,,,,,,61036b50ca5be39e19acdc3d,61036e800932c682af6e03e7,2021-07-29_22h14.44.541,Simcolourproject_2stim_asymm_v5,2020.2.10,Linux aarch64,60,61025ae37ef11b136ea224fe,,,,,,,,,193,35.84283447,55.77844238,1,0,0,response1disk,,7,26.04174805,10.45043945,1,0,0,rectangle,26.04174805,10.45043945,1,0,0,26.04174805,10.45043945,1,0,0,1,23,183,42,1,,,,,,,,
,,,,,,,,,,,,,FF,,,,,,,,1.5154,,,,,,,,,,,,,,,,,,,,,,61036b50ca5be39e19acdc3d,61036e800932c682af6e03e7,2021-07-29_22h14.44.541,Simcolourproject_2stim_asymm_v5,2020.2.10,Linux aarch64,60,61025ae37ef11b136ea224fe,,,,,,,,,2259,41.7557373,108.9293823,1,0,0,response1disk,,7,7.731445313,6.661834717,1,0,0,rectangle,7.731445313,6.661834717,1,0,0,7.731445313,6.661834717,1,0,0,1,24,184,71,1,,,,,,,,
,,,,,,,,,,,,,FF,,,,,,,,1.1832,,,,,,,,,,,,,,,,,,,,,,61036b50ca5be39e19acdc3d,61036e800932c682af6e03e7,2021-07-29_22h14.44.541,Simcolourproject_2stim_asymm_v5,2020.2.10,Linux aarch64,60,61025ae37ef11b136ea224fe,,,,,,,,,1649,48.08319092,89.79449463,1,0,0,response1disk,,7,23.75024414,-0.366546631,1,0,0,rectangle,23.75024414,-0.366546631,1,0,0,23.75024414,-0.366546631,1,0,0,1,25,185,136,1,,,,,,,,
,,,,,,,,,,,,,FF,,,,,,,,1.8491,,,,,,,,,,,,,,,,,,,,,,61036b50ca5be39e19acdc3d,61036e800932c682af6e03e7,2021-07-29_22h14.44.541,Simcolourproject_2stim_asymm_v5,2020.2.10,Linux aarch64,60,61025ae37ef11b136ea224fe,,,,,,,,,528,89.84295654,-56.17422485,1,0,0,response3disk,,5,-12.61175537,-4.68560791,1,0,0,rectangle,-12.61175537,-4.68560791,1,0,0,-12.61175537,-4.68560791,1,0,0,1,26,186,105,1,,,,,,,,
,,,,,,,,,,,,,FF,,,,,,,,0.8826,,,,,,,,,,,,,,,,,,,,,,61036b50ca5be39e19acdc3d,61036e800932c682af6e03e7,2021-07-29_22h14.44.541,Simcolourproject_2stim_asymm_v5,2020.2.10,Linux aarch64,60,61025ae37ef11b136ea224fe,,,,,,,,,3264,29.61871338,44.48886108,1,0,0,response1disk,,7,3.255859375,-3.832397461,1,0,0,rectangle,3.255859375,-3.832397461,1,0,0,3.255859375,-3.832397461,1,0,0,1,27,187,67,1,,,,,,,,
,,,,,,,,,,,,,FF,,,,,,,,1.1805,,,,,,,,,,,,,,,,,,,,,,61036b50ca5be39e19acdc3d,61036e800932c682af6e03e7,2021-07-29_22h14.44.541,Simcolourproject_2stim_asymm_v5,2020.2.10,Linux aarch64,60,61025ae37ef11b136ea224fe,,,,,,,,,1452,-41.2131958,91.08178711,1,0,0,response7disk,,0,-13.97290039,-7.687591553,1,0,0,rectangle,-13.97290039,-7.687591553,1,0,0,-13.97290039,-7.687591553,1,0,0,1,28,188,134,1,,,,,,,,
,,,,,,,,,,,,,FF,,,,,,,,1.233,,,,,,,,,,,,,,,,,,,,,,61036b50ca5be39e19acdc3d,61036e800932c682af6e03e7,2021-07-29_22h14.44.541,Simcolourproject_2stim_asymm_v5,2020.2.10,Linux aarch64,60,61025ae37ef11b136ea224fe,,,,,,,,,3565,-73.03613281,-27.0296936,1,0,0,response5disk,,2,31.32550049,9.724761963,1,0,0,rectangle,31.32550049,9.724761963,1,0,0,31.32550049,9.724761963,1,0,0,1,29,189,159,1,,,,,,,,
,,,,,,,,,,,,,FF,,,,,,,,1.4822,,,,,,,,,,,,,,,,,,,,,,61036b50ca5be39e19acdc3d,61036e800932c682af6e03e7,2021-07-29_22h14.44.541,Simcolourproject_2stim_asymm_v5,2020.2.10,Linux aarch64,60,61025ae37ef11b136ea224fe,,,,,,,,,224,38.95629883,70.08883667,1,0,0,response1disk,,7,5.926818848,6.9140625,1,0,0,rectangle,5.926818848,6.9140625,1,0,0,5.926818848,6.9140625,1,0,0,1,30,190,50,1,,,,,,,,
,,,,,,,,,,,,,FF,,,,,,,,1.4641,,,,,,,,,,,,,,,,,,,,,,61036b50ca5be39e19acdc3d,61036e800932c682af6e03e7,2021-07-29_22h14.44.541,Simcolourproject_2stim_asymm_v5,2020.2.10,Linux aarch64,60,61025ae37ef11b136ea224fe,,,,,,,,,953,57.00341797,-27.18218994,1,0,0,response3disk,,5,23.24938965,0.198852539,1,0,0,rectangle,23.24938965,0.198852539,1,0,0,23.24938965,0.198852539,1,0,0,1,31,191,122,1,,,,,,,,
,,,,,,,,,,,,,FF,,,,,,,,1.4667,,,,,,,,,,,,,,,,,,,,,,61036b50ca5be39e19acdc3d,61036e800932c682af6e03e7,2021-07-29_22h14.44.541,Simcolourproject_2stim_asymm_v5,2020.2.10,Linux aarch64,60,61025ae37ef11b136ea224fe,,,,,,,,,1070,35.96728516,-74.21606445,1,0,0,response3disk,,4,0.206665039,-5.281036377,1,0,0,rectangle,0.206665039,-5.281036377,1,0,0,0.206665039,-5.281036377,1,0,0,1,32,192,128,1,,,,,,,,
,,,,,,,,,,,,,FF,,,,,,,,0.9999,,,,,,,,,,,,,,,,,,,,,,61036b50ca5be39e19acdc3d,61036e800932c682af6e03e7,2021-07-29_22h14.44.541,Simcolourproject_2stim_asymm_v5,2020.2.10,Linux aarch64,60,61025ae37ef11b136ea224fe,,,,,,,,,4234,37.6583252,52.05975342,1,0,0,response1disk,,7,15.41241455,-1.914581299,1,0,0,rectangle,15.41241455,-1.914581299,1,0,0,15.41241455,-1.914581299,1,0,0,1,33,193,55,1,,,,,,,,
,,,,,,,,,,,,,FF,,,,,,,,0.9663,,,,,,,,,,,,,,,,,,,,,,61036b50ca5be39e19acdc3d,61036e800932c682af6e03e7,2021-07-29_22h14.44.541,Simcolourproject_2stim_asymm_v5,2020.2.10,Linux aarch64,60,61025ae37ef11b136ea224fe,,,,,,,,,4271,37.50390625,44.36694336,1,0,0,response1disk,,7,8.880249023,-7.079711914,1,0,0,rectangle,8.880249023,-7.079711914,1,0,0,8.880249023,-7.079711914,1,0,0,1,34,194,124,1,,,,,,,,
,,,,,,,,,,,,,FF,,,,,,,,14.9901,,,,,,,,,,,,,,,,,,,,,,61036b50ca5be39e19acdc3d,61036e800932c682af6e03e7,2021-07-29_22h14.44.541,Simcolourproject_2stim_asymm_v5,2020.2.10,Linux aarch64,60,61025ae37ef11b136ea224fe,,,,,,,,,1806,68.4465332,28.76882935,1,0,0,response1disk,,6,2.576599121,-10.48129272,1,0,0,rectangle,2.576599121,-10.48129272,1,0,0,2.576599121,-10.48129272,1,0,0,1,35,195,6,1,,,,,,,,
,,,,,,,,,,,,,FF,,,,,,,,1.7829,,,,,,,,,,,,,,,,,,,,,,61036b50ca5be39e19acdc3d,61036e800932c682af6e03e7,2021-07-29_22h14.44.541,Simcolourproject_2stim_asymm_v5,2020.2.10,Linux aarch64,60,61025ae37ef11b136ea224fe,,,,,,,,,750,113.2016602,48.31616211,1,0,0,response1disk,,6,22.14508057,10.81735229,1,0,0,rectangle,22.14508057,10.81735229,1,0,0,22.14508057,10.81735229,1,0,0,1,36,196,54,1,,,,,,,,
,,,,,,,,,,,,,FF,,,,,,,,1.1828,,,,,,,,,,,,,,,,,,,,,,61036b50ca5be39e19acdc3d,61036e800932c682af6e03e7,2021-07-29_22h14.44.541,Simcolourproject_2stim_asymm_v5,2020.2.10,Linux aarch64,60,61025ae37ef11b136ea224fe,,,,,,,,,3456,55.76177979,-33.41320801,1,0,0,response3disk,,5,27.31182861,-7.488067627,1,0,0,rectangle,27.31182861,-7.488067627,1,0,0,27.31182861,-7.488067627,1,0,0,1,37,197,28,1,,,,,,,,
,,,,,,,,,,,,,FF,,,,,,,,1.1083,,,,,,,,,,,,,,,,,,,,,,61036b50ca5be39e19acdc3d,61036e800932c682af6e03e7,2021-07-29_22h14.44.541,Simcolourproject_2stim_asymm_v5,2020.2.10,Linux aarch64,60,61025ae37ef11b136ea224fe,,,,,,,,,3519,-16.43652344,-43.05606079,1,0,0,response5disk,,3,20.41320801,-3.487884521,1,0,0,rectangle,20.41320801,-3.487884521,1,0,0,20.41320801,-3.487884521,1,0,0,1,38,198,63,1,,,,,,,,
,,,,,,,,,,,,,FF,,,,,,,,0.8833,,,,,,,,,,,,,,,,,,,,,,61036b50ca5be39e19acdc3d,61036e800932c682af6e03e7,2021-07-29_22h14.44.541,Simcolourproject_2stim_asymm_v5,2020.2.10,Linux aarch64,60,61025ae37ef11b136ea224fe,,,,,,,,,2677,33.63275146,-55.02536011,1,0,0,response3disk,,4,15.25927734,6.788085938,1,0,0,rectangle,15.25927734,6.788085938,1,0,0,15.25927734,6.788085938,1,0,0,1,39,199,143,1,,,,,,,,
,,,,,,,,,,,,,FF,,,,,,,,1.6652,,,,,,,,,,,,,,,,,,,,,,61036b50ca5be39e19acdc3d,61036e800932c682af6e03e7,2021-07-29_22h14.44.541,Simcolourproject_2stim_asymm_v5,2020.2.10,Linux aarch64,60,61025ae37ef11b136ea224fe,,,,,,,,,1150,27.86175537,-47.08309937,1,0,0,response3disk,,4,16.36883545,-6.393432617,1,0,0,rectangle,16.36883545,-6.393432617,1,0,0,16.36883545,-6.393432617,1,0,0,1,40,200,2,1,,,,,,,,
,,,,,,,,,,,,,FF,,,,,,,,0.7826,,,,,,,,,,,,,,,,,,,,,,61036b50ca5be39e19acdc3d,61036e800932c682af6e03e7,2021-07-29_22h14.44.541,Simcolourproject_2stim_asymm_v5,2020.2.10,Linux aarch64,60,61025ae37ef11b136ea224fe,,,,,,,,,1308,-33.64996338,-67.14578247,1,0,0,response5disk,,3,31.06591797,-3.372039795,1,0,0,rectangle,31.06591797,-3.372039795,1,0,0,31.06591797,-3.372039795,1,0,0,1,41,201,141,1,,,,,,,,
,,,,,,,,,,,,,FF,,,,,,,,1.0654,,,,,,,,,,,,,,,,,,,,,,61036b50ca5be39e19acdc3d,61036e800932c682af6e03e7,2021-07-29_22h14.44.541,Simcolourproject_2stim_asymm_v5,2020.2.10,Linux aarch64,60,61025ae37ef11b136ea224fe,,,,,,,,,2725,32.16882324,-33.66949463,1,0,0,response3disk,,4,23.95336914,-11.18447876,1,0,0,rectangle,23.95336914,-11.18447876,1,0,0,23.95336914,-11.18447876,1,0,0,1,42,202,125,1,,,,,,,,
,,,,,,,,,,,,,FF,,,,,,,,1,,,,,,,,,,,,,,,,,,,,,,61036b50ca5be39e19acdc3d,61036e800932c682af6e03e7,2021-07-29_22h14.44.541,Simcolourproject_2stim_asymm_v5,2020.2.10,Linux aarch64,60,61025ae37ef11b136ea224fe,,,,,,,,,145,63.17199707,95.10812378,1,0,0,response1disk,,7,-1.676818848,3.069610596,1,0,0,rectangle,-1.676818848,3.069610596,1,0,0,-1.676818848,3.069610596,1,0,0,1,43,203,0,1,,,,,,,,
,,,,,,,,,,,,,FF,,,,,,,,1.4985,,,,,,,,,,,,,,,,,,,,,,61036b50ca5be39e19acdc3d,61036e800932c682af6e03e7,2021-07-29_22h14.44.541,Simcolourproject_2stim_asymm_v5,2020.2.10,Linux aarch64,60,61025ae37ef11b136ea224fe,,,,,,,,,611,111.8311768,41.31585693,1,0,0,response1disk,,6,15.16766357,-13.64080811,1,0,0,rectangle,15.16766357,-13.64080811,1,0,0,15.16766357,-13.64080811,1,0,0,1,44,204,108,1,,,,,,,,
,,,,,,,,,,,,,FF,,,,,,,,0.8159,,,,,,,,,,,,,,,,,,,,,,61036b50ca5be39e19acdc3d,61036e800932c682af6e03e7,2021-07-29_22h14.44.541,Simcolourproject_2stim_asymm_v5,2020.2.10,Linux aarch64,60,61025ae37ef11b136ea224fe,,,,,,,,,1212,-26.89605713,-59.46002197,1,0,0,response5disk,,3,15.93487549,0.685821533,1,0,0,rectangle,15.93487549,0.685821533,1,0,0,15.93487549,0.685821533,1,0,0,1,45,205,70,1,,,,,,,,
,,,,,,,,,,,,,FF,,,,,,,,0.8487,,,,,,,,,,,,,,,,,,,,,,61036b50ca5be39e19acdc3d,61036e800932c682af6e03e7,2021-07-29_22h14.44.541,Simcolourproject_2stim_asymm_v5,2020.2.10,Linux aarch64,60,61025ae37ef11b136ea224fe,,,,,,,,,3866,52.93389893,69.87017822,1,0,0,response1disk,,7,0.483154297,4.214630127,1,0,0,rectangle,0.483154297,4.214630127,1,0,0,0.483154297,4.214630127,1,0,0,1,46,206,66,1,,,,,,,,
,,,,,,,,,,,,,FF,,,,,,,,1.2492,,,,,,,,,,,,,,,,,,,,,,61036b50ca5be39e19acdc3d,61036e800932c682af6e03e7,2021-07-29_22h14.44.541,Simcolourproject_2stim_asymm_v5,2020.2.10,Linux aarch64,60,61025ae37ef11b136ea224fe,,,,,,,,,1574,61.22967529,31.20599365,1,0,0,response1disk,,6,9.290893555,-3.932830811,1,0,0,rectangle,9.290893555,-3.932830811,1,0,0,9.290893555,-3.932830811,1,0,0,1,47,207,14,1,,,,,,,,
,,,,,,,,,,,,,FF,,,,,,,,0.8165,,,,,,,,,,,,,,,,,,,,,,61036b50ca5be39e19acdc3d,61036e800932c682af6e03e7,2021-07-29_22h14.44.541,Simcolourproject_2stim_asymm_v5,2020.2.10,Linux aarch64,60,61025ae37ef11b136ea224fe,,,,,,,,,1025,78.20019531,-45.89871216,1,0,0,response3disk,,5,26.53863525,-10.25421143,1,0,0,rectangle,26.53863525,-10.25421143,1,0,0,26.53863525,-10.25421143,1,0,0,1,48,208,73,1,,,,,,,,
,,,,,,,,,,,,,FF,,,,,,,,1.149,,,,,,,,,,,,,,,,,,,,,,61036b50ca5be39e19acdc3d,61036e800932c682af6e03e7,2021-07-29_22h14.44.541,Simcolourproject_2stim_asymm_v5,2020.2.10,Linux aarch64,60,61025ae37ef11b136ea224fe,,,,,,,,,1331,52.27502441,62.96325684,1,0,0,response1disk,,7,3.073059082,4.919158936,1,0,0,rectangle,3.073059082,4.919158936,1,0,0,3.073059082,4.919158936,1,0,0,1,49,209,158,1,,,,,,,,
,,,,,,,,,,,,,FF,,,,,,,,0.8498,,,,,,,,,,,,,,,,,,,,,,61036b50ca5be39e19acdc3d,61036e800932c682af6e03e7,2021-07-29_22h14.44.541,Simcolourproject_2stim_asymm_v5,2020.2.10,Linux aarch64,60,61025ae37ef11b136ea224fe,,,,,,,,,3277,44.30822754,52.55065918,1,0,0,response1disk,,7,1.681152344,0.418792725,1,0,0,rectangle,1.681152344,0.418792725,1,0,0,1.681152344,0.418792725,1,0,0,1,50,210,65,1,,,,,,,,
,,,,,,,,,,,,,FF,,,,,,,,0.8997,,,,,,,,,,,,,,,,,,,,,,61036b50ca5be39e19acdc3d,61036e800932c682af6e03e7,2021-07-29_22h14.44.541,Simcolourproject_2stim_asymm_v5,2020.2.10,Linux aarch64,60,61025ae37ef11b136ea224fe,,,,,,,,,4069,50.09503174,34.68692017,1,0,0,response1disk,,6,8.605957031,-9.422973633,1,0,0,rectangle,8.605957031,-9.422973633,1,0,0,8.605957031,-9.422973633,1,0,0,1,51,211,18,1,,,,,,,,
,,,,,,,,,,,,,FF,,,,,,,,3.297,,,,,,,,,,,,,,,,,,,,,,61036b50ca5be39e19acdc3d,61036e800932c682af6e03e7,2021-07-29_22h14.44.541,Simcolourproject_2stim_asymm_v5,2020.2.10,Linux aarch64,60,61025ae37ef11b136ea224fe,,,,,,,,,4340,-70.45788574,42.82089233,1,0,0,response7disk,,1,-14.63470459,3.379516602,1,0,0,rectangle,-14.63470459,3.379516602,1,0,0,-14.63470459,3.379516602,1,0,0,1,52,212,155,1,,,,,,,,
,,,,,,,,,,,,,FF,,,,,,,,0.9,,,,,,,,,,,,,,,,,,,,,,61036b50ca5be39e19acdc3d,61036e800932c682af6e03e7,2021-07-29_22h14.44.541,Simcolourproject_2stim_asymm_v5,2020.2.10,Linux aarch64,60,61025ae37ef11b136ea224fe,,,,,,,,,867,30.91546631,62.96362305,1,0,0,response1disk,,7,-17.72192383,-3.474822998,1,0,0,rectangle,-17.72192383,-3.474822998,1,0,0,-17.72192383,-3.474822998,1,0,0,1,53,213,3,1,,,,,,,,
,,,,,,,,,,,,,FF,,,,,,,,0.8664,,,,,,,,,,,,,,,,,,,,,,61036b50ca5be39e19acdc3d,61036e800932c682af6e03e7,2021-07-29_22h14.44.541,Simcolourproject_2stim_asymm_v5,2020.2.10,Linux aarch64,60,61025ae37ef11b136ea224fe,,,,,,,,,1497,32.1552124,40.39395142,1,0,0,response1disk,,7,-1.123413086,-2.182800293,1,0,0,rectangle,-1.123413086,-2.182800293,1,0,0,-1.123413086,-2.182800293,1,0,0,1,54,214,102,1,,,,,,,,
,,,,,,,,,,,,,FF,,,,,,,,0.9656,,,,,,,,,,,,,,,,,,,,,,61036b50ca5be39e19acdc3d,61036e800932c682af6e03e7,2021-07-29_22h14.44.541,Simcolourproject_2stim_asymm_v5,2020.2.10,Linux aarch64,60,61025ae37ef11b136ea224fe,,,,,,,,,4363,-64.42163086,17.81143188,1,0,0,response7disk,,1,-19.38122559,0.47366333,1,0,0,rectangle,-19.38122559,0.47366333,1,0,0,-19.38122559,0.47366333,1,0,0,1,55,215,4,1,,,,,,,,
,,,,,,,,,,,,,FF,,,,,,,,0.9663,,,,,,,,,,,,,,,,,,,,,,61036b50ca5be39e19acdc3d,61036e800932c682af6e03e7,2021-07-29_22h14.44.541,Simcolourproject_2stim_asymm_v5,2020.2.10,Linux aarch64,60,61025ae37ef11b136ea224fe,,,,,,,,,1261,42.57873535,47.22955322,1,0,0,response1disk,,7,1.196655273,-2.683380127,1,0,0,rectangle,1.196655273,-2.683380127,1,0,0,1.196655273,-2.683380127,1,0,0,1,56,216,153,1,,,,,,,,
,,,,,,,,,,,,,FF,,,,,,,,1.6323,,,,,,,,,,,,,,,,,,,,,,61036b50ca5be39e19acdc3d,61036e800932c682af6e03e7,2021-07-29_22h14.44.541,Simcolourproject_2stim_asymm_v5,2020.2.10,Linux aarch64,60,61025ae37ef11b136ea224fe,,,,,,,,,2353,61.07525635,-36.98458862,1,0,0,response3disk,,5,21.07788086,-6.323486328,1,0,0,rectangle,21.07788086,-6.323486328,1,0,0,21.07788086,-6.323486328,1,0,0,1,57,217,150,1,,,,,,,,
,,,,,,,,,,,,,FF,,,,,,,,1.3157,,,,,,,,,,,,,,,,,,,,,,61036b50ca5be39e19acdc3d,61036e800932c682af6e03e7,2021-07-29_22h14.44.541,Simcolourproject_2stim_asymm_v5,2020.2.10,Linux aarch64,60,61025ae37ef11b136ea224fe,,,,,,,,,3198,30.18811035,-78.12399292,1,0,0,response3disk,,4,-0.588745117,14.63641357,1,0,0,rectangle,-0.588745117,14.63641357,1,0,0,-0.588745117,14.63641357,1,0,0,1,58,218,72,1,,,,,,,,
,,,,,,,,,,,,,FF,,,,,,,,1.2653,,,,,,,,,,,,,,,,,,,,,,61036b50ca5be39e19acdc3d,61036e800932c682af6e03e7,2021-07-29_22h14.44.541,Simcolourproject_2stim_asymm_v5,2020.2.10,Linux aarch64,60,61025ae37ef11b136ea224fe,,,,,,,,,2637,47.50939941,74.36999512,1,0,0,response1disk,,7,-16.71911621,-11.33178711,1,0,0,rectangle,-16.71911621,-11.33178711,1,0,0,-16.71911621,-11.33178711,1,0,0,1,59,219,9,1,,,,,,,,
,,,,,,,,,,,,,FF,,,,,,,,0.801,,,,,,,,,,,,,,,,,,,,,,61036b50ca5be39e19acdc3d,61036e800932c682af6e03e7,2021-07-29_22h14.44.541,Simcolourproject_2stim_asymm_v5,2020.2.10,Linux aarch64,60,61025ae37ef11b136ea224fe,,,,,,,,,260,-27.86767578,-36.50350952,1,0,0,response5disk,,3,9.247680664,-2.321350098,1,0,0,rectangle,9.247680664,-2.321350098,1,0,0,9.247680664,-2.321350098,1,0,0,1,60,220,31,1,,,,,,,,
,,,,,,,,,,,,,FF,,,,,,,,1.2653,,,,,,,,,,,,,,,,,,,,,,61036b50ca5be39e19acdc3d,61036e800932c682af6e03e7,2021-07-29_22h14.44.541,Simcolourproject_2stim_asymm_v5,2020.2.10,Linux aarch64,60,61025ae37ef11b136ea224fe,,,,,,,,,602,72.35412598,36.05056763,1,0,0,response1disk,,6,20.03009033,-8.564666748,1,0,0,rectangle,20.03009033,-8.564666748,1,0,0,20.03009033,-8.564666748,1,0,0,1,61,221,21,1,,,,,,,,
,,,,,,,,,,,,,FF,,,,,,,,0.9336,,,,,,,,,,,,,,,,,,,,,,61036b50ca5be39e19acdc3d,61036e800932c682af6e03e7,2021-07-29_22h14.44.541,Simcolourproject_2stim_asymm_v5,2020.2.10,Linux aarch64,60,61025ae37ef11b136ea224fe,,,,,,,,,1695,58.37518311,-44.17410278,1,0,0,response3disk,,5,26.24188232,-7.309936523,1,0,0,rectangle,26.24188232,-7.309936523,1,0,0,26.24188232,-7.309936523,1,0,0,1,62,222,40,1,,,,,,,,
,,,,,,,,,,,,,FF,,,,,,,,0.817,,,,,,,,,,,,,,,,,,,,,,61036b50ca5be39e19acdc3d,61036e800932c682af6e03e7,2021-07-29_22h14.44.541,Simcolourproject_2stim_asymm_v5,2020.2.10,Linux aarch64,60,61025ae37ef11b136ea224fe,,,,,,,,,3825,57.12615967,-52.66824341,1,0,0,response3disk,,5,14.33666992,-3.364349365,1,0,0,rectangle,14.33666992,-3.364349365,1,0,0,14.33666992,-3.364349365,1,0,0,1,63,223,116,1,,,,,,,,
,,,,,,,,,,,,,FF,,,,,,,,0.7828,,,,,,,,,,,,,,,,,,,,,,61036b50ca5be39e19acdc3d,61036e800932c682af6e03e7,2021-07-29_22h14.44.541,Simcolourproject_2stim_asymm_v5,2020.2.10,Linux aarch64,60,61025ae37ef11b136ea224fe,,,,,,,,,1865,42.32183838,67.42623901,1,0,0,response1disk,,7,-2.282470703,0.811859131,1,0,0,rectangle,-2.282470703,0.811859131,1,0,0,-2.282470703,0.811859131,1,0,0,1,64,224,77,1,,,,,,,,
,,,,,,,,,,,,,FF,,,,,,,,1.2554,,,,,,,,,,,,,,,,,,,,,,61036b50ca5be39e19acdc3d,61036e800932c682af6e03e7,2021-07-29_22h14.44.541,Simcolourproject_2stim_asymm_v5,2020.2.10,Linux aarch64,60,61025ae37ef11b136ea224fe,,,,,,,,,463,78.78643799,-31.60089111,1,0,0,response3disk,,5,28.51324463,-10.66940308,1,0,0,rectangle,28.51324463,-10.66940308,1,0,0,28.51324463,-10.66940308,1,0,0,1,65,225,69,1,,,,,,,,
,,,,,,,,,,,,,FF,,,,,,,,0.7499,,,,,,,,,,,,,,,,,,,,,,61036b50ca5be39e19acdc3d,61036e800932c682af6e03e7,2021-07-29_22h14.44.541,Simcolourproject_2stim_asymm_v5,2020.2.10,Linux aarch64,60,61025ae37ef11b136ea224fe,,,,,,,,,1274,54.45471191,-35.12161255,1,0,0,response3disk,,5,12.70831299,-8.579376221,1,0,0,rectangle,12.70831299,-8.579376221,1,0,0,12.70831299,-8.579376221,1,0,0,1,66,226,88,1,,,,,,,,
,,,,,,,,,,,,,FF,,,,,,,,0.9331,,,,,,,,,,,,,,,,,,,,,,61036b50ca5be39e19acdc3d,61036e800932c682af6e03e7,2021-07-29_22h14.44.541,Simcolourproject_2stim_asymm_v5,2020.2.10,Linux aarch64,60,61025ae37ef11b136ea224fe,,,,,,,,,244,57.98913574,73.1321106,1,0,0,response1disk,,7,15.7545166,-1.784912109,1,0,0,rectangle,-38.63323975,-79.36965942,1,0,0,15.69927979,2.92376709,1,0,0,1,67,227,74,1,,response5disk_3,TRUE,3,3,"[228,150,166,256,11,267,116,233,244,94,167,66,4,107,247,85,74,283,170,265]",1.7494,rectangle
,,,,,,,,,,,,,FF,,,,,,,,1.0663,,,,,,,,,,,,,,,,,,,,,,61036b50ca5be39e19acdc3d,61036e800932c682af6e03e7,2021-07-29_22h14.44.541,Simcolourproject_2stim_asymm_v5,2020.2.10,Linux aarch64,60,61025ae37ef11b136ea224fe,,,,,,,,,794,95.87634277,27.54846191,1,0,0,response1disk,,6,14.54309082,1.817474365,1,0,0,rectangle,14.54309082,1.817474365,1,0,0,14.54309082,1.817474365,1,0,0,1,68,228,79,1,,,,,,,,
,,,,,,,,,,,,,FF,,,,,,,,1.0503,,,,,,,,,,,,,,,,,,,,,,61036b50ca5be39e19acdc3d,61036e800932c682af6e03e7,2021-07-29_22h14.44.541,Simcolourproject_2stim_asymm_v5,2020.2.10,Linux aarch64,60,61025ae37ef11b136ea224fe,,,,,,,,,202,21.88861084,26.621521,1,0,0,response1disk,,7,4.698852539,-5.260620117,1,0,0,rectangle,4.698852539,-5.260620117,1,0,0,4.698852539,-5.260620117,1,0,0,1,69,229,96,1,,,,,,,,
,,,,,,,,,,,,,FF,,,,,,,,1.4195,,,,,,,,,,,,,,,,,,,,,,61036b50ca5be39e19acdc3d,61036e800932c682af6e03e7,2021-07-29_22h14.44.541,Simcolourproject_2stim_asymm_v5,2020.2.10,Linux aarch64,60,61025ae37ef11b136ea224fe,,,,,,,,,617,85.67053223,-35.30874634,1,0,0,response3disk,,5,16.85430908,-2.353027344,1,0,0,rectangle,16.85430908,-2.353027344,1,0,0,16.85430908,-2.353027344,1,0,0,1,70,230,41,1,,,,,,,,
,,,,,,,,,,,,,FF,,,,,,,,1.0173,,,,,,,,,,,,,,,,,,,,,,61036b50ca5be39e19acdc3d,61036e800932c682af6e03e7,2021-07-29_22h14.44.541,Simcolourproject_2stim_asymm_v5,2020.2.10,Linux aarch64,60,61025ae37ef11b136ea224fe,,,,,,,,,699,53.17321777,26.10766602,1,0,0,response1disk,,6,21.02893066,-1.248931885,1,0,0,rectangle,21.02893066,-1.248931885,1,0,0,21.02893066,-1.248931885,1,0,0,1,71,231,157,1,,,,,,,,
,,,,,,,,,,,,,FF,,,,,,,,1.5973,,,,,,,,,,,,,,,,,,,,,,61036b50ca5be39e19acdc3d,61036e800932c682af6e03e7,2021-07-29_22h14.44.541,Simcolourproject_2stim_asymm_v5,2020.2.10,Linux aarch64,60,61025ae37ef11b136ea224fe,,,,,,,,,1069,54.45904541,-66.8374939,1,0,0,response3disk,,4,12.44848633,4.224487305,1,0,0,rectangle,-75.74060059,-41.66702271,1,0,0,-14.41485596,1.769348145,1,0,0,1,72,232,133,1,,response5disk_3,TRUE,2,2,"[228,150,166,256,11,267,116,233,244,94,167,66,4,107,247,85,74,283,170,265]",1.4824,rectangle
,,,,,,,,,,,,,FF,,,,,,,,0.8672,,,,,,,,,,,,,,,,,,,,,,61036b50ca5be39e19acdc3d,61036e800932c682af6e03e7,2021-07-29_22h14.44.541,Simcolourproject_2stim_asymm_v5,2020.2.10,Linux aarch64,60,61025ae37ef11b136ea224fe,,,,,,,,,1816,-37.53375244,-56.6388855,1,0,0,response5disk,,3,14.13366699,10.70419312,1,0,0,rectangle,14.13366699,10.70419312,1,0,0,14.13366699,10.70419312,1,0,0,1,73,233,36,1,,,,,,,,
,,,,,,,,,,,,,FF,,,,,,,,2.0483,,,,,,,,,,,,,,,,,,,,,,61036b50ca5be39e19acdc3d,61036e800932c682af6e03e7,2021-07-29_22h14.44.541,Simcolourproject_2stim_asymm_v5,2020.2.10,Linux aarch64,60,61025ae37ef11b136ea224fe,,,,,,,,,3362,47.29614258,55.51144409,1,0,0,response1disk,,7,3.082885742,3.383972168,1,0,0,rectangle,3.082885742,3.383972168,1,0,0,3.082885742,3.383972168,1,0,0,1,74,234,8,1,,,,,,,,
,,,,,,,,,,,,,FF,,,,,,,,0.9755,,,,,,,,,,,,,,,,,,,,,,61036b50ca5be39e19acdc3d,61036e800932c682af6e03e7,2021-07-29_22h14.44.541,Simcolourproject_2stim_asymm_v5,2020.2.10,Linux aarch64,60,61025ae37ef11b136ea224fe,,,,,,,,,996,73.05786133,-21.96948242,1,0,0,response3disk,,5,14.86212158,-2.495422363,1,0,0,rectangle,14.86212158,-2.495422363,1,0,0,14.86212158,-2.495422363,1,0,0,1,75,235,119,1,,,,,,,,
,,,,,,,,,,,,,FF,,,,,,,,1.3494,,,,,,,,,,,,,,,,,,,,,,61036b50ca5be39e19acdc3d,61036e800932c682af6e03e7,2021-07-29_22h14.44.541,Simcolourproject_2stim_asymm_v5,2020.2.10,Linux aarch64,60,61025ae37ef11b136ea224fe,,,,,,,,,1162,83.30279541,65.18029785,1,0,0,response1disk,,6,17.24981689,7.380889893,1,0,0,rectangle,17.24981689,7.380889893,1,0,0,17.24981689,7.380889893,1,0,0,1,76,236,129,1,,,,,,,,
,,,,,,,,,,,,,FF,,,,,,,,0.9162,,,,,,,,,,,,,,,,,,,,,,61036b50ca5be39e19acdc3d,61036e800932c682af6e03e7,2021-07-29_22h14.44.541,Simcolourproject_2stim_asymm_v5,2020.2.10,Linux aarch64,60,61025ae37ef11b136ea224fe,,,,,,,,,2060,36.41668701,68.32873535,1,0,0,response1disk,,7,-9.20098877,7.011657715,1,0,0,rectangle,-9.20098877,7.011657715,1,0,0,-9.20098877,7.011657715,1,0,0,1,77,237,110,1,,,,,,,,
,,,,,,,,,,,,,FF,,,,,,,,0.8001,,,,,,,,,,,,,,,,,,,,,,61036b50ca5be39e19acdc3d,61036e800932c682af6e03e7,2021-07-29_22h14.44.541,Simcolourproject_2stim_asymm_v5,2020.2.10,Linux aarch64,60,61025ae37ef11b136ea224fe,,,,,,,,,304,47.47949219,67.25817871,1,0,0,response1disk,,7,-0.428649902,4.606994629,1,0,0,rectangle,-0.428649902,4.606994629,1,0,0,-0.428649902,4.606994629,1,0,0,1,78,238,24,1,,,,,,,,
