key_resp.keys,key_resp.rt,key_resp_14.keys,key_resp_14.rt,key_resp_15.keys,key_resp_15.rt,key_resp_17.keys,key_resp_17.rt,key_resp_9.keys,key_resp_9.rt,key_resp_10.keys,key_resp_10.rt,practice_comparison,Ecc,mouse_5.x,mouse_5.y,mouse_5.leftButton,mouse_5.midButton,mouse_5.rightButton,mouse_5.clicked_name,pracsimilarity,response_time,mouse_10.x,mouse_10.y,mouse_10.leftButton,mouse_10.midButton,mouse_10.rightButton,mouse_10.clicked_name,mouse_7.x,mouse_7.y,mouse_7.leftButton,mouse_7.midButton,mouse_7.rightButton,mouse_6.x,mouse_6.y,mouse_6.leftButton,mouse_6.midButton,mouse_6.rightButton,duringprac.thisRepN,duringprac.thisTrialN,duringprac.thisN,duringprac.thisIndex,duringprac.ran,participant,session,date,expName,psychopyVersion,OS,frameRate,study_id,mouse_7.clicked_name,catchpracsimilarity,catch_response_time,catchnumberprac,catchtrialorderprac,mouse_6.clicked_name,key_resp_22.keys,key_resp_22.rt,realcomparison,mouse.x,mouse.y,mouse.leftButton,mouse.midButton,mouse.rightButton,mouse.clicked_name,Colour2,similarity,mouse_2.x,mouse_2.y,mouse_2.leftButton,mouse_2.midButton,mouse_2.rightButton,mouse_2.clicked_name,mouse_3.x,mouse_3.y,mouse_3.leftButton,mouse_3.midButton,mouse_3.rightButton,mouse_11.x,mouse_11.y,mouse_11.leftButton,mouse_11.midButton,mouse_11.rightButton,trials_2.thisRepN,trials_2.thisTrialN,trials_2.thisN,trials_2.thisIndex,trials_2.ran,Colour1,mouse_3.clicked_name,catchornah,catchsimilarity,catchnumber,catchtrialorder,catchRT,mouse_11.clicked_name
space,0.9691,space,4.4712,space,17.703,space,2.6691,space,0.6515,space,2.7588,12,FF,47.09277344,76.77767944,1,0,0,response1disk_5,7,11.3946,8.692321777,-10.59420776,1,0,0,rectangle_8,8.692321777,-10.59420776,1,0,0,8.692321777,-10.59420776,1,0,0,0,0,0,0,1,61031048f58595acbfdf85b9,61036a5c811088540506d91f,2021-07-29_22h58.45.872,Simcolourproject_2stim_asymm_v5,2020.2.10,Linux x86_64,60,61025ae37ef11b136ea224fe,,,,,,,,,,,,,,,,,,,,,,,,,,,,,,,,,,,,,,,,,,,,,,
,,,,,,,,,,,,99,PF,41.60461426,109.6934509,1,0,0,response1disk_5,7,2.2157,7.623962402,-6.006256104,1,0,0,rectangle_8,-28.46148682,-49.87313843,1,0,0,9.290527344,5.365814209,1,0,0,0,1,1,1,1,61031048f58595acbfdf85b9,61036a5c811088540506d91f,2021-07-29_22h58.45.872,Simcolourproject_2stim_asymm_v5,2020.2.10,Linux x86_64,60,61025ae37ef11b136ea224fe,response5disk_7,3,2.8478,3,"[2,5]",rectangle_4,,,,,,,,,,,,,,,,,,,,,,,,,,,,,,,,,,,,,,,,
,,,,,,,,,,,,109,FF,61.93505859,36.47177124,1,0,0,response1disk_5,6,6.1262,-11.11938477,-4.513671875,1,0,0,rectangle_8,-11.11938477,-4.513671875,1,0,0,-11.11938477,-4.513671875,1,0,0,0,2,2,3,1,61031048f58595acbfdf85b9,61036a5c811088540506d91f,2021-07-29_22h58.45.872,Simcolourproject_2stim_asymm_v5,2020.2.10,Linux x86_64,60,61025ae37ef11b136ea224fe,,,,,,,,,,,,,,,,,,,,,,,,,,,,,,,,,,,,,,,,,,,,,,
,,,,,,,,,,,,25,PF,88.80169678,-54.58807373,1,0,0,response3disk_5,5,2.8832,-4.290527344,3.419311523,1,0,0,rectangle_8,-4.290527344,3.419311523,1,0,0,-4.290527344,3.419311523,1,0,0,0,3,3,4,1,61031048f58595acbfdf85b9,61036a5c811088540506d91f,2021-07-29_22h58.45.872,Simcolourproject_2stim_asymm_v5,2020.2.10,Linux x86_64,60,61025ae37ef11b136ea224fe,,,,,,,,,,,,,,,,,,,,,,,,,,,,,,,,,,,,,,,,,,,,,,
,,,,,,,,,,,,15,FF,-53.12799072,-78.09854126,1,0,0,response5disk_5,3,1.5822,12.83862305,0.656494141,1,0,0,rectangle_8,-36.23937988,-83.80001831,1,0,0,11.8348999,11.90872192,1,0,0,0,4,4,5,1,61031048f58595acbfdf85b9,61036a5c811088540506d91f,2021-07-29_22h58.45.872,Simcolourproject_2stim_asymm_v5,2020.2.10,Linux x86_64,60,61025ae37ef11b136ea224fe,response5disk_7,3,2.0302,3,"[2,5]",rectangle_4,,,,,,,,,,,,,,,,,,,,,,,,,,,,,,,,,,,,,,,,
,,,,,,,,,,,,12,PF,44.80517578,-73.20431519,1,0,0,response3disk_5,4,1.7141,7.328552246,-3.586334229,1,0,0,rectangle_8,7.328552246,-3.586334229,1,0,0,7.328552246,-3.586334229,1,0,0,0,5,5,2,1,61031048f58595acbfdf85b9,61036a5c811088540506d91f,2021-07-29_22h58.45.872,Simcolourproject_2stim_asymm_v5,2020.2.10,Linux x86_64,60,61025ae37ef11b136ea224fe,,,,,,,,,,,,,,,,,,,,,,,,,,,,,,,,,,,,,,,,,,,,,,
,,,,,,,,,,,,159,PF,-27.30249023,54.04837036,1,0,0,response7disk_5,0,1.8485,8.738769531,2.6875,1,0,0,rectangle_8,8.738769531,2.6875,1,0,0,8.738769531,2.6875,1,0,0,0,6,6,6,1,61031048f58595acbfdf85b9,61036a5c811088540506d91f,2021-07-29_22h58.45.872,Simcolourproject_2stim_asymm_v5,2020.2.10,Linux x86_64,60,61025ae37ef11b136ea224fe,,,,,,,,,,,,,,,,,,,,,,,,,,,,,,,,,,,,,,,,,,,,,,
,,,,,,,,,,,,,FF,,,,,,,,4.0761,,,,,,,,,,,,,,,,,,,,,,61031048f58595acbfdf85b9,61036a5c811088540506d91f,2021-07-29_22h58.45.872,Simcolourproject_2stim_asymm_v5,2020.2.10,Linux x86_64,60,61025ae37ef11b136ea224fe,,,,,,,space,2.01,1935,82.83294678,43.39779663,1,0,0,response1disk,,6,-4.00604248,-3.373687744,1,0,0,rectangle,-4.00604248,-3.373687744,1,0,0,-4.00604248,-3.373687744,1,0,0,0,0,0,10,1,,,,,,,,
,,,,,,,,,,,,,FF,,,,,,,,2.0473,,,,,,,,,,,,,,,,,,,,,,61031048f58595acbfdf85b9,61036a5c811088540506d91f,2021-07-29_22h58.45.872,Simcolourproject_2stim_asymm_v5,2020.2.10,Linux x86_64,60,61025ae37ef11b136ea224fe,,,,,,,,,4030,49.24987793,73.01327515,1,0,0,response1disk,,7,12.2121582,-0.324279785,1,0,0,rectangle,12.2121582,-0.324279785,1,0,0,12.2121582,-0.324279785,1,0,0,0,1,1,122,1,,,,,,,,
,,,,,,,,,,,,,FF,,,,,,,,1.8814,,,,,,,,,,,,,,,,,,,,,,61031048f58595acbfdf85b9,61036a5c811088540506d91f,2021-07-29_22h58.45.872,Simcolourproject_2stim_asymm_v5,2020.2.10,Linux x86_64,60,61025ae37ef11b136ea224fe,,,,,,,,,548,-96.6506958,52.96090698,1,0,0,response7disk,,1,16.94451904,-0.173095703,1,0,0,rectangle,16.94451904,-0.173095703,1,0,0,16.94451904,-0.173095703,1,0,0,0,2,2,78,1,,,,,,,,
,,,,,,,,,,,,,FF,,,,,,,,1.6787,,,,,,,,,,,,,,,,,,,,,,61031048f58595acbfdf85b9,61036a5c811088540506d91f,2021-07-29_22h58.45.872,Simcolourproject_2stim_asymm_v5,2020.2.10,Linux x86_64,60,61025ae37ef11b136ea224fe,,,,,,,,,1582,67.87939453,14.53857422,1,0,0,response1disk,,6,17.96594238,-0.748809814,1,0,0,rectangle,17.96594238,-0.748809814,1,0,0,17.96594238,-0.748809814,1,0,0,0,3,3,138,1,,,,,,,,
,,,,,,,,,,,,,FF,,,,,,,,1.3477,,,,,,,,,,,,,,,,,,,,,,61031048f58595acbfdf85b9,61036a5c811088540506d91f,2021-07-29_22h58.45.872,Simcolourproject_2stim_asymm_v5,2020.2.10,Linux x86_64,60,61025ae37ef11b136ea224fe,,,,,,,,,3048,-75.95050049,-39.37722778,1,0,0,response5disk,,2,-7.351074219,-0.463928223,1,0,0,rectangle,-7.351074219,-0.463928223,1,0,0,-7.351074219,-0.463928223,1,0,0,0,4,4,80,1,,,,,,,,
,,,,,,,,,,,,,FF,,,,,,,,2.9134,,,,,,,,,,,,,,,,,,,,,,61031048f58595acbfdf85b9,61036a5c811088540506d91f,2021-07-29_22h58.45.872,Simcolourproject_2stim_asymm_v5,2020.2.10,Linux x86_64,60,61025ae37ef11b136ea224fe,,,,,,,,,3649,60.80358887,58.29211426,1,0,0,response1disk,,6,11.35949707,-2.320800781,1,0,0,rectangle,11.35949707,-2.320800781,1,0,0,11.35949707,-2.320800781,1,0,0,0,5,5,57,1,,,,,,,,
,,,,,,,,,,,,,FF,,,,,,,,2.2146,,,,,,,,,,,,,,,,,,,,,,61031048f58595acbfdf85b9,61036a5c811088540506d91f,2021-07-29_22h58.45.872,Simcolourproject_2stim_asymm_v5,2020.2.10,Linux x86_64,60,61025ae37ef11b136ea224fe,,,,,,,,,3404,78.08197021,-37.29364014,1,0,0,response3disk,,5,17.88842773,-7.031524658,1,0,0,rectangle,17.88842773,-7.031524658,1,0,0,17.88842773,-7.031524658,1,0,0,0,6,6,112,1,,,,,,,,
,,,,,,,,,,,,,FF,,,,,,,,1.7832,,,,,,,,,,,,,,,,,,,,,,61031048f58595acbfdf85b9,61036a5c811088540506d91f,2021-07-29_22h58.45.872,Simcolourproject_2stim_asymm_v5,2020.2.10,Linux x86_64,60,61025ae37ef11b136ea224fe,,,,,,,,,3137,46.64233398,91.0418396,1,0,0,response1disk,,7,-12.51629639,-8.447967529,1,0,0,rectangle,-12.51629639,-8.447967529,1,0,0,-12.51629639,-8.447967529,1,0,0,0,7,7,128,1,,,,,,,,
,,,,,,,,,,,,,FF,,,,,,,,2.0806,,,,,,,,,,,,,,,,,,,,,,61031048f58595acbfdf85b9,61036a5c811088540506d91f,2021-07-29_22h58.45.872,Simcolourproject_2stim_asymm_v5,2020.2.10,Linux x86_64,60,61025ae37ef11b136ea224fe,,,,,,,,,361,48.70220947,75.62557983,1,0,0,response1disk,,7,4.302856445,5.6121521,1,0,0,rectangle,4.302856445,5.6121521,1,0,0,4.302856445,5.6121521,1,0,0,0,8,8,127,1,,,,,,,,
,,,,,,,,,,,,,FF,,,,,,,,1.815,,,,,,,,,,,,,,,,,,,,,,61031048f58595acbfdf85b9,61036a5c811088540506d91f,2021-07-29_22h58.45.872,Simcolourproject_2stim_asymm_v5,2020.2.10,Linux x86_64,60,61025ae37ef11b136ea224fe,,,,,,,,,1771,51.06262207,38.98413086,1,0,0,response1disk,,6,0.815795898,-9.662475586,1,0,0,rectangle,0.815795898,-9.662475586,1,0,0,0.815795898,-9.662475586,1,0,0,0,9,9,55,1,,,,,,,,
,,,,,,,,,,,,,FF,,,,,,,,0.8155,,,,,,,,,,,,,,,,,,,,,,61031048f58595acbfdf85b9,61036a5c811088540506d91f,2021-07-29_22h58.45.872,Simcolourproject_2stim_asymm_v5,2020.2.10,Linux x86_64,60,61025ae37ef11b136ea224fe,,,,,,,,,140,31.16265869,46.6751709,1,0,0,response1disk,,7,-2.589599609,-2.615356445,1,0,0,rectangle,-2.589599609,-2.615356445,1,0,0,-2.589599609,-2.615356445,1,0,0,0,10,10,39,1,,,,,,,,
,,,,,,,,,,,,,FF,,,,,,,,1.3646,,,,,,,,,,,,,,,,,,,,,,61031048f58595acbfdf85b9,61036a5c811088540506d91f,2021-07-29_22h58.45.872,Simcolourproject_2stim_asymm_v5,2020.2.10,Linux x86_64,60,61025ae37ef11b136ea224fe,,,,,,,,,1832,56.34460449,24.00628662,1,0,0,response1disk,,6,23.71832275,6.095245361,1,0,0,rectangle,23.71832275,6.095245361,1,0,0,23.71832275,6.095245361,1,0,0,0,11,11,42,1,,,,,,,,
,,,,,,,,,,,,,FF,,,,,,,,1.0807,,,,,,,,,,,,,,,,,,,,,,61031048f58595acbfdf85b9,61036a5c811088540506d91f,2021-07-29_22h58.45.872,Simcolourproject_2stim_asymm_v5,2020.2.10,Linux x86_64,60,61025ae37ef11b136ea224fe,,,,,,,,,822,37.53015137,51.20632935,1,0,0,response1disk,,7,-2.092407227,-1.366424561,1,0,0,rectangle,-2.092407227,-1.366424561,1,0,0,-2.092407227,-1.366424561,1,0,0,0,12,12,97,1,,,,,,,,
,,,,,,,,,,,,,FF,,,,,,,,1.6823,,,,,,,,,,,,,,,,,,,,,,61031048f58595acbfdf85b9,61036a5c811088540506d91f,2021-07-29_22h58.45.872,Simcolourproject_2stim_asymm_v5,2020.2.10,Linux x86_64,60,61025ae37ef11b136ea224fe,,,,,,,,,3482,42.49902344,-15.7109375,1,0,0,response3disk,,5,10.97454834,-3.248779297,1,0,0,rectangle,10.97454834,-3.248779297,1,0,0,10.97454834,-3.248779297,1,0,0,0,13,13,71,1,,,,,,,,
,,,,,,,,,,,,,FF,,,,,,,,1.1151,,,,,,,,,,,,,,,,,,,,,,61031048f58595acbfdf85b9,61036a5c811088540506d91f,2021-07-29_22h58.45.872,Simcolourproject_2stim_asymm_v5,2020.2.10,Linux x86_64,60,61025ae37ef11b136ea224fe,,,,,,,,,1418,54.03918457,73.58554077,1,0,0,response1disk,,7,-0.468017578,0.04888916,1,0,0,rectangle,-0.468017578,0.04888916,1,0,0,-0.468017578,0.04888916,1,0,0,0,14,14,105,1,,,,,,,,
,,,,,,,,,,,,,FF,,,,,,,,1.6318,,,,,,,,,,,,,,,,,,,,,,61031048f58595acbfdf85b9,61036a5c811088540506d91f,2021-07-29_22h58.45.872,Simcolourproject_2stim_asymm_v5,2020.2.10,Linux x86_64,60,61025ae37ef11b136ea224fe,,,,,,,,,1744,-44.87213135,-73.81655884,1,0,0,response5disk,,3,7.461669922,-4.756866455,1,0,0,rectangle,7.461669922,-4.756866455,1,0,0,7.461669922,-4.756866455,1,0,0,0,15,15,21,1,,,,,,,,
,,,,,,,,,,,,,FF,,,,,,,,1.4315,,,,,,,,,,,,,,,,,,,,,,61031048f58595acbfdf85b9,61036a5c811088540506d91f,2021-07-29_22h58.45.872,Simcolourproject_2stim_asymm_v5,2020.2.10,Linux x86_64,60,61025ae37ef11b136ea224fe,,,,,,,,,1825,44.14996338,-28.15124512,1,0,0,response3disk,,5,-12.01409912,4.477478027,1,0,0,rectangle,-12.01409912,4.477478027,1,0,0,-12.01409912,4.477478027,1,0,0,0,16,16,40,1,,,,,,,,
,,,,,,,,,,,,,FF,,,,,,,,0.9799,,,,,,,,,,,,,,,,,,,,,,61031048f58595acbfdf85b9,61036a5c811088540506d91f,2021-07-29_22h58.45.872,Simcolourproject_2stim_asymm_v5,2020.2.10,Linux x86_64,60,61025ae37ef11b136ea224fe,,,,,,,,,687,26.69726563,53.59646606,1,0,0,response1disk,,7,4.74810791,-4.325622559,1,0,0,rectangle,4.74810791,-4.325622559,1,0,0,4.74810791,-4.325622559,1,0,0,0,17,17,106,1,,,,,,,,
,,,,,,,,,,,,,FF,,,,,,,,1.7971,,,,,,,,,,,,,,,,,,,,,,61031048f58595acbfdf85b9,61036a5c811088540506d91f,2021-07-29_22h58.45.872,Simcolourproject_2stim_asymm_v5,2020.2.10,Linux x86_64,60,61025ae37ef11b136ea224fe,,,,,,,,,2663,99.25073242,31.32849121,1,0,0,response1disk,,6,12.75024414,1.424224854,1,0,0,rectangle,12.75024414,1.424224854,1,0,0,12.75024414,1.424224854,1,0,0,0,18,18,25,1,,,,,,,,
,,,,,,,,,,,,,FF,,,,,,,,0.8318,,,,,,,,,,,,,,,,,,,,,,61031048f58595acbfdf85b9,61036a5c811088540506d91f,2021-07-29_22h58.45.872,Simcolourproject_2stim_asymm_v5,2020.2.10,Linux x86_64,60,61025ae37ef11b136ea224fe,,,,,,,,,2081,27.79370117,31.30331421,1,0,0,response1disk,,7,-2.757202148,-10.80126953,1,0,0,rectangle,-2.757202148,-10.80126953,1,0,0,-2.757202148,-10.80126953,1,0,0,0,19,19,14,1,,,,,,,,
,,,,,,,,,,,,,FF,,,,,,,,0.7979,,,,,,,,,,,,,,,,,,,,,,61031048f58595acbfdf85b9,61036a5c811088540506d91f,2021-07-29_22h58.45.872,Simcolourproject_2stim_asymm_v5,2020.2.10,Linux x86_64,60,61025ae37ef11b136ea224fe,,,,,,,,,1334,32.05664063,75.03994751,1,0,0,response1disk,,7,4.147705078,-2.490997314,1,0,0,rectangle,4.147705078,-2.490997314,1,0,0,4.147705078,-2.490997314,1,0,0,0,20,20,88,1,,,,,,,,
,,,,,,,,,,,,,FF,,,,,,,,0.749,,,,,,,,,,,,,,,,,,,,,,61031048f58595acbfdf85b9,61036a5c811088540506d91f,2021-07-29_22h58.45.872,Simcolourproject_2stim_asymm_v5,2020.2.10,Linux x86_64,60,61025ae37ef11b136ea224fe,,,,,,,,,4320,26.44226074,45.13891602,1,0,0,response1disk,,7,6.746643066,5.579559326,1,0,0,rectangle,6.746643066,5.579559326,1,0,0,6.746643066,5.579559326,1,0,0,0,21,21,48,1,,,,,,,,
,,,,,,,,,,,,,FF,,,,,,,,1.3484,,,,,,,,,,,,,,,,,,,,,,61031048f58595acbfdf85b9,61036a5c811088540506d91f,2021-07-29_22h58.45.872,Simcolourproject_2stim_asymm_v5,2020.2.10,Linux x86_64,60,61025ae37ef11b136ea224fe,,,,,,,,,4335,-19.21661377,61.46862793,1,0,0,response7disk,,0,-6.56439209,10.67388916,1,0,0,rectangle,-6.56439209,10.67388916,1,0,0,-6.56439209,10.67388916,1,0,0,0,22,22,63,1,,,,,,,,
,,,,,,,,,,,,,FF,,,,,,,,0.7652,,,,,,,,,,,,,,,,,,,,,,61031048f58595acbfdf85b9,61036a5c811088540506d91f,2021-07-29_22h58.45.872,Simcolourproject_2stim_asymm_v5,2020.2.10,Linux x86_64,60,61025ae37ef11b136ea224fe,,,,,,,,,788,33.15582275,57.86495972,1,0,0,response1disk,,7,1.427490234,13.08154297,1,0,0,rectangle,43.9487915,105.030426,1,0,0,12.41912842,1.356018066,1,0,0,0,23,23,68,1,,response1disk_3,TRUE,7,7,"[244,24,243,198,39,26,233,34,99,91,224,95,140,239,123,229,185,118,60,122]",2.7919,rectangle
,,,,,,,,,,,,,FF,,,,,,,,1.7978,,,,,,,,,,,,,,,,,,,,,,61031048f58595acbfdf85b9,61036a5c811088540506d91f,2021-07-29_22h58.45.872,Simcolourproject_2stim_asymm_v5,2020.2.10,Linux x86_64,60,61025ae37ef11b136ea224fe,,,,,,,,,1524,50.78015137,62.02716064,1,0,0,response1disk,,7,7.949462891,-0.918060303,1,0,0,rectangle,7.949462891,-0.918060303,1,0,0,7.949462891,-0.918060303,1,0,0,0,24,24,126,1,,,,,,,,
,,,,,,,,,,,,,FF,,,,,,,,3.6307,,,,,,,,,,,,,,,,,,,,,,61031048f58595acbfdf85b9,61036a5c811088540506d91f,2021-07-29_22h58.45.872,Simcolourproject_2stim_asymm_v5,2020.2.10,Linux x86_64,60,61025ae37ef11b136ea224fe,,,,,,,,,2838,49.0682373,-25.78790283,1,0,0,response3disk,,5,15.06549072,6.579711914,1,0,0,rectangle,45.44421387,57.03900146,1,0,0,7.367431641,-2.45892334,1,0,0,0,25,25,16,1,,response1disk_3,TRUE,7,7,"[244,24,243,198,39,26,233,34,99,91,224,95,140,239,123,229,185,118,60,122]",1.8482,rectangle
,,,,,,,,,,,,,FF,,,,,,,,1.155,,,,,,,,,,,,,,,,,,,,,,61031048f58595acbfdf85b9,61036a5c811088540506d91f,2021-07-29_22h58.45.872,Simcolourproject_2stim_asymm_v5,2020.2.10,Linux x86_64,60,61025ae37ef11b136ea224fe,,,,,,,,,2370,68.22967529,21.56988525,1,0,0,response1disk,,6,22.61737061,2.40914917,1,0,0,rectangle,22.61737061,2.40914917,1,0,0,22.61737061,2.40914917,1,0,0,0,26,26,89,1,,,,,,,,
,,,,,,,,,,,,,FF,,,,,,,,1.7659,,,,,,,,,,,,,,,,,,,,,,61031048f58595acbfdf85b9,61036a5c811088540506d91f,2021-07-29_22h58.45.872,Simcolourproject_2stim_asymm_v5,2020.2.10,Linux x86_64,60,61025ae37ef11b136ea224fe,,,,,,,,,4122,45.34735107,28.63684082,1,0,0,response1disk,,6,-2.319458008,4.040283203,1,0,0,rectangle,-2.319458008,4.040283203,1,0,0,-2.319458008,4.040283203,1,0,0,0,27,27,75,1,,,,,,,,
,,,,,,,,,,,,,FF,,,,,,,,0.7316,,,,,,,,,,,,,,,,,,,,,,61031048f58595acbfdf85b9,61036a5c811088540506d91f,2021-07-29_22h58.45.872,Simcolourproject_2stim_asymm_v5,2020.2.10,Linux x86_64,60,61025ae37ef11b136ea224fe,,,,,,,,,567,28.67834473,42.67654419,1,0,0,response1disk,,7,6.037231445,-0.637359619,1,0,0,rectangle,6.037231445,-0.637359619,1,0,0,6.037231445,-0.637359619,1,0,0,0,28,28,157,1,,,,,,,,
,,,,,,,,,,,,,FF,,,,,,,,1.0325,,,,,,,,,,,,,,,,,,,,,,61031048f58595acbfdf85b9,61036a5c811088540506d91f,2021-07-29_22h58.45.872,Simcolourproject_2stim_asymm_v5,2020.2.10,Linux x86_64,60,61025ae37ef11b136ea224fe,,,,,,,,,2421,64.80792236,22.70675659,1,0,0,response1disk,,6,1.053161621,1.510803223,1,0,0,rectangle,1.053161621,1.510803223,1,0,0,1.053161621,1.510803223,1,0,0,0,29,29,51,1,,,,,,,,
,,,,,,,,,,,,,FF,,,,,,,,1.3313,,,,,,,,,,,,,,,,,,,,,,61031048f58595acbfdf85b9,61036a5c811088540506d91f,2021-07-29_22h58.45.872,Simcolourproject_2stim_asymm_v5,2020.2.10,Linux x86_64,60,61025ae37ef11b136ea224fe,,,,,,,,,1052,59.12921143,-33.92733765,1,0,0,response3disk,,5,21.24475098,-4.290893555,1,0,0,rectangle,21.24475098,-4.290893555,1,0,0,21.24475098,-4.290893555,1,0,0,0,30,30,111,1,,,,,,,,
,,,,,,,,,,,,,FF,,,,,,,,0.7493,,,,,,,,,,,,,,,,,,,,,,61031048f58595acbfdf85b9,61036a5c811088540506d91f,2021-07-29_22h58.45.872,Simcolourproject_2stim_asymm_v5,2020.2.10,Linux x86_64,60,61025ae37ef11b136ea224fe,,,,,,,,,392,24.12261963,64.61831665,1,0,0,response1disk,,7,-2.27722168,5.763885498,1,0,0,rectangle,-2.27722168,5.763885498,1,0,0,-2.27722168,5.763885498,1,0,0,0,31,31,27,1,,,,,,,,
,,,,,,,,,,,,,FF,,,,,,,,1.7459,,,,,,,,,,,,,,,,,,,,,,61031048f58595acbfdf85b9,61036a5c811088540506d91f,2021-07-29_22h58.45.872,Simcolourproject_2stim_asymm_v5,2020.2.10,Linux x86_64,60,61025ae37ef11b136ea224fe,,,,,,,,,721,56.0982666,33.95666504,1,0,0,response1disk,,6,3.833557129,9.102478027,1,0,0,rectangle,3.833557129,9.102478027,1,0,0,3.833557129,9.102478027,1,0,0,0,32,32,77,1,,,,,,,,
,,,,,,,,,,,,,FF,,,,,,,,0.7658,,,,,,,,,,,,,,,,,,,,,,61031048f58595acbfdf85b9,61036a5c811088540506d91f,2021-07-29_22h58.45.872,Simcolourproject_2stim_asymm_v5,2020.2.10,Linux x86_64,60,61025ae37ef11b136ea224fe,,,,,,,,,1287,43.60510254,63.11471558,1,0,0,response1disk,,7,15.37109375,11.20327759,1,0,0,rectangle,-54.2689209,107.2994385,1,0,0,-18.75463867,4.21282959,1,0,0,0,33,33,31,1,,response7disk_3,TRUE,0,0,"[244,24,243,198,39,26,233,34,99,91,224,95,140,239,123,229,185,118,60,122]",1.8975,rectangle
,,,,,,,,,,,,,FF,,,,,,,,0.8337,,,,,,,,,,,,,,,,,,,,,,61031048f58595acbfdf85b9,61036a5c811088540506d91f,2021-07-29_22h58.45.872,Simcolourproject_2stim_asymm_v5,2020.2.10,Linux x86_64,60,61025ae37ef11b136ea224fe,,,,,,,,,2591,55.14172363,94.65466309,1,0,0,response1disk,,7,1.553161621,7.433410645,1,0,0,rectangle,1.553161621,7.433410645,1,0,0,1.553161621,7.433410645,1,0,0,0,34,34,133,1,,,,,,,,
,,,,,,,,,,,,,FF,,,,,,,,0.6821,,,,,,,,,,,,,,,,,,,,,,61031048f58595acbfdf85b9,61036a5c811088540506d91f,2021-07-29_22h58.45.872,Simcolourproject_2stim_asymm_v5,2020.2.10,Linux x86_64,60,61025ae37ef11b136ea224fe,,,,,,,,,3164,19.26000977,51.7348938,1,0,0,response1disk,,7,14.20019531,7.106414795,1,0,0,rectangle,14.20019531,7.106414795,1,0,0,14.20019531,7.106414795,1,0,0,0,35,35,56,1,,,,,,,,
,,,,,,,,,,,,,FF,,,,,,,,1.2844,,,,,,,,,,,,,,,,,,,,,,61031048f58595acbfdf85b9,61036a5c811088540506d91f,2021-07-29_22h58.45.872,Simcolourproject_2stim_asymm_v5,2020.2.10,Linux x86_64,60,61025ae37ef11b136ea224fe,,,,,,,,,1426,26.36956787,48.74945068,1,0,0,response1disk,,7,9.804443359,6.039611816,1,0,0,rectangle,9.804443359,6.039611816,1,0,0,9.804443359,6.039611816,1,0,0,0,36,36,8,1,,,,,,,,
,,,,,,,,,,,,,FF,,,,,,,,0.6823,,,,,,,,,,,,,,,,,,,,,,61031048f58595acbfdf85b9,61036a5c811088540506d91f,2021-07-29_22h58.45.872,Simcolourproject_2stim_asymm_v5,2020.2.10,Linux x86_64,60,61025ae37ef11b136ea224fe,,,,,,,,,2529,33.6973877,53.80108643,1,0,0,response1disk,,7,-10.34155273,-8.644104004,1,0,0,rectangle,-10.34155273,-8.644104004,1,0,0,-10.34155273,-8.644104004,1,0,0,0,37,37,49,1,,,,,,,,
,,,,,,,,,,,,,FF,,,,,,,,1.415,,,,,,,,,,,,,,,,,,,,,,61031048f58595acbfdf85b9,61036a5c811088540506d91f,2021-07-29_22h58.45.872,Simcolourproject_2stim_asymm_v5,2020.2.10,Linux x86_64,60,61025ae37ef11b136ea224fe,,,,,,,,,3424,31.06719971,70.11087036,1,0,0,response1disk,,7,-9.380981445,7.731567383,1,0,0,rectangle,-18.54229736,93.77481079,1,0,0,-26.85736084,1.934295654,1,0,0,0,38,38,81,1,,response7disk_3,TRUE,0,0,"[244,24,243,198,39,26,233,34,99,91,224,95,140,239,123,229,185,118,60,122]",1.6162,rectangle
,,,,,,,,,,,,,FF,,,,,,,,1.2995,,,,,,,,,,,,,,,,,,,,,,61031048f58595acbfdf85b9,61036a5c811088540506d91f,2021-07-29_22h58.45.872,Simcolourproject_2stim_asymm_v5,2020.2.10,Linux x86_64,60,61025ae37ef11b136ea224fe,,,,,,,,,3972,79.00994873,-31.56115723,1,0,0,response3disk,,5,-0.276977539,0.036499023,1,0,0,rectangle,-0.276977539,0.036499023,1,0,0,-0.276977539,0.036499023,1,0,0,0,39,39,148,1,,,,,,,,
,,,,,,,,,,,,,FF,,,,,,,,0.6995,,,,,,,,,,,,,,,,,,,,,,61031048f58595acbfdf85b9,61036a5c811088540506d91f,2021-07-29_22h58.45.872,Simcolourproject_2stim_asymm_v5,2020.2.10,Linux x86_64,60,61025ae37ef11b136ea224fe,,,,,,,,,3065,31.11187744,66.81680298,1,0,0,response1disk,,7,-3.63482666,1.103668213,1,0,0,rectangle,-3.63482666,1.103668213,1,0,0,-3.63482666,1.103668213,1,0,0,0,40,40,110,1,,,,,,,,
,,,,,,,,,,,,,FF,,,,,,,,0.6166,,,,,,,,,,,,,,,,,,,,,,61031048f58595acbfdf85b9,61036a5c811088540506d91f,2021-07-29_22h58.45.872,Simcolourproject_2stim_asymm_v5,2020.2.10,Linux x86_64,60,61025ae37ef11b136ea224fe,,,,,,,,,1026,41.918396,57.927948,1,0,0,response1disk,,7,-1.919494629,-2.888244629,1,0,0,rectangle,-1.919494629,-2.888244629,1,0,0,-1.919494629,-2.888244629,1,0,0,0,41,41,43,1,,,,,,,,
,,,,,,,,,,,,,FF,,,,,,,,0.6309,,,,,,,,,,,,,,,,,,,,,,61031048f58595acbfdf85b9,61036a5c811088540506d91f,2021-07-29_22h58.45.872,Simcolourproject_2stim_asymm_v5,2020.2.10,Linux x86_64,60,61025ae37ef11b136ea224fe,,,,,,,,,344,36.5723877,76.75714111,1,0,0,response1disk,,7,-3.629211426,11.67590332,1,0,0,rectangle,-3.629211426,11.67590332,1,0,0,-3.629211426,11.67590332,1,0,0,0,42,42,35,1,,,,,,,,
,,,,,,,,,,,,,FF,,,,,,,,1.0311,,,,,,,,,,,,,,,,,,,,,,61031048f58595acbfdf85b9,61036a5c811088540506d91f,2021-07-29_22h58.45.872,Simcolourproject_2stim_asymm_v5,2020.2.10,Linux x86_64,60,61025ae37ef11b136ea224fe,,,,,,,,,3076,39.48876953,54.6817627,1,0,0,response1disk,,7,6.218933105,2.535339355,1,0,0,rectangle,6.218933105,2.535339355,1,0,0,6.218933105,2.535339355,1,0,0,0,43,43,58,1,,,,,,,,
,,,,,,,,,,,,,FF,,,,,,,,2.3135,,,,,,,,,,,,,,,,,,,,,,61031048f58595acbfdf85b9,61036a5c811088540506d91f,2021-07-29_22h58.45.872,Simcolourproject_2stim_asymm_v5,2020.2.10,Linux x86_64,60,61025ae37ef11b136ea224fe,,,,,,,,,2418,-25.09790039,52.82440186,1,0,0,response7disk,,0,-9.44921875,2.241516113,1,0,0,rectangle,-9.44921875,2.241516113,1,0,0,-9.44921875,2.241516113,1,0,0,0,44,44,144,1,,,,,,,,
,,,,,,,,,,,,,FF,,,,,,,,1.0989,,,,,,,,,,,,,,,,,,,,,,61031048f58595acbfdf85b9,61036a5c811088540506d91f,2021-07-29_22h58.45.872,Simcolourproject_2stim_asymm_v5,2020.2.10,Linux x86_64,60,61025ae37ef11b136ea224fe,,,,,,,,,4063,34.23754883,57.12393188,1,0,0,response1disk,,7,15.93334961,3.853515625,1,0,0,rectangle,15.93334961,3.853515625,1,0,0,15.93334961,3.853515625,1,0,0,0,45,45,61,1,,,,,,,,
,,,,,,,,,,,,,FF,,,,,,,,3.7164,,,,,,,,,,,,,,,,,,,,,,61031048f58595acbfdf85b9,61036a5c811088540506d91f,2021-07-29_22h58.45.872,Simcolourproject_2stim_asymm_v5,2020.2.10,Linux x86_64,60,61025ae37ef11b136ea224fe,,,,,,,,,2779,29.41009521,63.09298706,1,0,0,response1disk,,7,17.34625244,-4.010925293,1,0,0,rectangle,17.34625244,-4.010925293,1,0,0,17.34625244,-4.010925293,1,0,0,0,46,46,36,1,,,,,,,,
,,,,,,,,,,,,,FF,,,,,,,,0.9158,,,,,,,,,,,,,,,,,,,,,,61031048f58595acbfdf85b9,61036a5c811088540506d91f,2021-07-29_22h58.45.872,Simcolourproject_2stim_asymm_v5,2020.2.10,Linux x86_64,60,61025ae37ef11b136ea224fe,,,,,,,,,3351,19.56317139,24.45974731,1,0,0,response1disk,,7,8.398681641,-3.996948242,1,0,0,rectangle,8.398681641,-3.996948242,1,0,0,8.398681641,-3.996948242,1,0,0,0,47,47,152,1,,,,,,,,
,,,,,,,,,,,,,FF,,,,,,,,0.7817,,,,,,,,,,,,,,,,,,,,,,61031048f58595acbfdf85b9,61036a5c811088540506d91f,2021-07-29_22h58.45.872,Simcolourproject_2stim_asymm_v5,2020.2.10,Linux x86_64,60,61025ae37ef11b136ea224fe,,,,,,,,,3449,59.00897217,71.73309326,1,0,0,response1disk,,7,4.627929688,0.089202881,1,0,0,rectangle,4.627929688,0.089202881,1,0,0,4.627929688,0.089202881,1,0,0,0,48,48,18,1,,,,,,,,
,,,,,,,,,,,,,FF,,,,,,,,0.5823,,,,,,,,,,,,,,,,,,,,,,61031048f58595acbfdf85b9,61036a5c811088540506d91f,2021-07-29_22h58.45.872,Simcolourproject_2stim_asymm_v5,2020.2.10,Linux x86_64,60,61025ae37ef11b136ea224fe,,,,,,,,,2503,33.75701904,60.05233765,1,0,0,response1disk,,7,-7.478210449,-0.421264648,1,0,0,rectangle,-7.478210449,-0.421264648,1,0,0,-7.478210449,-0.421264648,1,0,0,0,49,49,87,1,,,,,,,,
,,,,,,,,,,,,,FF,,,,,,,,0.6102,,,,,,,,,,,,,,,,,,,,,,61031048f58595acbfdf85b9,61036a5c811088540506d91f,2021-07-29_22h58.45.872,Simcolourproject_2stim_asymm_v5,2020.2.10,Linux x86_64,60,61025ae37ef11b136ea224fe,,,,,,,,,3651,47.42565918,60.15545654,1,0,0,response1disk,,7,14.37957764,2.960205078,1,0,0,rectangle,14.37957764,2.960205078,1,0,0,14.37957764,2.960205078,1,0,0,0,50,50,113,1,,,,,,,,
,,,,,,,,,,,,,FF,,,,,,,,0.7818,,,,,,,,,,,,,,,,,,,,,,61031048f58595acbfdf85b9,61036a5c811088540506d91f,2021-07-29_22h58.45.872,Simcolourproject_2stim_asymm_v5,2020.2.10,Linux x86_64,60,61025ae37ef11b136ea224fe,,,,,,,,,3826,40.5692749,75.4609375,1,0,0,response1disk,,7,4.991516113,0.199249268,1,0,0,rectangle,4.991516113,0.199249268,1,0,0,4.991516113,0.199249268,1,0,0,0,51,51,140,1,,,,,,,,
,,,,,,,,,,,,,FF,,,,,,,,0.7494,,,,,,,,,,,,,,,,,,,,,,61031048f58595acbfdf85b9,61036a5c811088540506d91f,2021-07-29_22h58.45.872,Simcolourproject_2stim_asymm_v5,2020.2.10,Linux x86_64,60,61025ae37ef11b136ea224fe,,,,,,,,,4213,52.21252441,74.46447754,1,0,0,response1disk,,7,10.55773926,8.366455078,1,0,0,rectangle,10.55773926,8.366455078,1,0,0,10.55773926,8.366455078,1,0,0,0,52,52,90,1,,,,,,,,
,,,,,,,,,,,,,FF,,,,,,,,0.7488,,,,,,,,,,,,,,,,,,,,,,61031048f58595acbfdf85b9,61036a5c811088540506d91f,2021-07-29_22h58.45.872,Simcolourproject_2stim_asymm_v5,2020.2.10,Linux x86_64,60,61025ae37ef11b136ea224fe,,,,,,,,,3738,19.52441406,46.68881226,1,0,0,response1disk,,7,10.24890137,9.054290771,1,0,0,rectangle,10.24890137,9.054290771,1,0,0,10.24890137,9.054290771,1,0,0,0,53,53,76,1,,,,,,,,
,,,,,,,,,,,,,FF,,,,,,,,0.7634,,,,,,,,,,,,,,,,,,,,,,61031048f58595acbfdf85b9,61036a5c811088540506d91f,2021-07-29_22h58.45.872,Simcolourproject_2stim_asymm_v5,2020.2.10,Linux x86_64,60,61025ae37ef11b136ea224fe,,,,,,,,,2788,27.55407715,41.50976563,1,0,0,response1disk,,7,12.04406738,1.904663086,1,0,0,rectangle,12.04406738,1.904663086,1,0,0,12.04406738,1.904663086,1,0,0,0,54,54,154,1,,,,,,,,
,,,,,,,,,,,,,FF,,,,,,,,0.7323,,,,,,,,,,,,,,,,,,,,,,61031048f58595acbfdf85b9,61036a5c811088540506d91f,2021-07-29_22h58.45.872,Simcolourproject_2stim_asymm_v5,2020.2.10,Linux x86_64,60,61025ae37ef11b136ea224fe,,,,,,,,,4137,25.21276855,38.06069946,1,0,0,response1disk,,7,5.599060059,2.314147949,1,0,0,rectangle,5.599060059,2.314147949,1,0,0,5.599060059,2.314147949,1,0,0,0,55,55,150,1,,,,,,,,
,,,,,,,,,,,,,FF,,,,,,,,1.5666,,,,,,,,,,,,,,,,,,,,,,61031048f58595acbfdf85b9,61036a5c811088540506d91f,2021-07-29_22h58.45.872,Simcolourproject_2stim_asymm_v5,2020.2.10,Linux x86_64,60,61025ae37ef11b136ea224fe,,,,,,,,,3097,-31.89630127,-75.46746826,1,0,0,response5disk,,3,11.48364258,2.858459473,1,0,0,rectangle,11.48364258,2.858459473,1,0,0,11.48364258,2.858459473,1,0,0,0,56,56,66,1,,,,,,,,
,,,,,,,,,,,,,FF,,,,,,,,1.0809,,,,,,,,,,,,,,,,,,,,,,61031048f58595acbfdf85b9,61036a5c811088540506d91f,2021-07-29_22h58.45.872,Simcolourproject_2stim_asymm_v5,2020.2.10,Linux x86_64,60,61025ae37ef11b136ea224fe,,,,,,,,,2859,29.72058105,39.7119751,1,0,0,response1disk,,7,2.240722656,1.571594238,1,0,0,rectangle,2.240722656,1.571594238,1,0,0,2.240722656,1.571594238,1,0,0,0,57,57,135,1,,,,,,,,
,,,,,,,,,,,,,FF,,,,,,,,2.2469,,,,,,,,,,,,,,,,,,,,,,61031048f58595acbfdf85b9,61036a5c811088540506d91f,2021-07-29_22h58.45.872,Simcolourproject_2stim_asymm_v5,2020.2.10,Linux x86_64,60,61025ae37ef11b136ea224fe,,,,,,,,,2530,27.29608154,51.07629395,1,0,0,response1disk,,7,15.43817139,11.4909668,1,0,0,rectangle,15.43817139,11.4909668,1,0,0,15.43817139,11.4909668,1,0,0,0,58,58,50,1,,,,,,,,
,,,,,,,,,,,,,FF,,,,,,,,0.8491,,,,,,,,,,,,,,,,,,,,,,61031048f58595acbfdf85b9,61036a5c811088540506d91f,2021-07-29_22h58.45.872,Simcolourproject_2stim_asymm_v5,2020.2.10,Linux x86_64,60,61025ae37ef11b136ea224fe,,,,,,,,,1491,29.95031738,50.2371521,1,0,0,response1disk,,7,8.962585449,-6.52444458,1,0,0,rectangle,16.51031494,-77.91287231,1,0,0,3.016540527,1.957183838,1,0,0,0,59,59,123,1,,response3disk_3,TRUE,4,4,"[244,24,243,198,39,26,233,34,99,91,224,95,140,239,123,229,185,118,60,122]",2.3105,rectangle
,,,,,,,,,,,,,FF,,,,,,,,4.028,,,,,,,,,,,,,,,,,,,,,,61031048f58595acbfdf85b9,61036a5c811088540506d91f,2021-07-29_22h58.45.872,Simcolourproject_2stim_asymm_v5,2020.2.10,Linux x86_64,60,61025ae37ef11b136ea224fe,,,,,,,,,1778,33.83184814,52.22698975,1,0,0,response1disk,,7,0.522827148,6.107574463,1,0,0,rectangle,0.522827148,6.107574463,1,0,0,0.522827148,6.107574463,1,0,0,0,60,60,141,1,,,,,,,,
,,,,,,,,,,,,,FF,,,,,,,,2.5138,,,,,,,,,,,,,,,,,,,,,,61031048f58595acbfdf85b9,61036a5c811088540506d91f,2021-07-29_22h58.45.872,Simcolourproject_2stim_asymm_v5,2020.2.10,Linux x86_64,60,61025ae37ef11b136ea224fe,,,,,,,,,2061,35.52716064,50.29058838,1,0,0,response1disk,,7,6.86529541,-0.221893311,1,0,0,rectangle,6.86529541,-0.221893311,1,0,0,6.86529541,-0.221893311,1,0,0,0,61,61,28,1,,,,,,,,
,,,,,,,,,,,,,FF,,,,,,,,0.8914,,,,,,,,,,,,,,,,,,,,,,61031048f58595acbfdf85b9,61036a5c811088540506d91f,2021-07-29_22h58.45.872,Simcolourproject_2stim_asymm_v5,2020.2.10,Linux x86_64,60,61025ae37ef11b136ea224fe,,,,,,,,,4318,38.27410889,58.14151001,1,0,0,response1disk,,7,22.17694092,7.174682617,1,0,0,rectangle,22.17694092,7.174682617,1,0,0,22.17694092,7.174682617,1,0,0,0,62,62,137,1,,,,,,,,
,,,,,,,,,,,,,FF,,,,,,,,1.3678,,,,,,,,,,,,,,,,,,,,,,61031048f58595acbfdf85b9,61036a5c811088540506d91f,2021-07-29_22h58.45.872,Simcolourproject_2stim_asymm_v5,2020.2.10,Linux x86_64,60,61025ae37ef11b136ea224fe,,,,,,,,,614,60.42871094,-19.7590332,1,0,0,response3disk,,5,-10.30059814,8.368560791,1,0,0,rectangle,-10.30059814,8.368560791,1,0,0,-10.30059814,8.368560791,1,0,0,0,63,63,1,1,,,,,,,,
,,,,,,,,,,,,,FF,,,,,,,,1.6801,,,,,,,,,,,,,,,,,,,,,,61031048f58595acbfdf85b9,61036a5c811088540506d91f,2021-07-29_22h58.45.872,Simcolourproject_2stim_asymm_v5,2020.2.10,Linux x86_64,60,61025ae37ef11b136ea224fe,,,,,,,,,2782,-102.6171875,-24.58932495,1,0,0,response5disk,,2,-0.724243164,-6.628845215,1,0,0,rectangle,-0.724243164,-6.628845215,1,0,0,-0.724243164,-6.628845215,1,0,0,0,64,64,12,1,,,,,,,,
,,,,,,,,,,,,,FF,,,,,,,,0.9835,,,,,,,,,,,,,,,,,,,,,,61031048f58595acbfdf85b9,61036a5c811088540506d91f,2021-07-29_22h58.45.872,Simcolourproject_2stim_asymm_v5,2020.2.10,Linux x86_64,60,61025ae37ef11b136ea224fe,,,,,,,,,3417,35.15447998,46.86074829,1,0,0,response1disk,,7,6.656311035,-3.68838501,1,0,0,rectangle,6.656311035,-3.68838501,1,0,0,6.656311035,-3.68838501,1,0,0,0,65,65,102,1,,,,,,,,
,,,,,,,,,,,,,FF,,,,,,,,1.1817,,,,,,,,,,,,,,,,,,,,,,61031048f58595acbfdf85b9,61036a5c811088540506d91f,2021-07-29_22h58.45.872,Simcolourproject_2stim_asymm_v5,2020.2.10,Linux x86_64,60,61025ae37ef11b136ea224fe,,,,,,,,,3050,29.33422852,-53.67153931,1,0,0,response3disk,,4,-3.731811523,2.909484863,1,0,0,rectangle,-3.731811523,2.909484863,1,0,0,-3.731811523,2.909484863,1,0,0,0,66,66,74,1,,,,,,,,
,,,,,,,,,,,,,FF,,,,,,,,1.4809,,,,,,,,,,,,,,,,,,,,,,61031048f58595acbfdf85b9,61036a5c811088540506d91f,2021-07-29_22h58.45.872,Simcolourproject_2stim_asymm_v5,2020.2.10,Linux x86_64,60,61025ae37ef11b136ea224fe,,,,,,,,,3509,34.9140625,49.45669556,1,0,0,response1disk,,7,-7.453857422,-7.504882813,1,0,0,rectangle,-7.453857422,-7.504882813,1,0,0,-7.453857422,-7.504882813,1,0,0,0,67,67,11,1,,,,,,,,
,,,,,,,,,,,,,FF,,,,,,,,1.3329,,,,,,,,,,,,,,,,,,,,,,61031048f58595acbfdf85b9,61036a5c811088540506d91f,2021-07-29_22h58.45.872,Simcolourproject_2stim_asymm_v5,2020.2.10,Linux x86_64,60,61025ae37ef11b136ea224fe,,,,,,,,,618,63.33453369,26.45977783,1,0,0,response1disk,,6,-11.98950195,-4.991394043,1,0,0,rectangle,-11.98950195,-4.991394043,1,0,0,-11.98950195,-4.991394043,1,0,0,0,68,68,52,1,,,,,,,,
,,,,,,,,,,,,,FF,,,,,,,,0.9822,,,,,,,,,,,,,,,,,,,,,,61031048f58595acbfdf85b9,61036a5c811088540506d91f,2021-07-29_22h58.45.872,Simcolourproject_2stim_asymm_v5,2020.2.10,Linux x86_64,60,61025ae37ef11b136ea224fe,,,,,,,,,3640,25.16900635,41.98098755,1,0,0,response1disk,,7,4.358032227,-4.507720947,1,0,0,rectangle,4.358032227,-4.507720947,1,0,0,4.358032227,-4.507720947,1,0,0,0,69,69,24,1,,,,,,,,
,,,,,,,,,,,,,FF,,,,,,,,2.4647,,,,,,,,,,,,,,,,,,,,,,61031048f58595acbfdf85b9,61036a5c811088540506d91f,2021-07-29_22h58.45.872,Simcolourproject_2stim_asymm_v5,2020.2.10,Linux x86_64,60,61025ae37ef11b136ea224fe,,,,,,,,,3089,32.09838867,104.2962341,1,0,0,response1disk,,7,2.165466309,9.275482178,1,0,0,rectangle,2.165466309,9.275482178,1,0,0,2.165466309,9.275482178,1,0,0,0,70,70,20,1,,,,,,,,
,,,,,,,,,,,,,FF,,,,,,,,0.6653,,,,,,,,,,,,,,,,,,,,,,61031048f58595acbfdf85b9,61036a5c811088540506d91f,2021-07-29_22h58.45.872,Simcolourproject_2stim_asymm_v5,2020.2.10,Linux x86_64,60,61025ae37ef11b136ea224fe,,,,,,,,,2136,31.20013428,42.68539429,1,0,0,response1disk,,7,14.24780273,6.382843018,1,0,0,rectangle,14.24780273,6.382843018,1,0,0,14.24780273,6.382843018,1,0,0,0,71,71,67,1,,,,,,,,
,,,,,,,,,,,,,FF,,,,,,,,0.8503,,,,,,,,,,,,,,,,,,,,,,61031048f58595acbfdf85b9,61036a5c811088540506d91f,2021-07-29_22h58.45.872,Simcolourproject_2stim_asymm_v5,2020.2.10,Linux x86_64,60,61025ae37ef11b136ea224fe,,,,,,,,,3200,37.37969971,52.67669678,1,0,0,response1disk,,7,7.858337402,0.45690918,1,0,0,rectangle,7.858337402,0.45690918,1,0,0,7.858337402,0.45690918,1,0,0,0,72,72,121,1,,,,,,,,
,,,,,,,,,,,,,FF,,,,,,,,0.9156,,,,,,,,,,,,,,,,,,,,,,61031048f58595acbfdf85b9,61036a5c811088540506d91f,2021-07-29_22h58.45.872,Simcolourproject_2stim_asymm_v5,2020.2.10,Linux x86_64,60,61025ae37ef11b136ea224fe,,,,,,,,,1845,26.08612061,34.22137451,1,0,0,response1disk,,7,15.60003662,4.02432251,1,0,0,rectangle,15.60003662,4.02432251,1,0,0,15.60003662,4.02432251,1,0,0,0,73,73,30,1,,,,,,,,
,,,,,,,,,,,,,FF,,,,,,,,0.7986,,,,,,,,,,,,,,,,,,,,,,61031048f58595acbfdf85b9,61036a5c811088540506d91f,2021-07-29_22h58.45.872,Simcolourproject_2stim_asymm_v5,2020.2.10,Linux x86_64,60,61025ae37ef11b136ea224fe,,,,,,,,,1008,19.78460693,33.53363037,1,0,0,response1disk,,7,2.96282959,1.368713379,1,0,0,rectangle,2.96282959,1.368713379,1,0,0,2.96282959,1.368713379,1,0,0,0,74,74,0,1,,,,,,,,
,,,,,,,,,,,,,FF,,,,,,,,1.348,,,,,,,,,,,,,,,,,,,,,,61031048f58595acbfdf85b9,61036a5c811088540506d91f,2021-07-29_22h58.45.872,Simcolourproject_2stim_asymm_v5,2020.2.10,Linux x86_64,60,61025ae37ef11b136ea224fe,,,,,,,,,3995,56.15612793,22.99346924,1,0,0,response1disk,,6,4.983642578,-2.298309326,1,0,0,rectangle,4.983642578,-2.298309326,1,0,0,4.983642578,-2.298309326,1,0,0,0,75,75,62,1,,,,,,,,
,,,,,,,,,,,,,FF,,,,,,,,1.1139,,,,,,,,,,,,,,,,,,,,,,61031048f58595acbfdf85b9,61036a5c811088540506d91f,2021-07-29_22h58.45.872,Simcolourproject_2stim_asymm_v5,2020.2.10,Linux x86_64,60,61025ae37ef11b136ea224fe,,,,,,,,,1908,47.73309326,37.64285278,1,0,0,response1disk,,6,23.69342041,7.499237061,1,0,0,rectangle,23.69342041,7.499237061,1,0,0,23.69342041,7.499237061,1,0,0,0,76,76,96,1,,,,,,,,
,,,,,,,,,,,,,FF,,,,,,,,0.8665,,,,,,,,,,,,,,,,,,,,,,61031048f58595acbfdf85b9,61036a5c811088540506d91f,2021-07-29_22h58.45.872,Simcolourproject_2stim_asymm_v5,2020.2.10,Linux x86_64,60,61025ae37ef11b136ea224fe,,,,,,,,,3958,22.96923828,36.71887207,1,0,0,response1disk,,7,10.69885254,6.313323975,1,0,0,rectangle,10.69885254,6.313323975,1,0,0,10.69885254,6.313323975,1,0,0,0,77,77,119,1,,,,,,,,
,,,,,,,,,,,,,FF,,,,,,,,1.0318,,,,,,,,,,,,,,,,,,,,,,61031048f58595acbfdf85b9,61036a5c811088540506d91f,2021-07-29_22h58.45.872,Simcolourproject_2stim_asymm_v5,2020.2.10,Linux x86_64,60,61025ae37ef11b136ea224fe,,,,,,,,,3783,67.96282959,31.76101685,1,0,0,response1disk,,6,10.75567627,-0.449127197,1,0,0,rectangle,10.75567627,-0.449127197,1,0,0,10.75567627,-0.449127197,1,0,0,0,78,78,34,1,,,,,,,,
,,,,,,,,,,,,,FF,,,,,,,,0.732,,,,,,,,,,,,,,,,,,,,,,61031048f58595acbfdf85b9,61036a5c811088540506d91f,2021-07-29_22h58.45.872,Simcolourproject_2stim_asymm_v5,2020.2.10,Linux x86_64,60,61025ae37ef11b136ea224fe,,,,,,,,,2644,28.8291626,71.10275269,1,0,0,response1disk,,7,11.41412354,9.176055908,1,0,0,rectangle,11.41412354,9.176055908,1,0,0,11.41412354,9.176055908,1,0,0,0,79,79,65,1,,,,,,,,
,,,,,,,,,,,,,FF,,,,,,,,1.348,,,,,,,,,,,,,,,,,,,,,,61031048f58595acbfdf85b9,61036a5c811088540506d91f,2021-07-29_22h58.45.872,Simcolourproject_2stim_asymm_v5,2020.2.10,Linux x86_64,60,61025ae37ef11b136ea224fe,,,,,,,,,1378,29.63330078,46.03274536,1,0,0,response1disk,,7,14.74707031,12.03314209,1,0,0,rectangle,14.74707031,12.03314209,1,0,0,14.74707031,12.03314209,1,0,0,0,80,80,47,1,,,,,,,,
,,,,,,,,,,,,,FF,,,,,,,,1.0321,,,,,,,,,,,,,,,,,,,,,,61031048f58595acbfdf85b9,61036a5c811088540506d91f,2021-07-29_22h58.45.872,Simcolourproject_2stim_asymm_v5,2020.2.10,Linux x86_64,60,61025ae37ef11b136ea224fe,,,,,,,,,2833,52.11608887,28.26730347,1,0,0,response1disk,,6,27.56518555,9.735717773,1,0,0,rectangle,27.56518555,9.735717773,1,0,0,27.56518555,9.735717773,1,0,0,0,81,81,32,1,,,,,,,,
,,,,,,,,,,,,,FF,,,,,,,,0.8166,,,,,,,,,,,,,,,,,,,,,,61031048f58595acbfdf85b9,61036a5c811088540506d91f,2021-07-29_22h58.45.872,Simcolourproject_2stim_asymm_v5,2020.2.10,Linux x86_64,60,61025ae37ef11b136ea224fe,,,,,,,,,286,25.32562256,41.69509888,1,0,0,response1disk,,7,11.94519043,2.573486328,1,0,0,rectangle,11.94519043,2.573486328,1,0,0,11.94519043,2.573486328,1,0,0,0,82,82,13,1,,,,,,,,
,,,,,,,,,,,,,FF,,,,,,,,1.0334,,,,,,,,,,,,,,,,,,,,,,61031048f58595acbfdf85b9,61036a5c811088540506d91f,2021-07-29_22h58.45.872,Simcolourproject_2stim_asymm_v5,2020.2.10,Linux x86_64,60,61025ae37ef11b136ea224fe,,,,,,,,,2301,58.84399414,26.60406494,1,0,0,response1disk,,6,10.35351563,8.016571045,1,0,0,rectangle,10.35351563,8.016571045,1,0,0,10.35351563,8.016571045,1,0,0,0,83,83,7,1,,,,,,,,
,,,,,,,,,,,,,FF,,,,,,,,0.6498,,,,,,,,,,,,,,,,,,,,,,61031048f58595acbfdf85b9,61036a5c811088540506d91f,2021-07-29_22h58.45.872,Simcolourproject_2stim_asymm_v5,2020.2.10,Linux x86_64,60,61025ae37ef11b136ea224fe,,,,,,,,,480,18.79852295,25.07272339,1,0,0,response1disk,,7,16.31719971,8.851226807,1,0,0,rectangle,16.31719971,8.851226807,1,0,0,16.31719971,8.851226807,1,0,0,0,84,84,107,1,,,,,,,,
,,,,,,,,,,,,,FF,,,,,,,,0.8174,,,,,,,,,,,,,,,,,,,,,,61031048f58595acbfdf85b9,61036a5c811088540506d91f,2021-07-29_22h58.45.872,Simcolourproject_2stim_asymm_v5,2020.2.10,Linux x86_64,60,61025ae37ef11b136ea224fe,,,,,,,,,2409,26.34906006,38.13092041,1,0,0,response1disk,,7,16.87719727,7.478759766,1,0,0,rectangle,16.87719727,7.478759766,1,0,0,16.87719727,7.478759766,1,0,0,0,85,85,151,1,,,,,,,,
,,,,,,,,,,,,,FF,,,,,,,,0.6989,,,,,,,,,,,,,,,,,,,,,,61031048f58595acbfdf85b9,61036a5c811088540506d91f,2021-07-29_22h58.45.872,Simcolourproject_2stim_asymm_v5,2020.2.10,Linux x86_64,60,61025ae37ef11b136ea224fe,,,,,,,,,113,24.74749756,53.01638794,1,0,0,response1disk,,7,12.34405518,1.838928223,1,0,0,rectangle,12.34405518,1.838928223,1,0,0,12.34405518,1.838928223,1,0,0,0,86,86,101,1,,,,,,,,
,,,,,,,,,,,,,FF,,,,,,,,0.6833,,,,,,,,,,,,,,,,,,,,,,61031048f58595acbfdf85b9,61036a5c811088540506d91f,2021-07-29_22h58.45.872,Simcolourproject_2stim_asymm_v5,2020.2.10,Linux x86_64,60,61025ae37ef11b136ea224fe,,,,,,,,,2771,59.18182373,105.2131958,1,0,0,response1disk,,7,12.53839111,12.09234619,1,0,0,rectangle,12.53839111,12.09234619,1,0,0,12.53839111,12.09234619,1,0,0,0,87,87,153,1,,,,,,,,
,,,,,,,,,,,,,FF,,,,,,,,0.9325,,,,,,,,,,,,,,,,,,,,,,61031048f58595acbfdf85b9,61036a5c811088540506d91f,2021-07-29_22h58.45.872,Simcolourproject_2stim_asymm_v5,2020.2.10,Linux x86_64,60,61025ae37ef11b136ea224fe,,,,,,,,,1218,63.12408447,21.54205322,1,0,0,response1disk,,6,7.498962402,-3.214691162,1,0,0,rectangle,7.498962402,-3.214691162,1,0,0,7.498962402,-3.214691162,1,0,0,0,88,88,37,1,,,,,,,,
,,,,,,,,,,,,,FF,,,,,,,,0.9154,,,,,,,,,,,,,,,,,,,,,,61031048f58595acbfdf85b9,61036a5c811088540506d91f,2021-07-29_22h58.45.872,Simcolourproject_2stim_asymm_v5,2020.2.10,Linux x86_64,60,61025ae37ef11b136ea224fe,,,,,,,,,4290,28.67504883,45.48031616,1,0,0,response1disk,,7,16.56884766,7.713256836,1,0,0,rectangle,16.56884766,7.713256836,1,0,0,16.56884766,7.713256836,1,0,0,0,89,89,54,1,,,,,,,,
,,,,,,,,,,,,,FF,,,,,,,,0.8161,,,,,,,,,,,,,,,,,,,,,,61031048f58595acbfdf85b9,61036a5c811088540506d91f,2021-07-29_22h58.45.872,Simcolourproject_2stim_asymm_v5,2020.2.10,Linux x86_64,60,61025ae37ef11b136ea224fe,,,,,,,,,3684,22.35198975,31.83465576,1,0,0,response1disk,,7,7.936157227,-3.699768066,1,0,0,rectangle,40.53656006,64.1038208,1,0,0,10.49505615,0.270202637,1,0,0,0,90,90,146,1,,response1disk_3,TRUE,7,7,"[244,24,243,198,39,26,233,34,99,91,224,95,140,239,123,229,185,118,60,122]",1.6799,rectangle
,,,,,,,,,,,,,FF,,,,,,,,0.9818,,,,,,,,,,,,,,,,,,,,,,61031048f58595acbfdf85b9,61036a5c811088540506d91f,2021-07-29_22h58.45.872,Simcolourproject_2stim_asymm_v5,2020.2.10,Linux x86_64,60,61025ae37ef11b136ea224fe,,,,,,,,,3331,23.90863037,44.59057617,1,0,0,response1disk,,7,-2.553588867,-11.68167114,1,0,0,rectangle,-2.553588867,-11.68167114,1,0,0,-2.553588867,-11.68167114,1,0,0,0,91,91,26,1,,,,,,,,
,,,,,,,,,,,,,FF,,,,,,,,1.8133,,,,,,,,,,,,,,,,,,,,,,61031048f58595acbfdf85b9,61036a5c811088540506d91f,2021-07-29_22h58.45.872,Simcolourproject_2stim_asymm_v5,2020.2.10,Linux x86_64,60,61025ae37ef11b136ea224fe,,,,,,,,,3626,19.6114502,28.14364624,1,0,0,response1disk,,7,11.79425049,-1.474304199,1,0,0,rectangle,11.79425049,-1.474304199,1,0,0,11.79425049,-1.474304199,1,0,0,0,92,92,100,1,,,,,,,,
,,,,,,,,,,,,,FF,,,,,,,,0.8326,,,,,,,,,,,,,,,,,,,,,,61031048f58595acbfdf85b9,61036a5c811088540506d91f,2021-07-29_22h58.45.872,Simcolourproject_2stim_asymm_v5,2020.2.10,Linux x86_64,60,61025ae37ef11b136ea224fe,,,,,,,,,1078,23.53692627,45.81625366,1,0,0,response1disk,,7,5.090332031,1.377624512,1,0,0,rectangle,5.090332031,1.377624512,1,0,0,5.090332031,1.377624512,1,0,0,0,93,93,149,1,,,,,,,,
,,,,,,,,,,,,,FF,,,,,,,,1.3156,,,,,,,,,,,,,,,,,,,,,,61031048f58595acbfdf85b9,61036a5c811088540506d91f,2021-07-29_22h58.45.872,Simcolourproject_2stim_asymm_v5,2020.2.10,Linux x86_64,60,61025ae37ef11b136ea224fe,,,,,,,,,2033,57.53521729,-17.99194336,1,0,0,response3disk,,5,26.27593994,-9.248535156,1,0,0,rectangle,-63.96514893,-34.97717285,1,0,0,6.835998535,3.955780029,1,0,0,0,94,94,129,1,,response5disk_3,TRUE,2,2,"[244,24,243,198,39,26,233,34,99,91,224,95,140,239,123,229,185,118,60,122]",2.0302,rectangle
,,,,,,,,,,,,,FF,,,,,,,,1.9785,,,,,,,,,,,,,,,,,,,,,,61031048f58595acbfdf85b9,61036a5c811088540506d91f,2021-07-29_22h58.45.872,Simcolourproject_2stim_asymm_v5,2020.2.10,Linux x86_64,60,61025ae37ef11b136ea224fe,,,,,,,,,4021,-80.53033447,-53.92120361,1,0,0,response5disk,,2,-11.42321777,-10.08068848,1,0,0,rectangle,-11.42321777,-10.08068848,1,0,0,-11.42321777,-10.08068848,1,0,0,0,95,95,117,1,,,,,,,,
,,,,,,,,,,,,,FF,,,,,,,,0.7648,,,,,,,,,,,,,,,,,,,,,,61031048f58595acbfdf85b9,61036a5c811088540506d91f,2021-07-29_22h58.45.872,Simcolourproject_2stim_asymm_v5,2020.2.10,Linux x86_64,60,61025ae37ef11b136ea224fe,,,,,,,,,2755,34.43200684,54.14208984,1,0,0,response1disk,,7,-5.845336914,-11.04220581,1,0,0,rectangle,-5.845336914,-11.04220581,1,0,0,-5.845336914,-11.04220581,1,0,0,0,96,96,60,1,,,,,,,,
,,,,,,,,,,,,,FF,,,,,,,,1.2637,,,,,,,,,,,,,,,,,,,,,,61031048f58595acbfdf85b9,61036a5c811088540506d91f,2021-07-29_22h58.45.872,Simcolourproject_2stim_asymm_v5,2020.2.10,Linux x86_64,60,61025ae37ef11b136ea224fe,,,,,,,,,2408,29.59399414,51.70819092,1,0,0,response1disk,,7,1.695251465,6.779846191,1,0,0,rectangle,1.695251465,6.779846191,1,0,0,1.695251465,6.779846191,1,0,0,0,97,97,91,1,,,,,,,,
,,,,,,,,,,,,,FF,,,,,,,,0.7342,,,,,,,,,,,,,,,,,,,,,,61031048f58595acbfdf85b9,61036a5c811088540506d91f,2021-07-29_22h58.45.872,Simcolourproject_2stim_asymm_v5,2020.2.10,Linux x86_64,60,61025ae37ef11b136ea224fe,,,,,,,,,557,31.5836792,45.67260742,1,0,0,response1disk,,7,-8.194091797,10.87527466,1,0,0,rectangle,65.17315674,29.25009155,1,0,0,-6.258178711,-0.191864014,1,0,0,0,98,98,93,1,,response1disk_3,TRUE,6,6,"[244,24,243,198,39,26,233,34,99,91,224,95,140,239,123,229,185,118,60,122]",1.6149,rectangle
,,,,,,,,,,,,,FF,,,,,,,,1.1328,,,,,,,,,,,,,,,,,,,,,,61031048f58595acbfdf85b9,61036a5c811088540506d91f,2021-07-29_22h58.45.872,Simcolourproject_2stim_asymm_v5,2020.2.10,Linux x86_64,60,61025ae37ef11b136ea224fe,,,,,,,,,4262,27.00415039,46.39108276,1,0,0,response1disk,,7,6.003662109,8.183013916,1,0,0,rectangle,6.003662109,8.183013916,1,0,0,6.003662109,8.183013916,1,0,0,0,99,99,94,1,,,,,,,,
,,,,,,,,,,,,,FF,,,,,,,,1.5647,,,,,,,,,,,,,,,,,,,,,,61031048f58595acbfdf85b9,61036a5c811088540506d91f,2021-07-29_22h58.45.872,Simcolourproject_2stim_asymm_v5,2020.2.10,Linux x86_64,60,61025ae37ef11b136ea224fe,,,,,,,,,2170,73.77294922,39.92102051,1,0,0,response1disk,,6,24.56713867,11.31826782,1,0,0,rectangle,24.56713867,11.31826782,1,0,0,24.56713867,11.31826782,1,0,0,0,100,100,19,1,,,,,,,,
,,,,,,,,,,,,,FF,,,,,,,,0.6989,,,,,,,,,,,,,,,,,,,,,,61031048f58595acbfdf85b9,61036a5c811088540506d91f,2021-07-29_22h58.45.872,Simcolourproject_2stim_asymm_v5,2020.2.10,Linux x86_64,60,61025ae37ef11b136ea224fe,,,,,,,,,518,29.6807251,47.8895874,1,0,0,response1disk,,7,2.918762207,-3.105957031,1,0,0,rectangle,2.918762207,-3.105957031,1,0,0,2.918762207,-3.105957031,1,0,0,0,101,101,4,1,,,,,,,,
,,,,,,,,,,,,,FF,,,,,,,,0.7651,,,,,,,,,,,,,,,,,,,,,,61031048f58595acbfdf85b9,61036a5c811088540506d91f,2021-07-29_22h58.45.872,Simcolourproject_2stim_asymm_v5,2020.2.10,Linux x86_64,60,61025ae37ef11b136ea224fe,,,,,,,,,744,35.35284424,41.87033081,1,0,0,response1disk,,7,14.19445801,14.93334961,1,0,0,rectangle,14.19445801,14.93334961,1,0,0,14.19445801,14.93334961,1,0,0,0,102,102,17,1,,,,,,,,
,,,,,,,,,,,,,FF,,,,,,,,0.5836,,,,,,,,,,,,,,,,,,,,,,61031048f58595acbfdf85b9,61036a5c811088540506d91f,2021-07-29_22h58.45.872,Simcolourproject_2stim_asymm_v5,2020.2.10,Linux x86_64,60,61025ae37ef11b136ea224fe,,,,,,,,,3001,29.75653076,53.46746826,1,0,0,response1disk,,7,9.016601563,6.510284424,1,0,0,rectangle,9.016601563,6.510284424,1,0,0,9.016601563,6.510284424,1,0,0,0,103,103,44,1,,,,,,,,
,,,,,,,,,,,,,FF,,,,,,,,0.6151,,,,,,,,,,,,,,,,,,,,,,61031048f58595acbfdf85b9,61036a5c811088540506d91f,2021-07-29_22h58.45.872,Simcolourproject_2stim_asymm_v5,2020.2.10,Linux x86_64,60,61025ae37ef11b136ea224fe,,,,,,,,,4007,22.17150879,46.54830933,1,0,0,response1disk,,7,6.677612305,5.939056396,1,0,0,rectangle,6.677612305,5.939056396,1,0,0,6.677612305,5.939056396,1,0,0,0,104,104,84,1,,,,,,,,
,,,,,,,,,,,,,FF,,,,,,,,0.5326,,,,,,,,,,,,,,,,,,,,,,61031048f58595acbfdf85b9,61036a5c811088540506d91f,2021-07-29_22h58.45.872,Simcolourproject_2stim_asymm_v5,2020.2.10,Linux x86_64,60,61025ae37ef11b136ea224fe,,,,,,,,,1321,28.41094971,42.59289551,1,0,0,response1disk,,7,14.652771,5.626403809,1,0,0,rectangle,14.652771,5.626403809,1,0,0,14.652771,5.626403809,1,0,0,0,105,105,82,1,,,,,,,,
,,,,,,,,,,,,,FF,,,,,,,,1.0159,,,,,,,,,,,,,,,,,,,,,,61031048f58595acbfdf85b9,61036a5c811088540506d91f,2021-07-29_22h58.45.872,Simcolourproject_2stim_asymm_v5,2020.2.10,Linux x86_64,60,61025ae37ef11b136ea224fe,,,,,,,,,1384,32.92675781,48.33224487,1,0,0,response1disk,,7,28.71844482,3.869842529,1,0,0,rectangle,28.71844482,3.869842529,1,0,0,28.71844482,3.869842529,1,0,0,0,106,106,104,1,,,,,,,,
,,,,,,,,,,,,,FF,,,,,,,,0.6991,,,,,,,,,,,,,,,,,,,,,,61031048f58595acbfdf85b9,61036a5c811088540506d91f,2021-07-29_22h58.45.872,Simcolourproject_2stim_asymm_v5,2020.2.10,Linux x86_64,60,61025ae37ef11b136ea224fe,,,,,,,,,1754,33.93395996,44.5302124,1,0,0,response1disk,,7,20.26202393,-6.628143311,1,0,0,rectangle,20.26202393,-6.628143311,1,0,0,20.26202393,-6.628143311,1,0,0,0,107,107,83,1,,,,,,,,
,,,,,,,,,,,,,FF,,,,,,,,0.9156,,,,,,,,,,,,,,,,,,,,,,61031048f58595acbfdf85b9,61036a5c811088540506d91f,2021-07-29_22h58.45.872,Simcolourproject_2stim_asymm_v5,2020.2.10,Linux x86_64,60,61025ae37ef11b136ea224fe,,,,,,,,,1824,56.32946777,33.43902588,1,0,0,response1disk,,6,8.884643555,5.006195068,1,0,0,rectangle,8.884643555,5.006195068,1,0,0,8.884643555,5.006195068,1,0,0,0,108,108,120,1,,,,,,,,
,,,,,,,,,,,,,FF,,,,,,,,0.7498,,,,,,,,,,,,,,,,,,,,,,61031048f58595acbfdf85b9,61036a5c811088540506d91f,2021-07-29_22h58.45.872,Simcolourproject_2stim_asymm_v5,2020.2.10,Linux x86_64,60,61025ae37ef11b136ea224fe,,,,,,,,,897,27.34515381,83.1050415,1,0,0,response1disk,,7,8.424865723,7.618164063,1,0,0,rectangle,8.424865723,7.618164063,1,0,0,8.424865723,7.618164063,1,0,0,0,109,109,86,1,,,,,,,,
,,,,,,,,,,,,,FF,,,,,,,,0.6988,,,,,,,,,,,,,,,,,,,,,,61031048f58595acbfdf85b9,61036a5c811088540506d91f,2021-07-29_22h58.45.872,Simcolourproject_2stim_asymm_v5,2020.2.10,Linux x86_64,60,61025ae37ef11b136ea224fe,,,,,,,,,4043,30.03735352,40.5604248,1,0,0,response1disk,,7,14.5557251,0.476196289,1,0,0,rectangle,14.5557251,0.476196289,1,0,0,14.5557251,0.476196289,1,0,0,0,110,110,145,1,,,,,,,,
,,,,,,,,,,,,,FF,,,,,,,,0.5319,,,,,,,,,,,,,,,,,,,,,,61031048f58595acbfdf85b9,61036a5c811088540506d91f,2021-07-29_22h58.45.872,Simcolourproject_2stim_asymm_v5,2020.2.10,Linux x86_64,60,61025ae37ef11b136ea224fe,,,,,,,,,2617,32.16241455,45.5703125,1,0,0,response1disk,,7,10.87121582,9.867248535,1,0,0,rectangle,10.87121582,9.867248535,1,0,0,10.87121582,9.867248535,1,0,0,0,111,111,53,1,,,,,,,,
,,,,,,,,,,,,,FF,,,,,,,,0.7168,,,,,,,,,,,,,,,,,,,,,,61031048f58595acbfdf85b9,61036a5c811088540506d91f,2021-07-29_22h58.45.872,Simcolourproject_2stim_asymm_v5,2020.2.10,Linux x86_64,60,61025ae37ef11b136ea224fe,,,,,,,,,2911,32.93414307,45.13644409,1,0,0,response1disk,,7,5.972106934,-0.480407715,1,0,0,rectangle,5.972106934,-0.480407715,1,0,0,5.972106934,-0.480407715,1,0,0,0,112,112,131,1,,,,,,,,
,,,,,,,,,,,,,FF,,,,,,,,0.6326,,,,,,,,,,,,,,,,,,,,,,61031048f58595acbfdf85b9,61036a5c811088540506d91f,2021-07-29_22h58.45.872,Simcolourproject_2stim_asymm_v5,2020.2.10,Linux x86_64,60,61025ae37ef11b136ea224fe,,,,,,,,,3072,19.06060791,32.63848877,1,0,0,response1disk,,7,5.239318848,11.10528564,1,0,0,rectangle,5.239318848,11.10528564,1,0,0,5.239318848,11.10528564,1,0,0,0,113,113,130,1,,,,,,,,
,,,,,,,,,,,,,FF,,,,,,,,0.4326,,,,,,,,,,,,,,,,,,,,,,61031048f58595acbfdf85b9,61036a5c811088540506d91f,2021-07-29_22h58.45.872,Simcolourproject_2stim_asymm_v5,2020.2.10,Linux x86_64,60,61025ae37ef11b136ea224fe,,,,,,,,,427,22.73168945,47.7394104,1,0,0,response1disk,,7,6.383178711,-6.653533936,1,0,0,rectangle,6.383178711,-6.653533936,1,0,0,6.383178711,-6.653533936,1,0,0,0,114,114,147,1,,,,,,,,
,,,,,,,,,,,,,FF,,,,,,,,1.1167,,,,,,,,,,,,,,,,,,,,,,61031048f58595acbfdf85b9,61036a5c811088540506d91f,2021-07-29_22h58.45.872,Simcolourproject_2stim_asymm_v5,2020.2.10,Linux x86_64,60,61025ae37ef11b136ea224fe,,,,,,,,,1523,27.57299805,23.10125732,1,0,0,response1disk,,6,8.187011719,6.840332031,1,0,0,rectangle,8.187011719,6.840332031,1,0,0,8.187011719,6.840332031,1,0,0,0,115,115,125,1,,,,,,,,
,,,,,,,,,,,,,FF,,,,,,,,0.5153,,,,,,,,,,,,,,,,,,,,,,61031048f58595acbfdf85b9,61036a5c811088540506d91f,2021-07-29_22h58.45.872,Simcolourproject_2stim_asymm_v5,2020.2.10,Linux x86_64,60,61025ae37ef11b136ea224fe,,,,,,,,,2438,22.21618652,34.25128174,1,0,0,response1disk,,7,8.811706543,9.315887451,1,0,0,rectangle,8.811706543,9.315887451,1,0,0,8.811706543,9.315887451,1,0,0,0,116,116,143,1,,,,,,,,
,,,,,,,,,,,,,FF,,,,,,,,0.5843,,,,,,,,,,,,,,,,,,,,,,61031048f58595acbfdf85b9,61036a5c811088540506d91f,2021-07-29_22h58.45.872,Simcolourproject_2stim_asymm_v5,2020.2.10,Linux x86_64,60,61025ae37ef11b136ea224fe,,,,,,,,,866,31.29302979,45.15789795,1,0,0,response1disk,,7,11.46221924,3.78314209,1,0,0,rectangle,40.77905273,65.06710815,1,0,0,21.24914551,5.91293335,1,0,0,0,117,117,69,1,,response1disk_3,TRUE,7,7,"[244,24,243,198,39,26,233,34,99,91,224,95,140,239,123,229,185,118,60,122]",1.7646,rectangle
,,,,,,,,,,,,,FF,,,,,,,,2.0626,,,,,,,,,,,,,,,,,,,,,,61031048f58595acbfdf85b9,61036a5c811088540506d91f,2021-07-29_22h58.45.872,Simcolourproject_2stim_asymm_v5,2020.2.10,Linux x86_64,60,61025ae37ef11b136ea224fe,,,,,,,,,1684,-82.03869629,21.28057861,1,0,0,response7disk,,1,-11.71130371,8.471252441,1,0,0,rectangle,-11.71130371,8.471252441,1,0,0,-11.71130371,8.471252441,1,0,0,0,118,118,9,1,,,,,,,,
,,,,,,,,,,,,,FF,,,,,,,,0.7322,,,,,,,,,,,,,,,,,,,,,,61031048f58595acbfdf85b9,61036a5c811088540506d91f,2021-07-29_22h58.45.872,Simcolourproject_2stim_asymm_v5,2020.2.10,Linux x86_64,60,61025ae37ef11b136ea224fe,,,,,,,,,333,39.38110352,70.51443481,1,0,0,response1disk,,7,-11.25964355,0.466522217,1,0,0,rectangle,-11.25964355,0.466522217,1,0,0,-11.25964355,0.466522217,1,0,0,0,119,119,103,1,,,,,,,,
,,,,,,,,,,,,,FF,,,,,,,,1.1149,,,,,,,,,,,,,,,,,,,,,,61031048f58595acbfdf85b9,61036a5c811088540506d91f,2021-07-29_22h58.45.872,Simcolourproject_2stim_asymm_v5,2020.2.10,Linux x86_64,60,61025ae37ef11b136ea224fe,,,,,,,,,2011,22.70220947,31.82064819,1,0,0,response1disk,,7,12.78674316,14.19622803,1,0,0,rectangle,12.78674316,14.19622803,1,0,0,12.78674316,14.19622803,1,0,0,0,120,120,155,1,,,,,,,,
,,,,,,,,,,,,,FF,,,,,,,,0.5657,,,,,,,,,,,,,,,,,,,,,,61031048f58595acbfdf85b9,61036a5c811088540506d91f,2021-07-29_22h58.45.872,Simcolourproject_2stim_asymm_v5,2020.2.10,Linux x86_64,60,61025ae37ef11b136ea224fe,,,,,,,,,575,21.1741333,36.5032959,1,0,0,response1disk,,7,2.438232422,7.094573975,1,0,0,rectangle,-42.2131958,85.7338562,1,0,0,-4.43762207,-4.379394531,1,0,0,0,121,121,72,1,,response7disk_3,TRUE,0,0,"[244,24,243,198,39,26,233,34,99,91,224,95,140,239,123,229,185,118,60,122]",1.6148,rectangle
,,,,,,,,,,,,,FF,,,,,,,,1.3652,,,,,,,,,,,,,,,,,,,,,,61031048f58595acbfdf85b9,61036a5c811088540506d91f,2021-07-29_22h58.45.872,Simcolourproject_2stim_asymm_v5,2020.2.10,Linux x86_64,60,61025ae37ef11b136ea224fe,,,,,,,,,3725,28.15740967,41.79592896,1,0,0,response1disk,,7,23.18725586,-8.736328125,1,0,0,rectangle,-24.99810791,-61.58578491,1,0,0,28.5289917,-6.671325684,1,0,0,0,122,122,108,1,,response5disk_3,TRUE,3,3,"[244,24,243,198,39,26,233,34,99,91,224,95,140,239,123,229,185,118,60,122]",2.3463,rectangle
,,,,,,,,,,,,,FF,,,,,,,,0.9659,,,,,,,,,,,,,,,,,,,,,,61031048f58595acbfdf85b9,61036a5c811088540506d91f,2021-07-29_22h58.45.872,Simcolourproject_2stim_asymm_v5,2020.2.10,Linux x86_64,60,61025ae37ef11b136ea224fe,,,,,,,,,1633,29.58886719,45.06396484,1,0,0,response1disk,,7,12.59655762,7.090240479,1,0,0,rectangle,12.59655762,7.090240479,1,0,0,12.59655762,7.090240479,1,0,0,0,123,123,73,1,,,,,,,,
,,,,,,,,,,,,,FF,,,,,,,,1.7965,,,,,,,,,,,,,,,,,,,,,,61031048f58595acbfdf85b9,61036a5c811088540506d91f,2021-07-29_22h58.45.872,Simcolourproject_2stim_asymm_v5,2020.2.10,Linux x86_64,60,61025ae37ef11b136ea224fe,,,,,,,,,3907,-25.3795166,-54.62478638,1,0,0,response5disk,,3,11.72442627,-0.231628418,1,0,0,rectangle,11.72442627,-0.231628418,1,0,0,11.72442627,-0.231628418,1,0,0,0,124,124,59,1,,,,,,,,
,,,,,,,,,,,,,FF,,,,,,,,0.9,,,,,,,,,,,,,,,,,,,,,,61031048f58595acbfdf85b9,61036a5c811088540506d91f,2021-07-29_22h58.45.872,Simcolourproject_2stim_asymm_v5,2020.2.10,Linux x86_64,60,61025ae37ef11b136ea224fe,,,,,,,,,3361,28.63482666,65.92190552,1,0,0,response1disk,,7,13.66809082,4.797454834,1,0,0,rectangle,13.66809082,4.797454834,1,0,0,13.66809082,4.797454834,1,0,0,0,125,125,15,1,,,,,,,,
,,,,,,,,,,,,,FF,,,,,,,,0.6319,,,,,,,,,,,,,,,,,,,,,,61031048f58595acbfdf85b9,61036a5c811088540506d91f,2021-07-29_22h58.45.872,Simcolourproject_2stim_asymm_v5,2020.2.10,Linux x86_64,60,61025ae37ef11b136ea224fe,,,,,,,,,1552,39.45288086,53.04797363,1,0,0,response1disk,,7,9.656738281,5.845306396,1,0,0,rectangle,9.656738281,5.845306396,1,0,0,9.656738281,5.845306396,1,0,0,0,126,126,41,1,,,,,,,,
,,,,,,,,,,,,,FF,,,,,,,,1.8147,,,,,,,,,,,,,,,,,,,,,,61031048f58595acbfdf85b9,61036a5c811088540506d91f,2021-07-29_22h58.45.872,Simcolourproject_2stim_asymm_v5,2020.2.10,Linux x86_64,60,61025ae37ef11b136ea224fe,,,,,,,,,2785,75.08282471,-35.02029419,1,0,0,response3disk,,5,-13.36773682,11.28448486,1,0,0,rectangle,-13.36773682,11.28448486,1,0,0,-13.36773682,11.28448486,1,0,0,0,127,127,45,1,,,,,,,,
,,,,,,,,,,,,,FF,,,,,,,,2.2633,,,,,,,,,,,,,,,,,,,,,,61031048f58595acbfdf85b9,61036a5c811088540506d91f,2021-07-29_22h58.45.872,Simcolourproject_2stim_asymm_v5,2020.2.10,Linux x86_64,60,61025ae37ef11b136ea224fe,,,,,,,,,3615,34.34820557,66.45101929,1,0,0,response1disk,,7,9.000610352,9.826599121,1,0,0,rectangle,9.000610352,9.826599121,1,0,0,9.000610352,9.826599121,1,0,0,0,128,128,99,1,,,,,,,,
,,,,,,,,,,,,,FF,,,,,,,,0.5033,,,,,,,,,,,,,,,,,,,,,,61031048f58595acbfdf85b9,61036a5c811088540506d91f,2021-07-29_22h58.45.872,Simcolourproject_2stim_asymm_v5,2020.2.10,Linux x86_64,60,61025ae37ef11b136ea224fe,,,,,,,,,2131,23.487854,42.65628052,1,0,0,response1disk,,7,16.13134766,-8.488952637,1,0,0,rectangle,16.13134766,-8.488952637,1,0,0,16.13134766,-8.488952637,1,0,0,0,129,129,33,1,,,,,,,,
,,,,,,,,,,,,,FF,,,,,,,,0.5495,,,,,,,,,,,,,,,,,,,,,,61031048f58595acbfdf85b9,61036a5c811088540506d91f,2021-07-29_22h58.45.872,Simcolourproject_2stim_asymm_v5,2020.2.10,Linux x86_64,60,61025ae37ef11b136ea224fe,,,,,,,,,357,21.53240967,41.42926025,1,0,0,response1disk,,7,8.496032715,-0.396270752,1,0,0,rectangle,8.496032715,-0.396270752,1,0,0,8.496032715,-0.396270752,1,0,0,0,130,130,116,1,,,,,,,,
,,,,,,,,,,,,,FF,,,,,,,,1.349,,,,,,,,,,,,,,,,,,,,,,61031048f58595acbfdf85b9,61036a5c811088540506d91f,2021-07-29_22h58.45.872,Simcolourproject_2stim_asymm_v5,2020.2.10,Linux x86_64,60,61025ae37ef11b136ea224fe,,,,,,,,,2026,-20.19311523,-58.61837769,1,0,0,response5disk,,3,11.87731934,0.132019043,1,0,0,rectangle,11.87731934,0.132019043,1,0,0,11.87731934,0.132019043,1,0,0,0,131,131,29,1,,,,,,,,
,,,,,,,,,,,,,FF,,,,,,,,0.7999,,,,,,,,,,,,,,,,,,,,,,61031048f58595acbfdf85b9,61036a5c811088540506d91f,2021-07-29_22h58.45.872,Simcolourproject_2stim_asymm_v5,2020.2.10,Linux x86_64,60,61025ae37ef11b136ea224fe,,,,,,,,,1047,19.43011475,67.01538086,1,0,0,response1disk,,7,-8.401367188,-2.739868164,1,0,0,rectangle,-8.401367188,-2.739868164,1,0,0,-8.401367188,-2.739868164,1,0,0,0,132,132,158,1,,,,,,,,
,,,,,,,,,,,,,FF,,,,,,,,0.8492,,,,,,,,,,,,,,,,,,,,,,61031048f58595acbfdf85b9,61036a5c811088540506d91f,2021-07-29_22h58.45.872,Simcolourproject_2stim_asymm_v5,2020.2.10,Linux x86_64,60,61025ae37ef11b136ea224fe,,,,,,,,,2203,29.56091309,49.27661133,1,0,0,response1disk,,7,20.03417969,3.930175781,1,0,0,rectangle,20.03417969,3.930175781,1,0,0,20.03417969,3.930175781,1,0,0,0,133,133,159,1,,,,,,,,
,,,,,,,,,,,,,FF,,,,,,,,0.6514,,,,,,,,,,,,,,,,,,,,,,61031048f58595acbfdf85b9,61036a5c811088540506d91f,2021-07-29_22h58.45.872,Simcolourproject_2stim_asymm_v5,2020.2.10,Linux x86_64,60,61025ae37ef11b136ea224fe,,,,,,,,,1639,28.82788086,60.88256836,1,0,0,response1disk,,7,-0.596435547,-4.931213379,1,0,0,rectangle,-0.596435547,-4.931213379,1,0,0,-0.596435547,-4.931213379,1,0,0,0,134,134,124,1,,,,,,,,
,,,,,,,,,,,,,FF,,,,,,,,0.7818,,,,,,,,,,,,,,,,,,,,,,61031048f58595acbfdf85b9,61036a5c811088540506d91f,2021-07-29_22h58.45.872,Simcolourproject_2stim_asymm_v5,2020.2.10,Linux x86_64,60,61025ae37ef11b136ea224fe,,,,,,,,,4310,28.73760986,48.79312134,1,0,0,response1disk,,7,2.588500977,-10.51486206,1,0,0,rectangle,2.588500977,-10.51486206,1,0,0,2.588500977,-10.51486206,1,0,0,0,135,135,22,1,,,,,,,,
,,,,,,,,,,,,,FF,,,,,,,,0.5644,,,,,,,,,,,,,,,,,,,,,,61031048f58595acbfdf85b9,61036a5c811088540506d91f,2021-07-29_22h58.45.872,Simcolourproject_2stim_asymm_v5,2020.2.10,Linux x86_64,60,61025ae37ef11b136ea224fe,,,,,,,,,1538,23.86499023,44.18270874,1,0,0,response1disk,,7,5.649414063,11.32070923,1,0,0,rectangle,5.649414063,11.32070923,1,0,0,5.649414063,11.32070923,1,0,0,0,136,136,38,1,,,,,,,,
,,,,,,,,,,,,,FF,,,,,,,,0.4485,,,,,,,,,,,,,,,,,,,,,,61031048f58595acbfdf85b9,61036a5c811088540506d91f,2021-07-29_22h58.45.872,Simcolourproject_2stim_asymm_v5,2020.2.10,Linux x86_64,60,61025ae37ef11b136ea224fe,,,,,,,,,1594,31.43481445,57.12261963,1,0,0,response1disk,,7,0.280883789,-14.21347046,1,0,0,rectangle,0.280883789,-14.21347046,1,0,0,0.280883789,-14.21347046,1,0,0,0,137,137,70,1,,,,,,,,
,,,,,,,,,,,,,FF,,,,,,,,0.5301,,,,,,,,,,,,,,,,,,,,,,61031048f58595acbfdf85b9,61036a5c811088540506d91f,2021-07-29_22h58.45.872,Simcolourproject_2stim_asymm_v5,2020.2.10,Linux x86_64,60,61025ae37ef11b136ea224fe,,,,,,,,,330,22.77130127,39.37939453,1,0,0,response1disk,,7,0.046691895,-1.363769531,1,0,0,rectangle,0.046691895,-1.363769531,1,0,0,0.046691895,-1.363769531,1,0,0,0,138,138,134,1,,,,,,,,
,,,,,,,,,,,,,FF,,,,,,,,0.649,,,,,,,,,,,,,,,,,,,,,,61031048f58595acbfdf85b9,61036a5c811088540506d91f,2021-07-29_22h58.45.872,Simcolourproject_2stim_asymm_v5,2020.2.10,Linux x86_64,60,61025ae37ef11b136ea224fe,,,,,,,,,2858,29.20037842,50.70770264,1,0,0,response1disk,,7,14.6829834,7.946166992,1,0,0,rectangle,49.72235107,32.83358765,1,0,0,14.10040283,3.716247559,1,0,0,0,139,139,156,1,,response1disk_3,TRUE,6,6,"[244,24,243,198,39,26,233,34,99,91,224,95,140,239,123,229,185,118,60,122]",1.5973,rectangle
,,,,,,,,,,,,,FF,,,,,,,,0.9335,,,,,,,,,,,,,,,,,,,,,,61031048f58595acbfdf85b9,61036a5c811088540506d91f,2021-07-29_22h58.45.872,Simcolourproject_2stim_asymm_v5,2020.2.10,Linux x86_64,60,61025ae37ef11b136ea224fe,,,,,,,,,2595,24.72729492,37.1338501,1,0,0,response1disk,,7,8.12310791,2.715332031,1,0,0,rectangle,8.12310791,2.715332031,1,0,0,8.12310791,2.715332031,1,0,0,0,140,140,115,1,,,,,,,,
,,,,,,,,,,,,,FF,,,,,,,,0.732,,,,,,,,,,,,,,,,,,,,,,61031048f58595acbfdf85b9,61036a5c811088540506d91f,2021-07-29_22h58.45.872,Simcolourproject_2stim_asymm_v5,2020.2.10,Linux x86_64,60,61025ae37ef11b136ea224fe,,,,,,,,,1810,25.90625,47.20880127,1,0,0,response1disk,,7,11.59942627,-7.240936279,1,0,0,rectangle,11.59942627,-7.240936279,1,0,0,11.59942627,-7.240936279,1,0,0,0,141,141,2,1,,,,,,,,
,,,,,,,,,,,,,FF,,,,,,,,0.6986,,,,,,,,,,,,,,,,,,,,,,61031048f58595acbfdf85b9,61036a5c811088540506d91f,2021-07-29_22h58.45.872,Simcolourproject_2stim_asymm_v5,2020.2.10,Linux x86_64,60,61025ae37ef11b136ea224fe,,,,,,,,,2971,22.12005615,46.68807983,1,0,0,response1disk,,7,15.53430176,11.01690674,1,0,0,rectangle,15.53430176,11.01690674,1,0,0,15.53430176,11.01690674,1,0,0,0,142,142,6,1,,,,,,,,
,,,,,,,,,,,,,FF,,,,,,,,0.4493,,,,,,,,,,,,,,,,,,,,,,61031048f58595acbfdf85b9,61036a5c811088540506d91f,2021-07-29_22h58.45.872,Simcolourproject_2stim_asymm_v5,2020.2.10,Linux x86_64,60,61025ae37ef11b136ea224fe,,,,,,,,,237,22.76556396,41.29891968,1,0,0,response1disk,,7,18.95007324,-8.803619385,1,0,0,rectangle,18.95007324,-8.803619385,1,0,0,18.95007324,-8.803619385,1,0,0,0,143,143,5,1,,,,,,,,
,,,,,,,,,,,,,FF,,,,,,,,0.3991,,,,,,,,,,,,,,,,,,,,,,61031048f58595acbfdf85b9,61036a5c811088540506d91f,2021-07-29_22h58.45.872,Simcolourproject_2stim_asymm_v5,2020.2.10,Linux x86_64,60,61025ae37ef11b136ea224fe,,,,,,,,,2915,25.82824707,30.6572876,1,0,0,response1disk,,7,23.92010498,7.58682251,1,0,0,rectangle,23.92010498,7.58682251,1,0,0,23.92010498,7.58682251,1,0,0,0,144,144,109,1,,,,,,,,
,,,,,,,,,,,,,FF,,,,,,,,0.4699,,,,,,,,,,,,,,,,,,,,,,61031048f58595acbfdf85b9,61036a5c811088540506d91f,2021-07-29_22h58.45.872,Simcolourproject_2stim_asymm_v5,2020.2.10,Linux x86_64,60,61025ae37ef11b136ea224fe,,,,,,,,,2430,23.92010498,25.60214233,1,0,0,response1disk,,7,23.48773193,0.888824463,1,0,0,rectangle,23.48773193,0.888824463,1,0,0,23.48773193,0.888824463,1,0,0,0,145,145,95,1,,,,,,,,
,,,,,,,,,,,,,FF,,,,,,,,0.6996,,,,,,,,,,,,,,,,,,,,,,61031048f58595acbfdf85b9,61036a5c811088540506d91f,2021-07-29_22h58.45.872,Simcolourproject_2stim_asymm_v5,2020.2.10,Linux x86_64,60,61025ae37ef11b136ea224fe,,,,,,,,,607,28.74951172,38.73495483,1,0,0,response1disk,,7,25.05322266,5.631378174,1,0,0,rectangle,25.05322266,5.631378174,1,0,0,25.05322266,5.631378174,1,0,0,0,146,146,142,1,,,,,,,,
,,,,,,,,,,,,,FF,,,,,,,,0.5475,,,,,,,,,,,,,,,,,,,,,,61031048f58595acbfdf85b9,61036a5c811088540506d91f,2021-07-29_22h58.45.872,Simcolourproject_2stim_asymm_v5,2020.2.10,Linux x86_64,60,61025ae37ef11b136ea224fe,,,,,,,,,1117,25.05322266,39.6809082,1,0,0,response1disk,,7,20.47747803,-6.728637695,1,0,0,rectangle,20.47747803,-6.728637695,1,0,0,20.47747803,-6.728637695,1,0,0,0,147,147,46,1,,,,,,,,
,,,,,,,,,,,,,FF,,,,,,,,0.5502,,,,,,,,,,,,,,,,,,,,,,61031048f58595acbfdf85b9,61036a5c811088540506d91f,2021-07-29_22h58.45.872,Simcolourproject_2stim_asymm_v5,2020.2.10,Linux x86_64,60,61025ae37ef11b136ea224fe,,,,,,,,,3866,16.49658203,47.61849976,1,0,0,response1disk,,7,11.14379883,3.270782471,1,0,0,rectangle,11.14379883,3.270782471,1,0,0,11.14379883,3.270782471,1,0,0,0,148,148,64,1,,,,,,,,
,,,,,,,,,,,,,FF,,,,,,,,0.4654,,,,,,,,,,,,,,,,,,,,,,61031048f58595acbfdf85b9,61036a5c811088540506d91f,2021-07-29_22h58.45.872,Simcolourproject_2stim_asymm_v5,2020.2.10,Linux x86_64,60,61025ae37ef11b136ea224fe,,,,,,,,,1122,32.41821289,47.44302368,1,0,0,response1disk,,7,22.14404297,3.152130127,1,0,0,rectangle,22.14404297,3.152130127,1,0,0,22.14404297,3.152130127,1,0,0,0,149,149,139,1,,,,,,,,
,,,,,,,,,,,,,FF,,,,,,,,0.5654,,,,,,,,,,,,,,,,,,,,,,61031048f58595acbfdf85b9,61036a5c811088540506d91f,2021-07-29_22h58.45.872,Simcolourproject_2stim_asymm_v5,2020.2.10,Linux x86_64,60,61025ae37ef11b136ea224fe,,,,,,,,,1741,30.50848389,59.20690918,1,0,0,response1disk,,7,14.04730225,11.84634399,1,0,0,rectangle,14.04730225,11.84634399,1,0,0,14.04730225,11.84634399,1,0,0,0,150,150,23,1,,,,,,,,
,,,,,,,,,,,,,FF,,,,,,,,0.4833,,,,,,,,,,,,,,,,,,,,,,61031048f58595acbfdf85b9,61036a5c811088540506d91f,2021-07-29_22h58.45.872,Simcolourproject_2stim_asymm_v5,2020.2.10,Linux x86_64,60,61025ae37ef11b136ea224fe,,,,,,,,,2540,29.84576416,58.92663574,1,0,0,response1disk,,7,19.95898438,5.093414307,1,0,0,rectangle,19.95898438,5.093414307,1,0,0,19.95898438,5.093414307,1,0,0,0,151,151,3,1,,,,,,,,
,,,,,,,,,,,,,FF,,,,,,,,0.3829,,,,,,,,,,,,,,,,,,,,,,61031048f58595acbfdf85b9,61036a5c811088540506d91f,2021-07-29_22h58.45.872,Simcolourproject_2stim_asymm_v5,2020.2.10,Linux x86_64,60,61025ae37ef11b136ea224fe,,,,,,,,,2992,30.84594727,55.60916138,1,0,0,response1disk,,7,24.91595459,10.49780273,1,0,0,rectangle,24.91595459,10.49780273,1,0,0,24.91595459,10.49780273,1,0,0,0,152,152,136,1,,,,,,,,
,,,,,,,,,,,,,FF,,,,,,,,0.4157,,,,,,,,,,,,,,,,,,,,,,61031048f58595acbfdf85b9,61036a5c811088540506d91f,2021-07-29_22h58.45.872,Simcolourproject_2stim_asymm_v5,2020.2.10,Linux x86_64,60,61025ae37ef11b136ea224fe,,,,,,,,,4322,26.99371338,51.29815674,1,0,0,response1disk,,7,18.97766113,8.382537842,1,0,0,rectangle,18.97766113,8.382537842,1,0,0,18.97766113,8.382537842,1,0,0,0,153,153,114,1,,,,,,,,
,,,,,,,,,,,,,FF,,,,,,,,1.0483,,,,,,,,,,,,,,,,,,,,,,61031048f58595acbfdf85b9,61036a5c811088540506d91f,2021-07-29_22h58.45.872,Simcolourproject_2stim_asymm_v5,2020.2.10,Linux x86_64,60,61025ae37ef11b136ea224fe,,,,,,,,,1263,25.47583008,43.43692017,1,0,0,response1disk,,7,2.322814941,-4.926269531,1,0,0,rectangle,2.322814941,-4.926269531,1,0,0,2.322814941,-4.926269531,1,0,0,0,154,154,118,1,,,,,,,,
,,,,,,,,,,,,,FF,,,,,,,,0.616,,,,,,,,,,,,,,,,,,,,,,61031048f58595acbfdf85b9,61036a5c811088540506d91f,2021-07-29_22h58.45.872,Simcolourproject_2stim_asymm_v5,2020.2.10,Linux x86_64,60,61025ae37ef11b136ea224fe,,,,,,,,,2501,33.4017334,49.90551758,1,0,0,response1disk,,7,4.113586426,8.464050293,1,0,0,rectangle,4.113586426,8.464050293,1,0,0,4.113586426,8.464050293,1,0,0,0,155,155,85,1,,,,,,,,
,,,,,,,,,,,,,FF,,,,,,,,0.5828,,,,,,,,,,,,,,,,,,,,,,61031048f58595acbfdf85b9,61036a5c811088540506d91f,2021-07-29_22h58.45.872,Simcolourproject_2stim_asymm_v5,2020.2.10,Linux x86_64,60,61025ae37ef11b136ea224fe,,,,,,,,,2020,24.8493042,50.86749268,1,0,0,response1disk,,7,8.261169434,-7.968048096,1,0,0,rectangle,8.261169434,-7.968048096,1,0,0,8.261169434,-7.968048096,1,0,0,0,156,156,92,1,,,,,,,,
,,,,,,,,,,,,,FF,,,,,,,,0.4669,,,,,,,,,,,,,,,,,,,,,,61031048f58595acbfdf85b9,61036a5c811088540506d91f,2021-07-29_22h58.45.872,Simcolourproject_2stim_asymm_v5,2020.2.10,Linux x86_64,60,61025ae37ef11b136ea224fe,,,,,,,,,650,36.63305664,48.28646851,1,0,0,response1disk,,7,1.846130371,2.873596191,1,0,0,rectangle,1.846130371,2.873596191,1,0,0,1.846130371,2.873596191,1,0,0,0,157,157,132,1,,,,,,,,
,,,,,,,,,,,,,FF,,,,,,,,0.4147,,,,,,,,,,,,,,,,,,,,,,61031048f58595acbfdf85b9,61036a5c811088540506d91f,2021-07-29_22h58.45.872,Simcolourproject_2stim_asymm_v5,2020.2.10,Linux x86_64,60,61025ae37ef11b136ea224fe,,,,,,,,,1729,34.64630127,51.76153564,1,0,0,response1disk,,7,17.53509521,9.312408447,1,0,0,rectangle,17.53509521,9.312408447,1,0,0,17.53509521,9.312408447,1,0,0,0,158,158,98,1,,,,,,,,
,,,,,,,,,,,,,FF,,,,,,,,0.3997,,,,,,,,,,,,,,,,,,,,,,61031048f58595acbfdf85b9,61036a5c811088540506d91f,2021-07-29_22h58.45.872,Simcolourproject_2stim_asymm_v5,2020.2.10,Linux x86_64,60,61025ae37ef11b136ea224fe,,,,,,,,,856,27.09912109,45.29296875,1,0,0,response1disk,,7,15.36450195,3.576721191,1,0,0,rectangle,15.36450195,3.576721191,1,0,0,15.36450195,3.576721191,1,0,0,0,159,159,79,1,,,,,,,,
,,,,,,,,,,,,,FF,,,,,,,,0.4013,,,,,,,,,,,,,,,,,,,,,,61031048f58595acbfdf85b9,61036a5c811088540506d91f,2021-07-29_22h58.45.872,Simcolourproject_2stim_asymm_v5,2020.2.10,Linux x86_64,60,61025ae37ef11b136ea224fe,,,,,,,,,1935,22.02984619,50.47286987,1,0,0,response1disk,,7,13.68225098,3.120330811,1,0,0,rectangle,13.68225098,3.120330811,1,0,0,13.68225098,3.120330811,1,0,0,1,0,160,102,1,,,,,,,,
,,,,,,,,,,,,,FF,,,,,,,,0.4989,,,,,,,,,,,,,,,,,,,,,,61031048f58595acbfdf85b9,61036a5c811088540506d91f,2021-07-29_22h58.45.872,Simcolourproject_2stim_asymm_v5,2020.2.10,Linux x86_64,60,61025ae37ef11b136ea224fe,,,,,,,,,4030,16.46008301,59.19549561,1,0,0,response1disk,,7,5.689941406,4.495239258,1,0,0,rectangle,5.689941406,4.495239258,1,0,0,5.689941406,4.495239258,1,0,0,1,1,161,112,1,,,,,,,,
,,,,,,,,,,,,,FF,,,,,,,,0.382,,,,,,,,,,,,,,,,,,,,,,61031048f58595acbfdf85b9,61036a5c811088540506d91f,2021-07-29_22h58.45.872,Simcolourproject_2stim_asymm_v5,2020.2.10,Linux x86_64,60,61025ae37ef11b136ea224fe,,,,,,,,,548,26.65802002,57.22293091,1,0,0,response1disk,,7,26.65802002,-2.926177979,1,0,0,rectangle,26.65802002,-2.926177979,1,0,0,26.65802002,-2.926177979,1,0,0,1,2,162,107,1,,,,,,,,
,,,,,,,,,,,,,FF,,,,,,,,0.6157,,,,,,,,,,,,,,,,,,,,,,61031048f58595acbfdf85b9,61036a5c811088540506d91f,2021-07-29_22h58.45.872,Simcolourproject_2stim_asymm_v5,2020.2.10,Linux x86_64,60,61025ae37ef11b136ea224fe,,,,,,,,,1582,26.65802002,32.68426514,1,0,0,response1disk,,7,14.90802002,2.695831299,1,0,0,rectangle,14.90802002,2.695831299,1,0,0,14.90802002,2.695831299,1,0,0,1,3,163,98,1,,,,,,,,
,,,,,,,,,,,,,FF,,,,,,,,1.4826,,,,,,,,,,,,,,,,,,,,,,61031048f58595acbfdf85b9,61036a5c811088540506d91f,2021-07-29_22h58.45.872,Simcolourproject_2stim_asymm_v5,2020.2.10,Linux x86_64,60,61025ae37ef11b136ea224fe,,,,,,,,,3048,40.05303955,-52.2755127,1,0,0,response3disk,,4,16.26037598,1.85559082,1,0,0,rectangle,16.26037598,1.85559082,1,0,0,16.26037598,1.85559082,1,0,0,1,4,164,65,1,,,,,,,,
,,,,,,,,,,,,,FF,,,,,,,,0.6325,,,,,,,,,,,,,,,,,,,,,,61031048f58595acbfdf85b9,61036a5c811088540506d91f,2021-07-29_22h58.45.872,Simcolourproject_2stim_asymm_v5,2020.2.10,Linux x86_64,60,61025ae37ef11b136ea224fe,,,,,,,,,3649,21.82299805,63.72027588,1,0,0,response1disk,,7,0.631225586,-2.369598389,1,0,0,rectangle,0.631225586,-2.369598389,1,0,0,0.631225586,-2.369598389,1,0,0,1,5,165,28,1,,,,,,,,
,,,,,,,,,,,,,FF,,,,,,,,0.5811,,,,,,,,,,,,,,,,,,,,,,61031048f58595acbfdf85b9,61036a5c811088540506d91f,2021-07-29_22h58.45.872,Simcolourproject_2stim_asymm_v5,2020.2.10,Linux x86_64,60,61025ae37ef11b136ea224fe,,,,,,,,,3404,55.8480835,72.31173706,1,0,0,response1disk,,7,9.131896973,8.465637207,1,0,0,rectangle,9.131896973,8.465637207,1,0,0,9.131896973,8.465637207,1,0,0,1,6,166,72,1,,,,,,,,
,,,,,,,,,,,,,FF,,,,,,,,0.4327,,,,,,,,,,,,,,,,,,,,,,61031048f58595acbfdf85b9,61036a5c811088540506d91f,2021-07-29_22h58.45.872,Simcolourproject_2stim_asymm_v5,2020.2.10,Linux x86_64,60,61025ae37ef11b136ea224fe,,,,,,,,,3137,33.70611572,61.73742676,1,0,0,response1disk,,7,-1.110412598,-3.537658691,1,0,0,rectangle,-1.110412598,-3.537658691,1,0,0,-1.110412598,-3.537658691,1,0,0,1,7,167,7,1,,,,,,,,
,,,,,,,,,,,,,FF,,,,,,,,0.5329,,,,,,,,,,,,,,,,,,,,,,61031048f58595acbfdf85b9,61036a5c811088540506d91f,2021-07-29_22h58.45.872,Simcolourproject_2stim_asymm_v5,2020.2.10,Linux x86_64,60,61025ae37ef11b136ea224fe,,,,,,,,,361,40.02929688,77.28900146,1,0,0,response1disk,,7,18.75201416,8.583343506,1,0,0,rectangle,18.75201416,8.583343506,1,0,0,18.75201416,8.583343506,1,0,0,1,8,168,62,1,,,,,,,,
,,,,,,,,,,,,,FF,,,,,,,,0.4199,,,,,,,,,,,,,,,,,,,,,,61031048f58595acbfdf85b9,61036a5c811088540506d91f,2021-07-29_22h58.45.872,Simcolourproject_2stim_asymm_v5,2020.2.10,Linux x86_64,60,61025ae37ef11b136ea224fe,,,,,,,,,1771,49.07733154,62.80801392,1,0,0,response1disk,,7,28.84088135,8.752166748,1,0,0,rectangle,28.84088135,8.752166748,1,0,0,28.84088135,8.752166748,1,0,0,1,9,169,116,1,,,,,,,,
,,,,,,,,,,,,,FF,,,,,,,,0.682,,,,,,,,,,,,,,,,,,,,,,61031048f58595acbfdf85b9,61036a5c811088540506d91f,2021-07-29_22h58.45.872,Simcolourproject_2stim_asymm_v5,2020.2.10,Linux x86_64,60,61025ae37ef11b136ea224fe,,,,,,,,,140,38.91003418,63.43157959,1,0,0,response1disk,,7,17.12670898,7.916687012,1,0,0,rectangle,17.12670898,7.916687012,1,0,0,17.12670898,7.916687012,1,0,0,1,10,170,91,1,,,,,,,,
,,,,,,,,,,,,,FF,,,,,,,,1.8362,,,,,,,,,,,,,,,,,,,,,,61031048f58595acbfdf85b9,61036a5c811088540506d91f,2021-07-29_22h58.45.872,Simcolourproject_2stim_asymm_v5,2020.2.10,Linux x86_64,60,61025ae37ef11b136ea224fe,,,,,,,,,1832,25.10296631,45.42538452,1,0,0,response1disk,,7,7.47064209,5.134033203,1,0,0,rectangle,7.47064209,5.134033203,1,0,0,7.47064209,5.134033203,1,0,0,1,11,171,95,1,,,,,,,,
,,,,,,,,,,,,,FF,,,,,,,,0.4824,,,,,,,,,,,,,,,,,,,,,,61031048f58595acbfdf85b9,61036a5c811088540506d91f,2021-07-29_22h58.45.872,Simcolourproject_2stim_asymm_v5,2020.2.10,Linux x86_64,60,61025ae37ef11b136ea224fe,,,,,,,,,822,34.18560791,56.22399902,1,0,0,response1disk,,7,12.01226807,-13.61819458,1,0,0,rectangle,12.01226807,-13.61819458,1,0,0,12.01226807,-13.61819458,1,0,0,1,12,172,8,1,,,,,,,,
,,,,,,,,,,,,,FF,,,,,,,,0.4808,,,,,,,,,,,,,,,,,,,,,,61031048f58595acbfdf85b9,61036a5c811088540506d91f,2021-07-29_22h58.45.872,Simcolourproject_2stim_asymm_v5,2020.2.10,Linux x86_64,60,61025ae37ef11b136ea224fe,,,,,,,,,3482,44.22265625,73.48577881,1,0,0,response1disk,,7,-2.20324707,12.9786377,1,0,0,rectangle,-2.20324707,12.9786377,1,0,0,-2.20324707,12.9786377,1,0,0,1,13,173,149,1,,,,,,,,
,,,,,,,,,,,,,FF,,,,,,,,0.4669,,,,,,,,,,,,,,,,,,,,,,61031048f58595acbfdf85b9,61036a5c811088540506d91f,2021-07-29_22h58.45.872,Simcolourproject_2stim_asymm_v5,2020.2.10,Linux x86_64,60,61025ae37ef11b136ea224fe,,,,,,,,,1418,42.39489746,84.89816284,1,0,0,response1disk,,7,8.236328125,7.799835205,1,0,0,rectangle,8.236328125,7.799835205,1,0,0,8.236328125,7.799835205,1,0,0,1,14,174,48,1,,,,,,,,
,,,,,,,,,,,,,FF,,,,,,,,1.2473,,,,,,,,,,,,,,,,,,,,,,61031048f58595acbfdf85b9,61036a5c811088540506d91f,2021-07-29_22h58.45.872,Simcolourproject_2stim_asymm_v5,2020.2.10,Linux x86_64,60,61025ae37ef11b136ea224fe,,,,,,,,,1744,46.27215576,-51.23269653,1,0,0,response3disk,,4,24.52563477,-6.442230225,1,0,0,rectangle,24.52563477,-6.442230225,1,0,0,24.52563477,-6.442230225,1,0,0,1,15,175,111,1,,,,,,,,
,,,,,,,,,,,,,FF,,,,,,,,0.9991,,,,,,,,,,,,,,,,,,,,,,61031048f58595acbfdf85b9,61036a5c811088540506d91f,2021-07-29_22h58.45.872,Simcolourproject_2stim_asymm_v5,2020.2.10,Linux x86_64,60,61025ae37ef11b136ea224fe,,,,,,,,,1825,25.96234131,-45.81420898,1,0,0,response3disk,,4,14.32287598,-6.853790283,1,0,0,rectangle,14.32287598,-6.853790283,1,0,0,14.32287598,-6.853790283,1,0,0,1,16,176,43,1,,,,,,,,
,,,,,,,,,,,,,FF,,,,,,,,0.6826,,,,,,,,,,,,,,,,,,,,,,61031048f58595acbfdf85b9,61036a5c811088540506d91f,2021-07-29_22h58.45.872,Simcolourproject_2stim_asymm_v5,2020.2.10,Linux x86_64,60,61025ae37ef11b136ea224fe,,,,,,,,,687,40.89923096,55.84173584,1,0,0,response1disk,,7,4.144470215,-5.777496338,1,0,0,rectangle,4.144470215,-5.777496338,1,0,0,4.144470215,-5.777496338,1,0,0,1,17,177,85,1,,,,,,,,
,,,,,,,,,,,,,FF,,,,,,,,1.431,,,,,,,,,,,,,,,,,,,,,,61031048f58595acbfdf85b9,61036a5c811088540506d91f,2021-07-29_22h58.45.872,Simcolourproject_2stim_asymm_v5,2020.2.10,Linux x86_64,60,61025ae37ef11b136ea224fe,,,,,,,,,2663,75.23986816,19.20608521,1,0,0,response1disk,,6,21.31896973,5.720672607,1,0,0,rectangle,21.31896973,5.720672607,1,0,0,21.31896973,5.720672607,1,0,0,1,18,178,94,1,,,,,,,,
,,,,,,,,,,,,,FF,,,,,,,,0.5335,,,,,,,,,,,,,,,,,,,,,,61031048f58595acbfdf85b9,61036a5c811088540506d91f,2021-07-29_22h58.45.872,Simcolourproject_2stim_asymm_v5,2020.2.10,Linux x86_64,60,61025ae37ef11b136ea224fe,,,,,,,,,2081,35.28155518,42.55413818,1,0,0,response1disk,,7,1.715515137,-9.785766602,1,0,0,rectangle,1.715515137,-9.785766602,1,0,0,1.715515137,-9.785766602,1,0,0,1,19,179,144,1,,,,,,,,
,,,,,,,,,,,,,FF,,,,,,,,0.4833,,,,,,,,,,,,,,,,,,,,,,61031048f58595acbfdf85b9,61036a5c811088540506d91f,2021-07-29_22h58.45.872,Simcolourproject_2stim_asymm_v5,2020.2.10,Linux x86_64,60,61025ae37ef11b136ea224fe,,,,,,,,,1334,21.60754395,69.57537842,1,0,0,response1disk,,7,7.411193848,-1.811706543,1,0,0,rectangle,7.411193848,-1.811706543,1,0,0,7.411193848,-1.811706543,1,0,0,1,20,180,55,1,,,,,,,,
,,,,,,,,,,,,,FF,,,,,,,,0.5164,,,,,,,,,,,,,,,,,,,,,,61031048f58595acbfdf85b9,61036a5c811088540506d91f,2021-07-29_22h58.45.872,Simcolourproject_2stim_asymm_v5,2020.2.10,Linux x86_64,60,61025ae37ef11b136ea224fe,,,,,,,,,4320,19.69891357,46.37420654,1,0,0,response1disk,,7,10.9475708,2.817321777,1,0,0,rectangle,10.9475708,2.817321777,1,0,0,10.9475708,2.817321777,1,0,0,1,21,181,134,1,,,,,,,,
,,,,,,,,,,,,,FF,,,,,,,,1.5482,,,,,,,,,,,,,,,,,,,,,,61031048f58595acbfdf85b9,61036a5c811088540506d91f,2021-07-29_22h58.45.872,Simcolourproject_2stim_asymm_v5,2020.2.10,Linux x86_64,60,61025ae37ef11b136ea224fe,,,,,,,,,4335,-66.82873535,100.954071,1,0,0,response7disk,,0,19.45184326,-4.590820313,1,0,0,rectangle,19.45184326,-4.590820313,1,0,0,19.45184326,-4.590820313,1,0,0,1,22,182,104,1,,,,,,,,
,,,,,,,,,,,,,FF,,,,,,,,0.8153,,,,,,,,,,,,,,,,,,,,,,61031048f58595acbfdf85b9,61036a5c811088540506d91f,2021-07-29_22h58.45.872,Simcolourproject_2stim_asymm_v5,2020.2.10,Linux x86_64,60,61025ae37ef11b136ea224fe,,,,,,,,,788,19.58325195,41.71063232,1,0,0,response1disk,,7,3.426025391,-1.553466797,1,0,0,rectangle,3.426025391,-1.553466797,1,0,0,3.426025391,-1.553466797,1,0,0,1,23,183,130,1,,,,,,,,
,,,,,,,,,,,,,FF,,,,,,,,1.7136,,,,,,,,,,,,,,,,,,,,,,61031048f58595acbfdf85b9,61036a5c811088540506d91f,2021-07-29_22h58.45.872,Simcolourproject_2stim_asymm_v5,2020.2.10,Linux x86_64,60,61025ae37ef11b136ea224fe,,,,,,,,,1524,66.37103271,-34.61016846,1,0,0,response3disk,,5,8.960021973,-2.023742676,1,0,0,rectangle,-30.6348877,-70.06704712,1,0,0,3.432800293,-7.382019043,1,0,0,1,24,184,64,1,,response5disk_3,TRUE,3,3,"[244,24,243,198,39,26,233,34,99,91,224,95,140,239,123,229,185,118,60,122]",2.2144,rectangle
,,,,,,,,,,,,,FF,,,,,,,,1.3139,,,,,,,,,,,,,,,,,,,,,,61031048f58595acbfdf85b9,61036a5c811088540506d91f,2021-07-29_22h58.45.872,Simcolourproject_2stim_asymm_v5,2020.2.10,Linux x86_64,60,61025ae37ef11b136ea224fe,,,,,,,,,2838,43.87750244,24.36697388,1,0,0,response1disk,,6,20.73327637,2.476623535,1,0,0,rectangle,20.73327637,2.476623535,1,0,0,20.73327637,2.476623535,1,0,0,1,25,185,121,1,,,,,,,,
,,,,,,,,,,,,,FF,,,,,,,,0.9983,,,,,,,,,,,,,,,,,,,,,,61031048f58595acbfdf85b9,61036a5c811088540506d91f,2021-07-29_22h58.45.872,Simcolourproject_2stim_asymm_v5,2020.2.10,Linux x86_64,60,61025ae37ef11b136ea224fe,,,,,,,,,2370,50.93292236,29.10116577,1,0,0,response1disk,,6,24.47979736,5.702331543,1,0,0,rectangle,24.47979736,5.702331543,1,0,0,24.47979736,5.702331543,1,0,0,1,26,186,129,1,,,,,,,,
,,,,,,,,,,,,,FF,,,,,,,,2.3301,,,,,,,,,,,,,,,,,,,,,,61031048f58595acbfdf85b9,61036a5c811088540506d91f,2021-07-29_22h58.45.872,Simcolourproject_2stim_asymm_v5,2020.2.10,Linux x86_64,60,61025ae37ef11b136ea224fe,,,,,,,,,4122,30.80889893,45.83065796,1,0,0,response1disk,,7,24.88653564,8.136108398,1,0,0,rectangle,24.88653564,8.136108398,1,0,0,24.88653564,8.136108398,1,0,0,1,27,187,56,1,,,,,,,,
,,,,,,,,,,,,,FF,,,,,,,,0.7001,,,,,,,,,,,,,,,,,,,,,,61031048f58595acbfdf85b9,61036a5c811088540506d91f,2021-07-29_22h58.45.872,Simcolourproject_2stim_asymm_v5,2020.2.10,Linux x86_64,60,61025ae37ef11b136ea224fe,,,,,,,,,567,32.31390381,50.11749268,1,0,0,response1disk,,7,7.889648438,-2.859344482,1,0,0,rectangle,7.889648438,-2.859344482,1,0,0,7.889648438,-2.859344482,1,0,0,1,28,188,38,1,,,,,,,,
,,,,,,,,,,,,,FF,,,,,,,,1.4148,,,,,,,,,,,,,,,,,,,,,,61031048f58595acbfdf85b9,61036a5c811088540506d91f,2021-07-29_22h58.45.872,Simcolourproject_2stim_asymm_v5,2020.2.10,Linux x86_64,60,61025ae37ef11b136ea224fe,,,,,,,,,2421,81.58282471,-58.1758728,1,0,0,response3disk,,5,-4.760681152,-14.89855957,1,0,0,rectangle,-4.760681152,-14.89855957,1,0,0,-4.760681152,-14.89855957,1,0,0,1,29,189,10,1,,,,,,,,
,,,,,,,,,,,,,FF,,,,,,,,1.2323,,,,,,,,,,,,,,,,,,,,,,61031048f58595acbfdf85b9,61036a5c811088540506d91f,2021-07-29_22h58.45.872,Simcolourproject_2stim_asymm_v5,2020.2.10,Linux x86_64,60,61025ae37ef11b136ea224fe,,,,,,,,,1052,56.79998779,-31.32165527,1,0,0,response3disk,,5,26.47009277,-6.185546875,1,0,0,rectangle,26.47009277,-6.185546875,1,0,0,26.47009277,-6.185546875,1,0,0,1,30,190,157,1,,,,,,,,
,,,,,,,,,,,,,FF,,,,,,,,0.6495,,,,,,,,,,,,,,,,,,,,,,61031048f58595acbfdf85b9,61036a5c811088540506d91f,2021-07-29_22h58.45.872,Simcolourproject_2stim_asymm_v5,2020.2.10,Linux x86_64,60,61025ae37ef11b136ea224fe,,,,,,,,,392,26.47009277,42.72891235,1,0,0,response1disk,,7,11.91680908,0.431488037,1,0,0,rectangle,11.91680908,0.431488037,1,0,0,11.91680908,0.431488037,1,0,0,1,31,191,115,1,,,,,,,,
,,,,,,,,,,,,,FF,,,,,,,,1.2484,,,,,,,,,,,,,,,,,,,,,,61031048f58595acbfdf85b9,61036a5c811088540506d91f,2021-07-29_22h58.45.872,Simcolourproject_2stim_asymm_v5,2020.2.10,Linux x86_64,60,61025ae37ef11b136ea224fe,,,,,,,,,721,50.78094482,33.8414917,1,0,0,response1disk,,6,19.02502441,1.314239502,1,0,0,rectangle,19.02502441,1.314239502,1,0,0,19.02502441,1.314239502,1,0,0,1,32,192,110,1,,,,,,,,
,,,,,,,,,,,,,FF,,,,,,,,0.5993,,,,,,,,,,,,,,,,,,,,,,61031048f58595acbfdf85b9,61036a5c811088540506d91f,2021-07-29_22h58.45.872,Simcolourproject_2stim_asymm_v5,2020.2.10,Linux x86_64,60,61025ae37ef11b136ea224fe,,,,,,,,,1287,20.5411377,63.53448486,1,0,0,response1disk,,7,1.496032715,-10.14801025,1,0,0,rectangle,1.496032715,-10.14801025,1,0,0,1.496032715,-10.14801025,1,0,0,1,33,193,156,1,,,,,,,,
,,,,,,,,,,,,,FF,,,,,,,,0.6826,,,,,,,,,,,,,,,,,,,,,,61031048f58595acbfdf85b9,61036a5c811088540506d91f,2021-07-29_22h58.45.872,Simcolourproject_2stim_asymm_v5,2020.2.10,Linux x86_64,60,61025ae37ef11b136ea224fe,,,,,,,,,2591,53.74627686,66.30859375,1,0,0,response1disk,,7,6.27545166,-0.880981445,1,0,0,rectangle,6.27545166,-0.880981445,1,0,0,6.27545166,-0.880981445,1,0,0,1,34,194,53,1,,,,,,,,
,,,,,,,,,,,,,FF,,,,,,,,0.4498,,,,,,,,,,,,,,,,,,,,,,61031048f58595acbfdf85b9,61036a5c811088540506d91f,2021-07-29_22h58.45.872,Simcolourproject_2stim_asymm_v5,2020.2.10,Linux x86_64,60,61025ae37ef11b136ea224fe,,,,,,,,,3164,33.74871826,78.71484375,1,0,0,response1disk,,7,17.49890137,-4.872619629,1,0,0,rectangle,17.49890137,-4.872619629,1,0,0,17.49890137,-4.872619629,1,0,0,1,35,195,27,1,,,,,,,,
,,,,,,,,,,,,,FF,,,,,,,,0.45,,,,,,,,,,,,,,,,,,,,,,61031048f58595acbfdf85b9,61036a5c811088540506d91f,2021-07-29_22h58.45.872,Simcolourproject_2stim_asymm_v5,2020.2.10,Linux x86_64,60,61025ae37ef11b136ea224fe,,,,,,,,,1426,32.10137939,39.61968994,1,0,0,response1disk,,7,16.4352417,14.67996216,1,0,0,rectangle,16.4352417,14.67996216,1,0,0,16.4352417,14.67996216,1,0,0,1,36,196,153,1,,,,,,,,
,,,,,,,,,,,,,FF,,,,,,,,0.3661,,,,,,,,,,,,,,,,,,,,,,61031048f58595acbfdf85b9,61036a5c811088540506d91f,2021-07-29_22h58.45.872,Simcolourproject_2stim_asymm_v5,2020.2.10,Linux x86_64,60,61025ae37ef11b136ea224fe,,,,,,,,,2529,32.28833008,52.44778442,1,0,0,response1disk,,7,12.45166016,7.124633789,1,0,0,rectangle,-71.40338135,-37.38458252,1,0,0,-15.55700684,-4.371765137,1,0,0,1,37,197,45,1,,response5disk_3,TRUE,2,2,"[244,24,243,198,39,26,233,34,99,91,224,95,140,239,123,229,185,118,60,122]",1.8296,rectangle
,,,,,,,,,,,,,FF,,,,,,,,1.2489,,,,,,,,,,,,,,,,,,,,,,61031048f58595acbfdf85b9,61036a5c811088540506d91f,2021-07-29_22h58.45.872,Simcolourproject_2stim_asymm_v5,2020.2.10,Linux x86_64,60,61025ae37ef11b136ea224fe,,,,,,,,,3424,24.0335083,52.69012451,1,0,0,response1disk,,7,8.021118164,-11.05032349,1,0,0,rectangle,8.021118164,-11.05032349,1,0,0,8.021118164,-11.05032349,1,0,0,1,38,198,101,1,,,,,,,,
,,,,,,,,,,,,,FF,,,,,,,,1.4809,,,,,,,,,,,,,,,,,,,,,,61031048f58595acbfdf85b9,61036a5c811088540506d91f,2021-07-29_22h58.45.872,Simcolourproject_2stim_asymm_v5,2020.2.10,Linux x86_64,60,61025ae37ef11b136ea224fe,,,,,,,,,3972,-60.76446533,-29.65359497,1,0,0,response5disk,,2,-4.760498047,4.064178467,1,0,0,rectangle,-4.760498047,4.064178467,1,0,0,-4.760498047,4.064178467,1,0,0,1,39,199,52,1,,,,,,,,
,,,,,,,,,,,,,FF,,,,,,,,0.6663,,,,,,,,,,,,,,,,,,,,,,61031048f58595acbfdf85b9,61036a5c811088540506d91f,2021-07-29_22h58.45.872,Simcolourproject_2stim_asymm_v5,2020.2.10,Linux x86_64,60,61025ae37ef11b136ea224fe,,,,,,,,,3065,15.21624756,32.90405273,1,0,0,response1disk,,7,14.4956665,3.763275146,1,0,0,rectangle,14.4956665,3.763275146,1,0,0,14.4956665,3.763275146,1,0,0,1,40,200,145,1,,,,,,,,
,,,,,,,,,,,,,FF,,,,,,,,0.5658,,,,,,,,,,,,,,,,,,,,,,61031048f58595acbfdf85b9,61036a5c811088540506d91f,2021-07-29_22h58.45.872,Simcolourproject_2stim_asymm_v5,2020.2.10,Linux x86_64,60,61025ae37ef11b136ea224fe,,,,,,,,,1026,26.31420898,29.69873047,1,0,0,response1disk,,7,18.71740723,2.570495605,1,0,0,rectangle,18.71740723,2.570495605,1,0,0,18.71740723,2.570495605,1,0,0,1,41,201,13,1,,,,,,,,
,,,,,,,,,,,,,FF,,,,,,,,0.4165,,,,,,,,,,,,,,,,,,,,,,61031048f58595acbfdf85b9,61036a5c811088540506d91f,2021-07-29_22h58.45.872,Simcolourproject_2stim_asymm_v5,2020.2.10,Linux x86_64,60,61025ae37ef11b136ea224fe,,,,,,,,,344,31.42755127,51.90350342,1,0,0,response1disk,,7,12.76849365,-0.205108643,1,0,0,rectangle,12.76849365,-0.205108643,1,0,0,12.76849365,-0.205108643,1,0,0,1,42,202,9,1,,,,,,,,
,,,,,,,,,,,,,FF,,,,,,,,0.5489,,,,,,,,,,,,,,,,,,,,,,61031048f58595acbfdf85b9,61036a5c811088540506d91f,2021-07-29_22h58.45.872,Simcolourproject_2stim_asymm_v5,2020.2.10,Linux x86_64,60,61025ae37ef11b136ea224fe,,,,,,,,,3076,31.9475708,47.4145813,1,0,0,response1disk,,7,5.509460449,-12.42630005,1,0,0,rectangle,5.509460449,-12.42630005,1,0,0,5.509460449,-12.42630005,1,0,0,1,43,203,1,1,,,,,,,,
,,,,,,,,,,,,,FF,,,,,,,,1.0316,,,,,,,,,,,,,,,,,,,,,,61031048f58595acbfdf85b9,61036a5c811088540506d91f,2021-07-29_22h58.45.872,Simcolourproject_2stim_asymm_v5,2020.2.10,Linux x86_64,60,61025ae37ef11b136ea224fe,,,,,,,,,2418,-42.2220459,66.18850708,1,0,0,response7disk,,0,-5.562744141,5.416534424,1,0,0,rectangle,-5.562744141,5.416534424,1,0,0,-5.562744141,5.416534424,1,0,0,1,44,204,4,1,,,,,,,,
,,,,,,,,,,,,,FF,,,,,,,,0.5481,,,,,,,,,,,,,,,,,,,,,,61031048f58595acbfdf85b9,61036a5c811088540506d91f,2021-07-29_22h58.45.872,Simcolourproject_2stim_asymm_v5,2020.2.10,Linux x86_64,60,61025ae37ef11b136ea224fe,,,,,,,,,4063,20.65460205,41.65649414,1,0,0,response1disk,,7,6.901062012,13.07705688,1,0,0,rectangle,6.901062012,13.07705688,1,0,0,6.901062012,13.07705688,1,0,0,1,45,205,20,1,,,,,,,,
,,,,,,,,,,,,,FF,,,,,,,,1.1672,,,,,,,,,,,,,,,,,,,,,,61031048f58595acbfdf85b9,61036a5c811088540506d91f,2021-07-29_22h58.45.872,Simcolourproject_2stim_asymm_v5,2020.2.10,Linux x86_64,60,61025ae37ef11b136ea224fe,,,,,,,,,2779,86.11053467,-29.14181519,1,0,0,response3disk,,5,19.15722656,0.757293701,1,0,0,rectangle,19.15722656,0.757293701,1,0,0,19.15722656,0.757293701,1,0,0,1,46,206,31,1,,,,,,,,
,,,,,,,,,,,,,FF,,,,,,,,0.583,,,,,,,,,,,,,,,,,,,,,,61031048f58595acbfdf85b9,61036a5c811088540506d91f,2021-07-29_22h58.45.872,Simcolourproject_2stim_asymm_v5,2020.2.10,Linux x86_64,60,61025ae37ef11b136ea224fe,,,,,,,,,3351,29.78601074,44.262146,1,0,0,response1disk,,7,12.30072021,3.327667236,1,0,0,rectangle,12.30072021,3.327667236,1,0,0,12.30072021,3.327667236,1,0,0,1,47,207,139,1,,,,,,,,
,,,,,,,,,,,,,FF,,,,,,,,0.3465,,,,,,,,,,,,,,,,,,,,,,61031048f58595acbfdf85b9,61036a5c811088540506d91f,2021-07-29_22h58.45.872,Simcolourproject_2stim_asymm_v5,2020.2.10,Linux x86_64,60,61025ae37ef11b136ea224fe,,,,,,,,,3449,28.60925293,73.26300049,1,0,0,response1disk,,7,6.639282227,1.709136963,1,0,0,rectangle,6.639282227,1.709136963,1,0,0,6.639282227,1.709136963,1,0,0,1,48,208,78,1,,,,,,,,
,,,,,,,,,,,,,FF,,,,,,,,0.4158,,,,,,,,,,,,,,,,,,,,,,61031048f58595acbfdf85b9,61036a5c811088540506d91f,2021-07-29_22h58.45.872,Simcolourproject_2stim_asymm_v5,2020.2.10,Linux x86_64,60,61025ae37ef11b136ea224fe,,,,,,,,,2503,45.73919678,67.12219238,1,0,0,response1disk,,7,10.92126465,-6.752624512,1,0,0,rectangle,10.92126465,-6.752624512,1,0,0,10.92126465,-6.752624512,1,0,0,1,49,209,105,1,,,,,,,,
,,,,,,,,,,,,,FF,,,,,,,,0.4505,,,,,,,,,,,,,,,,,,,,,,61031048f58595acbfdf85b9,61036a5c811088540506d91f,2021-07-29_22h58.45.872,Simcolourproject_2stim_asymm_v5,2020.2.10,Linux x86_64,60,61025ae37ef11b136ea224fe,,,,,,,,,3651,39.53485107,54.44866943,1,0,0,response1disk,,7,4.492248535,3.38659668,1,0,0,rectangle,4.492248535,3.38659668,1,0,0,4.492248535,3.38659668,1,0,0,1,50,210,83,1,,,,,,,,
,,,,,,,,,,,,,FF,,,,,,,,0.3329,,,,,,,,,,,,,,,,,,,,,,61031048f58595acbfdf85b9,61036a5c811088540506d91f,2021-07-29_22h58.45.872,Simcolourproject_2stim_asymm_v5,2020.2.10,Linux x86_64,60,61025ae37ef11b136ea224fe,,,,,,,,,3826,52.50683594,78.85275269,1,0,0,response1disk,,7,6.874206543,4.578399658,1,0,0,rectangle,6.874206543,4.578399658,1,0,0,6.874206543,4.578399658,1,0,0,1,51,211,22,1,,,,,,,,
,,,,,,,,,,,,,FF,,,,,,,,0.3667,,,,,,,,,,,,,,,,,,,,,,61031048f58595acbfdf85b9,61036a5c811088540506d91f,2021-07-29_22h58.45.872,Simcolourproject_2stim_asymm_v5,2020.2.10,Linux x86_64,60,61025ae37ef11b136ea224fe,,,,,,,,,4213,28.77209473,51.55923462,1,0,0,response1disk,,7,2.485717773,8.528930664,1,0,0,rectangle,2.485717773,8.528930664,1,0,0,2.485717773,8.528930664,1,0,0,1,52,212,117,1,,,,,,,,
,,,,,,,,,,,,,FF,,,,,,,,0.2995,,,,,,,,,,,,,,,,,,,,,,61031048f58595acbfdf85b9,61036a5c811088540506d91f,2021-07-29_22h58.45.872,Simcolourproject_2stim_asymm_v5,2020.2.10,Linux x86_64,60,61025ae37ef11b136ea224fe,,,,,,,,,3738,44.36297607,59.44918823,1,0,0,response1disk,,7,2.508178711,-3.020446777,1,0,0,rectangle,2.508178711,-3.020446777,1,0,0,2.508178711,-3.020446777,1,0,0,1,53,213,146,1,,,,,,,,
,,,,,,,,,,,,,FF,,,,,,,,0.4997,,,,,,,,,,,,,,,,,,,,,,61031048f58595acbfdf85b9,61036a5c811088540506d91f,2021-07-29_22h58.45.872,Simcolourproject_2stim_asymm_v5,2020.2.10,Linux x86_64,60,61025ae37ef11b136ea224fe,,,,,,,,,2788,35.73303223,63.67041016,1,0,0,response1disk,,7,2.394836426,3.676757813,1,0,0,rectangle,2.394836426,3.676757813,1,0,0,2.394836426,3.676757813,1,0,0,1,54,214,87,1,,,,,,,,
,,,,,,,,,,,,,FF,,,,,,,,0.517,,,,,,,,,,,,,,,,,,,,,,61031048f58595acbfdf85b9,61036a5c811088540506d91f,2021-07-29_22h58.45.872,Simcolourproject_2stim_asymm_v5,2020.2.10,Linux x86_64,60,61025ae37ef11b136ea224fe,,,,,,,,,4137,20.50360107,66.83511353,1,0,0,response1disk,,7,9.109985352,6.58203125,1,0,0,rectangle,9.109985352,6.58203125,1,0,0,9.109985352,6.58203125,1,0,0,1,55,215,150,1,,,,,,,,
,,,,,,,,,,,,,FF,,,,,,,,1.1317,,,,,,,,,,,,,,,,,,,,,,61031048f58595acbfdf85b9,61036a5c811088540506d91f,2021-07-29_22h58.45.872,Simcolourproject_2stim_asymm_v5,2020.2.10,Linux x86_64,60,61025ae37ef11b136ea224fe,,,,,,,,,3097,-31.32800293,26.63952637,1,0,0,response7disk,,1,-7.513916016,4.853851318,1,0,0,rectangle,-7.513916016,4.853851318,1,0,0,-7.513916016,4.853851318,1,0,0,1,56,216,148,1,,,,,,,,
,,,,,,,,,,,,,FF,,,,,,,,0.6486,,,,,,,,,,,,,,,,,,,,,,61031048f58595acbfdf85b9,61036a5c811088540506d91f,2021-07-29_22h58.45.872,Simcolourproject_2stim_asymm_v5,2020.2.10,Linux x86_64,60,61025ae37ef11b136ea224fe,,,,,,,,,2859,32.20605469,40.77661133,1,0,0,response1disk,,7,-8.562194824,6.126922607,1,0,0,rectangle,-8.562194824,6.126922607,1,0,0,-8.562194824,6.126922607,1,0,0,1,57,217,103,1,,,,,,,,
,,,,,,,,,,,,,FF,,,,,,,,0.6497,,,,,,,,,,,,,,,,,,,,,,61031048f58595acbfdf85b9,61036a5c811088540506d91f,2021-07-29_22h58.45.872,Simcolourproject_2stim_asymm_v5,2020.2.10,Linux x86_64,60,61025ae37ef11b136ea224fe,,,,,,,,,2530,37.36206055,51.45874023,1,0,0,response1disk,,7,7.342041016,1.252716064,1,0,0,rectangle,7.342041016,1.252716064,1,0,0,7.342041016,1.252716064,1,0,0,1,58,218,18,1,,,,,,,,
,,,,,,,,,,,,,FF,,,,,,,,0.384,,,,,,,,,,,,,,,,,,,,,,61031048f58595acbfdf85b9,61036a5c811088540506d91f,2021-07-29_22h58.45.872,Simcolourproject_2stim_asymm_v5,2020.2.10,Linux x86_64,60,61025ae37ef11b136ea224fe,,,,,,,,,1491,32.9644165,58.52975464,1,0,0,response1disk,,7,14.18896484,-4.90246582,1,0,0,rectangle,14.18896484,-4.90246582,1,0,0,14.18896484,-4.90246582,1,0,0,1,59,219,126,1,,,,,,,,
,,,,,,,,,,,,,FF,,,,,,,,0.3984,,,,,,,,,,,,,,,,,,,,,,61031048f58595acbfdf85b9,61036a5c811088540506d91f,2021-07-29_22h58.45.872,Simcolourproject_2stim_asymm_v5,2020.2.10,Linux x86_64,60,61025ae37ef11b136ea224fe,,,,,,,,,1778,37.33148193,44.00054932,1,0,0,response1disk,,7,10.07788086,-0.26763916,1,0,0,rectangle,10.07788086,-0.26763916,1,0,0,10.07788086,-0.26763916,1,0,0,1,60,220,120,1,,,,,,,,
,,,,,,,,,,,,,FF,,,,,,,,0.3661,,,,,,,,,,,,,,,,,,,,,,61031048f58595acbfdf85b9,61036a5c811088540506d91f,2021-07-29_22h58.45.872,Simcolourproject_2stim_asymm_v5,2020.2.10,Linux x86_64,60,61025ae37ef11b136ea224fe,,,,,,,,,2061,39.61773682,71.84262085,1,0,0,response1disk,,7,11.46960449,9.896148682,1,0,0,rectangle,11.46960449,9.896148682,1,0,0,11.46960449,9.896148682,1,0,0,1,61,221,44,1,,,,,,,,
,,,,,,,,,,,,,FF,,,,,,,,0.3998,,,,,,,,,,,,,,,,,,,,,,61031048f58595acbfdf85b9,61036a5c811088540506d91f,2021-07-29_22h58.45.872,Simcolourproject_2stim_asymm_v5,2020.2.10,Linux x86_64,60,61025ae37ef11b136ea224fe,,,,,,,,,4318,39.93707275,69.40679932,1,0,0,response1disk,,7,3.054931641,1.772918701,1,0,0,rectangle,3.054931641,1.772918701,1,0,0,3.054931641,1.772918701,1,0,0,1,62,222,29,1,,,,,,,,
,,,,,,,,,,,,,FF,,,,,,,,0.6498,,,,,,,,,,,,,,,,,,,,,,61031048f58595acbfdf85b9,61036a5c811088540506d91f,2021-07-29_22h58.45.872,Simcolourproject_2stim_asymm_v5,2020.2.10,Linux x86_64,60,61025ae37ef11b136ea224fe,,,,,,,,,614,30.777771,64.3006897,1,0,0,response1disk,,7,-4.713500977,-0.383575439,1,0,0,rectangle,-85.86663818,73.73565674,1,0,0,-11.13018799,6.279937744,1,0,0,1,63,223,114,1,,response7disk_3,TRUE,1,1,"[244,24,243,198,39,26,233,34,99,91,224,95,140,239,123,229,185,118,60,122]",1.3147,rectangle
,,,,,,,,,,,,,FF,,,,,,,,1.6368,,,,,,,,,,,,,,,,,,,,,,61031048f58595acbfdf85b9,61036a5c811088540506d91f,2021-07-29_22h58.45.872,Simcolourproject_2stim_asymm_v5,2020.2.10,Linux x86_64,60,61025ae37ef11b136ea224fe,,,,,,,,,2782,-31.08935547,-52.15390015,1,0,0,response5disk,,3,8.367919922,-1.607971191,1,0,0,rectangle,8.367919922,-1.607971191,1,0,0,8.367919922,-1.607971191,1,0,0,1,64,224,106,1,,,,,,,,
,,,,,,,,,,,,,FF,,,,,,,,0.831,,,,,,,,,,,,,,,,,,,,,,61031048f58595acbfdf85b9,61036a5c811088540506d91f,2021-07-29_22h58.45.872,Simcolourproject_2stim_asymm_v5,2020.2.10,Linux x86_64,60,61025ae37ef11b136ea224fe,,,,,,,,,3417,28.59802246,34.5604248,1,0,0,response1disk,,7,10.4296875,-8.289428711,1,0,0,rectangle,10.4296875,-8.289428711,1,0,0,10.4296875,-8.289428711,1,0,0,1,65,225,57,1,,,,,,,,
,,,,,,,,,,,,,FF,,,,,,,,1.2323,,,,,,,,,,,,,,,,,,,,,,61031048f58595acbfdf85b9,61036a5c811088540506d91f,2021-07-29_22h58.45.872,Simcolourproject_2stim_asymm_v5,2020.2.10,Linux x86_64,60,61025ae37ef11b136ea224fe,,,,,,,,,3050,78.26483154,-60.92269897,1,0,0,response3disk,,5,16.15795898,0.374816895,1,0,0,rectangle,16.15795898,0.374816895,1,0,0,16.15795898,0.374816895,1,0,0,1,66,226,136,1,,,,,,,,
,,,,,,,,,,,,,FF,,,,,,,,0.4163,,,,,,,,,,,,,,,,,,,,,,61031048f58595acbfdf85b9,61036a5c811088540506d91f,2021-07-29_22h58.45.872,Simcolourproject_2stim_asymm_v5,2020.2.10,Linux x86_64,60,61025ae37ef11b136ea224fe,,,,,,,,,3509,23.97741699,39.02246094,1,0,0,response1disk,,7,8.881530762,0.460235596,1,0,0,rectangle,8.881530762,0.460235596,1,0,0,8.881530762,0.460235596,1,0,0,1,67,227,70,1,,,,,,,,
,,,,,,,,,,,,,FF,,,,,,,,1.6981,,,,,,,,,,,,,,,,,,,,,,61031048f58595acbfdf85b9,61036a5c811088540506d91f,2021-07-29_22h58.45.872,Simcolourproject_2stim_asymm_v5,2020.2.10,Linux x86_64,60,61025ae37ef11b136ea224fe,,,,,,,,,618,-38.0065918,-42.63034058,1,0,0,response5disk,,3,-4.610595703,-11.99157715,1,0,0,rectangle,-22.07806396,48.65014648,1,0,0,-4.452026367,-5.094543457,1,0,0,1,68,228,96,1,,response7disk_3,TRUE,0,0,"[244,24,243,198,39,26,233,34,99,91,224,95,140,239,123,229,185,118,60,122]",1.1312,rectangle
,,,,,,,,,,,,,FF,,,,,,,,0.6489,,,,,,,,,,,,,,,,,,,,,,61031048f58595acbfdf85b9,61036a5c811088540506d91f,2021-07-29_22h58.45.872,Simcolourproject_2stim_asymm_v5,2020.2.10,Linux x86_64,60,61025ae37ef11b136ea224fe,,,,,,,,,3640,30.78967285,38.23831177,1,0,0,response1disk,,7,-0.453796387,0.148834229,1,0,0,rectangle,-0.453796387,0.148834229,1,0,0,-0.453796387,0.148834229,1,0,0,1,69,229,89,1,,,,,,,,
,,,,,,,,,,,,,FF,,,,,,,,1.182,,,,,,,,,,,,,,,,,,,,,,61031048f58595acbfdf85b9,61036a5c811088540506d91f,2021-07-29_22h58.45.872,Simcolourproject_2stim_asymm_v5,2020.2.10,Linux x86_64,60,61025ae37ef11b136ea224fe,,,,,,,,,3089,97.94104004,-36.01330566,1,0,0,response3disk,,5,22.65716553,8.937133789,1,0,0,rectangle,22.65716553,8.937133789,1,0,0,22.65716553,8.937133789,1,0,0,1,70,230,58,1,,,,,,,,
,,,,,,,,,,,,,FF,,,,,,,,0.499,,,,,,,,,,,,,,,,,,,,,,61031048f58595acbfdf85b9,61036a5c811088540506d91f,2021-07-29_22h58.45.872,Simcolourproject_2stim_asymm_v5,2020.2.10,Linux x86_64,60,61025ae37ef11b136ea224fe,,,,,,,,,2136,30.12341309,56.39367676,1,0,0,response1disk,,7,8.051574707,-4.146179199,1,0,0,rectangle,8.051574707,-4.146179199,1,0,0,8.051574707,-4.146179199,1,0,0,1,71,231,2,1,,,,,,,,
,,,,,,,,,,,,,FF,,,,,,,,0.4315,,,,,,,,,,,,,,,,,,,,,,61031048f58595acbfdf85b9,61036a5c811088540506d91f,2021-07-29_22h58.45.872,Simcolourproject_2stim_asymm_v5,2020.2.10,Linux x86_64,60,61025ae37ef11b136ea224fe,,,,,,,,,3200,41.29559326,85.86102295,1,0,0,response1disk,,7,3.685852051,-9.199859619,1,0,0,rectangle,29.60650635,-38.93991089,1,0,0,-17.61450195,-1.865478516,1,0,0,1,72,232,0,1,,response3disk_3,TRUE,4,4,"[244,24,243,198,39,26,233,34,99,91,224,95,140,239,123,229,185,118,60,122]",1.4472,rectangle
,,,,,,,,,,,,,FF,,,,,,,,0.6318,,,,,,,,,,,,,,,,,,,,,,61031048f58595acbfdf85b9,61036a5c811088540506d91f,2021-07-29_22h58.45.872,Simcolourproject_2stim_asymm_v5,2020.2.10,Linux x86_64,60,61025ae37ef11b136ea224fe,,,,,,,,,1845,28.31561279,66.71887207,1,0,0,response1disk,,7,7.063537598,9.323028564,1,0,0,rectangle,7.063537598,9.323028564,1,0,0,7.063537598,9.323028564,1,0,0,1,73,233,47,1,,,,,,,,
,,,,,,,,,,,,,FF,,,,,,,,0.5499,,,,,,,,,,,,,,,,,,,,,,61031048f58595acbfdf85b9,61036a5c811088540506d91f,2021-07-29_22h58.45.872,Simcolourproject_2stim_asymm_v5,2020.2.10,Linux x86_64,60,61025ae37ef11b136ea224fe,,,,,,,,,1008,36.07562256,50.953125,1,0,0,response1disk,,7,11.39978027,6.519592285,1,0,0,rectangle,11.39978027,6.519592285,1,0,0,11.39978027,6.519592285,1,0,0,1,74,234,90,1,,,,,,,,
,,,,,,,,,,,,,FF,,,,,,,,1.1986,,,,,,,,,,,,,,,,,,,,,,61031048f58595acbfdf85b9,61036a5c811088540506d91f,2021-07-29_22h58.45.872,Simcolourproject_2stim_asymm_v5,2020.2.10,Linux x86_64,60,61025ae37ef11b136ea224fe,,,,,,,,,3995,-20.61450195,-37.62191772,1,0,0,response5disk,,3,19.30529785,4.016052246,1,0,0,rectangle,19.30529785,4.016052246,1,0,0,19.30529785,4.016052246,1,0,0,1,75,235,141,1,,,,,,,,
,,,,,,,,,,,,,FF,,,,,,,,1.5639,,,,,,,,,,,,,,,,,,,,,,61031048f58595acbfdf85b9,61036a5c811088540506d91f,2021-07-29_22h58.45.872,Simcolourproject_2stim_asymm_v5,2020.2.10,Linux x86_64,60,61025ae37ef11b136ea224fe,,,,,,,,,1908,17.56591797,30.15994263,1,0,0,response1disk,,7,11.62823486,4.918518066,1,0,0,rectangle,11.62823486,4.918518066,1,0,0,11.62823486,4.918518066,1,0,0,1,76,236,135,1,,,,,,,,
,,,,,,,,,,,,,FF,,,,,,,,0.5001,,,,,,,,,,,,,,,,,,,,,,61031048f58595acbfdf85b9,61036a5c811088540506d91f,2021-07-29_22h58.45.872,Simcolourproject_2stim_asymm_v5,2020.2.10,Linux x86_64,60,61025ae37ef11b136ea224fe,,,,,,,,,3958,26.73553467,38.35183716,1,0,0,response1disk,,7,13.59204102,9.971710205,1,0,0,rectangle,13.59204102,9.971710205,1,0,0,13.59204102,9.971710205,1,0,0,1,77,237,93,1,,,,,,,,
,,,,,,,,,,,,,FF,,,,,,,,1.4492,,,,,,,,,,,,,,,,,,,,,,61031048f58595acbfdf85b9,61036a5c811088540506d91f,2021-07-29_22h58.45.872,Simcolourproject_2stim_asymm_v5,2020.2.10,Linux x86_64,60,61025ae37ef11b136ea224fe,,,,,,,,,3783,-37.89923096,-62.50137329,1,0,0,response5disk,,3,5.642150879,-9.764068604,1,0,0,rectangle,-58.45947266,-14.13726807,1,0,0,1.920898438,3.570526123,1,0,0,1,78,238,35,1,,response5disk_3,TRUE,2,2,"[244,24,243,198,39,26,233,34,99,91,224,95,140,239,123,229,185,118,60,122]",1.3807,rectangle
