key_resp.keys,key_resp.rt,key_resp_14.keys,key_resp_14.rt,key_resp_15.keys,key_resp_15.rt,key_resp_17.keys,key_resp_17.rt,key_resp_9.keys,key_resp_9.rt,key_resp_10.keys,key_resp_10.rt,practice_comparison,Ecc,mouse_5.x,mouse_5.y,mouse_5.leftButton,mouse_5.midButton,mouse_5.rightButton,mouse_5.clicked_name,pracsimilarity,response_time,mouse_10.x,mouse_10.y,mouse_10.leftButton,mouse_10.midButton,mouse_10.rightButton,mouse_10.clicked_name,mouse_7.x,mouse_7.y,mouse_7.leftButton,mouse_7.midButton,mouse_7.rightButton,mouse_6.x,mouse_6.y,mouse_6.leftButton,mouse_6.midButton,mouse_6.rightButton,duringprac.thisRepN,duringprac.thisTrialN,duringprac.thisN,duringprac.thisIndex,duringprac.ran,participant,session,date,expName,psychopyVersion,OS,frameRate,study_id,mouse_7.clicked_name,catchpracsimilarity,catch_response_time,catchnumberprac,catchtrialorderprac,mouse_6.clicked_name,key_resp_22.keys,key_resp_22.rt,realcomparison,mouse.x,mouse.y,mouse.leftButton,mouse.midButton,mouse.rightButton,mouse.clicked_name,Colour2,similarity,mouse_2.x,mouse_2.y,mouse_2.leftButton,mouse_2.midButton,mouse_2.rightButton,mouse_2.clicked_name,mouse_3.x,mouse_3.y,mouse_3.leftButton,mouse_3.midButton,mouse_3.rightButton,mouse_11.x,mouse_11.y,mouse_11.leftButton,mouse_11.midButton,mouse_11.rightButton,trials_2.thisRepN,trials_2.thisTrialN,trials_2.thisN,trials_2.thisIndex,trials_2.ran,Colour1,mouse_3.clicked_name,catchornah,catchsimilarity,catchnumber,catchtrialorder,catchRT,mouse_11.clicked_name
space,1.6651,space,15.681,space,18.129,space,14.3141,space,5.3989,space,5.321,134,FF,106.400013,119.9999954,1,0,0,response1disk_5,7,7.4759,3.200011492,9.599993706,1,0,0,rectangle_8,3.200011492,9.599993706,1,0,0,3.200011492,9.599993706,1,0,0,0,0,0,0,1,61030fd06c01209b13e99780,61036d8ff1c60369da7b77ba,2021-07-29_23h10.54.393,Simcolourproject_2stim_asymm_v5,2020.2.10,Win32,60,61025ae37ef11b136ea224fe,,,,,,,,,,,,,,,,,,,,,,,,,,,,,,,,,,,,,,,,,,,,,,
,,,,,,,,,,,,60,FF,113.6000131,31.19996961,1,0,0,response1disk_5,6,5.9001,7.200011551,3.19999361,1,0,0,rectangle_8,53.60001224,115.1999709,1,0,0,-7.199988663,-1.600006461,1,0,0,0,1,1,3,1,61030fd06c01209b13e99780,61036d8ff1c60369da7b77ba,2021-07-29_23h10.54.393,Simcolourproject_2stim_asymm_v5,2020.2.10,Win32,60,61025ae37ef11b136ea224fe,response1disk_7,7,2.7345,7,"[2,5]",rectangle_4,,,,,,,,,,,,,,,,,,,,,,,,,,,,,,,,,,,,,,,,
,,,,,,,,,,,,154,PF,99.20001292,-56.80000728,1,0,0,response3disk_5,5,2.6163,-1.59998858,4.799993634,1,0,0,rectangle_8,-1.59998858,4.799993634,1,0,0,-1.59998858,4.799993634,1,0,0,0,2,2,4,1,61030fd06c01209b13e99780,61036d8ff1c60369da7b77ba,2021-07-29_23h10.54.393,Simcolourproject_2stim_asymm_v5,2020.2.10,Win32,60,61025ae37ef11b136ea224fe,,,,,,,,,,,,,,,,,,,,,,,,,,,,,,,,,,,,,,,,,,,,,,
,,,,,,,,,,,,60,PF,95.20001286,-71.2000075,1,0,0,response3disk_5,5,1.5668,-5.599988639,6.399993658,1,0,0,rectangle_8,-5.599988639,6.399993658,1,0,0,-5.599988639,6.399993658,1,0,0,0,3,3,2,1,61030fd06c01209b13e99780,61036d8ff1c60369da7b77ba,2021-07-29_23h10.54.393,Simcolourproject_2stim_asymm_v5,2020.2.10,Win32,60,61025ae37ef11b136ea224fe,,,,,,,,,,,,,,,,,,,,,,,,,,,,,,,,,,,,,,,,,,,,,,
,,,,,,,,,,,,107,FF,-43.1999892,-72.00000751,1,0,0,response5disk_5,3,2.9006,17.60006053,0.799993575,1,0,0,rectangle_8,40.00001204,110.3999952,1,0,0,-10.39993988,-6.400006533,1,0,0,0,4,4,5,1,61030fd06c01209b13e99780,61036d8ff1c60369da7b77ba,2021-07-29_23h10.54.393,Simcolourproject_2stim_asymm_v5,2020.2.10,Win32,60,61025ae37ef11b136ea224fe,response1disk_7,7,2.6505,7,"[2,5]",rectangle_4,,,,,,,,,,,,,,,,,,,,,,,,,,,,,,,,,,,,,,,,
,,,,,,,,,,,,116,PF,-74.39994084,-42.40000707,1,0,0,response5disk_5,2,1.6472,8.000011563,2.399993598,1,0,0,rectangle_8,8.000011563,2.399993598,1,0,0,8.000011563,2.399993598,1,0,0,0,5,5,6,1,61030fd06c01209b13e99780,61036d8ff1c60369da7b77ba,2021-07-29_23h10.54.393,Simcolourproject_2stim_asymm_v5,2020.2.10,Win32,60,61025ae37ef11b136ea224fe,,,,,,,,,,,,,,,,,,,,,,,,,,,,,,,,,,,,,,,,,,,,,,
,,,,,,,,,,,,64,PF,-73.59998965,-53.60000724,1,0,0,response5disk_5,2,1.4819,4.800011516,-4.800006509,1,0,0,rectangle_8,4.800011516,-4.800006509,1,0,0,4.800011516,-4.800006509,1,0,0,0,6,6,1,1,61030fd06c01209b13e99780,61036d8ff1c60369da7b77ba,2021-07-29_23h10.54.393,Simcolourproject_2stim_asymm_v5,2020.2.10,Win32,60,61025ae37ef11b136ea224fe,,,,,,,,,,,,,,,,,,,,,,,,,,,,,,,,,,,,,,,,,,,,,,
,,,,,,,,,,,,,FF,,,,,,,,5.5844,,,,,,,,,,,,,,,,,,,,,,61030fd06c01209b13e99780,61036d8ff1c60369da7b77ba,2021-07-29_23h10.54.393,Simcolourproject_2stim_asymm_v5,2020.2.10,Win32,60,61025ae37ef11b136ea224fe,,,,,,,space,6.2502,2759,120.8000132,38.39999413,1,0,0,response1disk,,6,11.20001161,-1.600006461,1,0,0,rectangle,11.20001161,-1.600006461,1,0,0,11.20001161,-1.600006461,1,0,0,0,0,0,19,1,,,,,,,,
,,,,,,,,,,,,,FF,,,,,,,,1.5002,,,,,,,,,,,,,,,,,,,,,,61030fd06c01209b13e99780,61036d8ff1c60369da7b77ba,2021-07-29_23h10.54.393,Simcolourproject_2stim_asymm_v5,2020.2.10,Win32,60,61025ae37ef11b136ea224fe,,,,,,,,,1609,-95.19998997,63.19997009,1,0,0,response7disk,,1,-7.199988663,-1.600006461,1,0,0,rectangle,-7.199988663,-1.600006461,1,0,0,-7.199988663,-1.600006461,1,0,0,0,1,1,21,1,,,,,,,,
,,,,,,,,,,,,,FF,,,,,,,,1.4043,,,,,,,,,,,,,,,,,,,,,,61030fd06c01209b13e99780,61036d8ff1c60369da7b77ba,2021-07-29_23h10.54.393,Simcolourproject_2stim_asymm_v5,2020.2.10,Win32,60,61025ae37ef11b136ea224fe,,,,,,,,,4026,-97.59999001,27.99999398,1,0,0,response7disk,,1,-11.19998872,4.799993634,1,0,0,rectangle,-11.19998872,4.799993634,1,0,0,-11.19998872,4.799993634,1,0,0,0,2,2,118,1,,,,,,,,
,,,,,,,,,,,,,FF,,,,,,,,1.5333,,,,,,,,,,,,,,,,,,,,,,61030fd06c01209b13e99780,61036d8ff1c60369da7b77ba,2021-07-29_23h10.54.393,Simcolourproject_2stim_asymm_v5,2020.2.10,Win32,60,61025ae37ef11b136ea224fe,,,,,,,,,468,-67.99998957,-56.00000727,1,0,0,response5disk,,2,4.000011504,2.399993598,1,0,0,rectangle,4.000011504,2.399993598,1,0,0,4.000011504,2.399993598,1,0,0,0,3,3,158,1,,,,,,,,
,,,,,,,,,,,,,FF,,,,,,,,1.9838,,,,,,,,,,,,,,,,,,,,,,61030fd06c01209b13e99780,61036d8ff1c60369da7b77ba,2021-07-29_23h10.54.393,Simcolourproject_2stim_asymm_v5,2020.2.10,Win32,60,61025ae37ef11b136ea224fe,,,,,,,,,2730,-41.59998918,-104.800008,1,0,0,response5disk,,3,-11.19998872,3.19999361,1,0,0,rectangle,-39.19998914,-109.6000569,1,0,0,-12.79998875,11.99999374,1,0,0,0,4,4,127,1,,response5disk_3,TRUE,3,3,"[196,262,292,267,179,5,132,263,182,234,174,170,7,252,273,109,118,117,94,272]",2.4341,rectangle
,,,,,,,,,,,,,FF,,,,,,,,1.8713,,,,,,,,,,,,,,,,,,,,,,61030fd06c01209b13e99780,61036d8ff1c60369da7b77ba,2021-07-29_23h10.54.393,Simcolourproject_2stim_asymm_v5,2020.2.10,Win32,60,61025ae37ef11b136ea224fe,,,,,,,,,984,-31.19998902,-106.400008,1,0,0,response5disk,,3,-11.19998872,11.99999374,1,0,0,rectangle,-11.19998872,11.99999374,1,0,0,-11.19998872,11.99999374,1,0,0,0,5,5,62,1,,,,,,,,
,,,,,,,,,,,,,FF,,,,,,,,1.6542,,,,,,,,,,,,,,,,,,,,,,61030fd06c01209b13e99780,61036d8ff1c60369da7b77ba,2021-07-29_23h10.54.393,Simcolourproject_2stim_asymm_v5,2020.2.10,Win32,60,61025ae37ef11b136ea224fe,,,,,,,,,3134,114.4000131,48.79999429,1,0,0,response1disk,,6,-16.79998881,5.599993646,1,0,0,rectangle,49.60006101,-112.0000081,1,0,0,-19.99998885,3.19999361,1,0,0,0,6,6,134,1,,response3disk_3,TRUE,4,4,"[196,262,292,267,179,5,132,263,182,234,174,170,7,252,273,109,118,117,94,272]",2.1664,rectangle
,,,,,,,,,,,,,FF,,,,,,,,2.4836,,,,,,,,,,,,,,,,,,,,,,61030fd06c01209b13e99780,61036d8ff1c60369da7b77ba,2021-07-29_23h10.54.393,Simcolourproject_2stim_asymm_v5,2020.2.10,Win32,60,61025ae37ef11b136ea224fe,,,,,,,,,480,94.40001285,29.599994,1,0,0,response1disk,,6,-11.99998873,-6.400006533,1,0,0,rectangle,-11.99998873,-6.400006533,1,0,0,-11.99998873,-6.400006533,1,0,0,0,7,7,133,1,,,,,,,,
,,,,,,,,,,,,,FF,,,,,,,,2.017,,,,,,,,,,,,,,,,,,,,,,61030fd06c01209b13e99780,61036d8ff1c60369da7b77ba,2021-07-29_23h10.54.393,Simcolourproject_2stim_asymm_v5,2020.2.10,Win32,60,61025ae37ef11b136ea224fe,,,,,,,,,1997,130.4000134,28.79999399,1,0,0,response1disk,,6,6.400011539,-8.000006557,1,0,0,rectangle,6.400011539,-8.000006557,1,0,0,6.400011539,-8.000006557,1,0,0,0,8,8,108,1,,,,,,,,
,,,,,,,,,,,,,FF,,,,,,,,1.804,,,,,,,,,,,,,,,,,,,,,,61030fd06c01209b13e99780,61036d8ff1c60369da7b77ba,2021-07-29_23h10.54.393,Simcolourproject_2stim_asymm_v5,2020.2.10,Win32,60,61025ae37ef11b136ea224fe,,,,,,,,,744,99.20001292,-64.00000739,1,0,0,response3disk,,5,-15.19998878,9.599993706,1,0,0,rectangle,-15.19998878,9.599993706,1,0,0,-15.19998878,9.599993706,1,0,0,0,9,9,129,1,,,,,,,,
,,,,,,,,,,,,,FF,,,,,,,,4.1709,,,,,,,,,,,,,,,,,,,,,,61030fd06c01209b13e99780,61036d8ff1c60369da7b77ba,2021-07-29_23h10.54.393,Simcolourproject_2stim_asymm_v5,2020.2.10,Win32,60,61025ae37ef11b136ea224fe,,,,,,,,,1895,-99.99999005,32.79999405,1,0,0,response7disk,,1,-21.59998888,-6.400006533,1,0,0,rectangle,-21.59998888,-6.400006533,1,0,0,-21.59998888,-6.400006533,1,0,0,0,10,10,78,1,,,,,,,,
,,,,,,,,,,,,,FF,,,,,,,,2.0002,,,,,,,,,,,,,,,,,,,,,,61030fd06c01209b13e99780,61036d8ff1c60369da7b77ba,2021-07-29_23h10.54.393,Simcolourproject_2stim_asymm_v5,2020.2.10,Win32,60,61025ae37ef11b136ea224fe,,,,,,,,,3096,-43.99998921,98.39999503,1,0,0,response7disk,,0,-11.19998872,0.799993575,1,0,0,rectangle,-11.19998872,0.799993575,1,0,0,-11.19998872,0.799993575,1,0,0,0,11,11,159,1,,,,,,,,
,,,,,,,,,,,,,FF,,,,,,,,3.9333,,,,,,,,,,,,,,,,,,,,,,61030fd06c01209b13e99780,61036d8ff1c60369da7b77ba,2021-07-29_23h10.54.393,Simcolourproject_2stim_asymm_v5,2020.2.10,Win32,60,61025ae37ef11b136ea224fe,,,,,,,,,561,40.00001204,-116.8000082,0,0,1,response3disk,,4,-13.59998876,-4.800006509,1,0,0,rectangle,-13.59998876,-4.800006509,1,0,0,-13.59998876,-4.800006509,1,0,0,0,12,12,77,1,,,,,,,,
,,,,,,,,,,,,,FF,,,,,,,,2.7669,,,,,,,,,,,,,,,,,,,,,,61030fd06c01209b13e99780,61036d8ff1c60369da7b77ba,2021-07-29_23h10.54.393,Simcolourproject_2stim_asymm_v5,2020.2.10,Win32,60,61025ae37ef11b136ea224fe,,,,,,,,,1180,108.8000131,41.59999418,1,0,0,response1disk,,6,-13.59998876,-8.800006568,1,0,0,rectangle,-13.59998876,-8.800006568,1,0,0,-13.59998876,-8.800006568,1,0,0,0,13,13,36,1,,,,,,,,
,,,,,,,,,,,,,FF,,,,,,,,4.3836,,,,,,,,,,,,,,,,,,,,,,61030fd06c01209b13e99780,61036d8ff1c60369da7b77ba,2021-07-29_23h10.54.393,Simcolourproject_2stim_asymm_v5,2020.2.10,Win32,60,61025ae37ef11b136ea224fe,,,,,,,,,2578,96.00001287,-46.40000713,1,0,0,response3disk,,5,-3.199988604,1.599993587,1,0,0,rectangle,-3.199988604,1.599993587,1,0,0,-3.199988604,1.599993587,1,0,0,0,14,14,110,1,,,,,,,,
,,,,,,,,,,,,,FF,,,,,,,,1.071,,,,,,,,,,,,,,,,,,,,,,61030fd06c01209b13e99780,61036d8ff1c60369da7b77ba,2021-07-29_23h10.54.393,Simcolourproject_2stim_asymm_v5,2020.2.10,Win32,60,61025ae37ef11b136ea224fe,,,,,,,,,2146,88.80001277,-40.80000705,1,0,0,response3disk,,5,9.600060415,-3.200006485,1,0,0,rectangle,9.600060415,-3.200006485,1,0,0,9.600060415,-3.200006485,1,0,0,0,15,15,30,1,,,,,,,,
,,,,,,,,,,,,,FF,,,,,,,,1.7674,,,,,,,,,,,,,,,,,,,,,,61030fd06c01209b13e99780,61036d8ff1c60369da7b77ba,2021-07-29_23h10.54.393,Simcolourproject_2stim_asymm_v5,2020.2.10,Win32,60,61025ae37ef11b136ea224fe,,,,,,,,,3940,-96.79999,-48.80000716,1,0,0,response5disk,,2,4.000011504,3.19999361,1,0,0,rectangle,4.000011504,3.19999361,1,0,0,4.000011504,3.19999361,1,0,0,0,16,16,121,1,,,,,,,,
,,,,,,,,,,,,,FF,,,,,,,,1.355,,,,,,,,,,,,,,,,,,,,,,61030fd06c01209b13e99780,61036d8ff1c60369da7b77ba,2021-07-29_23h10.54.393,Simcolourproject_2stim_asymm_v5,2020.2.10,Win32,60,61025ae37ef11b136ea224fe,,,,,,,,,2232,-95.19998997,-32.80000693,1,0,0,response5disk,,2,4.800011516,-5.600006521,1,0,0,rectangle,4.800011516,-5.600006521,1,0,0,4.800011516,-5.600006521,1,0,0,0,17,17,144,1,,,,,,,,
,,,,,,,,,,,,,FF,,,,,,,,1.0172,,,,,,,,,,,,,,,,,,,,,,61030fd06c01209b13e99780,61036d8ff1c60369da7b77ba,2021-07-29_23h10.54.393,Simcolourproject_2stim_asymm_v5,2020.2.10,Win32,60,61025ae37ef11b136ea224fe,,,,,,,,,1825,-108.7999902,-41.60000706,1,0,0,response5disk,,2,16.80001169,-3.200006485,1,0,0,rectangle,16.80001169,-3.200006485,1,0,0,16.80001169,-3.200006485,1,0,0,0,18,18,10,1,,,,,,,,
,,,,,,,,,,,,,FF,,,,,,,,1.4377,,,,,,,,,,,,,,,,,,,,,,61030fd06c01209b13e99780,61036d8ff1c60369da7b77ba,2021-07-29_23h10.54.393,Simcolourproject_2stim_asymm_v5,2020.2.10,Win32,60,61025ae37ef11b136ea224fe,,,,,,,,,3972,-92.79998994,-40.80000705,1,0,0,response5disk,,2,-8.799988687,-4.000006497,1,0,0,rectangle,-8.799988687,-4.000006497,1,0,0,-8.799988687,-4.000006497,1,0,0,0,19,19,135,1,,,,,,,,
,,,,,,,,,,,,,FF,,,,,,,,1.5004,,,,,,,,,,,,,,,,,,,,,,61030fd06c01209b13e99780,61036d8ff1c60369da7b77ba,2021-07-29_23h10.54.393,Simcolourproject_2stim_asymm_v5,2020.2.10,Win32,60,61025ae37ef11b136ea224fe,,,,,,,,,1062,28.80001187,-105.6000568,1,0,0,response3disk,,4,-16.79998881,15.19999379,1,0,0,rectangle,-16.79998881,15.19999379,1,0,0,-16.79998881,15.19999379,1,0,0,0,20,20,112,1,,,,,,,,
,,,,,,,,,,,,,FF,,,,,,,,1.163,,,,,,,,,,,,,,,,,,,,,,61030fd06c01209b13e99780,61036d8ff1c60369da7b77ba,2021-07-29_23h10.54.393,Simcolourproject_2stim_asymm_v5,2020.2.10,Win32,60,61025ae37ef11b136ea224fe,,,,,,,,,1455,-103.1999901,-32.00000691,1,0,0,response5disk,,2,19.20001173,-0.800006449,1,0,0,rectangle,19.20001173,-0.800006449,1,0,0,19.20001173,-0.800006449,1,0,0,0,21,21,128,1,,,,,,,,
,,,,,,,,,,,,,FF,,,,,,,,1.563,,,,,,,,,,,,,,,,,,,,,,61030fd06c01209b13e99780,61036d8ff1c60369da7b77ba,2021-07-29_23h10.54.393,Simcolourproject_2stim_asymm_v5,2020.2.10,Win32,60,61025ae37ef11b136ea224fe,,,,,,,,,291,40.80001205,-104.000008,1,0,0,response3disk,,4,-17.59998882,-1.600006461,1,0,0,rectangle,-17.59998882,-1.600006461,1,0,0,-17.59998882,-1.600006461,1,0,0,0,22,22,31,1,,,,,,,,
,,,,,,,,,,,,,FF,,,,,,,,1.2835,,,,,,,,,,,,,,,,,,,,,,61030fd06c01209b13e99780,61036d8ff1c60369da7b77ba,2021-07-29_23h10.54.393,Simcolourproject_2stim_asymm_v5,2020.2.10,Win32,60,61025ae37ef11b136ea224fe,,,,,,,,,1050,-24.79998893,99.99999505,1,0,0,response7disk,,0,11.20001161,-6.400006533,1,0,0,rectangle,11.20001161,-6.400006533,1,0,0,11.20001161,-6.400006533,1,0,0,0,23,23,42,1,,,,,,,,
,,,,,,,,,,,,,FF,,,,,,,,3.1334,,,,,,,,,,,,,,,,,,,,,,61030fd06c01209b13e99780,61036d8ff1c60369da7b77ba,2021-07-29_23h10.54.393,Simcolourproject_2stim_asymm_v5,2020.2.10,Win32,60,61025ae37ef11b136ea224fe,,,,,,,,,3931,91.2000128,-53.60000724,1,0,0,response3disk,,5,-3.199988604,3.19999361,1,0,0,rectangle,-3.199988604,3.19999361,1,0,0,-3.199988604,3.19999361,1,0,0,0,24,24,139,1,,,,,,,,
,,,,,,,,,,,,,FF,,,,,,,,1.9379,,,,,,,,,,,,,,,,,,,,,,61030fd06c01209b13e99780,61036d8ff1c60369da7b77ba,2021-07-29_23h10.54.393,Simcolourproject_2stim_asymm_v5,2020.2.10,Win32,60,61025ae37ef11b136ea224fe,,,,,,,,,2481,-91.19998991,49.5999943,1,0,0,response7disk,,1,12.80001163,9.599993706,1,0,0,rectangle,12.80001163,9.599993706,1,0,0,12.80001163,9.599993706,1,0,0,0,25,25,130,1,,,,,,,,
,,,,,,,,,,,,,FF,,,,,,,,1.3047,,,,,,,,,,,,,,,,,,,,,,61030fd06c01209b13e99780,61036d8ff1c60369da7b77ba,2021-07-29_23h10.54.393,Simcolourproject_2stim_asymm_v5,2020.2.10,Win32,60,61025ae37ef11b136ea224fe,,,,,,,,,4223,-85.59998983,-51.2000072,1,0,0,response5disk,,2,4.000011504,-16.00000668,1,0,0,rectangle,4.000011504,-16.00000668,1,0,0,4.000011504,-16.00000668,1,0,0,0,26,26,32,1,,,,,,,,
,,,,,,,,,,,,,FF,,,,,,,,2.4001,,,,,,,,,,,,,,,,,,,,,,61030fd06c01209b13e99780,61036d8ff1c60369da7b77ba,2021-07-29_23h10.54.393,Simcolourproject_2stim_asymm_v5,2020.2.10,Win32,60,61025ae37ef11b136ea224fe,,,,,,,,,3052,111.2000131,-49.60000718,1,0,0,response3disk,,5,-23.99998891,14.39999378,1,0,0,rectangle,-23.99998891,14.39999378,1,0,0,-23.99998891,14.39999378,1,0,0,0,27,27,22,1,,,,,,,,
,,,,,,,,,,,,,FF,,,,,,,,1.4719,,,,,,,,,,,,,,,,,,,,,,61030fd06c01209b13e99780,61036d8ff1c60369da7b77ba,2021-07-29_23h10.54.393,Simcolourproject_2stim_asymm_v5,2020.2.10,Win32,60,61025ae37ef11b136ea224fe,,,,,,,,,2286,64.0000124,-128.0000083,1,0,0,response3disk,,4,-23.1999889,11.19999373,1,0,0,rectangle,-23.1999889,11.19999373,1,0,0,-23.1999889,11.19999373,1,0,0,0,28,28,28,1,,,,,,,,
,,,,,,,,,,,,,FF,,,,,,,,1.1667,,,,,,,,,,,,,,,,,,,,,,61030fd06c01209b13e99780,61036d8ff1c60369da7b77ba,2021-07-29_23h10.54.393,Simcolourproject_2stim_asymm_v5,2020.2.10,Win32,60,61025ae37ef11b136ea224fe,,,,,,,,,2423,-39.19998914,-116.0000082,1,0,0,response5disk,,3,-9.599988699,-2.400006473,1,0,0,rectangle,-9.599988699,-2.400006473,1,0,0,-9.599988699,-2.400006473,1,0,0,0,29,29,54,1,,,,,,,,
,,,,,,,,,,,,,FF,,,,,,,,1.2166,,,,,,,,,,,,,,,,,,,,,,61030fd06c01209b13e99780,61036d8ff1c60369da7b77ba,2021-07-29_23h10.54.393,Simcolourproject_2stim_asymm_v5,2020.2.10,Win32,60,61025ae37ef11b136ea224fe,,,,,,,,,4188,50.4000122,-134.4000084,1,0,0,response3disk,,4,-3.199988604,-2.400006473,1,0,0,rectangle,-3.199988604,-2.400006473,1,0,0,-3.199988604,-2.400006473,1,0,0,0,30,30,105,1,,,,,,,,
,,,,,,,,,,,,,FF,,,,,,,,1.0838,,,,,,,,,,,,,,,,,,,,,,61030fd06c01209b13e99780,61036d8ff1c60369da7b77ba,2021-07-29_23h10.54.393,Simcolourproject_2stim_asymm_v5,2020.2.10,Win32,60,61025ae37ef11b136ea224fe,,,,,,,,,885,-32.79998904,120.7999954,1,0,0,response7disk,,0,2.40001148,3.19999361,1,0,0,rectangle,2.40001148,3.19999361,1,0,0,2.40001148,3.19999361,1,0,0,0,31,31,155,1,,,,,,,,
,,,,,,,,,,,,,FF,,,,,,,,1.0837,,,,,,,,,,,,,,,,,,,,,,61030fd06c01209b13e99780,61036d8ff1c60369da7b77ba,2021-07-29_23h10.54.393,Simcolourproject_2stim_asymm_v5,2020.2.10,Win32,60,61025ae37ef11b136ea224fe,,,,,,,,,3906,-39.19998914,96.79999501,1,0,0,response7disk,,0,-1.59998858,1.599993587,1,0,0,rectangle,-1.59998858,1.599993587,1,0,0,-1.59998858,1.599993587,1,0,0,0,32,32,82,1,,,,,,,,
,,,,,,,,,,,,,FF,,,,,,,,2.0334,,,,,,,,,,,,,,,,,,,,,,61030fd06c01209b13e99780,61036d8ff1c60369da7b77ba,2021-07-29_23h10.54.393,Simcolourproject_2stim_asymm_v5,2020.2.10,Win32,60,61025ae37ef11b136ea224fe,,,,,,,,,3285,31.20001191,-112.8000081,1,0,0,response3disk,,4,-13.59998876,6.399993658,1,0,0,rectangle,-13.59998876,6.399993658,1,0,0,-13.59998876,6.399993658,1,0,0,0,33,33,1,1,,,,,,,,
,,,,,,,,,,,,,FF,,,,,,,,1.5382,,,,,,,,,,,,,,,,,,,,,,61030fd06c01209b13e99780,61036d8ff1c60369da7b77ba,2021-07-29_23h10.54.393,Simcolourproject_2stim_asymm_v5,2020.2.10,Win32,60,61025ae37ef11b136ea224fe,,,,,,,,,1249,75.20001256,37.59999412,1,0,0,response1disk,,6,2.40001148,-6.4373E-06,1,0,0,rectangle,2.40001148,-6.4373E-06,1,0,0,2.40001148,-6.4373E-06,1,0,0,0,34,34,90,1,,,,,,,,
,,,,,,,,,,,,,FF,,,,,,,,1.3836,,,,,,,,,,,,,,,,,,,,,,61030fd06c01209b13e99780,61036d8ff1c60369da7b77ba,2021-07-29_23h10.54.393,Simcolourproject_2stim_asymm_v5,2020.2.10,Win32,60,61025ae37ef11b136ea224fe,,,,,,,,,2583,114.4000131,30.39999402,1,0,0,response1disk,,6,24.80001181,-5.600006521,1,0,0,rectangle,24.80001181,-5.600006521,1,0,0,24.80001181,-5.600006521,1,0,0,0,35,35,4,1,,,,,,,,
,,,,,,,,,,,,,FF,,,,,,,,1.3168,,,,,,,,,,,,,,,,,,,,,,61030fd06c01209b13e99780,61036d8ff1c60369da7b77ba,2021-07-29_23h10.54.393,Simcolourproject_2stim_asymm_v5,2020.2.10,Win32,60,61025ae37ef11b136ea224fe,,,,,,,,,1810,-47.99998927,-96.00000787,1,0,0,response5disk,,3,12.80001163,13.59999377,1,0,0,rectangle,12.80001163,13.59999377,1,0,0,12.80001163,13.59999377,1,0,0,0,36,36,69,1,,,,,,,,
,,,,,,,,,,,,,FF,,,,,,,,4.3376,,,,,,,,,,,,,,,,,,,,,,61030fd06c01209b13e99780,61036d8ff1c60369da7b77ba,2021-07-29_23h10.54.393,Simcolourproject_2stim_asymm_v5,2020.2.10,Win32,60,61025ae37ef11b136ea224fe,,,,,,,,,2001,124.0000133,-57.6000073,1,0,0,response3disk,,5,7.200011551,-4.000006497,1,0,0,rectangle,7.200011551,-4.000006497,1,0,0,7.200011551,-4.000006497,1,0,0,0,37,37,53,1,,,,,,,,
,,,,,,,,,,,,,FF,,,,,,,,1.4043,,,,,,,,,,,,,,,,,,,,,,61030fd06c01209b13e99780,61036d8ff1c60369da7b77ba,2021-07-29_23h10.54.393,Simcolourproject_2stim_asymm_v5,2020.2.10,Win32,60,61025ae37ef11b136ea224fe,,,,,,,,,1275,71.20001251,-48.80000716,1,0,0,response3disk,,5,15.20001167,-12.00000662,1,0,0,rectangle,15.20001167,-12.00000662,1,0,0,15.20001167,-12.00000662,1,0,0,0,38,38,15,1,,,,,,,,
,,,,,,,,,,,,,FF,,,,,,,,1.7168,,,,,,,,,,,,,,,,,,,,,,61030fd06c01209b13e99780,61036d8ff1c60369da7b77ba,2021-07-29_23h10.54.393,Simcolourproject_2stim_asymm_v5,2020.2.10,Win32,60,61025ae37ef11b136ea224fe,,,,,,,,,1039,50.4000122,-114.4000081,1,0,0,response3disk,,4,-14.39993994,-6.400006533,1,0,0,rectangle,-14.39993994,-6.400006533,1,0,0,-14.39993994,-6.400006533,1,0,0,0,39,39,6,1,,,,,,,,
,,,,,,,,,,,,,FF,,,,,,,,2.0675,,,,,,,,,,,,,,,,,,,,,,61030fd06c01209b13e99780,61036d8ff1c60369da7b77ba,2021-07-29_23h10.54.393,Simcolourproject_2stim_asymm_v5,2020.2.10,Win32,60,61025ae37ef11b136ea224fe,,,,,,,,,0,-37.59998912,84.79999483,1,0,0,response7disk,,0,-2.399939764,4.799993634,1,0,0,rectangle,-2.399939764,4.799993634,1,0,0,-2.399939764,4.799993634,1,0,0,0,40,40,81,1,,,,,,,,
,,,,,,,,,,,,,FF,,,,,,,,1.5008,,,,,,,,,,,,,,,,,,,,,,61030fd06c01209b13e99780,61036d8ff1c60369da7b77ba,2021-07-29_23h10.54.393,Simcolourproject_2stim_asymm_v5,2020.2.10,Win32,60,61025ae37ef11b136ea224fe,,,,,,,,,3009,59.20001233,104.7999951,1,0,0,response1disk,,7,1.600060296,3.999993622,1,0,0,rectangle,1.600060296,3.999993622,1,0,0,1.600060296,3.999993622,1,0,0,0,41,41,157,1,,,,,,,,
,,,,,,,,,,,,,FF,,,,,,,,1.6003,,,,,,,,,,,,,,,,,,,,,,61030fd06c01209b13e99780,61036d8ff1c60369da7b77ba,2021-07-29_23h10.54.393,Simcolourproject_2stim_asymm_v5,2020.2.10,Win32,60,61025ae37ef11b136ea224fe,,,,,,,,,1500,88.80001277,-44.00000709,1,0,0,response3disk,,5,4.000011504,16.79999381,1,0,0,rectangle,4.000011504,16.79999381,1,0,0,4.000011504,16.79999381,1,0,0,0,42,42,14,1,,,,,,,,
,,,,,,,,,,,,,FF,,,,,,,,1.1165,,,,,,,,,,,,,,,,,,,,,,61030fd06c01209b13e99780,61036d8ff1c60369da7b77ba,2021-07-29_23h10.54.393,Simcolourproject_2stim_asymm_v5,2020.2.10,Win32,60,61025ae37ef11b136ea224fe,,,,,,,,,1962,-103.1999901,-33.60000694,1,0,0,response5disk,,2,-1.59998858,-12.00000662,1,0,0,rectangle,-1.59998858,-12.00000662,1,0,0,-1.59998858,-12.00000662,1,0,0,0,43,43,106,1,,,,,,,,
,,,,,,,,,,,,,FF,,,,,,,,1.1671,,,,,,,,,,,,,,,,,,,,,,61030fd06c01209b13e99780,61036d8ff1c60369da7b77ba,2021-07-29_23h10.54.393,Simcolourproject_2stim_asymm_v5,2020.2.10,Win32,60,61025ae37ef11b136ea224fe,,,,,,,,,1393,65.60001242,-110.4000081,1,0,0,response3disk,,4,0.800011456,-1.600006461,1,0,0,rectangle,0.800011456,-1.600006461,1,0,0,0.800011456,-1.600006461,1,0,0,0,44,44,39,1,,,,,,,,
,,,,,,,,,,,,,FF,,,,,,,,3.6042,,,,,,,,,,,,,,,,,,,,,,61030fd06c01209b13e99780,61036d8ff1c60369da7b77ba,2021-07-29_23h10.54.393,Simcolourproject_2stim_asymm_v5,2020.2.10,Win32,60,61025ae37ef11b136ea224fe,,,,,,,,,4039,49.60006101,-68.00000745,1,0,0,response3disk,,4,-4.799988627,-6.4373E-06,1,0,0,rectangle,-4.799988627,-6.4373E-06,1,0,0,-4.799988627,-6.4373E-06,1,0,0,0,45,45,41,1,,,,,,,,
,,,,,,,,,,,,,FF,,,,,,,,2.0002,,,,,,,,,,,,,,,,,,,,,,61030fd06c01209b13e99780,61036d8ff1c60369da7b77ba,2021-07-29_23h10.54.393,Simcolourproject_2stim_asymm_v5,2020.2.10,Win32,60,61025ae37ef11b136ea224fe,,,,,,,,,1095,56.80001229,89.5999949,1,0,0,response1disk,,7,11.20001161,-1.600006461,1,0,0,rectangle,11.20001161,-1.600006461,1,0,0,11.20001161,-1.600006461,1,0,0,0,46,46,138,1,,,,,,,,
,,,,,,,,,,,,,FF,,,,,,,,2.2002,,,,,,,,,,,,,,,,,,,,,,61030fd06c01209b13e99780,61036d8ff1c60369da7b77ba,2021-07-29_23h10.54.393,Simcolourproject_2stim_asymm_v5,2020.2.10,Win32,60,61025ae37ef11b136ea224fe,,,,,,,,,1277,57.6000123,101.5999951,1,0,0,response1disk,,7,-3.199988604,-5.600006521,1,0,0,rectangle,-3.199988604,-5.600006521,1,0,0,-3.199988604,-5.600006521,1,0,0,0,47,47,2,1,,,,,,,,
,,,,,,,,,,,,,FF,,,,,,,,1.9502,,,,,,,,,,,,,,,,,,,,,,61030fd06c01209b13e99780,61036d8ff1c60369da7b77ba,2021-07-29_23h10.54.393,Simcolourproject_2stim_asymm_v5,2020.2.10,Win32,60,61025ae37ef11b136ea224fe,,,,,,,,,1932,92.80001283,45.59999424,1,0,0,response1disk,,6,10.4000116,-10.40000659,1,0,0,rectangle,10.4000116,-10.40000659,1,0,0,10.4000116,-10.40000659,1,0,0,0,48,48,124,1,,,,,,,,
,,,,,,,,,,,,,FF,,,,,,,,2.9502,,,,,,,,,,,,,,,,,,,,,,61030fd06c01209b13e99780,61036d8ff1c60369da7b77ba,2021-07-29_23h10.54.393,Simcolourproject_2stim_asymm_v5,2020.2.10,Win32,60,61025ae37ef11b136ea224fe,,,,,,,,,304,86.40001273,-36.80000699,1,0,0,response3disk,,5,-11.19998872,-0.800006449,1,0,0,rectangle,-11.19998872,-0.800006449,1,0,0,-11.19998872,-0.800006449,1,0,0,0,49,49,50,1,,,,,,,,
,,,,,,,,,,,,,FF,,,,,,,,1.4668,,,,,,,,,,,,,,,,,,,,,,61030fd06c01209b13e99780,61036d8ff1c60369da7b77ba,2021-07-29_23h10.54.393,Simcolourproject_2stim_asymm_v5,2020.2.10,Win32,60,61025ae37ef11b136ea224fe,,,,,,,,,2389,124.0000133,68.79999459,1,0,0,response1disk,,6,-1.59998858,3.999993622,1,0,0,rectangle,-1.59998858,3.999993622,1,0,0,-1.59998858,3.999993622,1,0,0,0,50,50,114,1,,,,,,,,
,,,,,,,,,,,,,FF,,,,,,,,1.4167,,,,,,,,,,,,,,,,,,,,,,61030fd06c01209b13e99780,61036d8ff1c60369da7b77ba,2021-07-29_23h10.54.393,Simcolourproject_2stim_asymm_v5,2020.2.10,Win32,60,61025ae37ef11b136ea224fe,,,,,,,,,3970,-48.79998928,-100.0000079,1,0,0,response5disk,,3,-9.599988699,4.799993634,1,0,0,rectangle,-9.599988699,4.799993634,1,0,0,-9.599988699,4.799993634,1,0,0,0,51,51,94,1,,,,,,,,
,,,,,,,,,,,,,FF,,,,,,,,2.0338,,,,,,,,,,,,,,,,,,,,,,61030fd06c01209b13e99780,61036d8ff1c60369da7b77ba,2021-07-29_23h10.54.393,Simcolourproject_2stim_asymm_v5,2020.2.10,Win32,60,61025ae37ef11b136ea224fe,,,,,,,,,988,106.400013,-68.80000746,1,0,0,response3disk,,5,8.800011575,7.19999367,1,0,0,rectangle,8.800011575,7.19999367,1,0,0,8.800011575,7.19999367,1,0,0,0,52,52,104,1,,,,,,,,
,,,,,,,,,,,,,FF,,,,,,,,3.1838,,,,,,,,,,,,,,,,,,,,,,61030fd06c01209b13e99780,61036d8ff1c60369da7b77ba,2021-07-29_23h10.54.393,Simcolourproject_2stim_asymm_v5,2020.2.10,Win32,60,61025ae37ef11b136ea224fe,,,,,,,,,3420,42.40001208,-85.60005654,1,0,0,response3disk,,4,-19.99998885,3.999993622,1,0,0,rectangle,-19.99998885,3.999993622,1,0,0,-19.99998885,3.999993622,1,0,0,0,53,53,141,1,,,,,,,,
,,,,,,,,,,,,,FF,,,,,,,,1.2832,,,,,,,,,,,,,,,,,,,,,,61030fd06c01209b13e99780,61036d8ff1c60369da7b77ba,2021-07-29_23h10.54.393,Simcolourproject_2stim_asymm_v5,2020.2.10,Win32,60,61025ae37ef11b136ea224fe,,,,,,,,,233,70.40001249,19.99999386,1,0,0,response1disk,,6,26.40001184,-0.800006449,1,0,0,rectangle,26.40001184,-0.800006449,1,0,0,26.40001184,-0.800006449,1,0,0,0,54,54,131,1,,,,,,,,
,,,,,,,,,,,,,FF,,,,,,,,1.1499,,,,,,,,,,,,,,,,,,,,,,61030fd06c01209b13e99780,61036d8ff1c60369da7b77ba,2021-07-29_23h10.54.393,Simcolourproject_2stim_asymm_v5,2020.2.10,Win32,60,61025ae37ef11b136ea224fe,,,,,,,,,169,-48.79998928,-92.00000781,1,0,0,response5disk,,3,4.800011516,15.9999938,1,0,0,rectangle,4.800011516,15.9999938,1,0,0,4.800011516,15.9999938,1,0,0,0,55,55,34,1,,,,,,,,
,,,,,,,,,,,,,FF,,,,,,,,1.0667,,,,,,,,,,,,,,,,,,,,,,61030fd06c01209b13e99780,61036d8ff1c60369da7b77ba,2021-07-29_23h10.54.393,Simcolourproject_2stim_asymm_v5,2020.2.10,Win32,60,61025ae37ef11b136ea224fe,,,,,,,,,768,80.80001265,-64.8000074,1,0,0,response3disk,,5,-1.59998858,5.599993646,1,0,0,rectangle,-1.59998858,5.599993646,1,0,0,-1.59998858,5.599993646,1,0,0,0,56,56,61,1,,,,,,,,
,,,,,,,,,,,,,FF,,,,,,,,2.0832,,,,,,,,,,,,,,,,,,,,,,61030fd06c01209b13e99780,61036d8ff1c60369da7b77ba,2021-07-29_23h10.54.393,Simcolourproject_2stim_asymm_v5,2020.2.10,Win32,60,61025ae37ef11b136ea224fe,,,,,,,,,2225,34.40001196,85.59999484,1,0,0,response1disk,,7,5.600060356,9.599993706,1,0,0,rectangle,5.600060356,9.599993706,1,0,0,5.600060356,9.599993706,1,0,0,0,57,57,47,1,,,,,,,,
,,,,,,,,,,,,,FF,,,,,,,,1.8875,,,,,,,,,,,,,,,,,,,,,,61030fd06c01209b13e99780,61036d8ff1c60369da7b77ba,2021-07-29_23h10.54.393,Simcolourproject_2stim_asymm_v5,2020.2.10,Win32,60,61025ae37ef11b136ea224fe,,,,,,,,,1493,104.000013,-35.20000696,1,0,0,response3disk,,5,24.80001181,-1.600006461,1,0,0,rectangle,24.80001181,-1.600006461,1,0,0,24.80001181,-1.600006461,1,0,0,0,58,58,145,1,,,,,,,,
,,,,,,,,,,,,,FF,,,,,,,,3.2002,,,,,,,,,,,,,,,,,,,,,,61030fd06c01209b13e99780,61036d8ff1c60369da7b77ba,2021-07-29_23h10.54.393,Simcolourproject_2stim_asymm_v5,2020.2.10,Win32,60,61025ae37ef11b136ea224fe,,,,,,,,,4113,39.20001203,-91.2000078,1,0,0,response3disk,,4,2.40001148,11.99999374,1,0,0,rectangle,2.40001148,11.99999374,1,0,0,2.40001148,11.99999374,1,0,0,0,59,59,74,1,,,,,,,,
,,,,,,,,,,,,,FF,,,,,,,,5.4669,,,,,,,,,,,,,,,,,,,,,,61030fd06c01209b13e99780,61036d8ff1c60369da7b77ba,2021-07-29_23h10.54.393,Simcolourproject_2stim_asymm_v5,2020.2.10,Win32,60,61025ae37ef11b136ea224fe,,,,,,,,,3079,91.2000128,35.19996967,1,0,0,response1disk,,6,-8.799988687,3.999993622,1,0,0,rectangle,-8.799988687,3.999993622,1,0,0,-8.799988687,3.999993622,1,0,0,0,60,60,85,1,,,,,,,,
,,,,,,,,,,,,,FF,,,,,,,,1.5297,,,,,,,,,,,,,,,,,,,,,,61030fd06c01209b13e99780,61036d8ff1c60369da7b77ba,2021-07-29_23h10.54.393,Simcolourproject_2stim_asymm_v5,2020.2.10,Win32,60,61025ae37ef11b136ea224fe,,,,,,,,,655,-39.99998915,-97.60005672,1,0,0,response5disk,,3,4.000011504,-7.200006545,1,0,0,rectangle,4.000011504,-7.200006545,1,0,0,4.000011504,-7.200006545,1,0,0,0,61,61,24,1,,,,,,,,
,,,,,,,,,,,,,FF,,,,,,,,3.6665,,,,,,,,,,,,,,,,,,,,,,61030fd06c01209b13e99780,61036d8ff1c60369da7b77ba,2021-07-29_23h10.54.393,Simcolourproject_2stim_asymm_v5,2020.2.10,Win32,60,61025ae37ef11b136ea224fe,,,,,,,,,2637,34.40001196,-56.80000728,1,0,0,response3disk,,4,-10.39993988,11.99999374,1,0,0,rectangle,-10.39993988,11.99999374,1,0,0,-10.39993988,11.99999374,1,0,0,0,62,62,65,1,,,,,,,,
,,,,,,,,,,,,,FF,,,,,,,,2.771,,,,,,,,,,,,,,,,,,,,,,61030fd06c01209b13e99780,61036d8ff1c60369da7b77ba,2021-07-29_23h10.54.393,Simcolourproject_2stim_asymm_v5,2020.2.10,Win32,60,61025ae37ef11b136ea224fe,,,,,,,,,3166,89.60001278,-56.80000728,1,0,0,response3disk,,5,16.00001168,-4.800006509,1,0,0,rectangle,16.00001168,-4.800006509,1,0,0,16.00001168,-4.800006509,1,0,0,0,63,63,153,1,,,,,,,,
,,,,,,,,,,,,,FF,,,,,,,,1.2169,,,,,,,,,,,,,,,,,,,,,,61030fd06c01209b13e99780,61036d8ff1c60369da7b77ba,2021-07-29_23h10.54.393,Simcolourproject_2stim_asymm_v5,2020.2.10,Win32,60,61025ae37ef11b136ea224fe,,,,,,,,,2674,-44.79998922,-124.0000083,1,0,0,response5disk,,3,-30.39994018,-8.800006568,1,0,0,rectangle,-30.39994018,-8.800006568,1,0,0,-30.39994018,-8.800006568,1,0,0,0,64,64,100,1,,,,,,,,
,,,,,,,,,,,,,FF,,,,,,,,1.0516,,,,,,,,,,,,,,,,,,,,,,61030fd06c01209b13e99780,61036d8ff1c60369da7b77ba,2021-07-29_23h10.54.393,Simcolourproject_2stim_asymm_v5,2020.2.10,Win32,60,61025ae37ef11b136ea224fe,,,,,,,,,2334,129.6000134,39.19996973,1,0,0,response1disk,,6,11.20001161,2.399993598,1,0,0,rectangle,11.20001161,2.399993598,1,0,0,11.20001161,2.399993598,1,0,0,0,65,65,101,1,,,,,,,,
,,,,,,,,,,,,,FF,,,,,,,,2.3168,,,,,,,,,,,,,,,,,,,,,,61030fd06c01209b13e99780,61036d8ff1c60369da7b77ba,2021-07-29_23h10.54.393,Simcolourproject_2stim_asymm_v5,2020.2.10,Win32,60,61025ae37ef11b136ea224fe,,,,,,,,,3968,-94.39994113,-30.40000689,1,0,0,response5disk,,2,8.000011563,-2.400006473,1,0,0,rectangle,8.000011563,-2.400006473,1,0,0,8.000011563,-2.400006473,1,0,0,0,66,66,150,1,,,,,,,,
,,,,,,,,,,,,,FF,,,,,,,,2.9673,,,,,,,,,,,,,,,,,,,,,,61030fd06c01209b13e99780,61036d8ff1c60369da7b77ba,2021-07-29_23h10.54.393,Simcolourproject_2stim_asymm_v5,2020.2.10,Win32,60,61025ae37ef11b136ea224fe,,,,,,,,,3692,82.40001267,43.19996979,1,0,0,response1disk,,6,8.800011575,-6.4373E-06,1,0,0,rectangle,8.800011575,-6.4373E-06,1,0,0,8.800011575,-6.4373E-06,1,0,0,0,67,67,151,1,,,,,,,,
,,,,,,,,,,,,,FF,,,,,,,,2.1047,,,,,,,,,,,,,,,,,,,,,,61030fd06c01209b13e99780,61036d8ff1c60369da7b77ba,2021-07-29_23h10.54.393,Simcolourproject_2stim_asymm_v5,2020.2.10,Win32,60,61025ae37ef11b136ea224fe,,,,,,,,,4301,107.200013,45.59999424,1,0,0,response1disk,,6,8.000011563,7.999993682,1,0,0,rectangle,8.000011563,7.999993682,1,0,0,8.000011563,7.999993682,1,0,0,0,68,68,119,1,,,,,,,,
,,,,,,,,,,,,,FF,,,,,,,,1.6832,,,,,,,,,,,,,,,,,,,,,,61030fd06c01209b13e99780,61036d8ff1c60369da7b77ba,2021-07-29_23h10.54.393,Simcolourproject_2stim_asymm_v5,2020.2.10,Win32,60,61025ae37ef11b136ea224fe,,,,,,,,,386,52.80001223,-86.40000772,1,0,0,response3disk,,4,4.000011504,-5.600006521,1,0,0,rectangle,4.000011504,-5.600006521,1,0,0,4.000011504,-5.600006521,1,0,0,0,69,69,55,1,,,,,,,,
,,,,,,,,,,,,,FF,,,,,,,,9.0163,,,,,,,,,,,,,,,,,,,,,,61030fd06c01209b13e99780,61036d8ff1c60369da7b77ba,2021-07-29_23h10.54.393,Simcolourproject_2stim_asymm_v5,2020.2.10,Win32,60,61025ae37ef11b136ea224fe,,,,,,,,,3028,96.00001287,28.79999399,1,0,0,response1disk,,6,9.600060415,-4.800006509,1,0,0,rectangle,9.600060415,-4.800006509,1,0,0,9.600060415,-4.800006509,1,0,0,0,70,70,35,1,,,,,,,,
,,,,,,,,,,,,,FF,,,,,,,,1.151,,,,,,,,,,,,,,,,,,,,,,61030fd06c01209b13e99780,61036d8ff1c60369da7b77ba,2021-07-29_23h10.54.393,Simcolourproject_2stim_asymm_v5,2020.2.10,Win32,60,61025ae37ef11b136ea224fe,,,,,,,,,371,-31.99998903,-95.20000786,1,0,0,response5disk,,3,-4.799988627,-0.800006449,1,0,0,rectangle,-4.799988627,-0.800006449,1,0,0,-4.799988627,-0.800006449,1,0,0,0,71,71,80,1,,,,,,,,
,,,,,,,,,,,,,FF,,,,,,,,1.267,,,,,,,,,,,,,,,,,,,,,,61030fd06c01209b13e99780,61036d8ff1c60369da7b77ba,2021-07-29_23h10.54.393,Simcolourproject_2stim_asymm_v5,2020.2.10,Win32,60,61025ae37ef11b136ea224fe,,,,,,,,,3856,-39.19998914,-77.60000759,1,0,0,response5disk,,3,2.40001148,-4.000006497,1,0,0,rectangle,2.40001148,-4.000006497,1,0,0,2.40001148,-4.000006497,1,0,0,0,72,72,103,1,,,,,,,,
,,,,,,,,,,,,,FF,,,,,,,,1.117,,,,,,,,,,,,,,,,,,,,,,61030fd06c01209b13e99780,61036d8ff1c60369da7b77ba,2021-07-29_23h10.54.393,Simcolourproject_2stim_asymm_v5,2020.2.10,Win32,60,61025ae37ef11b136ea224fe,,,,,,,,,959,30.4000119,67.19997015,1,0,0,response1disk,,7,10.4000116,3.999993622,1,0,0,rectangle,10.4000116,3.999993622,1,0,0,10.4000116,3.999993622,1,0,0,0,73,73,83,1,,,,,,,,
,,,,,,,,,,,,,FF,,,,,,,,1.6336,,,,,,,,,,,,,,,,,,,,,,61030fd06c01209b13e99780,61036d8ff1c60369da7b77ba,2021-07-29_23h10.54.393,Simcolourproject_2stim_asymm_v5,2020.2.10,Win32,60,61025ae37ef11b136ea224fe,,,,,,,,,1884,56.80001229,86.39999485,1,0,0,response1disk,,7,10.4000116,1.599993587,1,0,0,rectangle,10.4000116,1.599993587,1,0,0,10.4000116,1.599993587,1,0,0,0,74,74,117,1,,,,,,,,
,,,,,,,,,,,,,FF,,,,,,,,0.8835,,,,,,,,,,,,,,,,,,,,,,61030fd06c01209b13e99780,61036d8ff1c60369da7b77ba,2021-07-29_23h10.54.393,Simcolourproject_2stim_asymm_v5,2020.2.10,Win32,60,61025ae37ef11b136ea224fe,,,,,,,,,716,-56.7999894,91.99999493,1,0,0,response7disk,,0,-1.59998858,3.999993622,1,0,0,rectangle,-1.59998858,3.999993622,1,0,0,-1.59998858,3.999993622,1,0,0,0,75,75,143,1,,,,,,,,
,,,,,,,,,,,,,FF,,,,,,,,1.7667,,,,,,,,,,,,,,,,,,,,,,61030fd06c01209b13e99780,61036d8ff1c60369da7b77ba,2021-07-29_23h10.54.393,Simcolourproject_2stim_asymm_v5,2020.2.10,Win32,60,61025ae37ef11b136ea224fe,,,,,,,,,2623,56.00001228,-108.000008,1,0,0,response3disk,,4,13.60006047,3.999993622,1,0,0,rectangle,13.60006047,3.999993622,1,0,0,13.60006047,3.999993622,1,0,0,0,76,76,148,1,,,,,,,,
,,,,,,,,,,,,,FF,,,,,,,,1.2878,,,,,,,,,,,,,,,,,,,,,,61030fd06c01209b13e99780,61036d8ff1c60369da7b77ba,2021-07-29_23h10.54.393,Simcolourproject_2stim_asymm_v5,2020.2.10,Win32,60,61025ae37ef11b136ea224fe,,,,,,,,,3669,-93.59998995,47.19996985,1,0,0,response7disk,,1,-4.799988627,-2.400006473,1,0,0,rectangle,-4.799988627,-2.400006473,1,0,0,-4.799988627,-2.400006473,1,0,0,0,77,77,102,1,,,,,,,,
,,,,,,,,,,,,,FF,,,,,,,,18.5624,,,,,,,,,,,,,,,,,,,,,,61030fd06c01209b13e99780,61036d8ff1c60369da7b77ba,2021-07-29_23h10.54.393,Simcolourproject_2stim_asymm_v5,2020.2.10,Win32,60,61025ae37ef11b136ea224fe,,,,,,,,,2864,96.00001287,-45.60000712,1,0,0,response3disk,,5,7.200011551,-6.4373E-06,1,0,0,rectangle,7.200011551,-6.4373E-06,1,0,0,7.200011551,-6.4373E-06,1,0,0,0,78,78,70,1,,,,,,,,
,,,,,,,,,,,,,FF,,,,,,,,1.7169,,,,,,,,,,,,,,,,,,,,,,61030fd06c01209b13e99780,61036d8ff1c60369da7b77ba,2021-07-29_23h10.54.393,Simcolourproject_2stim_asymm_v5,2020.2.10,Win32,60,61025ae37ef11b136ea224fe,,,,,,,,,1549,-38.3999403,-109.6000569,1,0,0,response5disk,,3,-13.59998876,7.999993682,1,0,0,rectangle,-13.59998876,7.999993682,1,0,0,-13.59998876,7.999993682,1,0,0,0,79,79,111,1,,,,,,,,
,,,,,,,,,,,,,FF,,,,,,,,7.1378,,,,,,,,,,,,,,,,,,,,,,61030fd06c01209b13e99780,61036d8ff1c60369da7b77ba,2021-07-29_23h10.54.393,Simcolourproject_2stim_asymm_v5,2020.2.10,Win32,60,61025ae37ef11b136ea224fe,,,,,,,,,912,54.40001225,-109.6000569,1,0,0,response3disk,,4,-9.599988699,-0.800006449,1,0,0,rectangle,-9.599988699,-0.800006449,1,0,0,-9.599988699,-0.800006449,1,0,0,0,80,80,58,1,,,,,,,,
,,,,,,,,,,,,,FF,,,,,,,,3.0171,,,,,,,,,,,,,,,,,,,,,,61030fd06c01209b13e99780,61036d8ff1c60369da7b77ba,2021-07-29_23h10.54.393,Simcolourproject_2stim_asymm_v5,2020.2.10,Win32,60,61025ae37ef11b136ea224fe,,,,,,,,,3664,88.00001276,-68.00000745,1,0,0,response3disk,,5,14.40001166,1.599993587,1,0,0,rectangle,14.40001166,1.599993587,1,0,0,14.40001166,1.599993587,1,0,0,0,81,81,75,1,,,,,,,,
,,,,,,,,,,,,,FF,,,,,,,,6.1835,,,,,,,,,,,,,,,,,,,,,,61030fd06c01209b13e99780,61036d8ff1c60369da7b77ba,2021-07-29_23h10.54.393,Simcolourproject_2stim_asymm_v5,2020.2.10,Win32,60,61025ae37ef11b136ea224fe,,,,,,,,,1702,105.600013,39.99999416,1,0,0,response1disk,,6,-1.59998858,-8.800006568,1,0,0,rectangle,-1.59998858,-8.800006568,1,0,0,-1.59998858,-8.800006568,1,0,0,0,82,82,9,1,,,,,,,,
,,,,,,,,,,,,,FF,,,,,,,,1.4844,,,,,,,,,,,,,,,,,,,,,,61030fd06c01209b13e99780,61036d8ff1c60369da7b77ba,2021-07-29_23h10.54.393,Simcolourproject_2stim_asymm_v5,2020.2.10,Win32,60,61025ae37ef11b136ea224fe,,,,,,,,,1383,-76.7999897,-56.80000728,1,0,0,response5disk,,2,-9.599988699,7.999993682,1,0,0,rectangle,-9.599988699,7.999993682,1,0,0,-9.599988699,7.999993682,1,0,0,0,83,83,89,1,,,,,,,,
,,,,,,,,,,,,,FF,,,,,,,,1.2837,,,,,,,,,,,,,,,,,,,,,,61030fd06c01209b13e99780,61036d8ff1c60369da7b77ba,2021-07-29_23h10.54.393,Simcolourproject_2stim_asymm_v5,2020.2.10,Win32,60,61025ae37ef11b136ea224fe,,,,,,,,,506,109.6000131,-42.40000707,1,0,0,response3disk,,5,-5.599988639,8.799993694,1,0,0,rectangle,-5.599988639,8.799993694,1,0,0,-5.599988639,8.799993694,1,0,0,0,84,84,154,1,,,,,,,,
,,,,,,,,,,,,,FF,,,,,,,,2.4339,,,,,,,,,,,,,,,,,,,,,,61030fd06c01209b13e99780,61036d8ff1c60369da7b77ba,2021-07-29_23h10.54.393,Simcolourproject_2stim_asymm_v5,2020.2.10,Win32,60,61025ae37ef11b136ea224fe,,,,,,,,,444,-89.59998989,-22.40000677,1,0,0,response5disk,,2,15.20001167,-1.600006461,1,0,0,rectangle,15.20001167,-1.600006461,1,0,0,15.20001167,-1.600006461,1,0,0,0,85,85,7,1,,,,,,,,
,,,,,,,,,,,,,FF,,,,,,,,0.967,,,,,,,,,,,,,,,,,,,,,,61030fd06c01209b13e99780,61036d8ff1c60369da7b77ba,2021-07-29_23h10.54.393,Simcolourproject_2stim_asymm_v5,2020.2.10,Win32,60,61025ae37ef11b136ea224fe,,,,,,,,,2664,-63.99998951,-46.40000713,1,0,0,response5disk,,2,-6.399939823,-15.20000666,1,0,0,rectangle,-6.399939823,-15.20000666,1,0,0,-6.399939823,-15.20000666,1,0,0,0,86,86,66,1,,,,,,,,
,,,,,,,,,,,,,FF,,,,,,,,1.047,,,,,,,,,,,,,,,,,,,,,,61030fd06c01209b13e99780,61036d8ff1c60369da7b77ba,2021-07-29_23h10.54.393,Simcolourproject_2stim_asymm_v5,2020.2.10,Win32,60,61025ae37ef11b136ea224fe,,,,,,,,,2266,79.20001262,-34.40000695,1,0,0,response3disk,,5,1.600060296,15.19999379,1,0,0,rectangle,1.600060296,15.19999379,1,0,0,1.600060296,15.19999379,1,0,0,0,87,87,71,1,,,,,,,,
,,,,,,,,,,,,,FF,,,,,,,,1.4506,,,,,,,,,,,,,,,,,,,,,,61030fd06c01209b13e99780,61036d8ff1c60369da7b77ba,2021-07-29_23h10.54.393,Simcolourproject_2stim_asymm_v5,2020.2.10,Win32,60,61025ae37ef11b136ea224fe,,,,,,,,,918,84.0000127,35.19996967,1,0,0,response1disk,,6,3.200011492,4.799993634,1,0,0,rectangle,3.200011492,4.799993634,1,0,0,3.200011492,4.799993634,1,0,0,0,88,88,113,1,,,,,,,,
,,,,,,,,,,,,,FF,,,,,,,,1.3,,,,,,,,,,,,,,,,,,,,,,61030fd06c01209b13e99780,61036d8ff1c60369da7b77ba,2021-07-29_23h10.54.393,Simcolourproject_2stim_asymm_v5,2020.2.10,Win32,60,61025ae37ef11b136ea224fe,,,,,,,,,1512,32.80001193,66.39999455,1,0,0,response1disk,,7,6.400011539,-1.600006461,1,0,0,rectangle,6.400011539,-1.600006461,1,0,0,6.400011539,-1.600006461,1,0,0,0,89,89,67,1,,,,,,,,
,,,,,,,,,,,,,FF,,,,,,,,0.8667,,,,,,,,,,,,,,,,,,,,,,61030fd06c01209b13e99780,61036d8ff1c60369da7b77ba,2021-07-29_23h10.54.393,Simcolourproject_2stim_asymm_v5,2020.2.10,Win32,60,61025ae37ef11b136ea224fe,,,,,,,,,446,44.0000121,83.19997039,1,0,0,response1disk,,7,5.600060356,-2.400006473,1,0,0,rectangle,5.600060356,-2.400006473,1,0,0,5.600060356,-2.400006473,1,0,0,0,90,90,73,1,,,,,,,,
,,,,,,,,,,,,,FF,,,,,,,,1.9375,,,,,,,,,,,,,,,,,,,,,,61030fd06c01209b13e99780,61036d8ff1c60369da7b77ba,2021-07-29_23h10.54.393,Simcolourproject_2stim_asymm_v5,2020.2.10,Win32,60,61025ae37ef11b136ea224fe,,,,,,,,,205,92.80001283,39.19996973,1,0,0,response1disk,,6,-7.199988663,-3.200006485,1,0,0,rectangle,-7.199988663,-3.200006485,1,0,0,-7.199988663,-3.200006485,1,0,0,0,91,91,16,1,,,,,,,,
,,,,,,,,,,,,,FF,,,,,,,,2.9504,,,,,,,,,,,,,,,,,,,,,,61030fd06c01209b13e99780,61036d8ff1c60369da7b77ba,2021-07-29_23h10.54.393,Simcolourproject_2stim_asymm_v5,2020.2.10,Win32,60,61025ae37ef11b136ea224fe,,,,,,,,,1720,107.200013,21.59999388,1,0,0,response1disk,,6,16.80001169,-4.800006509,1,0,0,rectangle,16.80001169,-4.800006509,1,0,0,16.80001169,-4.800006509,1,0,0,0,92,92,57,1,,,,,,,,
,,,,,,,,,,,,,FF,,,,,,,,1.1047,,,,,,,,,,,,,,,,,,,,,,61030fd06c01209b13e99780,61036d8ff1c60369da7b77ba,2021-07-29_23h10.54.393,Simcolourproject_2stim_asymm_v5,2020.2.10,Win32,60,61025ae37ef11b136ea224fe,,,,,,,,,3927,28.80001187,111.9999952,1,0,0,response1disk,,7,-10.39993988,9.599993706,1,0,0,rectangle,-33.59998906,129.5999955,1,0,0,1.14441E-05,7.19999367,1,0,0,0,93,93,48,1,,response7disk_3,TRUE,0,0,"[196,262,292,267,179,5,132,263,182,234,174,170,7,252,273,109,118,117,94,272]",2.2671,rectangle
,,,,,,,,,,,,,FF,,,,,,,,3.2501,,,,,,,,,,,,,,,,,,,,,,61030fd06c01209b13e99780,61036d8ff1c60369da7b77ba,2021-07-29_23h10.54.393,Simcolourproject_2stim_asymm_v5,2020.2.10,Win32,60,61025ae37ef11b136ea224fe,,,,,,,,,1758,-101.5999901,-21.60000676,1,0,0,response5disk,,2,-15.99998879,-4.000006497,1,0,0,rectangle,-15.99998879,-4.000006497,1,0,0,-15.99998879,-4.000006497,1,0,0,0,94,94,45,1,,,,,,,,
,,,,,,,,,,,,,FF,,,,,,,,1.0174,,,,,,,,,,,,,,,,,,,,,,61030fd06c01209b13e99780,61036d8ff1c60369da7b77ba,2021-07-29_23h10.54.393,Simcolourproject_2stim_asymm_v5,2020.2.10,Win32,60,61025ae37ef11b136ea224fe,,,,,,,,,2409,64.0000124,84.79999483,1,0,0,response1disk,,7,17.60006053,-1.600006461,1,0,0,rectangle,17.60006053,-1.600006461,1,0,0,17.60006053,-1.600006461,1,0,0,0,95,95,149,1,,,,,,,,
,,,,,,,,,,,,,FF,,,,,,,,2.4834,,,,,,,,,,,,,,,,,,,,,,61030fd06c01209b13e99780,61036d8ff1c60369da7b77ba,2021-07-29_23h10.54.393,Simcolourproject_2stim_asymm_v5,2020.2.10,Win32,60,61025ae37ef11b136ea224fe,,,,,,,,,3572,-35.99998909,-61.60000736,1,0,0,response5disk,,3,1.600060296,-3.200006485,1,0,0,rectangle,1.600060296,-3.200006485,1,0,0,1.600060296,-3.200006485,1,0,0,0,96,96,140,1,,,,,,,,
,,,,,,,,,,,,,FF,,,,,,,,1.217,,,,,,,,,,,,,,,,,,,,,,61030fd06c01209b13e99780,61036d8ff1c60369da7b77ba,2021-07-29_23h10.54.393,Simcolourproject_2stim_asymm_v5,2020.2.10,Win32,60,61025ae37ef11b136ea224fe,,,,,,,,,1674,-86.39994102,-26.40000683,1,0,0,response5disk,,2,-3.999988616,0.799993575,1,0,0,rectangle,-3.999988616,0.799993575,1,0,0,-3.999988616,0.799993575,1,0,0,0,97,97,123,1,,,,,,,,
,,,,,,,,,,,,,FF,,,,,,,,0.9335,,,,,,,,,,,,,,,,,,,,,,61030fd06c01209b13e99780,61036d8ff1c60369da7b77ba,2021-07-29_23h10.54.393,Simcolourproject_2stim_asymm_v5,2020.2.10,Win32,60,61025ae37ef11b136ea224fe,,,,,,,,,529,-77.59998971,-35.20000696,1,0,0,response5disk,,2,-11.19998872,-0.800006449,1,0,0,rectangle,-11.19998872,-0.800006449,1,0,0,-11.19998872,-0.800006449,1,0,0,0,98,98,132,1,,,,,,,,
,,,,,,,,,,,,,FF,,,,,,,,7.4164,,,,,,,,,,,,,,,,,,,,,,61030fd06c01209b13e99780,61036d8ff1c60369da7b77ba,2021-07-29_23h10.54.393,Simcolourproject_2stim_asymm_v5,2020.2.10,Win32,60,61025ae37ef11b136ea224fe,,,,,,,,,3035,72.00001252,-44.8000071,1,0,0,response3disk,,5,15.20001167,-4.800006509,1,0,0,rectangle,15.20001167,-4.800006509,1,0,0,15.20001167,-4.800006509,1,0,0,0,99,99,68,1,,,,,,,,
,,,,,,,,,,,,,FF,,,,,,,,4.2333,,,,,,,,,,,,,,,,,,,,,,61030fd06c01209b13e99780,61036d8ff1c60369da7b77ba,2021-07-29_23h10.54.393,Simcolourproject_2stim_asymm_v5,2020.2.10,Win32,60,61025ae37ef11b136ea224fe,,,,,,,,,4182,-24.79998893,-83.20000768,1,0,0,response5disk,,3,1.14441E-05,3.999993622,1,0,0,rectangle,1.14441E-05,3.999993622,1,0,0,1.14441E-05,3.999993622,1,0,0,0,100,100,23,1,,,,,,,,
,,,,,,,,,,,,,FF,,,,,,,,1.1499,,,,,,,,,,,,,,,,,,,,,,61030fd06c01209b13e99780,61036d8ff1c60369da7b77ba,2021-07-29_23h10.54.393,Simcolourproject_2stim_asymm_v5,2020.2.10,Win32,60,61025ae37ef11b136ea224fe,,,,,,,,,1641,42.40001208,108.7999952,1,0,0,response1disk,,7,10.4000116,-2.400006473,1,0,0,rectangle,10.4000116,-2.400006473,1,0,0,10.4000116,-2.400006473,1,0,0,0,101,101,17,1,,,,,,,,
,,,,,,,,,,,,,FF,,,,,,,,1.4002,,,,,,,,,,,,,,,,,,,,,,61030fd06c01209b13e99780,61036d8ff1c60369da7b77ba,2021-07-29_23h10.54.393,Simcolourproject_2stim_asymm_v5,2020.2.10,Win32,60,61025ae37ef11b136ea224fe,,,,,,,,,4028,78.40001261,-57.6000073,1,0,0,response3disk,,5,4.000011504,-0.800006449,1,0,0,rectangle,4.000011504,-0.800006449,1,0,0,4.000011504,-0.800006449,1,0,0,0,102,102,147,1,,,,,,,,
,,,,,,,,,,,,,FF,,,,,,,,1.7002,,,,,,,,,,,,,,,,,,,,,,61030fd06c01209b13e99780,61036d8ff1c60369da7b77ba,2021-07-29_23h10.54.393,Simcolourproject_2stim_asymm_v5,2020.2.10,Win32,60,61025ae37ef11b136ea224fe,,,,,,,,,1352,57.6000123,-88.00000775,1,0,0,response3disk,,4,-15.99998879,16.79999381,1,0,0,rectangle,-15.99998879,16.79999381,1,0,0,-15.99998879,16.79999381,1,0,0,0,103,103,60,1,,,,,,,,
,,,,,,,,,,,,,FF,,,,,,,,1.3167,,,,,,,,,,,,,,,,,,,,,,61030fd06c01209b13e99780,61036d8ff1c60369da7b77ba,2021-07-29_23h10.54.393,Simcolourproject_2stim_asymm_v5,2020.2.10,Win32,60,61025ae37ef11b136ea224fe,,,,,,,,,2566,48.00001216,73.59999466,1,0,0,response1disk,,7,5.600060356,-0.800006449,1,0,0,rectangle,5.600060356,-0.800006449,1,0,0,5.600060356,-0.800006449,1,0,0,0,104,104,0,1,,,,,,,,
,,,,,,,,,,,,,FF,,,,,,,,0.9503,,,,,,,,,,,,,,,,,,,,,,61030fd06c01209b13e99780,61036d8ff1c60369da7b77ba,2021-07-29_23h10.54.393,Simcolourproject_2stim_asymm_v5,2020.2.10,Win32,60,61025ae37ef11b136ea224fe,,,,,,,,,4365,-69.59998959,117.5999953,1,0,0,response7disk,,0,5.600060356,-3.200006485,1,0,0,rectangle,5.600060356,-3.200006485,1,0,0,5.600060356,-3.200006485,1,0,0,0,105,105,76,1,,,,,,,,
,,,,,,,,,,,,,FF,,,,,,,,2.9669,,,,,,,,,,,,,,,,,,,,,,61030fd06c01209b13e99780,61036d8ff1c60369da7b77ba,2021-07-29_23h10.54.393,Simcolourproject_2stim_asymm_v5,2020.2.10,Win32,60,61025ae37ef11b136ea224fe,,,,,,,,,1917,64.80001241,-76.00000757,1,0,0,response3disk,,4,7.200011551,-8.000006557,1,0,0,rectangle,7.200011551,-8.000006557,1,0,0,7.200011551,-8.000006557,1,0,0,0,106,106,92,1,,,,,,,,
,,,,,,,,,,,,,FF,,,,,,,,1.388,,,,,,,,,,,,,,,,,,,,,,61030fd06c01209b13e99780,61036d8ff1c60369da7b77ba,2021-07-29_23h10.54.393,Simcolourproject_2stim_asymm_v5,2020.2.10,Win32,60,61025ae37ef11b136ea224fe,,,,,,,,,4209,21.60006059,73.59999466,1,0,0,response1disk,,7,-7.999988675,-6.4373E-06,1,0,0,rectangle,-7.999988675,-6.4373E-06,1,0,0,-7.999988675,-6.4373E-06,1,0,0,0,107,107,37,1,,,,,,,,
,,,,,,,,,,,,,FF,,,,,,,,5.2707,,,,,,,,,,,,,,,,,,,,,,61030fd06c01209b13e99780,61036d8ff1c60369da7b77ba,2021-07-29_23h10.54.393,Simcolourproject_2stim_asymm_v5,2020.2.10,Win32,60,61025ae37ef11b136ea224fe,,,,,,,,,2658,43.20001209,-88.00000775,1,0,0,response3disk,,4,-24.79998893,4.799993634,1,0,0,rectangle,-45.59998924,-114.4000081,1,0,0,8.000011563,-5.600006521,1,0,0,0,108,108,18,1,,response5disk_3,TRUE,3,3,"[196,262,292,267,179,5,132,263,182,234,174,170,7,252,273,109,118,117,94,272]",2.5835,rectangle
,,,,,,,,,,,,,FF,,,,,,,,2.667,,,,,,,,,,,,,,,,,,,,,,61030fd06c01209b13e99780,61036d8ff1c60369da7b77ba,2021-07-29_23h10.54.393,Simcolourproject_2stim_asymm_v5,2020.2.10,Win32,60,61025ae37ef11b136ea224fe,,,,,,,,,2469,131.2000134,41.59999418,1,0,0,response1disk,,6,6.400011539,-11.2000066,1,0,0,rectangle,6.400011539,-11.2000066,1,0,0,6.400011539,-11.2000066,1,0,0,0,109,109,29,1,,,,,,,,
,,,,,,,,,,,,,FF,,,,,,,,1.8669,,,,,,,,,,,,,,,,,,,,,,61030fd06c01209b13e99780,61036d8ff1c60369da7b77ba,2021-07-29_23h10.54.393,Simcolourproject_2stim_asymm_v5,2020.2.10,Win32,60,61025ae37ef11b136ea224fe,,,,,,,,,1141,-34.39994024,-111.2000081,1,0,0,response5disk,,3,3.200011492,-2.400006473,1,0,0,rectangle,3.200011492,-2.400006473,1,0,0,3.200011492,-2.400006473,1,0,0,0,110,110,136,1,,,,,,,,
,,,,,,,,,,,,,FF,,,,,,,,2.0332,,,,,,,,,,,,,,,,,,,,,,61030fd06c01209b13e99780,61036d8ff1c60369da7b77ba,2021-07-29_23h10.54.393,Simcolourproject_2stim_asymm_v5,2020.2.10,Win32,60,61025ae37ef11b136ea224fe,,,,,,,,,1209,57.6000123,-86.40000772,1,0,0,response3disk,,4,-0.799988568,-0.800006449,1,0,0,rectangle,-0.799988568,-0.800006449,1,0,0,-0.799988568,-0.800006449,1,0,0,0,111,111,13,1,,,,,,,,
,,,,,,,,,,,,,FF,,,,,,,,3.2875,,,,,,,,,,,,,,,,,,,,,,61030fd06c01209b13e99780,61036d8ff1c60369da7b77ba,2021-07-29_23h10.54.393,Simcolourproject_2stim_asymm_v5,2020.2.10,Win32,60,61025ae37ef11b136ea224fe,,,,,,,,,1407,104.000013,39.99999416,1,0,0,response1disk,,6,10.4000116,-6.4373E-06,1,0,0,rectangle,10.4000116,-6.4373E-06,1,0,0,10.4000116,-6.4373E-06,1,0,0,0,112,112,40,1,,,,,,,,
,,,,,,,,,,,,,FF,,,,,,,,1.8336,,,,,,,,,,,,,,,,,,,,,,61030fd06c01209b13e99780,61036d8ff1c60369da7b77ba,2021-07-29_23h10.54.393,Simcolourproject_2stim_asymm_v5,2020.2.10,Win32,60,61025ae37ef11b136ea224fe,,,,,,,,,699,58.40001231,-82.40000767,1,0,0,response3disk,,4,14.40001166,-6.400006533,1,0,0,rectangle,14.40001166,-6.400006533,1,0,0,14.40001166,-6.400006533,1,0,0,0,113,113,5,1,,,,,,,,
,,,,,,,,,,,,,FF,,,,,,,,2.1502,,,,,,,,,,,,,,,,,,,,,,61030fd06c01209b13e99780,61036d8ff1c60369da7b77ba,2021-07-29_23h10.54.393,Simcolourproject_2stim_asymm_v5,2020.2.10,Win32,60,61025ae37ef11b136ea224fe,,,,,,,,,4029,-76.7999897,-64.8000074,1,0,0,response5disk,,2,-3.199988604,-0.800006449,1,0,0,rectangle,-3.199988604,-0.800006449,1,0,0,-3.199988604,-0.800006449,1,0,0,0,114,114,95,1,,,,,,,,
,,,,,,,,,,,,,FF,,,,,,,,1.3166,,,,,,,,,,,,,,,,,,,,,,61030fd06c01209b13e99780,61036d8ff1c60369da7b77ba,2021-07-29_23h10.54.393,Simcolourproject_2stim_asymm_v5,2020.2.10,Win32,60,61025ae37ef11b136ea224fe,,,,,,,,,3220,97.6000129,39.19996973,1,0,0,response1disk,,6,4.000011504,-0.800006449,1,0,0,rectangle,4.000011504,-0.800006449,1,0,0,4.000011504,-0.800006449,1,0,0,0,115,115,52,1,,,,,,,,
,,,,,,,,,,,,,FF,,,,,,,,1.0833,,,,,,,,,,,,,,,,,,,,,,61030fd06c01209b13e99780,61036d8ff1c60369da7b77ba,2021-07-29_23h10.54.393,Simcolourproject_2stim_asymm_v5,2020.2.10,Win32,60,61025ae37ef11b136ea224fe,,,,,,,,,4105,-26.39994012,-80.00000763,1,0,0,response5disk,,3,-4.799988627,-8.800006568,1,0,0,rectangle,96.00001287,-47.20000714,1,0,0,17.60006053,-2.400006473,1,0,0,0,116,116,142,1,,response3disk_3,TRUE,5,5,"[196,262,292,267,179,5,132,263,182,234,174,170,7,252,273,109,118,117,94,272]",3.1328,rectangle
,,,,,,,,,,,,,FF,,,,,,,,1.9836,,,,,,,,,,,,,,,,,,,,,,61030fd06c01209b13e99780,61036d8ff1c60369da7b77ba,2021-07-29_23h10.54.393,Simcolourproject_2stim_asymm_v5,2020.2.10,Win32,60,61025ae37ef11b136ea224fe,,,,,,,,,819,43.20001209,-120.0000082,1,0,0,response3disk,,4,-21.59998888,-1.600006461,1,0,0,rectangle,108.8000131,39.99999416,1,0,0,-3.199988604,0.799993575,1,0,0,0,117,117,86,1,,response1disk_3,TRUE,6,6,"[196,262,292,267,179,5,132,263,182,234,174,170,7,252,273,109,118,117,94,272]",2.2376,rectangle
,,,,,,,,,,,,,FF,,,,,,,,5.1834,,,,,,,,,,,,,,,,,,,,,,61030fd06c01209b13e99780,61036d8ff1c60369da7b77ba,2021-07-29_23h10.54.393,Simcolourproject_2stim_asymm_v5,2020.2.10,Win32,60,61025ae37ef11b136ea224fe,,,,,,,,,3763,112.8000131,29.599994,1,0,0,response1disk,,6,4.800011516,2.399993598,1,0,0,rectangle,4.800011516,2.399993598,1,0,0,4.800011516,2.399993598,1,0,0,0,118,118,87,1,,,,,,,,
,,,,,,,,,,,,,FF,,,,,,,,2.5499,,,,,,,,,,,,,,,,,,,,,,61030fd06c01209b13e99780,61036d8ff1c60369da7b77ba,2021-07-29_23h10.54.393,Simcolourproject_2stim_asymm_v5,2020.2.10,Win32,60,61025ae37ef11b136ea224fe,,,,,,,,,69,114.4000131,30.39999402,1,0,0,response1disk,,6,14.40001166,0.799993575,1,0,0,rectangle,14.40001166,0.799993575,1,0,0,14.40001166,0.799993575,1,0,0,0,119,119,26,1,,,,,,,,
,,,,,,,,,,,,,FF,,,,,,,,1.2844,,,,,,,,,,,,,,,,,,,,,,61030fd06c01209b13e99780,61036d8ff1c60369da7b77ba,2021-07-29_23h10.54.393,Simcolourproject_2stim_asymm_v5,2020.2.10,Win32,60,61025ae37ef11b136ea224fe,,,,,,,,,4352,-35.99998909,-104.800008,1,0,0,response5disk,,3,-3.199988604,3.999993622,1,0,0,rectangle,-3.199988604,3.999993622,1,0,0,-3.199988604,3.999993622,1,0,0,0,120,120,115,1,,,,,,,,
,,,,,,,,,,,,,FF,,,,,,,,1.4836,,,,,,,,,,,,,,,,,,,,,,61030fd06c01209b13e99780,61036d8ff1c60369da7b77ba,2021-07-29_23h10.54.393,Simcolourproject_2stim_asymm_v5,2020.2.10,Win32,60,61025ae37ef11b136ea224fe,,,,,,,,,116,104.800013,-45.60000712,1,0,0,response3disk,,5,21.60006059,3.19999361,1,0,0,rectangle,21.60006059,3.19999361,1,0,0,21.60006059,3.19999361,1,0,0,0,121,121,72,1,,,,,,,,
,,,,,,,,,,,,,FF,,,,,,,,1.5385,,,,,,,,,,,,,,,,,,,,,,61030fd06c01209b13e99780,61036d8ff1c60369da7b77ba,2021-07-29_23h10.54.393,Simcolourproject_2stim_asymm_v5,2020.2.10,Win32,60,61025ae37ef11b136ea224fe,,,,,,,,,128,93.60001284,-39.20000702,1,0,0,response3disk,,5,18.40001172,3.19999361,1,0,0,rectangle,18.40001172,3.19999361,1,0,0,18.40001172,3.19999361,1,0,0,0,122,122,63,1,,,,,,,,
,,,,,,,,,,,,,FF,,,,,,,,2.5383,,,,,,,,,,,,,,,,,,,,,,61030fd06c01209b13e99780,61036d8ff1c60369da7b77ba,2021-07-29_23h10.54.393,Simcolourproject_2stim_asymm_v5,2020.2.10,Win32,60,61025ae37ef11b136ea224fe,,,,,,,,,2573,97.6000129,23.19996949,1,0,0,response1disk,,6,18.40001172,-8.800006568,1,0,0,rectangle,18.40001172,-8.800006568,1,0,0,18.40001172,-8.800006568,1,0,0,0,123,123,11,1,,,,,,,,
,,,,,,,,,,,,,FF,,,,,,,,1.7,,,,,,,,,,,,,,,,,,,,,,61030fd06c01209b13e99780,61036d8ff1c60369da7b77ba,2021-07-29_23h10.54.393,Simcolourproject_2stim_asymm_v5,2020.2.10,Win32,60,61025ae37ef11b136ea224fe,,,,,,,,,4033,-19.19998884,-108.000008,1,0,0,response5disk,,3,-3.999988616,-6.400006533,1,0,0,rectangle,-3.999988616,-6.400006533,1,0,0,-3.999988616,-6.400006533,1,0,0,0,124,124,8,1,,,,,,,,
,,,,,,,,,,,,,FF,,,,,,,,3.4385,,,,,,,,,,,,,,,,,,,,,,61030fd06c01209b13e99780,61036d8ff1c60369da7b77ba,2021-07-29_23h10.54.393,Simcolourproject_2stim_asymm_v5,2020.2.10,Win32,60,61025ae37ef11b136ea224fe,,,,,,,,,1878,-31.19998902,-62.40000737,1,0,0,response5disk,,3,7.200011551,-2.400006473,1,0,0,rectangle,7.200011551,-2.400006473,1,0,0,7.200011551,-2.400006473,1,0,0,0,125,125,49,1,,,,,,,,
,,,,,,,,,,,,,FF,,,,,,,,2.3671,,,,,,,,,,,,,,,,,,,,,,61030fd06c01209b13e99780,61036d8ff1c60369da7b77ba,2021-07-29_23h10.54.393,Simcolourproject_2stim_asymm_v5,2020.2.10,Win32,60,61025ae37ef11b136ea224fe,,,,,,,,,2958,-34.39994024,-72.80000752,1,0,0,response5disk,,3,13.60006047,12.79999375,1,0,0,rectangle,13.60006047,12.79999375,1,0,0,13.60006047,12.79999375,1,0,0,0,126,126,137,1,,,,,,,,
,,,,,,,,,,,,,FF,,,,,,,,1.7876,,,,,,,,,,,,,,,,,,,,,,61030fd06c01209b13e99780,61036d8ff1c60369da7b77ba,2021-07-29_23h10.54.393,Simcolourproject_2stim_asymm_v5,2020.2.10,Win32,60,61025ae37ef11b136ea224fe,,,,,,,,,4030,92.00001281,-64.8000074,1,0,0,response3disk,,5,3.200011492,-8.000006557,1,0,0,rectangle,3.200011492,-8.000006557,1,0,0,3.200011492,-8.000006557,1,0,0,0,127,127,96,1,,,,,,,,
,,,,,,,,,,,,,FF,,,,,,,,2.1965,,,,,,,,,,,,,,,,,,,,,,61030fd06c01209b13e99780,61036d8ff1c60369da7b77ba,2021-07-29_23h10.54.393,Simcolourproject_2stim_asymm_v5,2020.2.10,Win32,60,61025ae37ef11b136ea224fe,,,,,,,,,745,88.80001277,-36.00000697,1,0,0,response3disk,,5,1.14441E-05,6.399993658,1,0,0,rectangle,1.14441E-05,6.399993658,1,0,0,1.14441E-05,6.399993658,1,0,0,0,128,128,97,1,,,,,,,,
,,,,,,,,,,,,,FF,,,,,,,,1.3834,,,,,,,,,,,,,,,,,,,,,,61030fd06c01209b13e99780,61036d8ff1c60369da7b77ba,2021-07-29_23h10.54.393,Simcolourproject_2stim_asymm_v5,2020.2.10,Win32,60,61025ae37ef11b136ea224fe,,,,,,,,,3227,49.60006101,83.99999481,1,0,0,response1disk,,7,15.20001167,12.79999375,1,0,0,rectangle,15.20001167,12.79999375,1,0,0,15.20001167,12.79999375,1,0,0,0,129,129,64,1,,,,,,,,
,,,,,,,,,,,,,FF,,,,,,,,1.7166,,,,,,,,,,,,,,,,,,,,,,61030fd06c01209b13e99780,61036d8ff1c60369da7b77ba,2021-07-29_23h10.54.393,Simcolourproject_2stim_asymm_v5,2020.2.10,Win32,60,61025ae37ef11b136ea224fe,,,,,,,,,457,-96.79999,-52.80000722,1,0,0,response5disk,,2,1.600060296,-11.2000066,1,0,0,rectangle,1.600060296,-11.2000066,1,0,0,1.600060296,-11.2000066,1,0,0,0,130,130,38,1,,,,,,,,
,,,,,,,,,,,,,FF,,,,,,,,1.3667,,,,,,,,,,,,,,,,,,,,,,61030fd06c01209b13e99780,61036d8ff1c60369da7b77ba,2021-07-29_23h10.54.393,Simcolourproject_2stim_asymm_v5,2020.2.10,Win32,60,61025ae37ef11b136ea224fe,,,,,,,,,2685,-43.99998921,-74.40000755,1,0,0,response5disk,,3,-0.799988568,-8.000006557,1,0,0,rectangle,45.60006095,107.9999952,1,0,0,3.200011492,-1.600006461,1,0,0,0,131,131,20,1,,response1disk_3,TRUE,7,7,"[196,262,292,267,179,5,132,263,182,234,174,170,7,252,273,109,118,117,94,272]",1.8829,rectangle
,,,,,,,,,,,,,FF,,,,,,,,1.2545,,,,,,,,,,,,,,,,,,,,,,61030fd06c01209b13e99780,61036d8ff1c60369da7b77ba,2021-07-29_23h10.54.393,Simcolourproject_2stim_asymm_v5,2020.2.10,Win32,60,61025ae37ef11b136ea224fe,,,,,,,,,3912,-85.59998983,32.79999405,1,0,0,response7disk,,1,-16.79998881,-0.800006449,1,0,0,rectangle,-16.79998881,-0.800006449,1,0,0,-16.79998881,-0.800006449,1,0,0,0,132,132,44,1,,,,,,,,
,,,,,,,,,,,,,FF,,,,,,,,3.0672,,,,,,,,,,,,,,,,,,,,,,61030fd06c01209b13e99780,61036d8ff1c60369da7b77ba,2021-07-29_23h10.54.393,Simcolourproject_2stim_asymm_v5,2020.2.10,Win32,60,61025ae37ef11b136ea224fe,,,,,,,,,3626,78.40001261,-34.40000695,1,0,0,response3disk,,5,-8.799988687,3.999993622,1,0,0,rectangle,-8.799988687,3.999993622,1,0,0,-8.799988687,3.999993622,1,0,0,0,133,133,12,1,,,,,,,,
,,,,,,,,,,,,,FF,,,,,,,,1.6335,,,,,,,,,,,,,,,,,,,,,,61030fd06c01209b13e99780,61036d8ff1c60369da7b77ba,2021-07-29_23h10.54.393,Simcolourproject_2stim_asymm_v5,2020.2.10,Win32,60,61025ae37ef11b136ea224fe,,,,,,,,,2956,45.60006095,-115.2000082,1,0,0,response3disk,,4,-0.799988568,-9.60000658,1,0,0,rectangle,-0.799988568,-9.60000658,1,0,0,-0.799988568,-9.60000658,1,0,0,0,134,134,46,1,,,,,,,,
,,,,,,,,,,,,,FF,,,,,,,,1.2042,,,,,,,,,,,,,,,,,,,,,,61030fd06c01209b13e99780,61036d8ff1c60369da7b77ba,2021-07-29_23h10.54.393,Simcolourproject_2stim_asymm_v5,2020.2.10,Win32,60,61025ae37ef11b136ea224fe,,,,,,,,,2766,16.80001169,70.39999461,1,0,0,response1disk,,7,4.000011504,-4.000006497,1,0,0,rectangle,4.000011504,-4.000006497,1,0,0,4.000011504,-4.000006497,1,0,0,0,135,135,33,1,,,,,,,,
,,,,,,,,,,,,,FF,,,,,,,,1.0995,,,,,,,,,,,,,,,,,,,,,,61030fd06c01209b13e99780,61036d8ff1c60369da7b77ba,2021-07-29_23h10.54.393,Simcolourproject_2stim_asymm_v5,2020.2.10,Win32,60,61025ae37ef11b136ea224fe,,,,,,,,,1831,-84.79998982,-46.40000713,1,0,0,response5disk,,2,-12.79998875,10.39999372,1,0,0,rectangle,-12.79998875,10.39999372,1,0,0,-12.79998875,10.39999372,1,0,0,0,136,136,84,1,,,,,,,,
,,,,,,,,,,,,,FF,,,,,,,,1.2045,,,,,,,,,,,,,,,,,,,,,,61030fd06c01209b13e99780,61036d8ff1c60369da7b77ba,2021-07-29_23h10.54.393,Simcolourproject_2stim_asymm_v5,2020.2.10,Win32,60,61025ae37ef11b136ea224fe,,,,,,,,,2933,-77.59998971,23.99999392,1,0,0,response7disk,,1,-11.99998873,-3.200006485,1,0,0,rectangle,-11.99998873,-3.200006485,1,0,0,-11.99998873,-3.200006485,1,0,0,0,137,137,120,1,,,,,,,,
,,,,,,,,,,,,,FF,,,,,,,,0.9165,,,,,,,,,,,,,,,,,,,,,,61030fd06c01209b13e99780,61036d8ff1c60369da7b77ba,2021-07-29_23h10.54.393,Simcolourproject_2stim_asymm_v5,2020.2.10,Win32,60,61025ae37ef11b136ea224fe,,,,,,,,,1965,-88.79998988,43.99999422,1,0,0,response7disk,,1,15.20001167,-5.600006521,1,0,0,rectangle,15.20001167,-5.600006521,1,0,0,15.20001167,-5.600006521,1,0,0,0,138,138,56,1,,,,,,,,
,,,,,,,,,,,,,FF,,,,,,,,1.1336,,,,,,,,,,,,,,,,,,,,,,61030fd06c01209b13e99780,61036d8ff1c60369da7b77ba,2021-07-29_23h10.54.393,Simcolourproject_2stim_asymm_v5,2020.2.10,Win32,60,61025ae37ef11b136ea224fe,,,,,,,,,981,-46.39994042,-102.400008,1,0,0,response5disk,,3,4.800011516,0.799993575,1,0,0,rectangle,4.800011516,0.799993575,1,0,0,4.800011516,0.799993575,1,0,0,0,139,139,146,1,,,,,,,,
,,,,,,,,,,,,,FF,,,,,,,,1.3331,,,,,,,,,,,,,,,,,,,,,,61030fd06c01209b13e99780,61036d8ff1c60369da7b77ba,2021-07-29_23h10.54.393,Simcolourproject_2stim_asymm_v5,2020.2.10,Win32,60,61025ae37ef11b136ea224fe,,,,,,,,,238,99.20001292,55.9999944,1,0,0,response1disk,,6,12.00001162,0.799993575,1,0,0,rectangle,12.00001162,0.799993575,1,0,0,12.00001162,0.799993575,1,0,0,0,140,140,3,1,,,,,,,,
,,,,,,,,,,,,,FF,,,,,,,,1.2334,,,,,,,,,,,,,,,,,,,,,,61030fd06c01209b13e99780,61036d8ff1c60369da7b77ba,2021-07-29_23h10.54.393,Simcolourproject_2stim_asymm_v5,2020.2.10,Win32,60,61025ae37ef11b136ea224fe,,,,,,,,,3783,-95.99998999,-56.00000727,1,0,0,response5disk,,2,8.800011575,8.799993694,1,0,0,rectangle,8.800011575,8.799993694,1,0,0,8.800011575,8.799993694,1,0,0,0,141,141,79,1,,,,,,,,
,,,,,,,,,,,,,FF,,,,,,,,1.0213,,,,,,,,,,,,,,,,,,,,,,61030fd06c01209b13e99780,61036d8ff1c60369da7b77ba,2021-07-29_23h10.54.393,Simcolourproject_2stim_asymm_v5,2020.2.10,Win32,60,61025ae37ef11b136ea224fe,,,,,,,,,977,-88.79998988,-43.20000708,1,0,0,response5disk,,2,8.800011575,-8.800006568,1,0,0,rectangle,8.800011575,-8.800006568,1,0,0,8.800011575,-8.800006568,1,0,0,0,142,142,99,1,,,,,,,,
,,,,,,,,,,,,,FF,,,,,,,,1.0542,,,,,,,,,,,,,,,,,,,,,,61030fd06c01209b13e99780,61036d8ff1c60369da7b77ba,2021-07-29_23h10.54.393,Simcolourproject_2stim_asymm_v5,2020.2.10,Win32,60,61025ae37ef11b136ea224fe,,,,,,,,,3093,-50.39994048,-27.20000684,1,0,0,response5disk,,2,-8.799988687,-11.2000066,1,0,0,rectangle,-8.799988687,-11.2000066,1,0,0,-8.799988687,-11.2000066,1,0,0,0,143,143,152,1,,,,,,,,
,,,,,,,,,,,,,FF,,,,,,,,1.1717,,,,,,,,,,,,,,,,,,,,,,61030fd06c01209b13e99780,61036d8ff1c60369da7b77ba,2021-07-29_23h10.54.393,Simcolourproject_2stim_asymm_v5,2020.2.10,Win32,60,61025ae37ef11b136ea224fe,,,,,,,,,2713,-31.99998903,-76.00000757,1,0,0,response5disk,,3,-7.199988663,-6.4373E-06,1,0,0,rectangle,-7.199988663,-6.4373E-06,1,0,0,-7.199988663,-6.4373E-06,1,0,0,0,144,144,98,1,,,,,,,,
,,,,,,,,,,,,,FF,,,,,,,,1.6834,,,,,,,,,,,,,,,,,,,,,,61030fd06c01209b13e99780,61036d8ff1c60369da7b77ba,2021-07-29_23h10.54.393,Simcolourproject_2stim_asymm_v5,2020.2.10,Win32,60,61025ae37ef11b136ea224fe,,,,,,,,,3871,112.0000131,46.39999425,1,0,0,response1disk,,6,8.000011563,-6.4373E-06,1,0,0,rectangle,8.000011563,-6.4373E-06,1,0,0,8.000011563,-6.4373E-06,1,0,0,0,145,145,107,1,,,,,,,,
,,,,,,,,,,,,,FF,,,,,,,,1.0001,,,,,,,,,,,,,,,,,,,,,,61030fd06c01209b13e99780,61036d8ff1c60369da7b77ba,2021-07-29_23h10.54.393,Simcolourproject_2stim_asymm_v5,2020.2.10,Win32,60,61025ae37ef11b136ea224fe,,,,,,,,,1212,-73.59998965,-37.600007,1,0,0,response5disk,,2,-5.599988639,7.19999367,1,0,0,rectangle,-5.599988639,7.19999367,1,0,0,-5.599988639,7.19999367,1,0,0,0,146,146,93,1,,,,,,,,
,,,,,,,,,,,,,FF,,,,,,,,1.2423,,,,,,,,,,,,,,,,,,,,,,61030fd06c01209b13e99780,61036d8ff1c60369da7b77ba,2021-07-29_23h10.54.393,Simcolourproject_2stim_asymm_v5,2020.2.10,Win32,60,61025ae37ef11b136ea224fe,,,,,,,,,1687,-30.39994018,-103.200008,1,0,0,response5disk,,3,-10.39993988,7.999993682,1,0,0,rectangle,-10.39993988,7.999993682,1,0,0,-10.39993988,7.999993682,1,0,0,0,147,147,88,1,,,,,,,,
,,,,,,,,,,,,,FF,,,,,,,,1.5333,,,,,,,,,,,,,,,,,,,,,,61030fd06c01209b13e99780,61036d8ff1c60369da7b77ba,2021-07-29_23h10.54.393,Simcolourproject_2stim_asymm_v5,2020.2.10,Win32,60,61025ae37ef11b136ea224fe,,,,,,,,,2255,89.60001278,-49.60000718,1,0,0,response3disk,,5,-2.399939764,11.99999374,1,0,0,rectangle,-2.399939764,11.99999374,1,0,0,-2.399939764,11.99999374,1,0,0,0,148,148,51,1,,,,,,,,
,,,,,,,,,,,,,FF,,,,,,,,1.2047,,,,,,,,,,,,,,,,,,,,,,61030fd06c01209b13e99780,61036d8ff1c60369da7b77ba,2021-07-29_23h10.54.393,Simcolourproject_2stim_asymm_v5,2020.2.10,Win32,60,61025ae37ef11b136ea224fe,,,,,,,,,3014,44.80001211,-113.600057,1,0,0,response3disk,,4,-19.19998884,-3.200006485,1,0,0,rectangle,-19.19998884,-3.200006485,1,0,0,-19.19998884,-3.200006485,1,0,0,0,149,149,91,1,,,,,,,,
,,,,,,,,,,,,,FF,,,,,,,,1.5387,,,,,,,,,,,,,,,,,,,,,,61030fd06c01209b13e99780,61036d8ff1c60369da7b77ba,2021-07-29_23h10.54.393,Simcolourproject_2stim_asymm_v5,2020.2.10,Win32,60,61025ae37ef11b136ea224fe,,,,,,,,,2441,101.600013,-52.80000722,1,0,0,response3disk,,5,12.00001162,-6.4373E-06,1,0,0,rectangle,12.00001162,-6.4373E-06,1,0,0,12.00001162,-6.4373E-06,1,0,0,0,150,150,43,1,,,,,,,,
,,,,,,,,,,,,,FF,,,,,,,,1.4503,,,,,,,,,,,,,,,,,,,,,,61030fd06c01209b13e99780,61036d8ff1c60369da7b77ba,2021-07-29_23h10.54.393,Simcolourproject_2stim_asymm_v5,2020.2.10,Win32,60,61025ae37ef11b136ea224fe,,,,,,,,,1193,105.600013,26.39999396,1,0,0,response1disk,,6,15.20001167,-8.800006568,1,0,0,rectangle,15.20001167,-8.800006568,1,0,0,15.20001167,-8.800006568,1,0,0,0,151,151,27,1,,,,,,,,
,,,,,,,,,,,,,FF,,,,,,,,2.1374,,,,,,,,,,,,,,,,,,,,,,61030fd06c01209b13e99780,61036d8ff1c60369da7b77ba,2021-07-29_23h10.54.393,Simcolourproject_2stim_asymm_v5,2020.2.10,Win32,60,61025ae37ef11b136ea224fe,,,,,,,,,2847,89.60001278,-49.60000718,1,0,0,response3disk,,5,1.14441E-05,15.19999379,1,0,0,rectangle,1.14441E-05,15.19999379,1,0,0,1.14441E-05,15.19999379,1,0,0,0,152,152,25,1,,,,,,,,
,,,,,,,,,,,,,FF,,,,,,,,1.9504,,,,,,,,,,,,,,,,,,,,,,61030fd06c01209b13e99780,61036d8ff1c60369da7b77ba,2021-07-29_23h10.54.393,Simcolourproject_2stim_asymm_v5,2020.2.10,Win32,60,61025ae37ef11b136ea224fe,,,,,,,,,2965,95.20001286,35.9999941,1,0,0,response1disk,,6,-3.199988604,-4.000006497,1,0,0,rectangle,-3.199988604,-4.000006497,1,0,0,-3.199988604,-4.000006497,1,0,0,0,153,153,156,1,,,,,,,,
,,,,,,,,,,,,,FF,,,,,,,,1.2165,,,,,,,,,,,,,,,,,,,,,,61030fd06c01209b13e99780,61036d8ff1c60369da7b77ba,2021-07-29_23h10.54.393,Simcolourproject_2stim_asymm_v5,2020.2.10,Win32,60,61025ae37ef11b136ea224fe,,,,,,,,,3890,51.20001221,72.79999465,1,0,0,response1disk,,7,1.14441E-05,2.399993598,1,0,0,rectangle,1.14441E-05,2.399993598,1,0,0,1.14441E-05,2.399993598,1,0,0,0,154,154,109,1,,,,,,,,
,,,,,,,,,,,,,FF,,,,,,,,2.1001,,,,,,,,,,,,,,,,,,,,,,61030fd06c01209b13e99780,61036d8ff1c60369da7b77ba,2021-07-29_23h10.54.393,Simcolourproject_2stim_asymm_v5,2020.2.10,Win32,60,61025ae37ef11b136ea224fe,,,,,,,,,2686,125.6000133,40.79999417,1,0,0,response1disk,,6,1.14441E-05,-0.800006449,1,0,0,rectangle,1.14441E-05,-0.800006449,1,0,0,1.14441E-05,-0.800006449,1,0,0,0,155,155,122,1,,,,,,,,
,,,,,,,,,,,,,FF,,,,,,,,1.2169,,,,,,,,,,,,,,,,,,,,,,61030fd06c01209b13e99780,61036d8ff1c60369da7b77ba,2021-07-29_23h10.54.393,Simcolourproject_2stim_asymm_v5,2020.2.10,Win32,60,61025ae37ef11b136ea224fe,,,,,,,,,2298,-95.99998999,-45.60000712,1,0,0,response5disk,,2,3.200011492,-4.800006509,1,0,0,rectangle,3.200011492,-4.800006509,1,0,0,3.200011492,-4.800006509,1,0,0,0,156,156,126,1,,,,,,,,
,,,,,,,,,,,,,FF,,,,,,,,1.7003,,,,,,,,,,,,,,,,,,,,,,61030fd06c01209b13e99780,61036d8ff1c60369da7b77ba,2021-07-29_23h10.54.393,Simcolourproject_2stim_asymm_v5,2020.2.10,Win32,60,61025ae37ef11b136ea224fe,,,,,,,,,2846,-40.79998916,-112.8000081,1,0,0,response5disk,,3,5.600060356,11.99999374,1,0,0,rectangle,5.600060356,11.99999374,1,0,0,5.600060356,11.99999374,1,0,0,0,157,157,125,1,,,,,,,,
,,,,,,,,,,,,,FF,,,,,,,,1.7876,,,,,,,,,,,,,,,,,,,,,,61030fd06c01209b13e99780,61036d8ff1c60369da7b77ba,2021-07-29_23h10.54.393,Simcolourproject_2stim_asymm_v5,2020.2.10,Win32,60,61025ae37ef11b136ea224fe,,,,,,,,,2433,38.40001202,-105.6000568,1,0,0,response3disk,,4,2.40001148,6.399993658,1,0,0,rectangle,2.40001148,6.399993658,1,0,0,2.40001148,6.399993658,1,0,0,0,158,158,59,1,,,,,,,,
,,,,,,,,,,,,,FF,,,,,,,,1.0835,,,,,,,,,,,,,,,,,,,,,,61030fd06c01209b13e99780,61036d8ff1c60369da7b77ba,2021-07-29_23h10.54.393,Simcolourproject_2stim_asymm_v5,2020.2.10,Win32,60,61025ae37ef11b136ea224fe,,,,,,,,,3274,34.40001196,67.19997015,1,0,0,response1disk,,7,9.600060415,-0.800006449,1,0,0,rectangle,9.600060415,-0.800006449,1,0,0,9.600060415,-0.800006449,1,0,0,0,159,159,116,1,,,,,,,,
,,,,,,,,,,,,,FF,,,,,,,,2.2332,,,,,,,,,,,,,,,,,,,,,,61030fd06c01209b13e99780,61036d8ff1c60369da7b77ba,2021-07-29_23h10.54.393,Simcolourproject_2stim_asymm_v5,2020.2.10,Win32,60,61025ae37ef11b136ea224fe,,,,,,,,,2759,98.40001291,39.19996973,1,0,0,response1disk,,6,-3.999988616,-6.400006533,1,0,0,rectangle,-3.999988616,-6.400006533,1,0,0,-3.999988616,-6.400006533,1,0,0,1,0,160,61,1,,,,,,,,
,,,,,,,,,,,,,FF,,,,,,,,1.2338,,,,,,,,,,,,,,,,,,,,,,61030fd06c01209b13e99780,61036d8ff1c60369da7b77ba,2021-07-29_23h10.54.393,Simcolourproject_2stim_asymm_v5,2020.2.10,Win32,60,61025ae37ef11b136ea224fe,,,,,,,,,1609,-62.39994066,111.9999952,1,0,0,response7disk,,0,-1.59998858,-2.400006473,1,0,0,rectangle,-1.59998858,-2.400006473,1,0,0,-1.59998858,-2.400006473,1,0,0,1,1,161,32,1,,,,,,,,
,,,,,,,,,,,,,FF,,,,,,,,1.4666,,,,,,,,,,,,,,,,,,,,,,61030fd06c01209b13e99780,61036d8ff1c60369da7b77ba,2021-07-29_23h10.54.393,Simcolourproject_2stim_asymm_v5,2020.2.10,Win32,60,61025ae37ef11b136ea224fe,,,,,,,,,4026,-37.59998912,-89.6000566,1,0,0,response5disk,,3,25.60006065,15.19999379,1,0,0,rectangle,25.60006065,15.19999379,1,0,0,25.60006065,15.19999379,1,0,0,1,2,162,79,1,,,,,,,,
,,,,,,,,,,,,,FF,,,,,,,,2.1005,,,,,,,,,,,,,,,,,,,,,,61030fd06c01209b13e99780,61036d8ff1c60369da7b77ba,2021-07-29_23h10.54.393,Simcolourproject_2stim_asymm_v5,2020.2.10,Win32,60,61025ae37ef11b136ea224fe,,,,,,,,,468,36.80001199,-101.6000568,1,0,0,response3disk,,4,-5.599988639,-4.000006497,1,0,0,rectangle,-5.599988639,-4.000006497,1,0,0,-5.599988639,-4.000006497,1,0,0,1,3,163,94,1,,,,,,,,
,,,,,,,,,,,,,FF,,,,,,,,2.1003,,,,,,,,,,,,,,,,,,,,,,61030fd06c01209b13e99780,61036d8ff1c60369da7b77ba,2021-07-29_23h10.54.393,Simcolourproject_2stim_asymm_v5,2020.2.10,Win32,60,61025ae37ef11b136ea224fe,,,,,,,,,2730,-51.99998933,-95.20000786,1,0,0,response5disk,,3,17.60006053,15.19999379,1,0,0,rectangle,17.60006053,15.19999379,1,0,0,17.60006053,15.19999379,1,0,0,1,4,164,132,1,,,,,,,,
,,,,,,,,,,,,,FF,,,,,,,,2.2049,,,,,,,,,,,,,,,,,,,,,,61030fd06c01209b13e99780,61036d8ff1c60369da7b77ba,2021-07-29_23h10.54.393,Simcolourproject_2stim_asymm_v5,2020.2.10,Win32,60,61025ae37ef11b136ea224fe,,,,,,,,,984,34.40001196,-83.20000768,1,0,0,response3disk,,4,7.200011551,-10.40000659,1,0,0,rectangle,7.200011551,-10.40000659,1,0,0,7.200011551,-10.40000659,1,0,0,1,5,165,10,1,,,,,,,,
,,,,,,,,,,,,,FF,,,,,,,,4.8002,,,,,,,,,,,,,,,,,,,,,,61030fd06c01209b13e99780,61036d8ff1c60369da7b77ba,2021-07-29_23h10.54.393,Simcolourproject_2stim_asymm_v5,2020.2.10,Win32,60,61025ae37ef11b136ea224fe,,,,,,,,,3134,93.60001284,-45.60000712,1,0,0,response3disk,,5,-11.19998872,7.999993682,1,0,0,rectangle,-11.19998872,7.999993682,1,0,0,-11.19998872,7.999993682,1,0,0,1,6,166,150,1,,,,,,,,
,,,,,,,,,,,,,FF,,,,,,,,1.5004,,,,,,,,,,,,,,,,,,,,,,61030fd06c01209b13e99780,61036d8ff1c60369da7b77ba,2021-07-29_23h10.54.393,Simcolourproject_2stim_asymm_v5,2020.2.10,Win32,60,61025ae37ef11b136ea224fe,,,,,,,,,480,86.40001273,-24.80000681,1,0,0,response3disk,,5,28.00001186,10.39999372,1,0,0,rectangle,28.00001186,10.39999372,1,0,0,28.00001186,10.39999372,1,0,0,1,7,167,137,1,,,,,,,,
,,,,,,,,,,,,,FF,,,,,,,,0.917,,,,,,,,,,,,,,,,,,,,,,61030fd06c01209b13e99780,61036d8ff1c60369da7b77ba,2021-07-29_23h10.54.393,Simcolourproject_2stim_asymm_v5,2020.2.10,Win32,60,61025ae37ef11b136ea224fe,,,,,,,,,1997,90.40001279,49.5999943,1,0,0,response1disk,,6,16.80001169,11.19999373,1,0,0,rectangle,16.80001169,11.19999373,1,0,0,16.80001169,11.19999373,1,0,0,1,8,168,87,1,,,,,,,,
,,,,,,,,,,,,,FF,,,,,,,,1.2501,,,,,,,,,,,,,,,,,,,,,,61030fd06c01209b13e99780,61036d8ff1c60369da7b77ba,2021-07-29_23h10.54.393,Simcolourproject_2stim_asymm_v5,2020.2.10,Win32,60,61025ae37ef11b136ea224fe,,,,,,,,,744,68.00001246,-53.60000724,1,0,0,response3disk,,5,17.60006053,-10.40000659,1,0,0,rectangle,112.8000131,47.99999428,1,0,0,-20.79998887,-5.600006521,1,0,0,1,9,169,74,1,,response1disk_3,TRUE,6,6,"[196,262,292,267,179,5,132,263,182,234,174,170,7,252,273,109,118,117,94,272]",2.117,rectangle
,,,,,,,,,,,,,FF,,,,,,,,1.0339,,,,,,,,,,,,,,,,,,,,,,61030fd06c01209b13e99780,61036d8ff1c60369da7b77ba,2021-07-29_23h10.54.393,Simcolourproject_2stim_asymm_v5,2020.2.10,Win32,60,61025ae37ef11b136ea224fe,,,,,,,,,1895,-91.19998991,-60.80000734,1,0,0,response5disk,,2,-0.799988568,-2.400006473,1,0,0,rectangle,-0.799988568,-2.400006473,1,0,0,-0.799988568,-2.400006473,1,0,0,1,10,170,52,1,,,,,,,,
,,,,,,,,,,,,,FF,,,,,,,,1.3894,,,,,,,,,,,,,,,,,,,,,,61030fd06c01209b13e99780,61036d8ff1c60369da7b77ba,2021-07-29_23h10.54.393,Simcolourproject_2stim_asymm_v5,2020.2.10,Win32,60,61025ae37ef11b136ea224fe,,,,,,,,,3096,-39.19998914,99.19997063,1,0,0,response7disk,,0,-2.399939764,11.99999374,1,0,0,rectangle,-2.399939764,11.99999374,1,0,0,-2.399939764,11.99999374,1,0,0,1,11,171,57,1,,,,,,,,
,,,,,,,,,,,,,FF,,,,,,,,2.3635,,,,,,,,,,,,,,,,,,,,,,61030fd06c01209b13e99780,61036d8ff1c60369da7b77ba,2021-07-29_23h10.54.393,Simcolourproject_2stim_asymm_v5,2020.2.10,Win32,60,61025ae37ef11b136ea224fe,,,,,,,,,561,41.60006089,-101.6000568,1,0,0,response3disk,,4,-11.99998873,4.799993634,1,0,0,rectangle,-11.99998873,4.799993634,1,0,0,-11.99998873,4.799993634,1,0,0,1,12,172,11,1,,,,,,,,
,,,,,,,,,,,,,FF,,,,,,,,1.9546,,,,,,,,,,,,,,,,,,,,,,61030fd06c01209b13e99780,61036d8ff1c60369da7b77ba,2021-07-29_23h10.54.393,Simcolourproject_2stim_asymm_v5,2020.2.10,Win32,60,61025ae37ef11b136ea224fe,,,,,,,,,1180,109.6000131,41.59999418,1,0,0,response1disk,,6,-4.799988627,2.399993598,1,0,0,rectangle,47.20001215,115.9999953,1,0,0,-5.599988639,-2.400006473,1,0,0,1,13,173,141,1,,response1disk_3,TRUE,7,7,"[196,262,292,267,179,5,132,263,182,234,174,170,7,252,273,109,118,117,94,272]",1.8963,rectangle
,,,,,,,,,,,,,FF,,,,,,,,2.7838,,,,,,,,,,,,,,,,,,,,,,61030fd06c01209b13e99780,61036d8ff1c60369da7b77ba,2021-07-29_23h10.54.393,Simcolourproject_2stim_asymm_v5,2020.2.10,Win32,60,61025ae37ef11b136ea224fe,,,,,,,,,2578,108.8000131,24.79999393,1,0,0,response1disk,,6,4.000011504,6.399993658,1,0,0,rectangle,4.000011504,6.399993658,1,0,0,4.000011504,6.399993658,1,0,0,1,14,174,84,1,,,,,,,,
,,,,,,,,,,,,,FF,,,,,,,,1.9674,,,,,,,,,,,,,,,,,,,,,,61030fd06c01209b13e99780,61036d8ff1c60369da7b77ba,2021-07-29_23h10.54.393,Simcolourproject_2stim_asymm_v5,2020.2.10,Win32,60,61025ae37ef11b136ea224fe,,,,,,,,,2146,94.40001285,34.39999408,1,0,0,response1disk,,6,-3.999988616,-3.200006485,1,0,0,rectangle,-3.999988616,-3.200006485,1,0,0,-3.999988616,-3.200006485,1,0,0,1,15,175,117,1,,,,,,,,
,,,,,,,,,,,,,FF,,,,,,,,1.2338,,,,,,,,,,,,,,,,,,,,,,61030fd06c01209b13e99780,61036d8ff1c60369da7b77ba,2021-07-29_23h10.54.393,Simcolourproject_2stim_asymm_v5,2020.2.10,Win32,60,61025ae37ef11b136ea224fe,,,,,,,,,3940,-94.39994113,-39.20000702,1,0,0,response5disk,,2,0.800011456,-13.60000664,1,0,0,rectangle,0.800011456,-13.60000664,1,0,0,0.800011456,-13.60000664,1,0,0,1,16,176,21,1,,,,,,,,
,,,,,,,,,,,,,FF,,,,,,,,1.2007,,,,,,,,,,,,,,,,,,,,,,61030fd06c01209b13e99780,61036d8ff1c60369da7b77ba,2021-07-29_23h10.54.393,Simcolourproject_2stim_asymm_v5,2020.2.10,Win32,60,61025ae37ef11b136ea224fe,,,,,,,,,2232,-76.7999897,-39.20000702,1,0,0,response5disk,,2,-5.599988639,-0.800006449,1,0,0,rectangle,-5.599988639,-0.800006449,1,0,0,-5.599988639,-0.800006449,1,0,0,1,17,177,51,1,,,,,,,,
,,,,,,,,,,,,,FF,,,,,,,,0.8168,,,,,,,,,,,,,,,,,,,,,,61030fd06c01209b13e99780,61036d8ff1c60369da7b77ba,2021-07-29_23h10.54.393,Simcolourproject_2stim_asymm_v5,2020.2.10,Win32,60,61025ae37ef11b136ea224fe,,,,,,,,,1825,-77.59998971,-35.20000696,1,0,0,response5disk,,2,25.60006065,-0.800006449,1,0,0,rectangle,-101.5999901,-32.80000693,1,0,0,-1.59998858,0.799993575,1,0,0,1,18,178,115,1,,response5disk_3,TRUE,2,2,"[196,262,292,267,179,5,132,263,182,234,174,170,7,252,273,109,118,117,94,272]",2.4003,rectangle
,,,,,,,,,,,,,FF,,,,,,,,2.2172,,,,,,,,,,,,,,,,,,,,,,61030fd06c01209b13e99780,61036d8ff1c60369da7b77ba,2021-07-29_23h10.54.393,Simcolourproject_2stim_asymm_v5,2020.2.10,Win32,60,61025ae37ef11b136ea224fe,,,,,,,,,3972,-59.99998945,-97.60005672,1,0,0,response5disk,,3,4.800011516,3.999993622,1,0,0,rectangle,4.800011516,3.999993622,1,0,0,4.800011516,3.999993622,1,0,0,1,19,179,97,1,,,,,,,,
,,,,,,,,,,,,,FF,,,,,,,,3.371,,,,,,,,,,,,,,,,,,,,,,61030fd06c01209b13e99780,61036d8ff1c60369da7b77ba,2021-07-29_23h10.54.393,Simcolourproject_2stim_asymm_v5,2020.2.10,Win32,60,61025ae37ef11b136ea224fe,,,,,,,,,1062,45.60006095,-109.6000569,1,0,0,response3disk,,4,-0.799988568,-6.4373E-06,1,0,0,rectangle,-0.799988568,-6.4373E-06,1,0,0,-0.799988568,-6.4373E-06,1,0,0,1,20,180,109,1,,,,,,,,
,,,,,,,,,,,,,FF,,,,,,,,0.9887,,,,,,,,,,,,,,,,,,,,,,61030fd06c01209b13e99780,61036d8ff1c60369da7b77ba,2021-07-29_23h10.54.393,Simcolourproject_2stim_asymm_v5,2020.2.10,Win32,60,61025ae37ef11b136ea224fe,,,,,,,,,1455,-39.19998914,-112.0000081,1,0,0,response5disk,,3,-2.399939764,6.399993658,1,0,0,rectangle,105.600013,-40.80000705,1,0,0,14.40001166,4.799993634,1,0,0,1,21,181,43,1,,response3disk_3,TRUE,5,5,"[196,262,292,267,179,5,132,263,182,234,174,170,7,252,273,109,118,117,94,272]",1.6041,rectangle
,,,,,,,,,,,,,FF,,,,,,,,1.6333,,,,,,,,,,,,,,,,,,,,,,61030fd06c01209b13e99780,61036d8ff1c60369da7b77ba,2021-07-29_23h10.54.393,Simcolourproject_2stim_asymm_v5,2020.2.10,Win32,60,61025ae37ef11b136ea224fe,,,,,,,,,291,39.20001203,-86.40000772,1,0,0,response3disk,,4,-5.599988639,-12.00000662,1,0,0,rectangle,-5.599988639,-12.00000662,1,0,0,-5.599988639,-12.00000662,1,0,0,1,22,182,114,1,,,,,,,,
,,,,,,,,,,,,,FF,,,,,,,,0.9006,,,,,,,,,,,,,,,,,,,,,,61030fd06c01209b13e99780,61036d8ff1c60369da7b77ba,2021-07-29_23h10.54.393,Simcolourproject_2stim_asymm_v5,2020.2.10,Win32,60,61025ae37ef11b136ea224fe,,,,,,,,,1050,-43.1999892,112.7999952,1,0,0,response7disk,,0,-15.19998878,2.399993598,1,0,0,rectangle,-15.19998878,2.399993598,1,0,0,-15.19998878,2.399993598,1,0,0,1,23,183,48,1,,,,,,,,
,,,,,,,,,,,,,FF,,,,,,,,2.167,,,,,,,,,,,,,,,,,,,,,,61030fd06c01209b13e99780,61036d8ff1c60369da7b77ba,2021-07-29_23h10.54.393,Simcolourproject_2stim_asymm_v5,2020.2.10,Win32,60,61025ae37ef11b136ea224fe,,,,,,,,,3931,32.80001193,-81.60005648,0,0,1,response3disk,,4,-6.399939823,2.399993598,1,0,0,rectangle,-6.399939823,2.399993598,1,0,0,-6.399939823,2.399993598,1,0,0,1,24,184,38,1,,,,,,,,
,,,,,,,,,,,,,FF,,,,,,,,1.2378,,,,,,,,,,,,,,,,,,,,,,61030fd06c01209b13e99780,61036d8ff1c60369da7b77ba,2021-07-29_23h10.54.393,Simcolourproject_2stim_asymm_v5,2020.2.10,Win32,60,61025ae37ef11b136ea224fe,,,,,,,,,2481,-106.3999413,34.39999408,1,0,0,response7disk,,1,1.14441E-05,-4.800006509,1,0,0,rectangle,1.14441E-05,-4.800006509,1,0,0,1.14441E-05,-4.800006509,1,0,0,1,25,185,60,1,,,,,,,,
,,,,,,,,,,,,,FF,,,,,,,,1.4502,,,,,,,,,,,,,,,,,,,,,,61030fd06c01209b13e99780,61036d8ff1c60369da7b77ba,2021-07-29_23h10.54.393,Simcolourproject_2stim_asymm_v5,2020.2.10,Win32,60,61025ae37ef11b136ea224fe,,,,,,,,,4223,-28.79998899,-109.6000569,1,0,0,response5disk,,3,4.000011504,2.399993598,1,0,0,rectangle,4.000011504,2.399993598,1,0,0,4.000011504,2.399993598,1,0,0,1,26,186,110,1,,,,,,,,
,,,,,,,,,,,,,FF,,,,,,,,1.1666,,,,,,,,,,,,,,,,,,,,,,61030fd06c01209b13e99780,61036d8ff1c60369da7b77ba,2021-07-29_23h10.54.393,Simcolourproject_2stim_asymm_v5,2020.2.10,Win32,60,61025ae37ef11b136ea224fe,,,,,,,,,3052,-31.19998902,-94.40000784,1,0,0,response5disk,,3,-2.399939764,12.79999375,1,0,0,rectangle,-2.399939764,12.79999375,1,0,0,-2.399939764,12.79999375,1,0,0,1,27,187,146,1,,,,,,,,
,,,,,,,,,,,,,FF,,,,,,,,2.7508,,,,,,,,,,,,,,,,,,,,,,61030fd06c01209b13e99780,61036d8ff1c60369da7b77ba,2021-07-29_23h10.54.393,Simcolourproject_2stim_asymm_v5,2020.2.10,Win32,60,61025ae37ef11b136ea224fe,,,,,,,,,2286,37.60006083,-99.20000792,1,0,0,response3disk,,4,-7.199988663,4.799993634,1,0,0,rectangle,-7.199988663,4.799993634,1,0,0,-7.199988663,4.799993634,1,0,0,1,28,188,144,1,,,,,,,,
,,,,,,,,,,,,,FF,,,,,,,,1.388,,,,,,,,,,,,,,,,,,,,,,61030fd06c01209b13e99780,61036d8ff1c60369da7b77ba,2021-07-29_23h10.54.393,Simcolourproject_2stim_asymm_v5,2020.2.10,Win32,60,61025ae37ef11b136ea224fe,,,,,,,,,2423,-23.99998891,-91.2000078,1,0,0,response5disk,,3,-4.799988627,-6.4373E-06,1,0,0,rectangle,-4.799988627,-6.4373E-06,1,0,0,-4.799988627,-6.4373E-06,1,0,0,1,29,189,124,1,,,,,,,,
,,,,,,,,,,,,,FF,,,,,,,,0.9005,,,,,,,,,,,,,,,,,,,,,,61030fd06c01209b13e99780,61036d8ff1c60369da7b77ba,2021-07-29_23h10.54.393,Simcolourproject_2stim_asymm_v5,2020.2.10,Win32,60,61025ae37ef11b136ea224fe,,,,,,,,,4188,-36.7999891,-104.000008,1,0,0,response5disk,,3,-8.799988687,-3.200006485,1,0,0,rectangle,-8.799988687,-3.200006485,1,0,0,-8.799988687,-3.200006485,1,0,0,1,30,190,158,1,,,,,,,,
,,,,,,,,,,,,,FF,,,,,,,,0.8666,,,,,,,,,,,,,,,,,,,,,,61030fd06c01209b13e99780,61036d8ff1c60369da7b77ba,2021-07-29_23h10.54.393,Simcolourproject_2stim_asymm_v5,2020.2.10,Win32,60,61025ae37ef11b136ea224fe,,,,,,,,,885,-50.39994048,106.3999951,1,0,0,response7disk,,0,4.800011516,-12.00000662,1,0,0,rectangle,4.800011516,-12.00000662,1,0,0,4.800011516,-12.00000662,1,0,0,1,31,191,121,1,,,,,,,,
,,,,,,,,,,,,,FF,,,,,,,,0.8169,,,,,,,,,,,,,,,,,,,,,,61030fd06c01209b13e99780,61036d8ff1c60369da7b77ba,2021-07-29_23h10.54.393,Simcolourproject_2stim_asymm_v5,2020.2.10,Win32,60,61025ae37ef11b136ea224fe,,,,,,,,,3906,-34.39994024,99.99999505,1,0,0,response7disk,,0,5.600060356,-3.200006485,1,0,0,rectangle,5.600060356,-3.200006485,1,0,0,5.600060356,-3.200006485,1,0,0,1,32,192,80,1,,,,,,,,
,,,,,,,,,,,,,FF,,,,,,,,1.1675,,,,,,,,,,,,,,,,,,,,,,61030fd06c01209b13e99780,61036d8ff1c60369da7b77ba,2021-07-29_23h10.54.393,Simcolourproject_2stim_asymm_v5,2020.2.10,Win32,60,61025ae37ef11b136ea224fe,,,,,,,,,3285,-76.7999897,27.19996955,1,0,0,response7disk,,1,-10.39993988,-12.80000663,1,0,0,rectangle,-10.39993988,-12.80000663,1,0,0,-10.39993988,-12.80000663,1,0,0,1,33,193,105,1,,,,,,,,
,,,,,,,,,,,,,FF,,,,,,,,2.0172,,,,,,,,,,,,,,,,,,,,,,61030fd06c01209b13e99780,61036d8ff1c60369da7b77ba,2021-07-29_23h10.54.393,Simcolourproject_2stim_asymm_v5,2020.2.10,Win32,60,61025ae37ef11b136ea224fe,,,,,,,,,1249,58.40001231,106.3999951,1,0,0,response1disk,,7,-18.39994,-4.800006509,1,0,0,rectangle,-18.39994,-4.800006509,1,0,0,-18.39994,-4.800006509,1,0,0,1,34,194,70,1,,,,,,,,
,,,,,,,,,,,,,FF,,,,,,,,1.3043,,,,,,,,,,,,,,,,,,,,,,61030fd06c01209b13e99780,61036d8ff1c60369da7b77ba,2021-07-29_23h10.54.393,Simcolourproject_2stim_asymm_v5,2020.2.10,Win32,60,61025ae37ef11b136ea224fe,,,,,,,,,2583,95.20001286,47.19996985,1,0,0,response1disk,,6,-15.19998878,0.799993575,1,0,0,rectangle,-94.39994113,24.79999393,1,0,0,-14.39993994,-4.800006509,1,0,0,1,35,195,106,1,,response7disk_3,TRUE,1,1,"[196,262,292,267,179,5,132,263,182,234,174,170,7,252,273,109,118,117,94,272]",1.7044,rectangle
,,,,,,,,,,,,,FF,,,,,,,,1.6382,,,,,,,,,,,,,,,,,,,,,,61030fd06c01209b13e99780,61036d8ff1c60369da7b77ba,2021-07-29_23h10.54.393,Simcolourproject_2stim_asymm_v5,2020.2.10,Win32,60,61025ae37ef11b136ea224fe,,,,,,,,,1810,56.80001229,-121.6000571,0,0,1,response3disk,,4,-8.799988687,-8.000006557,1,0,0,rectangle,-8.799988687,-8.000006557,1,0,0,-8.799988687,-8.000006557,1,0,0,1,36,196,77,1,,,,,,,,
,,,,,,,,,,,,,FF,,,,,,,,1.2837,,,,,,,,,,,,,,,,,,,,,,61030fd06c01209b13e99780,61036d8ff1c60369da7b77ba,2021-07-29_23h10.54.393,Simcolourproject_2stim_asymm_v5,2020.2.10,Win32,60,61025ae37ef11b136ea224fe,,,,,,,,,2001,91.2000128,43.99999422,1,0,0,response1disk,,6,-4.799988627,-7.200006545,1,0,0,rectangle,-4.799988627,-7.200006545,1,0,0,-4.799988627,-7.200006545,1,0,0,1,37,197,113,1,,,,,,,,
,,,,,,,,,,,,,FF,,,,,,,,1.5887,,,,,,,,,,,,,,,,,,,,,,61030fd06c01209b13e99780,61036d8ff1c60369da7b77ba,2021-07-29_23h10.54.393,Simcolourproject_2stim_asymm_v5,2020.2.10,Win32,60,61025ae37ef11b136ea224fe,,,,,,,,,1275,80.80001265,-69.60000747,1,0,0,response3disk,,5,-3.199988604,7.999993682,1,0,0,rectangle,-3.199988604,7.999993682,1,0,0,-3.199988604,7.999993682,1,0,0,1,38,198,34,1,,,,,,,,
,,,,,,,,,,,,,FF,,,,,,,,6.2841,,,,,,,,,,,,,,,,,,,,,,61030fd06c01209b13e99780,61036d8ff1c60369da7b77ba,2021-07-29_23h10.54.393,Simcolourproject_2stim_asymm_v5,2020.2.10,Win32,60,61025ae37ef11b136ea224fe,,,,,,,,,1039,105.600013,-24.00000679,1,0,0,response3disk,,5,19.20001173,2.399993598,1,0,0,rectangle,19.20001173,2.399993598,1,0,0,19.20001173,2.399993598,1,0,0,1,39,199,40,1,,,,,,,,
,,,,,,,,,,,,,FF,,,,,,,,1.067,,,,,,,,,,,,,,,,,,,,,,61030fd06c01209b13e99780,61036d8ff1c60369da7b77ba,2021-07-29_23h10.54.393,Simcolourproject_2stim_asymm_v5,2020.2.10,Win32,60,61025ae37ef11b136ea224fe,,,,,,,,,0,-104.7999901,37.59999412,1,0,0,response7disk,,1,-31.19998902,-5.600006521,1,0,0,rectangle,-31.19998902,-5.600006521,1,0,0,-31.19998902,-5.600006521,1,0,0,1,40,200,58,1,,,,,,,,
,,,,,,,,,,,,,FF,,,,,,,,1.7667,,,,,,,,,,,,,,,,,,,,,,61030fd06c01209b13e99780,61036d8ff1c60369da7b77ba,2021-07-29_23h10.54.393,Simcolourproject_2stim_asymm_v5,2020.2.10,Win32,60,61025ae37ef11b136ea224fe,,,,,,,,,3009,37.60006083,-67.20000744,1,0,0,response3disk,,4,11.20001161,-8.800006568,1,0,0,rectangle,11.20001161,-8.800006568,1,0,0,11.20001161,-8.800006568,1,0,0,1,41,201,47,1,,,,,,,,
,,,,,,,,,,,,,FF,,,,,,,,2.3166,,,,,,,,,,,,,,,,,,,,,,61030fd06c01209b13e99780,61036d8ff1c60369da7b77ba,2021-07-29_23h10.54.393,Simcolourproject_2stim_asymm_v5,2020.2.10,Win32,60,61025ae37ef11b136ea224fe,,,,,,,,,1500,112.0000131,34.39999408,1,0,0,response1disk,,6,9.600060415,-0.800006449,1,0,0,rectangle,9.600060415,-0.800006449,1,0,0,9.600060415,-0.800006449,1,0,0,1,42,202,46,1,,,,,,,,
,,,,,,,,,,,,,FF,,,,,,,,1.1542,,,,,,,,,,,,,,,,,,,,,,61030fd06c01209b13e99780,61036d8ff1c60369da7b77ba,2021-07-29_23h10.54.393,Simcolourproject_2stim_asymm_v5,2020.2.10,Win32,60,61025ae37ef11b136ea224fe,,,,,,,,,1962,-103.9999901,-36.00000697,1,0,0,response5disk,,2,8.800011575,-12.00000662,1,0,0,rectangle,8.800011575,-12.00000662,1,0,0,8.800011575,-12.00000662,1,0,0,1,43,203,31,1,,,,,,,,
,,,,,,,,,,,,,FF,,,,,,,,1.8044,,,,,,,,,,,,,,,,,,,,,,61030fd06c01209b13e99780,61036d8ff1c60369da7b77ba,2021-07-29_23h10.54.393,Simcolourproject_2stim_asymm_v5,2020.2.10,Win32,60,61025ae37ef11b136ea224fe,,,,,,,,,1393,45.60006095,-108.000008,1,0,0,response3disk,,4,4.000011504,-6.4373E-06,1,0,0,rectangle,4.000011504,-6.4373E-06,1,0,0,4.000011504,-6.4373E-06,1,0,0,1,44,204,143,1,,,,,,,,
,,,,,,,,,,,,,FF,,,,,,,,2.5503,,,,,,,,,,,,,,,,,,,,,,61030fd06c01209b13e99780,61036d8ff1c60369da7b77ba,2021-07-29_23h10.54.393,Simcolourproject_2stim_asymm_v5,2020.2.10,Win32,60,61025ae37ef11b136ea224fe,,,,,,,,,4039,120.0000132,-36.80000699,1,0,0,response3disk,,5,-8.799988687,-6.4373E-06,1,0,0,rectangle,-8.799988687,-6.4373E-06,1,0,0,-8.799988687,-6.4373E-06,1,0,0,1,45,205,130,1,,,,,,,,
,,,,,,,,,,,,,FF,,,,,,,,1.0002,,,,,,,,,,,,,,,,,,,,,,61030fd06c01209b13e99780,61036d8ff1c60369da7b77ba,2021-07-29_23h10.54.393,Simcolourproject_2stim_asymm_v5,2020.2.10,Win32,60,61025ae37ef11b136ea224fe,,,,,,,,,1095,36.80001199,83.19997039,1,0,0,response1disk,,7,-4.799988627,10.39999372,1,0,0,rectangle,-4.799988627,10.39999372,1,0,0,-4.799988627,10.39999372,1,0,0,1,46,206,53,1,,,,,,,,
,,,,,,,,,,,,,FF,,,,,,,,1.5666,,,,,,,,,,,,,,,,,,,,,,61030fd06c01209b13e99780,61036d8ff1c60369da7b77ba,2021-07-29_23h10.54.393,Simcolourproject_2stim_asymm_v5,2020.2.10,Win32,60,61025ae37ef11b136ea224fe,,,,,,,,,1277,60.80001235,90.39999491,1,0,0,response1disk,,7,5.600060356,2.399993598,1,0,0,rectangle,5.600060356,2.399993598,1,0,0,5.600060356,2.399993598,1,0,0,1,47,207,49,1,,,,,,,,
,,,,,,,,,,,,,FF,,,,,,,,1.2167,,,,,,,,,,,,,,,,,,,,,,61030fd06c01209b13e99780,61036d8ff1c60369da7b77ba,2021-07-29_23h10.54.393,Simcolourproject_2stim_asymm_v5,2020.2.10,Win32,60,61025ae37ef11b136ea224fe,,,,,,,,,1932,122.4000133,30.39999402,1,0,0,response1disk,,6,10.4000116,-2.400006473,1,0,0,rectangle,10.4000116,-2.400006473,1,0,0,10.4000116,-2.400006473,1,0,0,1,48,208,4,1,,,,,,,,
,,,,,,,,,,,,,FF,,,,,,,,1.4563,,,,,,,,,,,,,,,,,,,,,,61030fd06c01209b13e99780,61036d8ff1c60369da7b77ba,2021-07-29_23h10.54.393,Simcolourproject_2stim_asymm_v5,2020.2.10,Win32,60,61025ae37ef11b136ea224fe,,,,,,,,,304,107.200013,31.19996961,1,0,0,response1disk,,6,-3.999988616,-6.4373E-06,1,0,0,rectangle,-3.999988616,-6.4373E-06,1,0,0,-3.999988616,-6.4373E-06,1,0,0,1,49,209,85,1,,,,,,,,
,,,,,,,,,,,,,FF,,,,,,,,1.5461,,,,,,,,,,,,,,,,,,,,,,61030fd06c01209b13e99780,61036d8ff1c60369da7b77ba,2021-07-29_23h10.54.393,Simcolourproject_2stim_asymm_v5,2020.2.10,Win32,60,61025ae37ef11b136ea224fe,,,,,,,,,2389,48.80001217,76.79999471,1,0,0,response1disk,,7,17.60006053,15.19999379,1,0,0,rectangle,17.60006053,15.19999379,1,0,0,17.60006053,15.19999379,1,0,0,1,50,210,7,1,,,,,,,,
,,,,,,,,,,,,,FF,,,,,,,,1.1336,,,,,,,,,,,,,,,,,,,,,,61030fd06c01209b13e99780,61036d8ff1c60369da7b77ba,2021-07-29_23h10.54.393,Simcolourproject_2stim_asymm_v5,2020.2.10,Win32,60,61025ae37ef11b136ea224fe,,,,,,,,,3970,-50.39994048,-110.4000081,1,0,0,response5disk,,3,-6.399939823,-8.000006557,1,0,0,rectangle,-6.399939823,-8.000006557,1,0,0,-6.399939823,-8.000006557,1,0,0,1,51,211,18,1,,,,,,,,
,,,,,,,,,,,,,FF,,,,,,,,1.7333,,,,,,,,,,,,,,,,,,,,,,61030fd06c01209b13e99780,61036d8ff1c60369da7b77ba,2021-07-29_23h10.54.393,Simcolourproject_2stim_asymm_v5,2020.2.10,Win32,60,61025ae37ef11b136ea224fe,,,,,,,,,988,70.40001249,-104.000008,1,0,0,response3disk,,4,6.400011539,15.19999379,1,0,0,rectangle,6.400011539,15.19999379,1,0,0,6.400011539,15.19999379,1,0,0,1,52,212,39,1,,,,,,,,
,,,,,,,,,,,,,FF,,,,,,,,1.3215,,,,,,,,,,,,,,,,,,,,,,61030fd06c01209b13e99780,61036d8ff1c60369da7b77ba,2021-07-29_23h10.54.393,Simcolourproject_2stim_asymm_v5,2020.2.10,Win32,60,61025ae37ef11b136ea224fe,,,,,,,,,3420,-31.19998902,-92.80000782,1,0,0,response5disk,,3,-15.99998879,-6.4373E-06,1,0,0,rectangle,-15.99998879,-6.4373E-06,1,0,0,-15.99998879,-6.4373E-06,1,0,0,1,53,213,153,1,,,,,,,,
,,,,,,,,,,,,,FF,,,,,,,,2.0002,,,,,,,,,,,,,,,,,,,,,,61030fd06c01209b13e99780,61036d8ff1c60369da7b77ba,2021-07-29_23h10.54.393,Simcolourproject_2stim_asymm_v5,2020.2.10,Win32,60,61025ae37ef11b136ea224fe,,,,,,,,,233,53.60001224,83.19997039,1,0,0,response1disk,,7,15.20001167,-4.000006497,1,0,0,rectangle,15.20001167,-4.000006497,1,0,0,15.20001167,-4.000006497,1,0,0,1,54,214,83,1,,,,,,,,
,,,,,,,,,,,,,FF,,,,,,,,1.022,,,,,,,,,,,,,,,,,,,,,,61030fd06c01209b13e99780,61036d8ff1c60369da7b77ba,2021-07-29_23h10.54.393,Simcolourproject_2stim_asymm_v5,2020.2.10,Win32,60,61025ae37ef11b136ea224fe,,,,,,,,,169,-90.39994107,-44.8000071,1,0,0,response5disk,,2,2.40001148,-8.800006568,1,0,0,rectangle,2.40001148,-8.800006568,1,0,0,2.40001148,-8.800006568,1,0,0,1,55,215,8,1,,,,,,,,
,,,,,,,,,,,,,FF,,,,,,,,1.1544,,,,,,,,,,,,,,,,,,,,,,61030fd06c01209b13e99780,61036d8ff1c60369da7b77ba,2021-07-29_23h10.54.393,Simcolourproject_2stim_asymm_v5,2020.2.10,Win32,60,61025ae37ef11b136ea224fe,,,,,,,,,768,64.0000124,90.39999491,1,0,0,response1disk,,7,13.60006047,5.599993646,1,0,0,rectangle,13.60006047,5.599993646,1,0,0,13.60006047,5.599993646,1,0,0,1,56,216,15,1,,,,,,,,
,,,,,,,,,,,,,FF,,,,,,,,0.9002,,,,,,,,,,,,,,,,,,,,,,61030fd06c01209b13e99780,61036d8ff1c60369da7b77ba,2021-07-29_23h10.54.393,Simcolourproject_2stim_asymm_v5,2020.2.10,Win32,60,61025ae37ef11b136ea224fe,,,,,,,,,2225,28.80001187,87.19997045,1,0,0,response1disk,,7,3.200011492,-2.400006473,1,0,0,rectangle,3.200011492,-2.400006473,1,0,0,3.200011492,-2.400006473,1,0,0,1,57,217,149,1,,,,,,,,
,,,,,,,,,,,,,FF,,,,,,,,2.1336,,,,,,,,,,,,,,,,,,,,,,61030fd06c01209b13e99780,61036d8ff1c60369da7b77ba,2021-07-29_23h10.54.393,Simcolourproject_2stim_asymm_v5,2020.2.10,Win32,60,61025ae37ef11b136ea224fe,,,,,,,,,1493,116.8000132,49.5999943,1,0,0,response1disk,,6,-3.999988616,10.39999372,1,0,0,rectangle,-3.999988616,10.39999372,1,0,0,-3.999988616,10.39999372,1,0,0,1,58,218,27,1,,,,,,,,
,,,,,,,,,,,,,FF,,,,,,,,4.8497,,,,,,,,,,,,,,,,,,,,,,61030fd06c01209b13e99780,61036d8ff1c60369da7b77ba,2021-07-29_23h10.54.393,Simcolourproject_2stim_asymm_v5,2020.2.10,Win32,60,61025ae37ef11b136ea224fe,,,,,,,,,4113,52.80001223,-99.20000792,1,0,0,response3disk,,4,20.80001175,-2.400006473,1,0,0,rectangle,20.80001175,-2.400006473,1,0,0,20.80001175,-2.400006473,1,0,0,1,59,219,56,1,,,,,,,,
,,,,,,,,,,,,,FF,,,,,,,,1.6174,,,,,,,,,,,,,,,,,,,,,,61030fd06c01209b13e99780,61036d8ff1c60369da7b77ba,2021-07-29_23h10.54.393,Simcolourproject_2stim_asymm_v5,2020.2.10,Win32,60,61025ae37ef11b136ea224fe,,,,,,,,,3079,46.40001214,102.3999951,1,0,0,response1disk,,7,-1.59998858,-6.4373E-06,1,0,0,rectangle,-1.59998858,-6.4373E-06,1,0,0,-1.59998858,-6.4373E-06,1,0,0,1,60,220,35,1,,,,,,,,
,,,,,,,,,,,,,FF,,,,,,,,1.4878,,,,,,,,,,,,,,,,,,,,,,61030fd06c01209b13e99780,61036d8ff1c60369da7b77ba,2021-07-29_23h10.54.393,Simcolourproject_2stim_asymm_v5,2020.2.10,Win32,60,61025ae37ef11b136ea224fe,,,,,,,,,655,-35.99998909,-100.0000079,1,0,0,response5disk,,3,-21.59998888,5.599993646,1,0,0,rectangle,-21.59998888,5.599993646,1,0,0,-21.59998888,5.599993646,1,0,0,1,61,221,73,1,,,,,,,,
,,,,,,,,,,,,,FF,,,,,,,,1.4714,,,,,,,,,,,,,,,,,,,,,,61030fd06c01209b13e99780,61036d8ff1c60369da7b77ba,2021-07-29_23h10.54.393,Simcolourproject_2stim_asymm_v5,2020.2.10,Win32,60,61025ae37ef11b136ea224fe,,,,,,,,,2637,111.2000131,38.39999413,1,0,0,response1disk,,6,2.40001148,-12.00000662,1,0,0,rectangle,2.40001148,-12.00000662,1,0,0,2.40001148,-12.00000662,1,0,0,1,62,222,93,1,,,,,,,,
,,,,,,,,,,,,,FF,,,,,,,,1.655,,,,,,,,,,,,,,,,,,,,,,61030fd06c01209b13e99780,61036d8ff1c60369da7b77ba,2021-07-29_23h10.54.393,Simcolourproject_2stim_asymm_v5,2020.2.10,Win32,60,61025ae37ef11b136ea224fe,,,,,,,,,3166,115.2000132,31.19996961,1,0,0,response1disk,,6,20.00001174,3.19999361,1,0,0,rectangle,20.00001174,3.19999361,1,0,0,20.00001174,3.19999361,1,0,0,1,63,223,37,1,,,,,,,,
,,,,,,,,,,,,,FF,,,,,,,,1.2543,,,,,,,,,,,,,,,,,,,,,,61030fd06c01209b13e99780,61036d8ff1c60369da7b77ba,2021-07-29_23h10.54.393,Simcolourproject_2stim_asymm_v5,2020.2.10,Win32,60,61025ae37ef11b136ea224fe,,,,,,,,,2674,-30.39994018,-110.4000081,1,0,0,response5disk,,3,-9.599988699,3.999993622,1,0,0,rectangle,-9.599988699,3.999993622,1,0,0,-9.599988699,3.999993622,1,0,0,1,64,224,116,1,,,,,,,,
,,,,,,,,,,,,,FF,,,,,,,,1.2668,,,,,,,,,,,,,,,,,,,,,,61030fd06c01209b13e99780,61036d8ff1c60369da7b77ba,2021-07-29_23h10.54.393,Simcolourproject_2stim_asymm_v5,2020.2.10,Win32,60,61025ae37ef11b136ea224fe,,,,,,,,,2334,47.20001215,-100.0000079,1,0,0,response3disk,,4,13.60006047,-4.000006497,1,0,0,rectangle,13.60006047,-4.000006497,1,0,0,13.60006047,-4.000006497,1,0,0,1,65,225,138,1,,,,,,,,
,,,,,,,,,,,,,FF,,,,,,,,0.9547,,,,,,,,,,,,,,,,,,,,,,61030fd06c01209b13e99780,61036d8ff1c60369da7b77ba,2021-07-29_23h10.54.393,Simcolourproject_2stim_asymm_v5,2020.2.10,Win32,60,61025ae37ef11b136ea224fe,,,,,,,,,3968,-121.5999904,-56.00000727,1,0,0,response5disk,,2,16.80001169,5.599993646,1,0,0,rectangle,16.80001169,5.599993646,1,0,0,16.80001169,5.599993646,1,0,0,1,66,226,122,1,,,,,,,,
,,,,,,,,,,,,,FF,,,,,,,,2.2172,,,,,,,,,,,,,,,,,,,,,,61030fd06c01209b13e99780,61036d8ff1c60369da7b77ba,2021-07-29_23h10.54.393,Simcolourproject_2stim_asymm_v5,2020.2.10,Win32,60,61025ae37ef11b136ea224fe,,,,,,,,,3692,63.20001239,19.99999386,1,0,0,response1disk,,6,30.4000119,-1.600006461,1,0,0,rectangle,30.4000119,-1.600006461,1,0,0,30.4000119,-1.600006461,1,0,0,1,67,227,5,1,,,,,,,,
,,,,,,,,,,,,,FF,,,,,,,,2.088,,,,,,,,,,,,,,,,,,,,,,61030fd06c01209b13e99780,61036d8ff1c60369da7b77ba,2021-07-29_23h10.54.393,Simcolourproject_2stim_asymm_v5,2020.2.10,Win32,60,61025ae37ef11b136ea224fe,,,,,,,,,4301,71.20001251,-29.60000688,1,0,0,response3disk,,5,23.20001179,-6.4373E-06,1,0,0,rectangle,23.20001179,-6.4373E-06,1,0,0,23.20001179,-6.4373E-06,1,0,0,1,68,228,147,1,,,,,,,,
,,,,,,,,,,,,,FF,,,,,,,,1.5669,,,,,,,,,,,,,,,,,,,,,,61030fd06c01209b13e99780,61036d8ff1c60369da7b77ba,2021-07-29_23h10.54.393,Simcolourproject_2stim_asymm_v5,2020.2.10,Win32,60,61025ae37ef11b136ea224fe,,,,,,,,,386,37.60006083,-85.60005654,1,0,0,response3disk,,4,3.200011492,-3.200006485,1,0,0,rectangle,3.200011492,-3.200006485,1,0,0,3.200011492,-3.200006485,1,0,0,1,69,229,118,1,,,,,,,,
,,,,,,,,,,,,,FF,,,,,,,,1.4674,,,,,,,,,,,,,,,,,,,,,,61030fd06c01209b13e99780,61036d8ff1c60369da7b77ba,2021-07-29_23h10.54.393,Simcolourproject_2stim_asymm_v5,2020.2.10,Win32,60,61025ae37ef11b136ea224fe,,,,,,,,,3028,92.80001283,59.19997003,1,0,0,response1disk,,6,10.4000116,4.799993634,1,0,0,rectangle,10.4000116,4.799993634,1,0,0,10.4000116,4.799993634,1,0,0,1,70,230,92,1,,,,,,,,
,,,,,,,,,,,,,FF,,,,,,,,1.45,,,,,,,,,,,,,,,,,,,,,,61030fd06c01209b13e99780,61036d8ff1c60369da7b77ba,2021-07-29_23h10.54.393,Simcolourproject_2stim_asymm_v5,2020.2.10,Win32,60,61025ae37ef11b136ea224fe,,,,,,,,,371,-22.39994006,-99.20000792,1,0,0,response5disk,,3,12.80001163,3.19999361,1,0,0,rectangle,12.80001163,3.19999361,1,0,0,12.80001163,3.19999361,1,0,0,1,71,231,26,1,,,,,,,,
,,,,,,,,,,,,,FF,,,,,,,,2.3667,,,,,,,,,,,,,,,,,,,,,,61030fd06c01209b13e99780,61036d8ff1c60369da7b77ba,2021-07-29_23h10.54.393,Simcolourproject_2stim_asymm_v5,2020.2.10,Win32,60,61025ae37ef11b136ea224fe,,,,,,,,,3856,73.60001254,-80.00000763,1,0,0,response3disk,,4,-0.799988568,8.799993694,1,0,0,rectangle,-0.799988568,8.799993694,1,0,0,-0.799988568,8.799993694,1,0,0,1,72,232,66,1,,,,,,,,
,,,,,,,,,,,,,FF,,,,,,,,1.0721,,,,,,,,,,,,,,,,,,,,,,61030fd06c01209b13e99780,61036d8ff1c60369da7b77ba,2021-07-29_23h10.54.393,Simcolourproject_2stim_asymm_v5,2020.2.10,Win32,60,61025ae37ef11b136ea224fe,,,,,,,,,959,48.00001216,107.9999952,1,0,0,response1disk,,7,-4.799988627,13.59999377,1,0,0,rectangle,103.200013,-52.80000722,1,0,0,-2.399939764,-4.000006497,1,0,0,1,73,233,14,1,,response3disk_3,TRUE,5,5,"[196,262,292,267,179,5,132,263,182,234,174,170,7,252,273,109,118,117,94,272]",1.7337,rectangle
,,,,,,,,,,,,,FF,,,,,,,,1.5009,,,,,,,,,,,,,,,,,,,,,,61030fd06c01209b13e99780,61036d8ff1c60369da7b77ba,2021-07-29_23h10.54.393,Simcolourproject_2stim_asymm_v5,2020.2.10,Win32,60,61025ae37ef11b136ea224fe,,,,,,,,,1884,-39.19998914,-100.0000079,1,0,0,response5disk,,3,29.60006071,-2.400006473,1,0,0,rectangle,29.60006071,-2.400006473,1,0,0,29.60006071,-2.400006473,1,0,0,1,74,234,36,1,,,,,,,,
,,,,,,,,,,,,,FF,,,,,,,,0.9833,,,,,,,,,,,,,,,,,,,,,,61030fd06c01209b13e99780,61036d8ff1c60369da7b77ba,2021-07-29_23h10.54.393,Simcolourproject_2stim_asymm_v5,2020.2.10,Win32,60,61025ae37ef11b136ea224fe,,,,,,,,,716,-22.39994006,95.99999499,1,0,0,response7disk,,0,20.80001175,-11.2000066,1,0,0,rectangle,20.80001175,-11.2000066,1,0,0,20.80001175,-11.2000066,1,0,0,1,75,235,99,1,,,,,,,,
,,,,,,,,,,,,,FF,,,,,,,,2.3666,,,,,,,,,,,,,,,,,,,,,,61030fd06c01209b13e99780,61036d8ff1c60369da7b77ba,2021-07-29_23h10.54.393,Simcolourproject_2stim_asymm_v5,2020.2.10,Win32,60,61025ae37ef11b136ea224fe,,,,,,,,,2623,53.60001224,107.1999707,1,0,0,response1disk,,7,-2.399939764,-3.200006485,1,0,0,rectangle,-2.399939764,-3.200006485,1,0,0,-2.399939764,-3.200006485,1,0,0,1,76,236,63,1,,,,,,,,
,,,,,,,,,,,,,FF,,,,,,,,1.3499,,,,,,,,,,,,,,,,,,,,,,61030fd06c01209b13e99780,61036d8ff1c60369da7b77ba,2021-07-29_23h10.54.393,Simcolourproject_2stim_asymm_v5,2020.2.10,Win32,60,61025ae37ef11b136ea224fe,,,,,,,,,3669,-119.1999903,49.5999943,1,0,0,response7disk,,1,-11.99998873,-6.4373E-06,1,0,0,rectangle,-11.99998873,-6.4373E-06,1,0,0,-11.99998873,-6.4373E-06,1,0,0,1,77,237,0,1,,,,,,,,
,,,,,,,,,,,,,FF,,,,,,,,1.0336,,,,,,,,,,,,,,,,,,,,,,61030fd06c01209b13e99780,61036d8ff1c60369da7b77ba,2021-07-29_23h10.54.393,Simcolourproject_2stim_asymm_v5,2020.2.10,Win32,60,61025ae37ef11b136ea224fe,,,,,,,,,2864,56.00001228,104.7999951,1,0,0,response1disk,,7,12.00001162,3.999993622,1,0,0,rectangle,12.00001162,3.999993622,1,0,0,12.00001162,3.999993622,1,0,0,1,78,238,82,1,,,,,,,,
,,,,,,,,,,,,,FF,,,,,,,,1.1002,,,,,,,,,,,,,,,,,,,,,,61030fd06c01209b13e99780,61036d8ff1c60369da7b77ba,2021-07-29_23h10.54.393,Simcolourproject_2stim_asymm_v5,2020.2.10,Win32,60,61025ae37ef11b136ea224fe,,,,,,,,,1549,79.20001262,-53.60000724,1,0,0,response3disk,,5,-14.39993994,15.19999379,1,0,0,rectangle,-14.39993994,15.19999379,1,0,0,-14.39993994,15.19999379,1,0,0,1,79,239,139,1,,,,,,,,
,,,,,,,,,,,,,FF,,,,,,,,1.8502,,,,,,,,,,,,,,,,,,,,,,61030fd06c01209b13e99780,61036d8ff1c60369da7b77ba,2021-07-29_23h10.54.393,Simcolourproject_2stim_asymm_v5,2020.2.10,Win32,60,61025ae37ef11b136ea224fe,,,,,,,,,912,130.4000134,39.99999416,1,0,0,response1disk,,6,22.40001178,-5.600006521,1,0,0,rectangle,22.40001178,-5.600006521,1,0,0,22.40001178,-5.600006521,1,0,0,1,80,240,75,1,,,,,,,,
,,,,,,,,,,,,,FF,,,,,,,,1.6836,,,,,,,,,,,,,,,,,,,,,,61030fd06c01209b13e99780,61036d8ff1c60369da7b77ba,2021-07-29_23h10.54.393,Simcolourproject_2stim_asymm_v5,2020.2.10,Win32,60,61025ae37ef11b136ea224fe,,,,,,,,,3664,105.600013,61.59999448,1,0,0,response1disk,,6,13.60006047,7.19999367,1,0,0,rectangle,13.60006047,7.19999367,1,0,0,13.60006047,7.19999367,1,0,0,1,81,241,13,1,,,,,,,,
,,,,,,,,,,,,,FF,,,,,,,,1.0833,,,,,,,,,,,,,,,,,,,,,,61030fd06c01209b13e99780,61036d8ff1c60369da7b77ba,2021-07-29_23h10.54.393,Simcolourproject_2stim_asymm_v5,2020.2.10,Win32,60,61025ae37ef11b136ea224fe,,,,,,,,,1702,75.20001256,19.19999385,1,0,0,response1disk,,6,-7.199988663,-12.00000662,1,0,0,rectangle,-7.199988663,-12.00000662,1,0,0,-7.199988663,-12.00000662,1,0,0,1,82,242,107,1,,,,,,,,
,,,,,,,,,,,,,FF,,,,,,,,1.3839,,,,,,,,,,,,,,,,,,,,,,61030fd06c01209b13e99780,61036d8ff1c60369da7b77ba,2021-07-29_23h10.54.393,Simcolourproject_2stim_asymm_v5,2020.2.10,Win32,60,61025ae37ef11b136ea224fe,,,,,,,,,1383,-33.59998906,-127.2000083,1,0,0,response5disk,,3,12.80001163,11.99999374,1,0,0,rectangle,12.80001163,11.99999374,1,0,0,12.80001163,11.99999374,1,0,0,1,83,243,156,1,,,,,,,,
