key_resp.keys,key_resp.rt,key_resp_14.keys,key_resp_14.rt,key_resp_15.keys,key_resp_15.rt,key_resp_17.keys,key_resp_17.rt,key_resp_9.keys,key_resp_9.rt,key_resp_10.keys,key_resp_10.rt,practice_comparison,Ecc,mouse_5.x,mouse_5.y,mouse_5.leftButton,mouse_5.midButton,mouse_5.rightButton,mouse_5.clicked_name,pracsimilarity,response_time,mouse_10.x,mouse_10.y,mouse_10.leftButton,mouse_10.midButton,mouse_10.rightButton,mouse_10.clicked_name,mouse_7.x,mouse_7.y,mouse_7.leftButton,mouse_7.midButton,mouse_7.rightButton,mouse_6.x,mouse_6.y,mouse_6.leftButton,mouse_6.midButton,mouse_6.rightButton,duringprac.thisRepN,duringprac.thisTrialN,duringprac.thisN,duringprac.thisIndex,duringprac.ran,participant,session,date,expName,psychopyVersion,OS,frameRate,study_id,mouse_7.clicked_name,catchpracsimilarity,catch_response_time,catchnumberprac,catchtrialorderprac,mouse_6.clicked_name,key_resp_22.keys,key_resp_22.rt,realcomparison,mouse.x,mouse.y,mouse.leftButton,mouse.midButton,mouse.rightButton,mouse.clicked_name,Colour2,similarity,mouse_2.x,mouse_2.y,mouse_2.leftButton,mouse_2.midButton,mouse_2.rightButton,mouse_2.clicked_name,mouse_3.x,mouse_3.y,mouse_3.leftButton,mouse_3.midButton,mouse_3.rightButton,mouse_11.x,mouse_11.y,mouse_11.leftButton,mouse_11.midButton,mouse_11.rightButton,trials_2.thisRepN,trials_2.thisTrialN,trials_2.thisN,trials_2.thisIndex,trials_2.ran,Colour1,mouse_3.clicked_name,catchornah,catchsimilarity,catchnumber,catchtrialorder,catchRT,mouse_11.clicked_name
space,11.1438,space,237.1973,space,126.5888,space,1.5645,space,1.695,space,1.7127,129,PF,49.60006101,108.799996,1,0,0,response1disk_5,7,3.1531,5.600060356,-4.000005677,1,0,0,rectangle_8,5.600060356,-4.000005677,1,0,0,5.600060356,-4.000005677,1,0,0,0,0,0,2,1,6103433959b11158bebca998,61036b1fe1eb1d931b7a34fa,2021-07-29_20h11.32.474,Simcolourproject_2stim_asymm_v5,2020.2.10,Win32,60,61025ae37ef11b136ea224fe,,,,,,,,,,,,,,,,,,,,,,,,,,,,,,,,,,,,,,,,,,,,,,
,,,,,,,,,,,,28,FF,40.00001204,99.19997145,1,0,0,response1disk_5,7,1.2141,8.000011563,-9.600005761,1,0,0,rectangle_8,-69.59998959,-37.60000618,1,0,0,-12.79998875,-5.600005701,1,0,0,0,1,1,3,1,6103433959b11158bebca998,61036b1fe1eb1d931b7a34fa,2021-07-29_20h11.32.474,Simcolourproject_2stim_asymm_v5,2020.2.10,Win32,60,61025ae37ef11b136ea224fe,response5disk_7,2,1.7351,2,"[2,5]",rectangle_4,,,,,,,,,,,,,,,,,,,,,,,,,,,,,,,,,,,,,,,,
,,,,,,,,,,,,9,PF,64.0000124,96.79999582,1,0,0,response1disk_5,7,20.4972,12.80001163,-4.800030103,1,0,0,rectangle_8,12.80001163,-4.800030103,1,0,0,12.80001163,-4.800030103,1,0,0,0,2,2,6,1,6103433959b11158bebca998,61036b1fe1eb1d931b7a34fa,2021-07-29_20h11.32.474,Simcolourproject_2stim_asymm_v5,2020.2.10,Win32,60,61025ae37ef11b136ea224fe,,,,,,,,,,,,,,,,,,,,,,,,,,,,,,,,,,,,,,,,,,,,,,
,,,,,,,,,,,,107,FF,36.00001198,73.59997106,1,0,0,response1disk_5,7,0.7668,16.00001168,-3.200005665,1,0,0,rectangle_8,16.00001168,-3.200005665,1,0,0,16.00001168,-3.200005665,1,0,0,0,3,3,5,1,6103433959b11158bebca998,61036b1fe1eb1d931b7a34fa,2021-07-29_20h11.32.474,Simcolourproject_2stim_asymm_v5,2020.2.10,Win32,60,61025ae37ef11b136ea224fe,,,,,,,,,,,,,,,,,,,,,,,,,,,,,,,,,,,,,,,,,,,,,,
,,,,,,,,,,,,147,PF,52.00001222,80.79999559,1,0,0,response1disk_5,7,2.8835,12.80001163,2.399994418,1,0,0,rectangle_8,-86.39994102,-41.60000624,1,0,0,3.200011492,-9.600005761,1,0,0,0,4,4,4,1,6103433959b11158bebca998,61036b1fe1eb1d931b7a34fa,2021-07-29_20h11.32.474,Simcolourproject_2stim_asymm_v5,2020.2.10,Win32,60,61025ae37ef11b136ea224fe,response5disk_7,2,1.1666,2,"[2,5]",rectangle_4,,,,,,,,,,,,,,,,,,,,,,,,,,,,,,,,,,,,,,,,
,,,,,,,,,,,,53,FF,52.00001222,84.79999565,1,0,0,response1disk_5,7,0.9155,-1.59998858,10.39999454,1,0,0,rectangle_8,-1.59998858,10.39999454,1,0,0,-1.59998858,10.39999454,1,0,0,0,5,5,0,1,6103433959b11158bebca998,61036b1fe1eb1d931b7a34fa,2021-07-29_20h11.32.474,Simcolourproject_2stim_asymm_v5,2020.2.10,Win32,60,61025ae37ef11b136ea224fe,,,,,,,,,,,,,,,,,,,,,,,,,,,,,,,,,,,,,,,,,,,,,,
,,,,,,,,,,,,12,PF,57.6000123,85.59997124,1,0,0,response1disk_5,7,0.5656,1.600060296,-7.200005725,1,0,0,rectangle_8,1.600060296,-7.200005725,1,0,0,1.600060296,-7.200005725,1,0,0,0,6,6,1,1,6103433959b11158bebca998,61036b1fe1eb1d931b7a34fa,2021-07-29_20h11.32.474,Simcolourproject_2stim_asymm_v5,2020.2.10,Win32,60,61025ae37ef11b136ea224fe,,,,,,,,,,,,,,,,,,,,,,,,,,,,,,,,,,,,,,,,,,,,,,
,,,,,,,,,,,,,FF,,,,,,,,0.6664,,,,,,,,,,,,,,,,,,,,,,6103433959b11158bebca998,61036b1fe1eb1d931b7a34fa,2021-07-29_20h11.32.474,Simcolourproject_2stim_asymm_v5,2020.2.10,Win32,60,61025ae37ef11b136ea224fe,,,,,,,space,8.4522,2344,52.00001222,93.59997136,1,0,0,response1disk,,7,6.400011539,-12.80003022,1,0,0,rectangle,6.400011539,-12.80003022,1,0,0,6.400011539,-12.80003022,1,0,0,0,0,0,1,1,,,,,,,,
,,,,,,,,,,,,,FF,,,,,,,,0.5333,,,,,,,,,,,,,,,,,,,,,,6103433959b11158bebca998,61036b1fe1eb1d931b7a34fa,2021-07-29_20h11.32.474,Simcolourproject_2stim_asymm_v5,2020.2.10,Win32,60,61025ae37ef11b136ea224fe,,,,,,,,,2458,55.20001227,107.999996,1,0,0,response1disk,,7,2.40001148,-4.000005677,1,0,0,rectangle,2.40001148,-4.000005677,1,0,0,2.40001148,-4.000005677,1,0,0,0,1,1,105,1,,,,,,,,
,,,,,,,,,,,,,FF,,,,,,,,1.5996,,,,,,,,,,,,,,,,,,,,,,6103433959b11158bebca998,61036b1fe1eb1d931b7a34fa,2021-07-29_20h11.32.474,Simcolourproject_2stim_asymm_v5,2020.2.10,Win32,60,61025ae37ef11b136ea224fe,,,,,,,,,1201,72.00001252,35.19997049,1,0,0,response1disk,,6,9.600060415,-2.400030068,1,0,0,rectangle,9.600060415,-2.400030068,1,0,0,9.600060415,-2.400030068,1,0,0,0,2,2,109,1,,,,,,,,
,,,,,,,,,,,,,FF,,,,,,,,1.4492,,,,,,,,,,,,,,,,,,,,,,6103433959b11158bebca998,61036b1fe1eb1d931b7a34fa,2021-07-29_20h11.32.474,Simcolourproject_2stim_asymm_v5,2020.2.10,Win32,60,61025ae37ef11b136ea224fe,,,,,,,,,2161,105.600013,51.19997073,1,0,0,response1disk,,6,8.000011563,3.199970016,1,0,0,rectangle,8.000011563,3.199970016,1,0,0,8.000011563,3.199970016,1,0,0,0,3,3,3,1,,,,,,,,
,,,,,,,,,,,,,FF,,,,,,,,0.9166,,,,,,,,,,,,,,,,,,,,,,6103433959b11158bebca998,61036b1fe1eb1d931b7a34fa,2021-07-29_20h11.32.474,Simcolourproject_2stim_asymm_v5,2020.2.10,Win32,60,61025ae37ef11b136ea224fe,,,,,,,,,483,53.60001224,86.39999567,1,0,0,response1disk,,7,-11.19998872,-4.800030103,1,0,0,rectangle,-11.19998872,-4.800030103,1,0,0,-11.19998872,-4.800030103,1,0,0,0,4,4,76,1,,,,,,,,
,,,,,,,,,,,,,FF,,,,,,,,0.8333,,,,,,,,,,,,,,,,,,,,,,6103433959b11158bebca998,61036b1fe1eb1d931b7a34fa,2021-07-29_20h11.32.474,Simcolourproject_2stim_asymm_v5,2020.2.10,Win32,60,61025ae37ef11b136ea224fe,,,,,,,,,318,47.20001215,71.99999546,1,0,0,response1disk,,7,6.400011539,4.799994454,1,0,0,rectangle,6.400011539,4.799994454,1,0,0,6.400011539,4.799994454,1,0,0,0,5,5,93,1,,,,,,,,
,,,,,,,,,,,,,FF,,,,,,,,1.5831,,,,,,,,,,,,,,,,,,,,,,6103433959b11158bebca998,61036b1fe1eb1d931b7a34fa,2021-07-29_20h11.32.474,Simcolourproject_2stim_asymm_v5,2020.2.10,Win32,60,61025ae37ef11b136ea224fe,,,,,,,,,2548,73.60001254,38.39999495,1,0,0,response1disk,,6,9.600060415,-2.400030068,1,0,0,rectangle,9.600060415,-2.400030068,1,0,0,9.600060415,-2.400030068,1,0,0,0,6,6,23,1,,,,,,,,
,,,,,,,,,,,,,FF,,,,,,,,0.9333,,,,,,,,,,,,,,,,,,,,,,6103433959b11158bebca998,61036b1fe1eb1d931b7a34fa,2021-07-29_20h11.32.474,Simcolourproject_2stim_asymm_v5,2020.2.10,Win32,60,61025ae37ef11b136ea224fe,,,,,,,,,3276,41.60006089,87.19997127,1,0,0,response1disk,,7,6.400011539,3.199970016,1,0,0,rectangle,6.400011539,3.199970016,1,0,0,6.400011539,3.199970016,1,0,0,0,7,7,49,1,,,,,,,,
,,,,,,,,,,,,,FF,,,,,,,,0.8997,,,,,,,,,,,,,,,,,,,,,,6103433959b11158bebca998,61036b1fe1eb1d931b7a34fa,2021-07-29_20h11.32.474,Simcolourproject_2stim_asymm_v5,2020.2.10,Win32,60,61025ae37ef11b136ea224fe,,,,,,,,,381,72.00001252,43.99999504,1,0,0,response1disk,,6,-3.999988616,3.199970016,1,0,0,rectangle,-3.999988616,3.199970016,1,0,0,-3.999988616,3.199970016,1,0,0,0,8,8,68,1,,,,,,,,
,,,,,,,,,,,,,FF,,,,,,,,1.5332,,,,,,,,,,,,,,,,,,,,,,6103433959b11158bebca998,61036b1fe1eb1d931b7a34fa,2021-07-29_20h11.32.474,Simcolourproject_2stim_asymm_v5,2020.2.10,Win32,60,61025ae37ef11b136ea224fe,,,,,,,,,3925,63.20001239,94.39999579,1,0,0,response1disk,,7,4.800011516,6.399994478,1,0,0,rectangle,4.800011516,6.399994478,1,0,0,4.800011516,6.399994478,1,0,0,0,9,9,123,1,,,,,,,,
,,,,,,,,,,,,,FF,,,,,,,,0.7666,,,,,,,,,,,,,,,,,,,,,,6103433959b11158bebca998,61036b1fe1eb1d931b7a34fa,2021-07-29_20h11.32.474,Simcolourproject_2stim_asymm_v5,2020.2.10,Win32,60,61025ae37ef11b136ea224fe,,,,,,,,,343,80.00001264,43.19997061,1,0,0,response1disk,,6,14.40001166,1.599969992,1,0,0,rectangle,14.40001166,1.599969992,1,0,0,14.40001166,1.599969992,1,0,0,0,10,10,7,1,,,,,,,,
,,,,,,,,,,,,,FF,,,,,,,,0.6337,,,,,,,,,,,,,,,,,,,,,,6103433959b11158bebca998,61036b1fe1eb1d931b7a34fa,2021-07-29_20h11.32.474,Simcolourproject_2stim_asymm_v5,2020.2.10,Win32,60,61025ae37ef11b136ea224fe,,,,,,,,,1202,47.20001215,89.5999713,1,0,0,response1disk,,7,1.14441E-05,-8.000005737,1,0,0,rectangle,1.14441E-05,-8.000005737,1,0,0,1.14441E-05,-8.000005737,1,0,0,0,11,11,9,1,,,,,,,,
,,,,,,,,,,,,,FF,,,,,,,,0.4501,,,,,,,,,,,,,,,,,,,,,,6103433959b11158bebca998,61036b1fe1eb1d931b7a34fa,2021-07-29_20h11.32.474,Simcolourproject_2stim_asymm_v5,2020.2.10,Win32,60,61025ae37ef11b136ea224fe,,,,,,,,,2076,67.20001245,102.3999959,1,0,0,response1disk,,7,-7.199988663,1.599969992,1,0,0,rectangle,113.6000131,50.39999513,1,0,0,4.800011516,-7.200005725,1,0,0,0,12,12,86,1,,response1disk_3,TRUE,6,6,"[30,13,123,244,139,13,82,248,278,305,223,224,190,186,260,111,212,132,217,51]",1.5666,rectangle
,,,,,,,,,,,,,FF,,,,,,,,1.2503,,,,,,,,,,,,,,,,,,,,,,6103433959b11158bebca998,61036b1fe1eb1d931b7a34fa,2021-07-29_20h11.32.474,Simcolourproject_2stim_asymm_v5,2020.2.10,Win32,60,61025ae37ef11b136ea224fe,,,,,,,,,972,82.40001267,-39.2000062,1,0,0,response3disk,,5,5.600060356,-12.80003022,1,0,0,rectangle,5.600060356,-12.80003022,1,0,0,5.600060356,-12.80003022,1,0,0,0,13,13,90,1,,,,,,,,
,,,,,,,,,,,,,FF,,,,,,,,0.8663,,,,,,,,,,,,,,,,,,,,,,6103433959b11158bebca998,61036b1fe1eb1d931b7a34fa,2021-07-29_20h11.32.474,Simcolourproject_2stim_asymm_v5,2020.2.10,Win32,60,61025ae37ef11b136ea224fe,,,,,,,,,3361,37.60006083,95.99999581,1,0,0,response1disk,,7,-13.59998876,-0.800030044,1,0,0,rectangle,-13.59998876,-0.800030044,1,0,0,-13.59998876,-0.800030044,1,0,0,0,14,14,156,1,,,,,,,,
,,,,,,,,,,,,,FF,,,,,,,,0.6833,,,,,,,,,,,,,,,,,,,,,,6103433959b11158bebca998,61036b1fe1eb1d931b7a34fa,2021-07-29_20h11.32.474,Simcolourproject_2stim_asymm_v5,2020.2.10,Win32,60,61025ae37ef11b136ea224fe,,,,,,,,,2665,73.60001254,55.99999522,1,0,0,response1disk,,6,16.80001169,1.599969992,1,0,0,rectangle,16.80001169,1.599969992,1,0,0,16.80001169,1.599969992,1,0,0,0,15,15,22,1,,,,,,,,
,,,,,,,,,,,,,FF,,,,,,,,0.7332,,,,,,,,,,,,,,,,,,,,,,6103433959b11158bebca998,61036b1fe1eb1d931b7a34fa,2021-07-29_20h11.32.474,Simcolourproject_2stim_asymm_v5,2020.2.10,Win32,60,61025ae37ef11b136ea224fe,,,,,,,,,3921,76.80001259,34.39999489,1,0,0,response1disk,,6,20.00001174,-4.000005677,1,0,0,rectangle,20.00001174,-4.000005677,1,0,0,20.00001174,-4.000005677,1,0,0,0,16,16,2,1,,,,,,,,
,,,,,,,,,,,,,FF,,,,,,,,0.8166,,,,,,,,,,,,,,,,,,,,,,6103433959b11158bebca998,61036b1fe1eb1d931b7a34fa,2021-07-29_20h11.32.474,Simcolourproject_2stim_asymm_v5,2020.2.10,Win32,60,61025ae37ef11b136ea224fe,,,,,,,,,2799,56.80001229,73.59997106,1,0,0,response1disk,,7,0.800011456,-4.800030103,1,0,0,rectangle,0.800011456,-4.800030103,1,0,0,0.800011456,-4.800030103,1,0,0,0,17,17,99,1,,,,,,,,
,,,,,,,,,,,,,FF,,,,,,,,1.0497,,,,,,,,,,,,,,,,,,,,,,6103433959b11158bebca998,61036b1fe1eb1d931b7a34fa,2021-07-29_20h11.32.474,Simcolourproject_2stim_asymm_v5,2020.2.10,Win32,60,61025ae37ef11b136ea224fe,,,,,,,,,2234,50.4000122,-84.00000687,1,0,0,response3disk,,4,-3.199988604,0.799994394,1,0,0,rectangle,-3.199988604,0.799994394,1,0,0,-3.199988604,0.799994394,1,0,0,0,18,18,27,1,,,,,,,,
,,,,,,,,,,,,,FF,,,,,,,,0.8664,,,,,,,,,,,,,,,,,,,,,,6103433959b11158bebca998,61036b1fe1eb1d931b7a34fa,2021-07-29_20h11.32.474,Simcolourproject_2stim_asymm_v5,2020.2.10,Win32,60,61025ae37ef11b136ea224fe,,,,,,,,,623,72.00001252,91.99999575,1,0,0,response1disk,,7,6.400011539,-0.800030044,1,0,0,rectangle,6.400011539,-0.800030044,1,0,0,6.400011539,-0.800030044,1,0,0,0,19,19,115,1,,,,,,,,
,,,,,,,,,,,,,FF,,,,,,,,0.5517,,,,,,,,,,,,,,,,,,,,,,6103433959b11158bebca998,61036b1fe1eb1d931b7a34fa,2021-07-29_20h11.32.474,Simcolourproject_2stim_asymm_v5,2020.2.10,Win32,60,61025ae37ef11b136ea224fe,,,,,,,,,1946,43.20001209,85.59997124,1,0,0,response1disk,,7,-6.399939823,-12.0000058,1,0,0,rectangle,-6.399939823,-12.0000058,1,0,0,-6.399939823,-12.0000058,1,0,0,0,20,20,100,1,,,,,,,,
,,,,,,,,,,,,,FF,,,,,,,,0.5494,,,,,,,,,,,,,,,,,,,,,,6103433959b11158bebca998,61036b1fe1eb1d931b7a34fa,2021-07-29_20h11.32.474,Simcolourproject_2stim_asymm_v5,2020.2.10,Win32,60,61025ae37ef11b136ea224fe,,,,,,,,,4159,48.00001216,91.19997133,1,0,0,response1disk,,7,-10.39993988,-7.200005725,1,0,0,rectangle,-10.39993988,-7.200005725,1,0,0,-10.39993988,-7.200005725,1,0,0,0,21,21,55,1,,,,,,,,
,,,,,,,,,,,,,FF,,,,,,,,0.4327,,,,,,,,,,,,,,,,,,,,,,6103433959b11158bebca998,61036b1fe1eb1d931b7a34fa,2021-07-29_20h11.32.474,Simcolourproject_2stim_asymm_v5,2020.2.10,Win32,60,61025ae37ef11b136ea224fe,,,,,,,,,4226,33.60006077,71.99999546,1,0,0,response1disk,,7,2.40001148,0.799994394,1,0,0,rectangle,2.40001148,0.799994394,1,0,0,2.40001148,0.799994394,1,0,0,0,22,22,59,1,,,,,,,,
,,,,,,,,,,,,,FF,,,,,,,,0.4675,,,,,,,,,,,,,,,,,,,,,,6103433959b11158bebca998,61036b1fe1eb1d931b7a34fa,2021-07-29_20h11.32.474,Simcolourproject_2stim_asymm_v5,2020.2.10,Win32,60,61025ae37ef11b136ea224fe,,,,,,,,,3452,51.20001221,87.19997127,1,0,0,response1disk,,7,1.14441E-05,-8.000005737,1,0,0,rectangle,1.14441E-05,-8.000005737,1,0,0,1.14441E-05,-8.000005737,1,0,0,0,23,23,45,1,,,,,,,,
,,,,,,,,,,,,,FF,,,,,,,,0.533,,,,,,,,,,,,,,,,,,,,,,6103433959b11158bebca998,61036b1fe1eb1d931b7a34fa,2021-07-29_20h11.32.474,Simcolourproject_2stim_asymm_v5,2020.2.10,Win32,60,61025ae37ef11b136ea224fe,,,,,,,,,416,39.20001203,86.39999567,1,0,0,response1disk,,7,1.14441E-05,0.799994394,1,0,0,rectangle,1.14441E-05,0.799994394,1,0,0,1.14441E-05,0.799994394,1,0,0,0,24,24,63,1,,,,,,,,
,,,,,,,,,,,,,FF,,,,,,,,0.4339,,,,,,,,,,,,,,,,,,,,,,6103433959b11158bebca998,61036b1fe1eb1d931b7a34fa,2021-07-29_20h11.32.474,Simcolourproject_2stim_asymm_v5,2020.2.10,Win32,60,61025ae37ef11b136ea224fe,,,,,,,,,3685,35.20001197,83.19997121,1,0,0,response1disk,,7,1.600060296,-8.000005737,1,0,0,rectangle,1.600060296,-8.000005737,1,0,0,1.600060296,-8.000005737,1,0,0,0,25,25,39,1,,,,,,,,
,,,,,,,,,,,,,FF,,,,,,,,0.4003,,,,,,,,,,,,,,,,,,,,,,6103433959b11158bebca998,61036b1fe1eb1d931b7a34fa,2021-07-29_20h11.32.474,Simcolourproject_2stim_asymm_v5,2020.2.10,Win32,60,61025ae37ef11b136ea224fe,,,,,,,,,4248,55.20001227,89.5999713,1,0,0,response1disk,,7,5.600060356,-2.400030068,1,0,0,rectangle,5.600060356,-2.400030068,1,0,0,5.600060356,-2.400030068,1,0,0,0,26,26,131,1,,,,,,,,
,,,,,,,,,,,,,FF,,,,,,,,0.3833,,,,,,,,,,,,,,,,,,,,,,6103433959b11158bebca998,61036b1fe1eb1d931b7a34fa,2021-07-29_20h11.32.474,Simcolourproject_2stim_asymm_v5,2020.2.10,Win32,60,61025ae37ef11b136ea224fe,,,,,,,,,4138,36.80001199,83.19997121,1,0,0,response1disk,,7,4.800011516,-8.000005737,1,0,0,rectangle,4.800011516,-8.000005737,1,0,0,4.800011516,-8.000005737,1,0,0,0,27,27,12,1,,,,,,,,
,,,,,,,,,,,,,FF,,,,,,,,0.6499,,,,,,,,,,,,,,,,,,,,,,6103433959b11158bebca998,61036b1fe1eb1d931b7a34fa,2021-07-29_20h11.32.474,Simcolourproject_2stim_asymm_v5,2020.2.10,Win32,60,61025ae37ef11b136ea224fe,,,,,,,,,647,56.00001228,79.99999557,1,0,0,response1disk,,7,1.600060296,4.799994454,1,0,0,rectangle,1.600060296,4.799994454,1,0,0,1.600060296,4.799994454,1,0,0,0,28,28,34,1,,,,,,,,
,,,,,,,,,,,,,FF,,,,,,,,0.4168,,,,,,,,,,,,,,,,,,,,,,6103433959b11158bebca998,61036b1fe1eb1d931b7a34fa,2021-07-29_20h11.32.474,Simcolourproject_2stim_asymm_v5,2020.2.10,Win32,60,61025ae37ef11b136ea224fe,,,,,,,,,3036,44.0000121,70.39999543,1,0,0,response1disk,,7,-2.399939764,-11.20000578,1,0,0,rectangle,-35.19998908,-63.20000656,1,0,0,5.600060356,-0.800030044,1,0,0,0,29,29,107,1,,response5disk_3,TRUE,3,3,"[30,13,123,244,139,13,82,248,278,305,223,224,190,186,260,111,212,132,217,51]",1.4837,rectangle
,,,,,,,,,,,,,FF,,,,,,,,0.7171,,,,,,,,,,,,,,,,,,,,,,6103433959b11158bebca998,61036b1fe1eb1d931b7a34fa,2021-07-29_20h11.32.474,Simcolourproject_2stim_asymm_v5,2020.2.10,Win32,60,61025ae37ef11b136ea224fe,,,,,,,,,657,57.6000123,75.99999551,1,0,0,response1disk,,7,4.800011516,-7.200005725,1,0,0,rectangle,4.800011516,-7.200005725,1,0,0,4.800011516,-7.200005725,1,0,0,0,30,30,154,1,,,,,,,,
,,,,,,,,,,,,,FF,,,,,,,,1.4323,,,,,,,,,,,,,,,,,,,,,,6103433959b11158bebca998,61036b1fe1eb1d931b7a34fa,2021-07-29_20h11.32.474,Simcolourproject_2stim_asymm_v5,2020.2.10,Win32,60,61025ae37ef11b136ea224fe,,,,,,,,,2587,23.20001179,87.99999569,1,0,0,response1disk,,7,-1.59998858,-8.000005737,1,0,0,rectangle,-1.59998858,-8.000005737,1,0,0,-1.59998858,-8.000005737,1,0,0,0,31,31,41,1,,,,,,,,
,,,,,,,,,,,,,FF,,,,,,,,2.1659,,,,,,,,,,,,,,,,,,,,,,6103433959b11158bebca998,61036b1fe1eb1d931b7a34fa,2021-07-29_20h11.32.474,Simcolourproject_2stim_asymm_v5,2020.2.10,Win32,60,61025ae37ef11b136ea224fe,,,,,,,,,1693,24.0000118,82.39999561,1,0,0,response1disk,,7,-14.39993994,-12.0000058,1,0,0,rectangle,-14.39993994,-12.0000058,1,0,0,-14.39993994,-12.0000058,1,0,0,0,32,32,73,1,,,,,,,,
,,,,,,,,,,,,,FF,,,,,,,,0.867,,,,,,,,,,,,,,,,,,,,,,6103433959b11158bebca998,61036b1fe1eb1d931b7a34fa,2021-07-29_20h11.32.474,Simcolourproject_2stim_asymm_v5,2020.2.10,Win32,60,61025ae37ef11b136ea224fe,,,,,,,,,3790,92.80001283,29.59997041,1,0,0,response1disk,,6,-31.19998902,-1.600005642,1,0,0,rectangle,-31.19998902,-1.600005642,1,0,0,-31.19998902,-1.600005642,1,0,0,0,33,33,74,1,,,,,,,,
,,,,,,,,,,,,,FF,,,,,,,,0.5666,,,,,,,,,,,,,,,,,,,,,,6103433959b11158bebca998,61036b1fe1eb1d931b7a34fa,2021-07-29_20h11.32.474,Simcolourproject_2stim_asymm_v5,2020.2.10,Win32,60,61025ae37ef11b136ea224fe,,,,,,,,,505,54.40001225,111.199996,1,0,0,response1disk,,7,-3.999988616,-14.40003025,1,0,0,rectangle,-3.999988616,-14.40003025,1,0,0,-3.999988616,-14.40003025,1,0,0,0,34,34,14,1,,,,,,,,
,,,,,,,,,,,,,FF,,,,,,,,0.3846,,,,,,,,,,,,,,,,,,,,,,6103433959b11158bebca998,61036b1fe1eb1d931b7a34fa,2021-07-29_20h11.32.474,Simcolourproject_2stim_asymm_v5,2020.2.10,Win32,60,61025ae37ef11b136ea224fe,,,,,,,,,4264,44.0000121,91.19997133,1,0,0,response1disk,,7,26.40001184,3.199970016,1,0,0,rectangle,26.40001184,3.199970016,1,0,0,26.40001184,3.199970016,1,0,0,0,35,35,153,1,,,,,,,,
,,,,,,,,,,,,,FF,,,,,,,,0.5635,,,,,,,,,,,,,,,,,,,,,,6103433959b11158bebca998,61036b1fe1eb1d931b7a34fa,2021-07-29_20h11.32.474,Simcolourproject_2stim_asymm_v5,2020.2.10,Win32,60,61025ae37ef11b136ea224fe,,,,,,,,,684,60.80001235,71.99999546,1,0,0,response1disk,,7,24.80001181,5.599970052,1,0,0,rectangle,24.80001181,5.599970052,1,0,0,24.80001181,5.599970052,1,0,0,0,36,36,57,1,,,,,,,,
,,,,,,,,,,,,,FF,,,,,,,,0.4648,,,,,,,,,,,,,,,,,,,,,,6103433959b11158bebca998,61036b1fe1eb1d931b7a34fa,2021-07-29_20h11.32.474,Simcolourproject_2stim_asymm_v5,2020.2.10,Win32,60,61025ae37ef11b136ea224fe,,,,,,,,,373,45.60006095,93.59997136,1,0,0,response1disk,,7,8.800011575,8.799994513,1,0,0,rectangle,8.800011575,8.799994513,1,0,0,8.800011575,8.799994513,1,0,0,0,37,37,60,1,,,,,,,,
,,,,,,,,,,,,,FF,,,,,,,,0.4334,,,,,,,,,,,,,,,,,,,,,,6103433959b11158bebca998,61036b1fe1eb1d931b7a34fa,2021-07-29_20h11.32.474,Simcolourproject_2stim_asymm_v5,2020.2.10,Win32,60,61025ae37ef11b136ea224fe,,,,,,,,,2191,40.00001204,75.19997109,1,0,0,response1disk,,7,1.600060296,-10.40003019,1,0,0,rectangle,1.600060296,-10.40003019,1,0,0,1.600060296,-10.40003019,1,0,0,0,38,38,46,1,,,,,,,,
,,,,,,,,,,,,,FF,,,,,,,,0.85,,,,,,,,,,,,,,,,,,,,,,6103433959b11158bebca998,61036b1fe1eb1d931b7a34fa,2021-07-29_20h11.32.474,Simcolourproject_2stim_asymm_v5,2020.2.10,Win32,60,61025ae37ef11b136ea224fe,,,,,,,,,2453,43.20001209,73.59997106,1,0,0,response1disk,,7,1.14441E-05,9.599970111,1,0,0,rectangle,1.14441E-05,9.599970111,1,0,0,1.14441E-05,9.599970111,1,0,0,0,39,39,52,1,,,,,,,,
,,,,,,,,,,,,,FF,,,,,,,,34.8916,,,,,,,,,,,,,,,,,,,,,,6103433959b11158bebca998,61036b1fe1eb1d931b7a34fa,2021-07-29_20h11.32.474,Simcolourproject_2stim_asymm_v5,2020.2.10,Win32,60,61025ae37ef11b136ea224fe,,,,,,,,,3794,45.60006095,85.59997124,1,0,0,response1disk,,7,16.80001169,-1.600005642,1,0,0,rectangle,16.80001169,-1.600005642,1,0,0,16.80001169,-1.600005642,1,0,0,0,40,40,106,1,,,,,,,,
,,,,,,,,,,,,,FF,,,,,,,,0.3497,,,,,,,,,,,,,,,,,,,,,,6103433959b11158bebca998,61036b1fe1eb1d931b7a34fa,2021-07-29_20h11.32.474,Simcolourproject_2stim_asymm_v5,2020.2.10,Win32,60,61025ae37ef11b136ea224fe,,,,,,,,,3264,41.60006089,76.79999553,1,0,0,response1disk,,7,1.14441E-05,0.799994394,1,0,0,rectangle,1.14441E-05,0.799994394,1,0,0,1.14441E-05,0.799994394,1,0,0,0,41,41,78,1,,,,,,,,
,,,,,,,,,,,,,FF,,,,,,,,0.6829,,,,,,,,,,,,,,,,,,,,,,6103433959b11158bebca998,61036b1fe1eb1d931b7a34fa,2021-07-29_20h11.32.474,Simcolourproject_2stim_asymm_v5,2020.2.10,Win32,60,61025ae37ef11b136ea224fe,,,,,,,,,3485,97.6000129,48.79999511,1,0,0,response1disk,,6,12.80001163,-8.800030163,1,0,0,rectangle,12.80001163,-8.800030163,1,0,0,12.80001163,-8.800030163,1,0,0,0,42,42,19,1,,,,,,,,
,,,,,,,,,,,,,FF,,,,,,,,1.1343,,,,,,,,,,,,,,,,,,,,,,6103433959b11158bebca998,61036b1fe1eb1d931b7a34fa,2021-07-29_20h11.32.474,Simcolourproject_2stim_asymm_v5,2020.2.10,Win32,60,61025ae37ef11b136ea224fe,,,,,,,,,3473,45.60006095,-85.60000689,1,0,0,response3disk,,4,0.800011456,-2.400030068,1,0,0,rectangle,0.800011456,-2.400030068,1,0,0,0.800011456,-2.400030068,1,0,0,0,43,43,116,1,,,,,,,,
,,,,,,,,,,,,,FF,,,,,,,,0.7493,,,,,,,,,,,,,,,,,,,,,,6103433959b11158bebca998,61036b1fe1eb1d931b7a34fa,2021-07-29_20h11.32.474,Simcolourproject_2stim_asymm_v5,2020.2.10,Win32,60,61025ae37ef11b136ea224fe,,,,,,,,,3812,-39.99998915,-73.60000671,1,0,0,response5disk,,3,-14.39993994,3.199970016,1,0,0,rectangle,-14.39993994,3.199970016,1,0,0,-14.39993994,3.199970016,1,0,0,0,44,44,25,1,,,,,,,,
,,,,,,,,,,,,,FF,,,,,,,,1.1328,,,,,,,,,,,,,,,,,,,,,,6103433959b11158bebca998,61036b1fe1eb1d931b7a34fa,2021-07-29_20h11.32.474,Simcolourproject_2stim_asymm_v5,2020.2.10,Win32,60,61025ae37ef11b136ea224fe,,,,,,,,,2173,92.80001283,-57.60000648,1,0,0,response3disk,,5,2.40001148,-1.600005642,1,0,0,rectangle,2.40001148,-1.600005642,1,0,0,2.40001148,-1.600005642,1,0,0,0,45,45,30,1,,,,,,,,
,,,,,,,,,,,,,FF,,,,,,,,0.6666,,,,,,,,,,,,,,,,,,,,,,6103433959b11158bebca998,61036b1fe1eb1d931b7a34fa,2021-07-29_20h11.32.474,Simcolourproject_2stim_asymm_v5,2020.2.10,Win32,60,61025ae37ef11b136ea224fe,,,,,,,,,3362,33.60006077,86.39999567,1,0,0,response1disk,,7,0.800011456,2.399994418,1,0,0,rectangle,0.800011456,2.399994418,1,0,0,0.800011456,2.399994418,1,0,0,0,46,46,4,1,,,,,,,,
,,,,,,,,,,,,,FF,,,,,,,,1.2507,,,,,,,,,,,,,,,,,,,,,,6103433959b11158bebca998,61036b1fe1eb1d931b7a34fa,2021-07-29_20h11.32.474,Simcolourproject_2stim_asymm_v5,2020.2.10,Win32,60,61025ae37ef11b136ea224fe,,,,,,,,,1294,103.200013,-43.20000626,1,0,0,response3disk,,5,8.800011575,6.399994478,1,0,0,rectangle,8.800011575,6.399994478,1,0,0,8.800011575,6.399994478,1,0,0,0,47,47,71,1,,,,,,,,
,,,,,,,,,,,,,FF,,,,,,,,1.0492,,,,,,,,,,,,,,,,,,,,,,6103433959b11158bebca998,61036b1fe1eb1d931b7a34fa,2021-07-29_20h11.32.474,Simcolourproject_2stim_asymm_v5,2020.2.10,Win32,60,61025ae37ef11b136ea224fe,,,,,,,,,3945,80.80001265,33.59997047,1,0,0,response1disk,,6,-3.199988604,-9.600005761,1,0,0,rectangle,-3.199988604,-9.600005761,1,0,0,-3.199988604,-9.600005761,1,0,0,0,48,48,121,1,,,,,,,,
,,,,,,,,,,,,,FF,,,,,,,,0.6345,,,,,,,,,,,,,,,,,,,,,,6103433959b11158bebca998,61036b1fe1eb1d931b7a34fa,2021-07-29_20h11.32.474,Simcolourproject_2stim_asymm_v5,2020.2.10,Win32,60,61025ae37ef11b136ea224fe,,,,,,,,,3223,37.60006083,72.79999547,1,0,0,response1disk,,7,17.60006053,-3.200005665,1,0,0,rectangle,17.60006053,-3.200005665,1,0,0,17.60006053,-3.200005665,1,0,0,0,49,49,91,1,,,,,,,,
,,,,,,,,,,,,,FF,,,,,,,,1.3326,,,,,,,,,,,,,,,,,,,,,,6103433959b11158bebca998,61036b1fe1eb1d931b7a34fa,2021-07-29_20h11.32.474,Simcolourproject_2stim_asymm_v5,2020.2.10,Win32,60,61025ae37ef11b136ea224fe,,,,,,,,,1688,99.20001292,51.19997073,1,0,0,response1disk,,6,1.14441E-05,-0.800030044,1,0,0,rectangle,-35.99998909,-68.80000664,1,0,0,-2.399939764,6.399994478,1,0,0,0,50,50,31,1,,response5disk_3,TRUE,3,3,"[30,13,123,244,139,13,82,248,278,305,223,224,190,186,260,111,212,132,217,51]",4.1475,rectangle
,,,,,,,,,,,,,FF,,,,,,,,0.6668,,,,,,,,,,,,,,,,,,,,,,6103433959b11158bebca998,61036b1fe1eb1d931b7a34fa,2021-07-29_20h11.32.474,Simcolourproject_2stim_asymm_v5,2020.2.10,Win32,60,61025ae37ef11b136ea224fe,,,,,,,,,2745,24.80001181,92.79999577,1,0,0,response1disk,,7,16.80001169,0.799994394,1,0,0,rectangle,16.80001169,0.799994394,1,0,0,16.80001169,0.799994394,1,0,0,0,51,51,144,1,,,,,,,,
,,,,,,,,,,,,,FF,,,,,,,,0.4343,,,,,,,,,,,,,,,,,,,,,,6103433959b11158bebca998,61036b1fe1eb1d931b7a34fa,2021-07-29_20h11.32.474,Simcolourproject_2stim_asymm_v5,2020.2.10,Win32,60,61025ae37ef11b136ea224fe,,,,,,,,,2704,51.20001221,74.39999549,1,0,0,response1disk,,7,13.60006047,-12.80003022,1,0,0,rectangle,13.60006047,-12.80003022,1,0,0,13.60006047,-12.80003022,1,0,0,0,52,52,51,1,,,,,,,,
,,,,,,,,,,,,,FF,,,,,,,,0.498,,,,,,,,,,,,,,,,,,,,,,6103433959b11158bebca998,61036b1fe1eb1d931b7a34fa,2021-07-29_20h11.32.474,Simcolourproject_2stim_asymm_v5,2020.2.10,Win32,60,61025ae37ef11b136ea224fe,,,,,,,,,1200,40.80001205,80.79999559,1,0,0,response1disk,,7,10.4000116,-9.600005761,1,0,0,rectangle,10.4000116,-9.600005761,1,0,0,10.4000116,-9.600005761,1,0,0,0,53,53,142,1,,,,,,,,
,,,,,,,,,,,,,FF,,,,,,,,0.4329,,,,,,,,,,,,,,,,,,,,,,6103433959b11158bebca998,61036b1fe1eb1d931b7a34fa,2021-07-29_20h11.32.474,Simcolourproject_2stim_asymm_v5,2020.2.10,Win32,60,61025ae37ef11b136ea224fe,,,,,,,,,2743,40.80001205,65.59997095,1,0,0,response1disk,,7,-3.199988604,-7.200005725,1,0,0,rectangle,-3.199988604,-7.200005725,1,0,0,-3.199988604,-7.200005725,1,0,0,0,54,54,53,1,,,,,,,,
,,,,,,,,,,,,,FF,,,,,,,,0.3827,,,,,,,,,,,,,,,,,,,,,,6103433959b11158bebca998,61036b1fe1eb1d931b7a34fa,2021-07-29_20h11.32.474,Simcolourproject_2stim_asymm_v5,2020.2.10,Win32,60,61025ae37ef11b136ea224fe,,,,,,,,,1397,48.80001217,76.79999553,1,0,0,response1disk,,7,2.40001148,-1.600005642,1,0,0,rectangle,2.40001148,-1.600005642,1,0,0,2.40001148,-1.600005642,1,0,0,0,55,55,145,1,,,,,,,,
,,,,,,,,,,,,,FF,,,,,,,,0.6499,,,,,,,,,,,,,,,,,,,,,,6103433959b11158bebca998,61036b1fe1eb1d931b7a34fa,2021-07-29_20h11.32.474,Simcolourproject_2stim_asymm_v5,2020.2.10,Win32,60,61025ae37ef11b136ea224fe,,,,,,,,,3399,93.60001284,52.79999517,1,0,0,response1disk,,6,26.40001184,0.799994394,1,0,0,rectangle,26.40001184,0.799994394,1,0,0,26.40001184,0.799994394,1,0,0,0,56,56,96,1,,,,,,,,
,,,,,,,,,,,,,FF,,,,,,,,2.5837,,,,,,,,,,,,,,,,,,,,,,6103433959b11158bebca998,61036b1fe1eb1d931b7a34fa,2021-07-29_20h11.32.474,Simcolourproject_2stim_asymm_v5,2020.2.10,Win32,60,61025ae37ef11b136ea224fe,,,,,,,,,3522,-75.99998969,22.39999472,1,0,0,response7disk,,1,20.80001175,-5.600005701,1,0,0,rectangle,20.80001175,-5.600005701,1,0,0,20.80001175,-5.600005701,1,0,0,0,57,57,64,1,,,,,,,,
,,,,,,,,,,,,,FF,,,,,,,,1.4335,,,,,,,,,,,,,,,,,,,,,,6103433959b11158bebca998,61036b1fe1eb1d931b7a34fa,2021-07-29_20h11.32.474,Simcolourproject_2stim_asymm_v5,2020.2.10,Win32,60,61025ae37ef11b136ea224fe,,,,,,,,,372,100.8000129,-64.80000658,1,0,0,response3disk,,5,8.800011575,6.399994478,1,0,0,rectangle,8.800011575,6.399994478,1,0,0,8.800011575,6.399994478,1,0,0,0,58,58,37,1,,,,,,,,
,,,,,,,,,,,,,FF,,,,,,,,2.1327,,,,,,,,,,,,,,,,,,,,,,6103433959b11158bebca998,61036b1fe1eb1d931b7a34fa,2021-07-29_20h11.32.474,Simcolourproject_2stim_asymm_v5,2020.2.10,Win32,60,61025ae37ef11b136ea224fe,,,,,,,,,3960,55.20001227,123.9999962,1,0,0,response1disk,,7,-15.19998878,-8.000005737,1,0,0,rectangle,-15.19998878,-8.000005737,1,0,0,-15.19998878,-8.000005737,1,0,0,0,59,59,134,1,,,,,,,,
,,,,,,,,,,,,,FF,,,,,,,,0.7489,,,,,,,,,,,,,,,,,,,,,,6103433959b11158bebca998,61036b1fe1eb1d931b7a34fa,2021-07-29_20h11.32.474,Simcolourproject_2stim_asymm_v5,2020.2.10,Win32,60,61025ae37ef11b136ea224fe,,,,,,,,,1534,88.80001277,44.79999505,1,0,0,response1disk,,6,-11.19998872,-8.800030163,1,0,0,rectangle,-11.19998872,-8.800030163,1,0,0,-11.19998872,-8.800030163,1,0,0,0,60,60,66,1,,,,,,,,
,,,,,,,,,,,,,FF,,,,,,,,0.5823,,,,,,,,,,,,,,,,,,,,,,6103433959b11158bebca998,61036b1fe1eb1d931b7a34fa,2021-07-29_20h11.32.474,Simcolourproject_2stim_asymm_v5,2020.2.10,Win32,60,61025ae37ef11b136ea224fe,,,,,,,,,1043,56.00001228,83.19997121,1,0,0,response1disk,,7,12.00001162,7.999994501,1,0,0,rectangle,12.00001162,7.999994501,1,0,0,12.00001162,7.999994501,1,0,0,0,61,61,43,1,,,,,,,,
,,,,,,,,,,,,,FF,,,,,,,,0.5486,,,,,,,,,,,,,,,,,,,,,,6103433959b11158bebca998,61036b1fe1eb1d931b7a34fa,2021-07-29_20h11.32.474,Simcolourproject_2stim_asymm_v5,2020.2.10,Win32,60,61025ae37ef11b136ea224fe,,,,,,,,,1315,44.0000121,83.19997121,1,0,0,response1disk,,7,-5.599988639,0.799994394,1,0,0,rectangle,-5.599988639,0.799994394,1,0,0,-5.599988639,0.799994394,1,0,0,0,62,62,61,1,,,,,,,,
,,,,,,,,,,,,,FF,,,,,,,,0.3998,,,,,,,,,,,,,,,,,,,,,,6103433959b11158bebca998,61036b1fe1eb1d931b7a34fa,2021-07-29_20h11.32.474,Simcolourproject_2stim_asymm_v5,2020.2.10,Win32,60,61025ae37ef11b136ea224fe,,,,,,,,,3009,35.20001197,72.79999547,1,0,0,response1disk,,7,-5.599988639,-11.20000578,1,0,0,rectangle,-5.599988639,-11.20000578,1,0,0,-5.599988639,-11.20000578,1,0,0,0,63,63,92,1,,,,,,,,
,,,,,,,,,,,,,FF,,,,,,,,0.5009,,,,,,,,,,,,,,,,,,,,,,6103433959b11158bebca998,61036b1fe1eb1d931b7a34fa,2021-07-29_20h11.32.474,Simcolourproject_2stim_asymm_v5,2020.2.10,Win32,60,61025ae37ef11b136ea224fe,,,,,,,,,123,31.20001191,51.19997073,1,0,0,response1disk,,7,5.600060356,-5.600005701,1,0,0,rectangle,5.600060356,-5.600005701,1,0,0,5.600060356,-5.600005701,1,0,0,0,64,64,155,1,,,,,,,,
,,,,,,,,,,,,,FF,,,,,,,,0.6334,,,,,,,,,,,,,,,,,,,,,,6103433959b11158bebca998,61036b1fe1eb1d931b7a34fa,2021-07-29_20h11.32.474,Simcolourproject_2stim_asymm_v5,2020.2.10,Win32,60,61025ae37ef11b136ea224fe,,,,,,,,,498,41.60006089,105.5999715,1,0,0,response1disk,,7,-5.599988639,6.399994478,1,0,0,rectangle,-5.599988639,6.399994478,1,0,0,-5.599988639,6.399994478,1,0,0,0,65,65,122,1,,,,,,,,
,,,,,,,,,,,,,FF,,,,,,,,0.8326,,,,,,,,,,,,,,,,,,,,,,6103433959b11158bebca998,61036b1fe1eb1d931b7a34fa,2021-07-29_20h11.32.474,Simcolourproject_2stim_asymm_v5,2020.2.10,Win32,60,61025ae37ef11b136ea224fe,,,,,,,,,3146,-46.39994042,75.19997109,1,0,0,response7disk,,0,4.800011516,-12.80003022,1,0,0,rectangle,4.800011516,-12.80003022,1,0,0,4.800011516,-12.80003022,1,0,0,0,66,66,8,1,,,,,,,,
,,,,,,,,,,,,,FF,,,,,,,,0.6004,,,,,,,,,,,,,,,,,,,,,,6103433959b11158bebca998,61036b1fe1eb1d931b7a34fa,2021-07-29_20h11.32.474,Simcolourproject_2stim_asymm_v5,2020.2.10,Win32,60,61025ae37ef11b136ea224fe,,,,,,,,,4251,-41.59998918,84.79999565,1,0,0,response7disk,,0,8.000011563,-11.20000578,1,0,0,rectangle,8.000011563,-11.20000578,1,0,0,8.000011563,-11.20000578,1,0,0,0,67,67,50,1,,,,,,,,
,,,,,,,,,,,,,FF,,,,,,,,0.4668,,,,,,,,,,,,,,,,,,,,,,6103433959b11158bebca998,61036b1fe1eb1d931b7a34fa,2021-07-29_20h11.32.474,Simcolourproject_2stim_asymm_v5,2020.2.10,Win32,60,61025ae37ef11b136ea224fe,,,,,,,,,1701,60.80001235,78.39999555,1,0,0,response1disk,,7,-1.59998858,-3.200005665,1,0,0,rectangle,-1.59998858,-3.200005665,1,0,0,-1.59998858,-3.200005665,1,0,0,0,68,68,42,1,,,,,,,,
,,,,,,,,,,,,,FF,,,,,,,,0.8668,,,,,,,,,,,,,,,,,,,,,,6103433959b11158bebca998,61036b1fe1eb1d931b7a34fa,2021-07-29_20h11.32.474,Simcolourproject_2stim_asymm_v5,2020.2.10,Win32,60,61025ae37ef11b136ea224fe,,,,,,,,,4249,35.20001197,81.59997118,1,0,0,response1disk,,7,5.600060356,7.999994501,1,0,0,rectangle,5.600060356,7.999994501,1,0,0,5.600060356,7.999994501,1,0,0,0,69,69,79,1,,,,,,,,
,,,,,,,,,,,,,FF,,,,,,,,0.4168,,,,,,,,,,,,,,,,,,,,,,6103433959b11158bebca998,61036b1fe1eb1d931b7a34fa,2021-07-29_20h11.32.474,Simcolourproject_2stim_asymm_v5,2020.2.10,Win32,60,61025ae37ef11b136ea224fe,,,,,,,,,1184,49.60006101,98.39999585,1,0,0,response1disk,,7,1.14441E-05,2.399994418,1,0,0,rectangle,1.14441E-05,2.399994418,1,0,0,1.14441E-05,2.399994418,1,0,0,0,70,70,138,1,,,,,,,,
,,,,,,,,,,,,,FF,,,,,,,,2.2807,,,,,,,,,,,,,,,,,,,,,,6103433959b11158bebca998,61036b1fe1eb1d931b7a34fa,2021-07-29_20h11.32.474,Simcolourproject_2stim_asymm_v5,2020.2.10,Win32,60,61025ae37ef11b136ea224fe,,,,,,,,,1971,88.80001277,37.59997053,1,0,0,response1disk,,6,-6.399939823,-11.20000578,1,0,0,rectangle,-6.399939823,-11.20000578,1,0,0,-6.399939823,-11.20000578,1,0,0,0,71,71,110,1,,,,,,,,
,,,,,,,,,,,,,FF,,,,,,,,0.3812,,,,,,,,,,,,,,,,,,,,,,6103433959b11158bebca998,61036b1fe1eb1d931b7a34fa,2021-07-29_20h11.32.474,Simcolourproject_2stim_asymm_v5,2020.2.10,Win32,60,61025ae37ef11b136ea224fe,,,,,,,,,1123,28.80001187,89.5999713,1,0,0,response1disk,,7,1.600060296,3.199970016,1,0,0,rectangle,1.600060296,3.199970016,1,0,0,1.600060296,3.199970016,1,0,0,0,72,72,136,1,,,,,,,,
,,,,,,,,,,,,,FF,,,,,,,,0.8824,,,,,,,,,,,,,,,,,,,,,,6103433959b11158bebca998,61036b1fe1eb1d931b7a34fa,2021-07-29_20h11.32.474,Simcolourproject_2stim_asymm_v5,2020.2.10,Win32,60,61025ae37ef11b136ea224fe,,,,,,,,,3259,80.80001265,48.79999511,1,0,0,response1disk,,6,-2.399939764,-3.200005665,1,0,0,rectangle,-2.399939764,-3.200005665,1,0,0,-2.399939764,-3.200005665,1,0,0,0,73,73,82,1,,,,,,,,
,,,,,,,,,,,,,FF,,,,,,,,0.45,,,,,,,,,,,,,,,,,,,,,,6103433959b11158bebca998,61036b1fe1eb1d931b7a34fa,2021-07-29_20h11.32.474,Simcolourproject_2stim_asymm_v5,2020.2.10,Win32,60,61025ae37ef11b136ea224fe,,,,,,,,,3116,33.60006077,68.79999541,1,0,0,response1disk,,7,5.600060356,-12.0000058,1,0,0,rectangle,5.600060356,-12.0000058,1,0,0,5.600060356,-12.0000058,1,0,0,0,74,74,118,1,,,,,,,,
,,,,,,,,,,,,,FF,,,,,,,,0.3838,,,,,,,,,,,,,,,,,,,,,,6103433959b11158bebca998,61036b1fe1eb1d931b7a34fa,2021-07-29_20h11.32.474,Simcolourproject_2stim_asymm_v5,2020.2.10,Win32,60,61025ae37ef11b136ea224fe,,,,,,,,,1222,63.20001239,84.79999565,1,0,0,response1disk,,7,0.800011456,-0.800030044,1,0,0,rectangle,0.800011456,-0.800030044,1,0,0,0.800011456,-0.800030044,1,0,0,0,75,75,62,1,,,,,,,,
,,,,,,,,,,,,,FF,,,,,,,,0.7163,,,,,,,,,,,,,,,,,,,,,,6103433959b11158bebca998,61036b1fe1eb1d931b7a34fa,2021-07-29_20h11.32.474,Simcolourproject_2stim_asymm_v5,2020.2.10,Win32,60,61025ae37ef11b136ea224fe,,,,,,,,,3716,125.6000133,-52.00000639,1,0,0,response3disk,,5,9.600060415,1.599969992,1,0,0,rectangle,9.600060415,1.599969992,1,0,0,9.600060415,1.599969992,1,0,0,0,76,76,146,1,,,,,,,,
,,,,,,,,,,,,,FF,,,,,,,,0.5166,,,,,,,,,,,,,,,,,,,,,,6103433959b11158bebca998,61036b1fe1eb1d931b7a34fa,2021-07-29_20h11.32.474,Simcolourproject_2stim_asymm_v5,2020.2.10,Win32,60,61025ae37ef11b136ea224fe,,,,,,,,,1031,71.20001251,85.59997124,1,0,0,response1disk,,7,-7.999988675,-4.800030103,1,0,0,rectangle,-7.999988675,-4.800030103,1,0,0,-7.999988675,-4.800030103,1,0,0,0,77,77,95,1,,,,,,,,
,,,,,,,,,,,,,FF,,,,,,,,1.0991,,,,,,,,,,,,,,,,,,,,,,6103433959b11158bebca998,61036b1fe1eb1d931b7a34fa,2021-07-29_20h11.32.474,Simcolourproject_2stim_asymm_v5,2020.2.10,Win32,60,61025ae37ef11b136ea224fe,,,,,,,,,2838,85.60001272,-48.00000633,1,0,0,response3disk,,5,-3.999988616,1.599969992,1,0,0,rectangle,-3.999988616,1.599969992,1,0,0,-3.999988616,1.599969992,1,0,0,0,78,78,120,1,,,,,,,,
,,,,,,,,,,,,,FF,,,,,,,,0.9835,,,,,,,,,,,,,,,,,,,,,,6103433959b11158bebca998,61036b1fe1eb1d931b7a34fa,2021-07-29_20h11.32.474,Simcolourproject_2stim_asymm_v5,2020.2.10,Win32,60,61025ae37ef11b136ea224fe,,,,,,,,,4027,88.80001277,-48.80000634,1,0,0,response3disk,,5,1.600060296,1.599969992,1,0,0,rectangle,1.600060296,1.599969992,1,0,0,1.600060296,1.599969992,1,0,0,0,79,79,0,1,,,,,,,,
,,,,,,,,,,,,,FF,,,,,,,,0.3668,,,,,,,,,,,,,,,,,,,,,,6103433959b11158bebca998,61036b1fe1eb1d931b7a34fa,2021-07-29_20h11.32.474,Simcolourproject_2stim_asymm_v5,2020.2.10,Win32,60,61025ae37ef11b136ea224fe,,,,,,,,,3737,53.60001224,92.79999577,1,0,0,response1disk,,7,16.80001169,4.799994454,1,0,0,rectangle,16.80001169,4.799994454,1,0,0,16.80001169,4.799994454,1,0,0,0,80,80,36,1,,,,,,,,
,,,,,,,,,,,,,FF,,,,,,,,0.7831,,,,,,,,,,,,,,,,,,,,,,6103433959b11158bebca998,61036b1fe1eb1d931b7a34fa,2021-07-29_20h11.32.474,Simcolourproject_2stim_asymm_v5,2020.2.10,Win32,60,61025ae37ef11b136ea224fe,,,,,,,,,370,89.60001278,53.59997077,1,0,0,response1disk,,6,0.800011456,-7.200005725,1,0,0,rectangle,76.80001259,36.79999493,1,0,0,1.600060296,-0.800030044,1,0,0,0,81,81,113,1,,response1disk_3,TRUE,6,6,"[30,13,123,244,139,13,82,248,278,305,223,224,190,186,260,111,212,132,217,51]",1.3491,rectangle
,,,,,,,,,,,,,FF,,,,,,,,0.8839,,,,,,,,,,,,,,,,,,,,,,6103433959b11158bebca998,61036b1fe1eb1d931b7a34fa,2021-07-29_20h11.32.474,Simcolourproject_2stim_asymm_v5,2020.2.10,Win32,60,61025ae37ef11b136ea224fe,,,,,,,,,2706,55.20001227,81.59997118,1,0,0,response1disk,,7,-3.199988604,6.399994478,1,0,0,rectangle,-3.199988604,6.399994478,1,0,0,-3.199988604,6.399994478,1,0,0,0,82,82,157,1,,,,,,,,
,,,,,,,,,,,,,FF,,,,,,,,0.4168,,,,,,,,,,,,,,,,,,,,,,6103433959b11158bebca998,61036b1fe1eb1d931b7a34fa,2021-07-29_20h11.32.474,Simcolourproject_2stim_asymm_v5,2020.2.10,Win32,60,61025ae37ef11b136ea224fe,,,,,,,,,2177,53.60001224,106.399996,1,0,0,response1disk,,7,-1.59998858,-7.200005725,1,0,0,rectangle,-1.59998858,-7.200005725,1,0,0,-1.59998858,-7.200005725,1,0,0,0,83,83,28,1,,,,,,,,
,,,,,,,,,,,,,FF,,,,,,,,0.4334,,,,,,,,,,,,,,,,,,,,,,6103433959b11158bebca998,61036b1fe1eb1d931b7a34fa,2021-07-29_20h11.32.474,Simcolourproject_2stim_asymm_v5,2020.2.10,Win32,60,61025ae37ef11b136ea224fe,,,,,,,,,964,52.80001223,89.5999713,1,0,0,response1disk,,7,4.800011516,-8.800030163,1,0,0,rectangle,4.800011516,-8.800030163,1,0,0,4.800011516,-8.800030163,1,0,0,0,84,84,148,1,,,,,,,,
,,,,,,,,,,,,,FF,,,,,,,,0.4832,,,,,,,,,,,,,,,,,,,,,,6103433959b11158bebca998,61036b1fe1eb1d931b7a34fa,2021-07-29_20h11.32.474,Simcolourproject_2stim_asymm_v5,2020.2.10,Win32,60,61025ae37ef11b136ea224fe,,,,,,,,,231,47.20001215,77.59997112,1,0,0,response1disk,,7,-3.199988604,-7.200005725,1,0,0,rectangle,-3.199988604,-7.200005725,1,0,0,-3.199988604,-7.200005725,1,0,0,0,85,85,111,1,,,,,,,,
,,,,,,,,,,,,,FF,,,,,,,,0.3832,,,,,,,,,,,,,,,,,,,,,,6103433959b11158bebca998,61036b1fe1eb1d931b7a34fa,2021-07-29_20h11.32.474,Simcolourproject_2stim_asymm_v5,2020.2.10,Win32,60,61025ae37ef11b136ea224fe,,,,,,,,,1248,48.00001216,77.59997112,1,0,0,response1disk,,7,6.400011539,-4.000005677,1,0,0,rectangle,6.400011539,-4.000005677,1,0,0,6.400011539,-4.000005677,1,0,0,0,86,86,94,1,,,,,,,,
,,,,,,,,,,,,,FF,,,,,,,,0.3166,,,,,,,,,,,,,,,,,,,,,,6103433959b11158bebca998,61036b1fe1eb1d931b7a34fa,2021-07-29_20h11.32.474,Simcolourproject_2stim_asymm_v5,2020.2.10,Win32,60,61025ae37ef11b136ea224fe,,,,,,,,,934,33.60006077,70.39999543,1,0,0,response1disk,,7,2.40001148,2.399994418,1,0,0,rectangle,2.40001148,2.399994418,1,0,0,2.40001148,2.399994418,1,0,0,0,87,87,6,1,,,,,,,,
,,,,,,,,,,,,,FF,,,,,,,,1.0173,,,,,,,,,,,,,,,,,,,,,,6103433959b11158bebca998,61036b1fe1eb1d931b7a34fa,2021-07-29_20h11.32.474,Simcolourproject_2stim_asymm_v5,2020.2.10,Win32,60,61025ae37ef11b136ea224fe,,,,,,,,,355,46.40001214,-92.00000699,1,0,0,response3disk,,4,7.200011551,6.399994478,1,0,0,rectangle,7.200011551,6.399994478,1,0,0,7.200011551,6.399994478,1,0,0,0,88,88,65,1,,,,,,,,
,,,,,,,,,,,,,FF,,,,,,,,0.7992,,,,,,,,,,,,,,,,,,,,,,6103433959b11158bebca998,61036b1fe1eb1d931b7a34fa,2021-07-29_20h11.32.474,Simcolourproject_2stim_asymm_v5,2020.2.10,Win32,60,61025ae37ef11b136ea224fe,,,,,,,,,2764,37.60006083,87.19997127,1,0,0,response1disk,,7,-15.19998878,-14.40003025,1,0,0,rectangle,-15.19998878,-14.40003025,1,0,0,-15.19998878,-14.40003025,1,0,0,0,89,89,87,1,,,,,,,,
,,,,,,,,,,,,,FF,,,,,,,,0.399,,,,,,,,,,,,,,,,,,,,,,6103433959b11158bebca998,61036b1fe1eb1d931b7a34fa,2021-07-29_20h11.32.474,Simcolourproject_2stim_asymm_v5,2020.2.10,Win32,60,61025ae37ef11b136ea224fe,,,,,,,,,4214,41.60006089,67.19997097,1,0,0,response1disk,,7,5.600060356,-9.600005761,1,0,0,rectangle,5.600060356,-9.600005761,1,0,0,5.600060356,-9.600005761,1,0,0,0,90,90,44,1,,,,,,,,
,,,,,,,,,,,,,FF,,,,,,,,0.215,,,,,,,,,,,,,,,,,,,,,,6103433959b11158bebca998,61036b1fe1eb1d931b7a34fa,2021-07-29_20h11.32.474,Simcolourproject_2stim_asymm_v5,2020.2.10,Win32,60,61025ae37ef11b136ea224fe,,,,,,,,,837,47.20001215,63.19997091,1,0,0,response1disk,,7,-7.999988675,-10.40003019,1,0,0,rectangle,-7.999988675,-10.40003019,1,0,0,-7.999988675,-10.40003019,1,0,0,0,91,91,77,1,,,,,,,,
,,,,,,,,,,,,,FF,,,,,,,,0.2816,,,,,,,,,,,,,,,,,,,,,,6103433959b11158bebca998,61036b1fe1eb1d931b7a34fa,2021-07-29_20h11.32.474,Simcolourproject_2stim_asymm_v5,2020.2.10,Win32,60,61025ae37ef11b136ea224fe,,,,,,,,,1558,52.00001222,71.19997103,1,0,0,response1disk,,7,16.80001169,3.199970016,1,0,0,rectangle,16.80001169,3.199970016,1,0,0,16.80001169,3.199970016,1,0,0,0,92,92,17,1,,,,,,,,
,,,,,,,,,,,,,FF,,,,,,,,0.2993,,,,,,,,,,,,,,,,,,,,,,6103433959b11158bebca998,61036b1fe1eb1d931b7a34fa,2021-07-29_20h11.32.474,Simcolourproject_2stim_asymm_v5,2020.2.10,Win32,60,61025ae37ef11b136ea224fe,,,,,,,,,4349,55.20001227,72.79999547,1,0,0,response1disk,,7,5.600060356,3.199970016,1,0,0,rectangle,5.600060356,3.199970016,1,0,0,5.600060356,3.199970016,1,0,0,0,93,93,104,1,,,,,,,,
,,,,,,,,,,,,,FF,,,,,,,,0.3,,,,,,,,,,,,,,,,,,,,,,6103433959b11158bebca998,61036b1fe1eb1d931b7a34fa,2021-07-29_20h11.32.474,Simcolourproject_2stim_asymm_v5,2020.2.10,Win32,60,61025ae37ef11b136ea224fe,,,,,,,,,2304,52.80001223,67.19997097,1,0,0,response1disk,,7,1.14441E-05,4.799994454,1,0,0,rectangle,1.14441E-05,4.799994454,1,0,0,1.14441E-05,4.799994454,1,0,0,0,94,94,88,1,,,,,,,,
,,,,,,,,,,,,,FF,,,,,,,,1.2487,,,,,,,,,,,,,,,,,,,,,,6103433959b11158bebca998,61036b1fe1eb1d931b7a34fa,2021-07-29_20h11.32.474,Simcolourproject_2stim_asymm_v5,2020.2.10,Win32,60,61025ae37ef11b136ea224fe,,,,,,,,,1816,-67.99998957,-32.00000609,1,0,0,response5disk,,2,25.60006065,-0.800030044,1,0,0,rectangle,25.60006065,-0.800030044,1,0,0,25.60006065,-0.800030044,1,0,0,0,95,95,130,1,,,,,,,,
,,,,,,,,,,,,,FF,,,,,,,,0.7155,,,,,,,,,,,,,,,,,,,,,,6103433959b11158bebca998,61036b1fe1eb1d931b7a34fa,2021-07-29_20h11.32.474,Simcolourproject_2stim_asymm_v5,2020.2.10,Win32,60,61025ae37ef11b136ea224fe,,,,,,,,,1364,56.00001228,91.19997133,1,0,0,response1disk,,7,4.800011516,3.199970016,1,0,0,rectangle,4.800011516,3.199970016,1,0,0,4.800011516,3.199970016,1,0,0,0,96,96,149,1,,,,,,,,
,,,,,,,,,,,,,FF,,,,,,,,0.3825,,,,,,,,,,,,,,,,,,,,,,6103433959b11158bebca998,61036b1fe1eb1d931b7a34fa,2021-07-29_20h11.32.474,Simcolourproject_2stim_asymm_v5,2020.2.10,Win32,60,61025ae37ef11b136ea224fe,,,,,,,,,900,24.0000118,68.79999541,1,0,0,response1disk,,7,-3.199988604,-4.000005677,1,0,0,rectangle,-3.199988604,-4.000005677,1,0,0,-3.199988604,-4.000005677,1,0,0,0,97,97,13,1,,,,,,,,
,,,,,,,,,,,,,FF,,,,,,,,0.4001,,,,,,,,,,,,,,,,,,,,,,6103433959b11158bebca998,61036b1fe1eb1d931b7a34fa,2021-07-29_20h11.32.474,Simcolourproject_2stim_asymm_v5,2020.2.10,Win32,60,61025ae37ef11b136ea224fe,,,,,,,,,3874,64.0000124,86.39999567,1,0,0,response1disk,,7,10.4000116,-1.600005642,1,0,0,rectangle,10.4000116,-1.600005642,1,0,0,10.4000116,-1.600005642,1,0,0,0,98,98,89,1,,,,,,,,
,,,,,,,,,,,,,FF,,,,,,,,0.4168,,,,,,,,,,,,,,,,,,,,,,6103433959b11158bebca998,61036b1fe1eb1d931b7a34fa,2021-07-29_20h11.32.474,Simcolourproject_2stim_asymm_v5,2020.2.10,Win32,60,61025ae37ef11b136ea224fe,,,,,,,,,1658,56.80001229,85.59997124,1,0,0,response1disk,,7,5.600060356,-3.200005665,1,0,0,rectangle,5.600060356,-3.200005665,1,0,0,5.600060356,-3.200005665,1,0,0,0,99,99,101,1,,,,,,,,
,,,,,,,,,,,,,FF,,,,,,,,0.3667,,,,,,,,,,,,,,,,,,,,,,6103433959b11158bebca998,61036b1fe1eb1d931b7a34fa,2021-07-29_20h11.32.474,Simcolourproject_2stim_asymm_v5,2020.2.10,Win32,60,61025ae37ef11b136ea224fe,,,,,,,,,854,56.80001229,81.59997118,1,0,0,response1disk,,7,-15.99998879,-11.20000578,1,0,0,rectangle,-15.99998879,-11.20000578,1,0,0,-15.99998879,-11.20000578,1,0,0,0,100,100,98,1,,,,,,,,
,,,,,,,,,,,,,FF,,,,,,,,0.4336,,,,,,,,,,,,,,,,,,,,,,6103433959b11158bebca998,61036b1fe1eb1d931b7a34fa,2021-07-29_20h11.32.474,Simcolourproject_2stim_asymm_v5,2020.2.10,Win32,60,61025ae37ef11b136ea224fe,,,,,,,,,2454,64.0000124,89.5999713,1,0,0,response1disk,,7,5.600060356,0.799994394,1,0,0,rectangle,5.600060356,0.799994394,1,0,0,5.600060356,0.799994394,1,0,0,0,101,101,150,1,,,,,,,,
,,,,,,,,,,,,,FF,,,,,,,,0.3502,,,,,,,,,,,,,,,,,,,,,,6103433959b11158bebca998,61036b1fe1eb1d931b7a34fa,2021-07-29_20h11.32.474,Simcolourproject_2stim_asymm_v5,2020.2.10,Win32,60,61025ae37ef11b136ea224fe,,,,,,,,,292,57.6000123,91.19997133,1,0,0,response1disk,,7,2.40001148,-3.200005665,1,0,0,rectangle,2.40001148,-3.200005665,1,0,0,2.40001148,-3.200005665,1,0,0,0,102,102,56,1,,,,,,,,
,,,,,,,,,,,,,FF,,,,,,,,0.9652,,,,,,,,,,,,,,,,,,,,,,6103433959b11158bebca998,61036b1fe1eb1d931b7a34fa,2021-07-29_20h11.32.474,Simcolourproject_2stim_asymm_v5,2020.2.10,Win32,60,61025ae37ef11b136ea224fe,,,,,,,,,2783,91.2000128,31.99999486,1,0,0,response1disk,,6,-19.99998885,-13.60000582,1,0,0,rectangle,-19.99998885,-13.60000582,1,0,0,-19.99998885,-13.60000582,1,0,0,0,103,103,97,1,,,,,,,,
,,,,,,,,,,,,,FF,,,,,,,,0.4016,,,,,,,,,,,,,,,,,,,,,,6103433959b11158bebca998,61036b1fe1eb1d931b7a34fa,2021-07-29_20h11.32.474,Simcolourproject_2stim_asymm_v5,2020.2.10,Win32,60,61025ae37ef11b136ea224fe,,,,,,,,,2119,41.60006089,83.19997121,1,0,0,response1disk,,7,14.40001166,10.39999454,1,0,0,rectangle,14.40001166,10.39999454,1,0,0,14.40001166,10.39999454,1,0,0,0,104,104,114,1,,,,,,,,
,,,,,,,,,,,,,FF,,,,,,,,1.1153,,,,,,,,,,,,,,,,,,,,,,6103433959b11158bebca998,61036b1fe1eb1d931b7a34fa,2021-07-29_20h11.32.474,Simcolourproject_2stim_asymm_v5,2020.2.10,Win32,60,61025ae37ef11b136ea224fe,,,,,,,,,2419,89.60001278,-44.00000627,1,0,0,response3disk,,5,6.400011539,2.399994418,1,0,0,rectangle,6.400011539,2.399994418,1,0,0,6.400011539,2.399994418,1,0,0,0,105,105,158,1,,,,,,,,
,,,,,,,,,,,,,FF,,,,,,,,0.3662,,,,,,,,,,,,,,,,,,,,,,6103433959b11158bebca998,61036b1fe1eb1d931b7a34fa,2021-07-29_20h11.32.474,Simcolourproject_2stim_asymm_v5,2020.2.10,Win32,60,61025ae37ef11b136ea224fe,,,,,,,,,1011,53.60001224,87.19997127,1,0,0,response1disk,,7,13.60006047,-12.80003022,1,0,0,rectangle,13.60006047,-12.80003022,1,0,0,13.60006047,-12.80003022,1,0,0,0,106,106,103,1,,,,,,,,
,,,,,,,,,,,,,FF,,,,,,,,0.35,,,,,,,,,,,,,,,,,,,,,,6103433959b11158bebca998,61036b1fe1eb1d931b7a34fa,2021-07-29_20h11.32.474,Simcolourproject_2stim_asymm_v5,2020.2.10,Win32,60,61025ae37ef11b136ea224fe,,,,,,,,,2560,65.60001242,110.399996,1,0,0,response1disk,,7,12.00001162,3.199970016,1,0,0,rectangle,12.00001162,3.199970016,1,0,0,12.00001162,3.199970016,1,0,0,0,107,107,112,1,,,,,,,,
,,,,,,,,,,,,,FF,,,,,,,,0.3651,,,,,,,,,,,,,,,,,,,,,,6103433959b11158bebca998,61036b1fe1eb1d931b7a34fa,2021-07-29_20h11.32.474,Simcolourproject_2stim_asymm_v5,2020.2.10,Win32,60,61025ae37ef11b136ea224fe,,,,,,,,,1548,55.20001227,94.39999579,1,0,0,response1disk,,7,-4.799988627,-7.200005725,1,0,0,rectangle,-4.799988627,-7.200005725,1,0,0,-4.799988627,-7.200005725,1,0,0,0,108,108,143,1,,,,,,,,
,,,,,,,,,,,,,FF,,,,,,,,0.3331,,,,,,,,,,,,,,,,,,,,,,6103433959b11158bebca998,61036b1fe1eb1d931b7a34fa,2021-07-29_20h11.32.474,Simcolourproject_2stim_asymm_v5,2020.2.10,Win32,60,61025ae37ef11b136ea224fe,,,,,,,,,1265,60.80001235,90.39999573,1,0,0,response1disk,,7,-15.19998878,-8.800030163,1,0,0,rectangle,-15.19998878,-8.800030163,1,0,0,-15.19998878,-8.800030163,1,0,0,0,109,109,81,1,,,,,,,,
,,,,,,,,,,,,,FF,,,,,,,,0.2487,,,,,,,,,,,,,,,,,,,,,,6103433959b11158bebca998,61036b1fe1eb1d931b7a34fa,2021-07-29_20h11.32.474,Simcolourproject_2stim_asymm_v5,2020.2.10,Win32,60,61025ae37ef11b136ea224fe,,,,,,,,,568,40.80001205,82.39999561,1,0,0,response1disk,,7,7.200011551,4.799994454,1,0,0,rectangle,-69.59998959,32.79999487,1,0,0,4.000011504,-6.400030127,1,0,0,0,110,110,48,1,,response7disk_3,TRUE,1,1,"[30,13,123,244,139,13,82,248,278,305,223,224,190,186,260,111,212,132,217,51]",1.1318,rectangle
,,,,,,,,,,,,,FF,,,,,,,,0.9329,,,,,,,,,,,,,,,,,,,,,,6103433959b11158bebca998,61036b1fe1eb1d931b7a34fa,2021-07-29_20h11.32.474,Simcolourproject_2stim_asymm_v5,2020.2.10,Win32,60,61025ae37ef11b136ea224fe,,,,,,,,,3526,45.60006095,-79.2000068,1,0,0,response3disk,,4,14.40001166,-5.600005701,1,0,0,rectangle,14.40001166,-5.600005701,1,0,0,14.40001166,-5.600005701,1,0,0,0,111,111,137,1,,,,,,,,
,,,,,,,,,,,,,FF,,,,,,,,0.984,,,,,,,,,,,,,,,,,,,,,,6103433959b11158bebca998,61036b1fe1eb1d931b7a34fa,2021-07-29_20h11.32.474,Simcolourproject_2stim_asymm_v5,2020.2.10,Win32,60,61025ae37ef11b136ea224fe,,,,,,,,,1833,87.20001274,32.79999487,1,0,0,response1disk,,6,-3.999988616,-5.600005701,1,0,0,rectangle,-3.999988616,-5.600005701,1,0,0,-3.999988616,-5.600005701,1,0,0,0,112,112,126,1,,,,,,,,
,,,,,,,,,,,,,FF,,,,,,,,0.3814,,,,,,,,,,,,,,,,,,,,,,6103433959b11158bebca998,61036b1fe1eb1d931b7a34fa,2021-07-29_20h11.32.474,Simcolourproject_2stim_asymm_v5,2020.2.10,Win32,60,61025ae37ef11b136ea224fe,,,,,,,,,904,44.0000121,82.39999561,1,0,0,response1disk,,7,4.800011516,-9.600005761,1,0,0,rectangle,4.800011516,-9.600005761,1,0,0,4.800011516,-9.600005761,1,0,0,0,113,113,75,1,,,,,,,,
,,,,,,,,,,,,,FF,,,,,,,,0.2991,,,,,,,,,,,,,,,,,,,,,,6103433959b11158bebca998,61036b1fe1eb1d931b7a34fa,2021-07-29_20h11.32.474,Simcolourproject_2stim_asymm_v5,2020.2.10,Win32,60,61025ae37ef11b136ea224fe,,,,,,,,,3544,40.00001204,86.39999567,1,0,0,response1disk,,7,-3.199988604,-5.61774E-06,1,0,0,rectangle,-3.199988604,-5.61774E-06,1,0,0,-3.199988604,-5.61774E-06,1,0,0,0,114,114,135,1,,,,,,,,
,,,,,,,,,,,,,FF,,,,,,,,0.3652,,,,,,,,,,,,,,,,,,,,,,6103433959b11158bebca998,61036b1fe1eb1d931b7a34fa,2021-07-29_20h11.32.474,Simcolourproject_2stim_asymm_v5,2020.2.10,Win32,60,61025ae37ef11b136ea224fe,,,,,,,,,1253,44.0000121,81.59997118,1,0,0,response1disk,,7,-1.59998858,-11.20000578,1,0,0,rectangle,-1.59998858,-11.20000578,1,0,0,-1.59998858,-11.20000578,1,0,0,0,115,115,133,1,,,,,,,,
,,,,,,,,,,,,,FF,,,,,,,,0.4813,,,,,,,,,,,,,,,,,,,,,,6103433959b11158bebca998,61036b1fe1eb1d931b7a34fa,2021-07-29_20h11.32.474,Simcolourproject_2stim_asymm_v5,2020.2.10,Win32,60,61025ae37ef11b136ea224fe,,,,,,,,,3582,57.6000123,91.19997133,1,0,0,response1disk,,7,4.800011516,-12.0000058,1,0,0,rectangle,4.800011516,-12.0000058,1,0,0,4.800011516,-12.0000058,1,0,0,0,116,116,141,1,,,,,,,,
,,,,,,,,,,,,,FF,,,,,,,,1.0817,,,,,,,,,,,,,,,,,,,,,,6103433959b11158bebca998,61036b1fe1eb1d931b7a34fa,2021-07-29_20h11.32.474,Simcolourproject_2stim_asymm_v5,2020.2.10,Win32,60,61025ae37ef11b136ea224fe,,,,,,,,,368,49.60006101,-68.00000663,1,0,0,response3disk,,4,-13.59998876,-8.800030163,1,0,0,rectangle,-13.59998876,-8.800030163,1,0,0,-13.59998876,-8.800030163,1,0,0,0,117,117,24,1,,,,,,,,
,,,,,,,,,,,,,FF,,,,,,,,0.5827,,,,,,,,,,,,,,,,,,,,,,6103433959b11158bebca998,61036b1fe1eb1d931b7a34fa,2021-07-29_20h11.32.474,Simcolourproject_2stim_asymm_v5,2020.2.10,Win32,60,61025ae37ef11b136ea224fe,,,,,,,,,2684,44.0000121,80.79999559,1,0,0,response1disk,,7,-3.999988616,-3.200005665,1,0,0,rectangle,-3.999988616,-3.200005665,1,0,0,-3.999988616,-3.200005665,1,0,0,0,118,118,128,1,,,,,,,,
,,,,,,,,,,,,,FF,,,,,,,,1.3497,,,,,,,,,,,,,,,,,,,,,,6103433959b11158bebca998,61036b1fe1eb1d931b7a34fa,2021-07-29_20h11.32.474,Simcolourproject_2stim_asymm_v5,2020.2.10,Win32,60,61025ae37ef11b136ea224fe,,,,,,,,,2941,-62.39994066,24.79999475,1,0,0,response7disk,,1,4.800011516,-0.800030044,1,0,0,rectangle,4.800011516,-0.800030044,1,0,0,4.800011516,-0.800030044,1,0,0,0,119,119,15,1,,,,,,,,
,,,,,,,,,,,,,FF,,,,,,,,0.6158,,,,,,,,,,,,,,,,,,,,,,6103433959b11158bebca998,61036b1fe1eb1d931b7a34fa,2021-07-29_20h11.32.474,Simcolourproject_2stim_asymm_v5,2020.2.10,Win32,60,61025ae37ef11b136ea224fe,,,,,,,,,2589,68.00001246,100.7999959,1,0,0,response1disk,,7,28.80001187,0.799994394,1,0,0,rectangle,28.80001187,0.799994394,1,0,0,28.80001187,0.799994394,1,0,0,0,120,120,83,1,,,,,,,,
,,,,,,,,,,,,,FF,,,,,,,,0.6504,,,,,,,,,,,,,,,,,,,,,,6103433959b11158bebca998,61036b1fe1eb1d931b7a34fa,2021-07-29_20h11.32.474,Simcolourproject_2stim_asymm_v5,2020.2.10,Win32,60,61025ae37ef11b136ea224fe,,,,,,,,,1954,55.20001227,88.79999571,1,0,0,response1disk,,7,13.60006047,7.199970075,1,0,0,rectangle,13.60006047,7.199970075,1,0,0,13.60006047,7.199970075,1,0,0,0,121,121,124,1,,,,,,,,
,,,,,,,,,,,,,FF,,,,,,,,1.5007,,,,,,,,,,,,,,,,,,,,,,6103433959b11158bebca998,61036b1fe1eb1d931b7a34fa,2021-07-29_20h11.32.474,Simcolourproject_2stim_asymm_v5,2020.2.10,Win32,60,61025ae37ef11b136ea224fe,,,,,,,,,1220,44.0000121,86.39999567,1,0,0,response1disk,,7,-7.199988663,-0.800030044,1,0,0,rectangle,-114.3999414,51.19997073,1,0,0,-7.199988663,0.799994394,1,0,0,0,122,122,5,1,,response7disk_3,TRUE,1,1,"[30,13,123,244,139,13,82,248,278,305,223,224,190,186,260,111,212,132,217,51]",1.1991,rectangle
,,,,,,,,,,,,,FF,,,,,,,,0.631,,,,,,,,,,,,,,,,,,,,,,6103433959b11158bebca998,61036b1fe1eb1d931b7a34fa,2021-07-29_20h11.32.474,Simcolourproject_2stim_asymm_v5,2020.2.10,Win32,60,61025ae37ef11b136ea224fe,,,,,,,,,2615,47.20001215,120.7999962,1,0,0,response1disk,,7,-18.39994,-1.600005642,1,0,0,rectangle,-18.39994,-1.600005642,1,0,0,-18.39994,-1.600005642,1,0,0,0,123,123,80,1,,,,,,,,
,,,,,,,,,,,,,FF,,,,,,,,0.4838,,,,,,,,,,,,,,,,,,,,,,6103433959b11158bebca998,61036b1fe1eb1d931b7a34fa,2021-07-29_20h11.32.474,Simcolourproject_2stim_asymm_v5,2020.2.10,Win32,60,61025ae37ef11b136ea224fe,,,,,,,,,1112,39.20001203,72.79999547,1,0,0,response1disk,,7,0.800011456,-8.800030163,1,0,0,rectangle,0.800011456,-8.800030163,1,0,0,0.800011456,-8.800030163,1,0,0,0,124,124,140,1,,,,,,,,
,,,,,,,,,,,,,FF,,,,,,,,0.5834,,,,,,,,,,,,,,,,,,,,,,6103433959b11158bebca998,61036b1fe1eb1d931b7a34fa,2021-07-29_20h11.32.474,Simcolourproject_2stim_asymm_v5,2020.2.10,Win32,60,61025ae37ef11b136ea224fe,,,,,,,,,427,45.60006095,90.39999573,1,0,0,response1disk,,7,1.14441E-05,-5.600005701,1,0,0,rectangle,1.14441E-05,-5.600005701,1,0,0,1.14441E-05,-5.600005701,1,0,0,0,125,125,32,1,,,,,,,,
,,,,,,,,,,,,,FF,,,,,,,,0.5821,,,,,,,,,,,,,,,,,,,,,,6103433959b11158bebca998,61036b1fe1eb1d931b7a34fa,2021-07-29_20h11.32.474,Simcolourproject_2stim_asymm_v5,2020.2.10,Win32,60,61025ae37ef11b136ea224fe,,,,,,,,,1633,36.00001198,78.39999555,1,0,0,response1disk,,7,-3.199988604,-1.600005642,1,0,0,rectangle,-3.199988604,-1.600005642,1,0,0,-3.199988604,-1.600005642,1,0,0,0,126,126,20,1,,,,,,,,
,,,,,,,,,,,,,FF,,,,,,,,1.3318,,,,,,,,,,,,,,,,,,,,,,6103433959b11158bebca998,61036b1fe1eb1d931b7a34fa,2021-07-29_20h11.32.474,Simcolourproject_2stim_asymm_v5,2020.2.10,Win32,60,61025ae37ef11b136ea224fe,,,,,,,,,3595,-85.59998983,-40.00000621,1,0,0,response5disk,,2,-18.39994,3.199970016,1,0,0,rectangle,-18.39994,3.199970016,1,0,0,-18.39994,3.199970016,1,0,0,0,127,127,54,1,,,,,,,,
,,,,,,,,,,,,,FF,,,,,,,,1.5502,,,,,,,,,,,,,,,,,,,,,,6103433959b11158bebca998,61036b1fe1eb1d931b7a34fa,2021-07-29_20h11.32.474,Simcolourproject_2stim_asymm_v5,2020.2.10,Win32,60,61025ae37ef11b136ea224fe,,,,,,,,,890,40.00001204,67.19997097,1,0,0,response1disk,,7,0.800011456,3.999994442,1,0,0,rectangle,0.800011456,3.999994442,1,0,0,0.800011456,3.999994442,1,0,0,0,128,128,26,1,,,,,,,,
,,,,,,,,,,,,,FF,,,,,,,,0.6003,,,,,,,,,,,,,,,,,,,,,,6103433959b11158bebca998,61036b1fe1eb1d931b7a34fa,2021-07-29_20h11.32.474,Simcolourproject_2stim_asymm_v5,2020.2.10,Win32,60,61025ae37ef11b136ea224fe,,,,,,,,,1178,32.00001192,79.19997115,1,0,0,response1disk,,7,4.000011504,-4.800030103,1,0,0,rectangle,4.000011504,-4.800030103,1,0,0,4.000011504,-4.800030103,1,0,0,0,129,129,10,1,,,,,,,,
,,,,,,,,,,,,,FF,,,,,,,,0.4669,,,,,,,,,,,,,,,,,,,,,,6103433959b11158bebca998,61036b1fe1eb1d931b7a34fa,2021-07-29_20h11.32.474,Simcolourproject_2stim_asymm_v5,2020.2.10,Win32,60,61025ae37ef11b136ea224fe,,,,,,,,,414,36.00001198,79.19997115,1,0,0,response1disk,,7,-9.599988699,-11.20000578,1,0,0,rectangle,-9.599988699,-11.20000578,1,0,0,-9.599988699,-11.20000578,1,0,0,0,130,130,21,1,,,,,,,,
,,,,,,,,,,,,,FF,,,,,,,,0.3674,,,,,,,,,,,,,,,,,,,,,,6103433959b11158bebca998,61036b1fe1eb1d931b7a34fa,2021-07-29_20h11.32.474,Simcolourproject_2stim_asymm_v5,2020.2.10,Win32,60,61025ae37ef11b136ea224fe,,,,,,,,,4026,48.00001216,90.39999573,1,0,0,response1disk,,7,-7.199988663,-4.800030103,1,0,0,rectangle,-83.1999898,47.9999951,1,0,0,-11.99998873,-5.600005701,1,0,0,0,131,131,33,1,,response7disk_3,TRUE,1,1,"[30,13,123,244,139,13,82,248,278,305,223,224,190,186,260,111,212,132,217,51]",1.033,rectangle
,,,,,,,,,,,,,FF,,,,,,,,2.3146,,,,,,,,,,,,,,,,,,,,,,6103433959b11158bebca998,61036b1fe1eb1d931b7a34fa,2021-07-29_20h11.32.474,Simcolourproject_2stim_asymm_v5,2020.2.10,Win32,60,61025ae37ef11b136ea224fe,,,,,,,,,3549,37.60006083,89.5999713,1,0,0,response1disk,,7,-18.39994,0.799994394,1,0,0,rectangle,-18.39994,0.799994394,1,0,0,-18.39994,0.799994394,1,0,0,0,132,132,147,1,,,,,,,,
,,,,,,,,,,,,,FF,,,,,,,,0.3672,,,,,,,,,,,,,,,,,,,,,,6103433959b11158bebca998,61036b1fe1eb1d931b7a34fa,2021-07-29_20h11.32.474,Simcolourproject_2stim_asymm_v5,2020.2.10,Win32,60,61025ae37ef11b136ea224fe,,,,,,,,,2656,36.00001198,61.59997089,1,0,0,response1disk,,7,-2.399939764,-1.600005642,1,0,0,rectangle,-2.399939764,-1.600005642,1,0,0,-2.399939764,-1.600005642,1,0,0,0,133,133,125,1,,,,,,,,
,,,,,,,,,,,,,FF,,,,,,,,1.0834,,,,,,,,,,,,,,,,,,,,,,6103433959b11158bebca998,61036b1fe1eb1d931b7a34fa,2021-07-29_20h11.32.474,Simcolourproject_2stim_asymm_v5,2020.2.10,Win32,60,61025ae37ef11b136ea224fe,,,,,,,,,3744,104.000013,-44.00000627,1,0,0,response3disk,,5,-3.999988616,7.199970075,1,0,0,rectangle,-3.999988616,7.199970075,1,0,0,-3.999988616,7.199970075,1,0,0,0,134,134,84,1,,,,,,,,
,,,,,,,,,,,,,FF,,,,,,,,0.4662,,,,,,,,,,,,,,,,,,,,,,6103433959b11158bebca998,61036b1fe1eb1d931b7a34fa,2021-07-29_20h11.32.474,Simcolourproject_2stim_asymm_v5,2020.2.10,Win32,60,61025ae37ef11b136ea224fe,,,,,,,,,2986,51.20001221,86.39999567,1,0,0,response1disk,,7,-11.19998872,-0.800030044,1,0,0,rectangle,-11.19998872,-0.800030044,1,0,0,-11.19998872,-0.800030044,1,0,0,0,135,135,129,1,,,,,,,,
,,,,,,,,,,,,,FF,,,,,,,,0.383,,,,,,,,,,,,,,,,,,,,,,6103433959b11158bebca998,61036b1fe1eb1d931b7a34fa,2021-07-29_20h11.32.474,Simcolourproject_2stim_asymm_v5,2020.2.10,Win32,60,61025ae37ef11b136ea224fe,,,,,,,,,1327,43.20001209,98.39999585,1,0,0,response1disk,,7,-3.199988604,0.799994394,1,0,0,rectangle,-3.199988604,0.799994394,1,0,0,-3.199988604,0.799994394,1,0,0,0,136,136,117,1,,,,,,,,
,,,,,,,,,,,,,FF,,,,,,,,0.383,,,,,,,,,,,,,,,,,,,,,,6103433959b11158bebca998,61036b1fe1eb1d931b7a34fa,2021-07-29_20h11.32.474,Simcolourproject_2stim_asymm_v5,2020.2.10,Win32,60,61025ae37ef11b136ea224fe,,,,,,,,,2748,44.80001211,91.19997133,1,0,0,response1disk,,7,4.800011516,4.799994454,1,0,0,rectangle,4.800011516,4.799994454,1,0,0,4.800011516,4.799994454,1,0,0,0,137,137,119,1,,,,,,,,
,,,,,,,,,,,,,FF,,,,,,,,0.3665,,,,,,,,,,,,,,,,,,,,,,6103433959b11158bebca998,61036b1fe1eb1d931b7a34fa,2021-07-29_20h11.32.474,Simcolourproject_2stim_asymm_v5,2020.2.10,Win32,60,61025ae37ef11b136ea224fe,,,,,,,,,475,44.80001211,94.39999579,1,0,0,response1disk,,7,2.40001148,12.79999457,1,0,0,rectangle,-87.19998986,35.19997049,1,0,0,-32.79998904,0.799994394,1,0,0,0,138,138,16,1,,response7disk_3,TRUE,1,1,"[30,13,123,244,139,13,82,248,278,305,223,224,190,186,260,111,212,132,217,51]",1.049,rectangle
,,,,,,,,,,,,,FF,,,,,,,,25.5748,,,,,,,,,,,,,,,,,,,,,,6103433959b11158bebca998,61036b1fe1eb1d931b7a34fa,2021-07-29_20h11.32.474,Simcolourproject_2stim_asymm_v5,2020.2.10,Win32,60,61025ae37ef11b136ea224fe,,,,,,,,,1590,47.20001215,92.79999577,1,0,0,response1disk,,7,-9.599988699,2.399994418,1,0,0,rectangle,-9.599988699,2.399994418,1,0,0,-9.599988699,2.399994418,1,0,0,0,139,139,29,1,,,,,,,,
,,,,,,,,,,,,,FF,,,,,,,,0.7331,,,,,,,,,,,,,,,,,,,,,,6103433959b11158bebca998,61036b1fe1eb1d931b7a34fa,2021-07-29_20h11.32.474,Simcolourproject_2stim_asymm_v5,2020.2.10,Win32,60,61025ae37ef11b136ea224fe,,,,,,,,,1215,108.8000131,44.79999505,1,0,0,response1disk,,6,13.60006047,-11.20000578,1,0,0,rectangle,13.60006047,-11.20000578,1,0,0,13.60006047,-11.20000578,1,0,0,0,140,140,102,1,,,,,,,,
,,,,,,,,,,,,,FF,,,,,,,,1.1178,,,,,,,,,,,,,,,,,,,,,,6103433959b11158bebca998,61036b1fe1eb1d931b7a34fa,2021-07-29_20h11.32.474,Simcolourproject_2stim_asymm_v5,2020.2.10,Win32,60,61025ae37ef11b136ea224fe,,,,,,,,,718,-70.39994078,-34.40000613,1,0,0,response5disk,,2,-6.399939823,4.799994454,1,0,0,rectangle,-6.399939823,4.799994454,1,0,0,-6.399939823,4.799994454,1,0,0,0,141,141,38,1,,,,,,,,
,,,,,,,,,,,,,FF,,,,,,,,0.4844,,,,,,,,,,,,,,,,,,,,,,6103433959b11158bebca998,61036b1fe1eb1d931b7a34fa,2021-07-29_20h11.32.474,Simcolourproject_2stim_asymm_v5,2020.2.10,Win32,60,61025ae37ef11b136ea224fe,,,,,,,,,4114,72.00001252,91.99999575,1,0,0,response1disk,,7,1.14441E-05,-10.40003019,1,0,0,rectangle,1.14441E-05,-10.40003019,1,0,0,1.14441E-05,-10.40003019,1,0,0,0,142,142,151,1,,,,,,,,
,,,,,,,,,,,,,FF,,,,,,,,0.3164,,,,,,,,,,,,,,,,,,,,,,6103433959b11158bebca998,61036b1fe1eb1d931b7a34fa,2021-07-29_20h11.32.474,Simcolourproject_2stim_asymm_v5,2020.2.10,Win32,60,61025ae37ef11b136ea224fe,,,,,,,,,1652,44.80001211,83.19997121,1,0,0,response1disk,,7,1.14441E-05,0.799994394,1,0,0,rectangle,1.14441E-05,0.799994394,1,0,0,1.14441E-05,0.799994394,1,0,0,0,143,143,85,1,,,,,,,,
,,,,,,,,,,,,,FF,,,,,,,,0.3837,,,,,,,,,,,,,,,,,,,,,,6103433959b11158bebca998,61036b1fe1eb1d931b7a34fa,2021-07-29_20h11.32.474,Simcolourproject_2stim_asymm_v5,2020.2.10,Win32,60,61025ae37ef11b136ea224fe,,,,,,,,,911,44.80001211,83.99999563,1,0,0,response1disk,,7,8.000011563,1.599969992,1,0,0,rectangle,8.000011563,1.599969992,1,0,0,8.000011563,1.599969992,1,0,0,0,144,144,18,1,,,,,,,,
,,,,,,,,,,,,,FF,,,,,,,,0.3849,,,,,,,,,,,,,,,,,,,,,,6103433959b11158bebca998,61036b1fe1eb1d931b7a34fa,2021-07-29_20h11.32.474,Simcolourproject_2stim_asymm_v5,2020.2.10,Win32,60,61025ae37ef11b136ea224fe,,,,,,,,,4064,43.20001209,84.79999565,1,0,0,response1disk,,7,6.400011539,1.599969992,1,0,0,rectangle,6.400011539,1.599969992,1,0,0,6.400011539,1.599969992,1,0,0,0,145,145,159,1,,,,,,,,
,,,,,,,,,,,,,FF,,,,,,,,0.3997,,,,,,,,,,,,,,,,,,,,,,6103433959b11158bebca998,61036b1fe1eb1d931b7a34fa,2021-07-29_20h11.32.474,Simcolourproject_2stim_asymm_v5,2020.2.10,Win32,60,61025ae37ef11b136ea224fe,,,,,,,,,3646,48.80001217,84.79999565,1,0,0,response1disk,,7,0.800011456,-5.600005701,1,0,0,rectangle,0.800011456,-5.600005701,1,0,0,0.800011456,-5.600005701,1,0,0,0,146,146,139,1,,,,,,,,
,,,,,,,,,,,,,FF,,,,,,,,0.3993,,,,,,,,,,,,,,,,,,,,,,6103433959b11158bebca998,61036b1fe1eb1d931b7a34fa,2021-07-29_20h11.32.474,Simcolourproject_2stim_asymm_v5,2020.2.10,Win32,60,61025ae37ef11b136ea224fe,,,,,,,,,2146,40.80001205,91.19997133,1,0,0,response1disk,,7,-3.199988604,6.399994478,1,0,0,rectangle,-3.199988604,6.399994478,1,0,0,-3.199988604,6.399994478,1,0,0,0,147,147,58,1,,,,,,,,
,,,,,,,,,,,,,FF,,,,,,,,0.3669,,,,,,,,,,,,,,,,,,,,,,6103433959b11158bebca998,61036b1fe1eb1d931b7a34fa,2021-07-29_20h11.32.474,Simcolourproject_2stim_asymm_v5,2020.2.10,Win32,60,61025ae37ef11b136ea224fe,,,,,,,,,403,55.20001227,102.3999959,1,0,0,response1disk,,7,-3.199988604,3.999994442,1,0,0,rectangle,-3.199988604,3.999994442,1,0,0,-3.199988604,3.999994442,1,0,0,0,148,148,132,1,,,,,,,,
,,,,,,,,,,,,,FF,,,,,,,,0.4839,,,,,,,,,,,,,,,,,,,,,,6103433959b11158bebca998,61036b1fe1eb1d931b7a34fa,2021-07-29_20h11.32.474,Simcolourproject_2stim_asymm_v5,2020.2.10,Win32,60,61025ae37ef11b136ea224fe,,,,,,,,,1285,63.20001239,87.99999569,1,0,0,response1disk,,7,5.600060356,-7.200005725,1,0,0,rectangle,5.600060356,-7.200005725,1,0,0,5.600060356,-7.200005725,1,0,0,0,149,149,11,1,,,,,,,,
,,,,,,,,,,,,,FF,,,,,,,,0.3496,,,,,,,,,,,,,,,,,,,,,,6103433959b11158bebca998,61036b1fe1eb1d931b7a34fa,2021-07-29_20h11.32.474,Simcolourproject_2stim_asymm_v5,2020.2.10,Win32,60,61025ae37ef11b136ea224fe,,,,,,,,,1549,40.00001204,76.79999553,1,0,0,response1disk,,7,-11.99998873,-13.60000582,1,0,0,rectangle,-11.99998873,-13.60000582,1,0,0,-11.99998873,-13.60000582,1,0,0,0,150,150,72,1,,,,,,,,
,,,,,,,,,,,,,FF,,,,,,,,0.3837,,,,,,,,,,,,,,,,,,,,,,6103433959b11158bebca998,61036b1fe1eb1d931b7a34fa,2021-07-29_20h11.32.474,Simcolourproject_2stim_asymm_v5,2020.2.10,Win32,60,61025ae37ef11b136ea224fe,,,,,,,,,2705,47.20001215,91.99999575,1,0,0,response1disk,,7,-3.199988604,-3.200005665,1,0,0,rectangle,-3.199988604,-3.200005665,1,0,0,-3.199988604,-3.200005665,1,0,0,0,151,151,35,1,,,,,,,,
,,,,,,,,,,,,,FF,,,,,,,,0.4669,,,,,,,,,,,,,,,,,,,,,,6103433959b11158bebca998,61036b1fe1eb1d931b7a34fa,2021-07-29_20h11.32.474,Simcolourproject_2stim_asymm_v5,2020.2.10,Win32,60,61025ae37ef11b136ea224fe,,,,,,,,,3693,52.00001222,102.3999959,1,0,0,response1disk,,7,1.14441E-05,3.999994442,1,0,0,rectangle,1.14441E-05,3.999994442,1,0,0,1.14441E-05,3.999994442,1,0,0,0,152,152,47,1,,,,,,,,
,,,,,,,,,,,,,FF,,,,,,,,0.4002,,,,,,,,,,,,,,,,,,,,,,6103433959b11158bebca998,61036b1fe1eb1d931b7a34fa,2021-07-29_20h11.32.474,Simcolourproject_2stim_asymm_v5,2020.2.10,Win32,60,61025ae37ef11b136ea224fe,,,,,,,,,1667,52.80001223,84.79999565,1,0,0,response1disk,,7,0.800011456,0.799994394,1,0,0,rectangle,0.800011456,0.799994394,1,0,0,0.800011456,0.799994394,1,0,0,0,153,153,108,1,,,,,,,,
,,,,,,,,,,,,,FF,,,,,,,,0.4002,,,,,,,,,,,,,,,,,,,,,,6103433959b11158bebca998,61036b1fe1eb1d931b7a34fa,2021-07-29_20h11.32.474,Simcolourproject_2stim_asymm_v5,2020.2.10,Win32,60,61025ae37ef11b136ea224fe,,,,,,,,,1171,48.80001217,71.19997103,1,0,0,response1disk,,7,14.40001166,1.599969992,1,0,0,rectangle,14.40001166,1.599969992,1,0,0,14.40001166,1.599969992,1,0,0,0,154,154,69,1,,,,,,,,
,,,,,,,,,,,,,FF,,,,,,,,0.3671,,,,,,,,,,,,,,,,,,,,,,6103433959b11158bebca998,61036b1fe1eb1d931b7a34fa,2021-07-29_20h11.32.474,Simcolourproject_2stim_asymm_v5,2020.2.10,Win32,60,61025ae37ef11b136ea224fe,,,,,,,,,3136,67.20001245,91.19997133,1,0,0,response1disk,,7,1.600060296,-4.000005677,1,0,0,rectangle,1.600060296,-4.000005677,1,0,0,1.600060296,-4.000005677,1,0,0,0,155,155,40,1,,,,,,,,
,,,,,,,,,,,,,FF,,,,,,,,0.3666,,,,,,,,,,,,,,,,,,,,,,6103433959b11158bebca998,61036b1fe1eb1d931b7a34fa,2021-07-29_20h11.32.474,Simcolourproject_2stim_asymm_v5,2020.2.10,Win32,60,61025ae37ef11b136ea224fe,,,,,,,,,1039,55.20001227,98.39999585,1,0,0,response1disk,,7,-5.599988639,9.599970111,1,0,0,rectangle,-5.599988639,9.599970111,1,0,0,-5.599988639,9.599970111,1,0,0,0,156,156,70,1,,,,,,,,
,,,,,,,,,,,,,FF,,,,,,,,0.3172,,,,,,,,,,,,,,,,,,,,,,6103433959b11158bebca998,61036b1fe1eb1d931b7a34fa,2021-07-29_20h11.32.474,Simcolourproject_2stim_asymm_v5,2020.2.10,Win32,60,61025ae37ef11b136ea224fe,,,,,,,,,1584,68.00001246,110.399996,1,0,0,response1disk,,7,5.600060356,-5.61774E-06,1,0,0,rectangle,5.600060356,-5.61774E-06,1,0,0,5.600060356,-5.61774E-06,1,0,0,0,157,157,127,1,,,,,,,,
,,,,,,,,,,,,,FF,,,,,,,,17.1958,,,,,,,,,,,,,,,,,,,,,,6103433959b11158bebca998,61036b1fe1eb1d931b7a34fa,2021-07-29_20h11.32.474,Simcolourproject_2stim_asymm_v5,2020.2.10,Win32,60,61025ae37ef11b136ea224fe,,,,,,,,,926,44.0000121,98.39999585,1,0,0,response1disk,,7,8.800011575,5.599970052,1,0,0,rectangle,8.800011575,5.599970052,1,0,0,8.800011575,5.599970052,1,0,0,0,158,158,67,1,,,,,,,,
,,,,,,,,,,,,,FF,,,,,,,,0.3326,,,,,,,,,,,,,,,,,,,,,,6103433959b11158bebca998,61036b1fe1eb1d931b7a34fa,2021-07-29_20h11.32.474,Simcolourproject_2stim_asymm_v5,2020.2.10,Win32,60,61025ae37ef11b136ea224fe,,,,,,,,,3682,55.20001227,87.19997127,1,0,0,response1disk,,7,-17.59998882,0.799994394,1,0,0,rectangle,-17.59998882,0.799994394,1,0,0,-17.59998882,0.799994394,1,0,0,0,159,159,152,1,,,,,,,,
,,,,,,,,,,,,,FF,,,,,,,,0.2483,,,,,,,,,,,,,,,,,,,,,,6103433959b11158bebca998,61036b1fe1eb1d931b7a34fa,2021-07-29_20h11.32.474,Simcolourproject_2stim_asymm_v5,2020.2.10,Win32,60,61025ae37ef11b136ea224fe,,,,,,,,,2344,39.20001203,91.19997133,1,0,0,response1disk,,7,-2.399939764,1.599969992,1,0,0,rectangle,-2.399939764,1.599969992,1,0,0,-2.399939764,1.599969992,1,0,0,1,0,160,65,1,,,,,,,,
,,,,,,,,,,,,,FF,,,,,,,,0.2323,,,,,,,,,,,,,,,,,,,,,,6103433959b11158bebca998,61036b1fe1eb1d931b7a34fa,2021-07-29_20h11.32.474,Simcolourproject_2stim_asymm_v5,2020.2.10,Win32,60,61025ae37ef11b136ea224fe,,,,,,,,,2458,55.20001227,91.99999575,1,0,0,response1disk,,7,-7.199988663,-5.61774E-06,1,0,0,rectangle,-7.199988663,-5.61774E-06,1,0,0,-7.199988663,-5.61774E-06,1,0,0,1,1,161,54,1,,,,,,,,
,,,,,,,,,,,,,FF,,,,,,,,0.2329,,,,,,,,,,,,,,,,,,,,,,6103433959b11158bebca998,61036b1fe1eb1d931b7a34fa,2021-07-29_20h11.32.474,Simcolourproject_2stim_asymm_v5,2020.2.10,Win32,60,61025ae37ef11b136ea224fe,,,,,,,,,1201,64.0000124,95.19997139,1,0,0,response1disk,,7,0.800011456,3.999994442,1,0,0,rectangle,0.800011456,3.999994442,1,0,0,0.800011456,3.999994442,1,0,0,1,2,162,86,1,,,,,,,,
,,,,,,,,,,,,,FF,,,,,,,,0.2483,,,,,,,,,,,,,,,,,,,,,,6103433959b11158bebca998,61036b1fe1eb1d931b7a34fa,2021-07-29_20h11.32.474,Simcolourproject_2stim_asymm_v5,2020.2.10,Win32,60,61025ae37ef11b136ea224fe,,,,,,,,,2161,57.6000123,97.59997142,1,0,0,response1disk,,7,0.800011456,7.199970075,1,0,0,rectangle,0.800011456,7.199970075,1,0,0,0.800011456,7.199970075,1,0,0,1,3,163,144,1,,,,,,,,
,,,,,,,,,,,,,FF,,,,,,,,0.3157,,,,,,,,,,,,,,,,,,,,,,6103433959b11158bebca998,61036b1fe1eb1d931b7a34fa,2021-07-29_20h11.32.474,Simcolourproject_2stim_asymm_v5,2020.2.10,Win32,60,61025ae37ef11b136ea224fe,,,,,,,,,483,51.20001221,93.59997136,1,0,0,response1disk,,7,-14.39993994,7.999994501,1,0,0,rectangle,-14.39993994,7.999994501,1,0,0,-14.39993994,7.999994501,1,0,0,1,4,164,102,1,,,,,,,,
,,,,,,,,,,,,,FF,,,,,,,,0.3148,,,,,,,,,,,,,,,,,,,,,,6103433959b11158bebca998,61036b1fe1eb1d931b7a34fa,2021-07-29_20h11.32.474,Simcolourproject_2stim_asymm_v5,2020.2.10,Win32,60,61025ae37ef11b136ea224fe,,,,,,,,,318,35.20001197,74.39999549,1,0,0,response1disk,,7,-6.399939823,-8.000005737,1,0,0,rectangle,-6.399939823,-8.000005737,1,0,0,-6.399939823,-8.000005737,1,0,0,1,5,165,19,1,,,,,,,,
,,,,,,,,,,,,,FF,,,,,,,,0.7326,,,,,,,,,,,,,,,,,,,,,,6103433959b11158bebca998,61036b1fe1eb1d931b7a34fa,2021-07-29_20h11.32.474,Simcolourproject_2stim_asymm_v5,2020.2.10,Win32,60,61025ae37ef11b136ea224fe,,,,,,,,,2548,76.00001258,47.9999951,1,0,0,response1disk,,6,5.600060356,4.799994454,1,0,0,rectangle,5.600060356,4.799994454,1,0,0,5.600060356,4.799994454,1,0,0,1,6,166,89,1,,,,,,,,
,,,,,,,,,,,,,FF,,,,,,,,0.5322,,,,,,,,,,,,,,,,,,,,,,6103433959b11158bebca998,61036b1fe1eb1d931b7a34fa,2021-07-29_20h11.32.474,Simcolourproject_2stim_asymm_v5,2020.2.10,Win32,60,61025ae37ef11b136ea224fe,,,,,,,,,3276,37.60006083,99.19997145,1,0,0,response1disk,,7,-7.199988663,-2.400030068,1,0,0,rectangle,-7.199988663,-2.400030068,1,0,0,-7.199988663,-2.400030068,1,0,0,1,7,167,155,1,,,,,,,,
,,,,,,,,,,,,,FF,,,,,,,,0.3668,,,,,,,,,,,,,,,,,,,,,,6103433959b11158bebca998,61036b1fe1eb1d931b7a34fa,2021-07-29_20h11.32.474,Simcolourproject_2stim_asymm_v5,2020.2.10,Win32,60,61025ae37ef11b136ea224fe,,,,,,,,,381,28.00001186,75.99999551,1,0,0,response1disk,,7,-1.59998858,-4.000005677,1,0,0,rectangle,-1.59998858,-4.000005677,1,0,0,-1.59998858,-4.000005677,1,0,0,1,8,168,143,1,,,,,,,,
,,,,,,,,,,,,,FF,,,,,,,,0.4329,,,,,,,,,,,,,,,,,,,,,,6103433959b11158bebca998,61036b1fe1eb1d931b7a34fa,2021-07-29_20h11.32.474,Simcolourproject_2stim_asymm_v5,2020.2.10,Win32,60,61025ae37ef11b136ea224fe,,,,,,,,,3925,39.20001203,75.19997109,1,0,0,response1disk,,7,4.000011504,3.999994442,1,0,0,rectangle,4.000011504,3.999994442,1,0,0,4.000011504,3.999994442,1,0,0,1,9,169,103,1,,,,,,,,
,,,,,,,,,,,,,FF,,,,,,,,0.3167,,,,,,,,,,,,,,,,,,,,,,6103433959b11158bebca998,61036b1fe1eb1d931b7a34fa,2021-07-29_20h11.32.474,Simcolourproject_2stim_asymm_v5,2020.2.10,Win32,60,61025ae37ef11b136ea224fe,,,,,,,,,343,47.20001215,90.39999573,1,0,0,response1disk,,7,14.40001166,7.199970075,1,0,0,rectangle,14.40001166,7.199970075,1,0,0,14.40001166,7.199970075,1,0,0,1,10,170,49,1,,,,,,,,
,,,,,,,,,,,,,FF,,,,,,,,0.4345,,,,,,,,,,,,,,,,,,,,,,6103433959b11158bebca998,61036b1fe1eb1d931b7a34fa,2021-07-29_20h11.32.474,Simcolourproject_2stim_asymm_v5,2020.2.10,Win32,60,61025ae37ef11b136ea224fe,,,,,,,,,1202,43.20001209,86.39999567,1,0,0,response1disk,,7,8.000011563,0.799994394,1,0,0,rectangle,8.000011563,0.799994394,1,0,0,8.000011563,0.799994394,1,0,0,1,11,171,14,1,,,,,,,,
,,,,,,,,,,,,,FF,,,,,,,,0.2997,,,,,,,,,,,,,,,,,,,,,,6103433959b11158bebca998,61036b1fe1eb1d931b7a34fa,2021-07-29_20h11.32.474,Simcolourproject_2stim_asymm_v5,2020.2.10,Win32,60,61025ae37ef11b136ea224fe,,,,,,,,,2076,48.00001216,103.1999715,1,0,0,response1disk,,7,-6.399939823,-4.000005677,1,0,0,rectangle,-6.399939823,-4.000005677,1,0,0,-6.399939823,-4.000005677,1,0,0,1,12,172,51,1,,,,,,,,
,,,,,,,,,,,,,FF,,,,,,,,0.3658,,,,,,,,,,,,,,,,,,,,,,6103433959b11158bebca998,61036b1fe1eb1d931b7a34fa,2021-07-29_20h11.32.474,Simcolourproject_2stim_asymm_v5,2020.2.10,Win32,60,61025ae37ef11b136ea224fe,,,,,,,,,972,52.00001222,95.99999581,1,0,0,response1disk,,7,5.600060356,1.599969992,1,0,0,rectangle,5.600060356,1.599969992,1,0,0,5.600060356,1.599969992,1,0,0,1,13,173,151,1,,,,,,,,
,,,,,,,,,,,,,FF,,,,,,,,0.3492,,,,,,,,,,,,,,,,,,,,,,6103433959b11158bebca998,61036b1fe1eb1d931b7a34fa,2021-07-29_20h11.32.474,Simcolourproject_2stim_asymm_v5,2020.2.10,Win32,60,61025ae37ef11b136ea224fe,,,,,,,,,3361,48.00001216,85.59997124,1,0,0,response1disk,,7,8.000011563,-14.40003025,1,0,0,rectangle,8.000011563,-14.40003025,1,0,0,8.000011563,-14.40003025,1,0,0,1,14,174,24,1,,,,,,,,
,,,,,,,,,,,,,FF,,,,,,,,0.4164,,,,,,,,,,,,,,,,,,,,,,6103433959b11158bebca998,61036b1fe1eb1d931b7a34fa,2021-07-29_20h11.32.474,Simcolourproject_2stim_asymm_v5,2020.2.10,Win32,60,61025ae37ef11b136ea224fe,,,,,,,,,2665,64.0000124,93.59997136,1,0,0,response1disk,,7,12.80001163,-5.61774E-06,1,0,0,rectangle,12.80001163,-5.61774E-06,1,0,0,12.80001163,-5.61774E-06,1,0,0,1,15,175,34,1,,,,,,,,
,,,,,,,,,,,,,FF,,,,,,,,0.3325,,,,,,,,,,,,,,,,,,,,,,6103433959b11158bebca998,61036b1fe1eb1d931b7a34fa,2021-07-29_20h11.32.474,Simcolourproject_2stim_asymm_v5,2020.2.10,Win32,60,61025ae37ef11b136ea224fe,,,,,,,,,3921,61.60001236,106.399996,1,0,0,response1disk,,7,4.800011516,0.799994394,1,0,0,rectangle,4.800011516,0.799994394,1,0,0,4.800011516,0.799994394,1,0,0,1,16,176,120,1,,,,,,,,
,,,,,,,,,,,,,FF,,,,,,,,0.2835,,,,,,,,,,,,,,,,,,,,,,6103433959b11158bebca998,61036b1fe1eb1d931b7a34fa,2021-07-29_20h11.32.474,Simcolourproject_2stim_asymm_v5,2020.2.10,Win32,60,61025ae37ef11b136ea224fe,,,,,,,,,2799,48.80001217,107.199996,1,0,0,response1disk,,7,4.000011504,5.599970052,1,0,0,rectangle,4.000011504,5.599970052,1,0,0,4.000011504,5.599970052,1,0,0,1,17,177,48,1,,,,,,,,
,,,,,,,,,,,,,FF,,,,,,,,0.8324,,,,,,,,,,,,,,,,,,,,,,6103433959b11158bebca998,61036b1fe1eb1d931b7a34fa,2021-07-29_20h11.32.474,Simcolourproject_2stim_asymm_v5,2020.2.10,Win32,60,61025ae37ef11b136ea224fe,,,,,,,,,2234,50.4000122,-86.40000691,1,0,0,response3disk,,4,-23.1999889,2.399994418,1,0,0,rectangle,-23.1999889,2.399994418,1,0,0,-23.1999889,2.399994418,1,0,0,1,18,178,158,1,,,,,,,,
,,,,,,,,,,,,,FF,,,,,,,,0.367,,,,,,,,,,,,,,,,,,,,,,6103433959b11158bebca998,61036b1fe1eb1d931b7a34fa,2021-07-29_20h11.32.474,Simcolourproject_2stim_asymm_v5,2020.2.10,Win32,60,61025ae37ef11b136ea224fe,,,,,,,,,623,53.60001224,99.99999587,1,0,0,response1disk,,7,0.800011456,7.199970075,1,0,0,rectangle,0.800011456,7.199970075,1,0,0,0.800011456,7.199970075,1,0,0,1,19,179,43,1,,,,,,,,
,,,,,,,,,,,,,FF,,,,,,,,0.3339,,,,,,,,,,,,,,,,,,,,,,6103433959b11158bebca998,61036b1fe1eb1d931b7a34fa,2021-07-29_20h11.32.474,Simcolourproject_2stim_asymm_v5,2020.2.10,Win32,60,61025ae37ef11b136ea224fe,,,,,,,,,1946,48.00001216,98.39999585,1,0,0,response1disk,,7,1.600060296,3.199970016,1,0,0,rectangle,1.600060296,3.199970016,1,0,0,1.600060296,3.199970016,1,0,0,1,20,180,32,1,,,,,,,,
,,,,,,,,,,,,,FF,,,,,,,,0.3342,,,,,,,,,,,,,,,,,,,,,,6103433959b11158bebca998,61036b1fe1eb1d931b7a34fa,2021-07-29_20h11.32.474,Simcolourproject_2stim_asymm_v5,2020.2.10,Win32,60,61025ae37ef11b136ea224fe,,,,,,,,,4159,45.60006095,106.399996,1,0,0,response1disk,,7,-9.599988699,7.199970075,1,0,0,rectangle,-9.599988699,7.199970075,1,0,0,-9.599988699,7.199970075,1,0,0,1,21,181,17,1,,,,,,,,
,,,,,,,,,,,,,FF,,,,,,,,0.2995,,,,,,,,,,,,,,,,,,,,,,6103433959b11158bebca998,61036b1fe1eb1d931b7a34fa,2021-07-29_20h11.32.474,Simcolourproject_2stim_asymm_v5,2020.2.10,Win32,60,61025ae37ef11b136ea224fe,,,,,,,,,4226,56.80001229,95.19997139,1,0,0,response1disk,,7,-7.999988675,-4.000005677,1,0,0,rectangle,-7.999988675,-4.000005677,1,0,0,-7.999988675,-4.000005677,1,0,0,1,22,182,84,1,,,,,,,,
,,,,,,,,,,,,,FF,,,,,,,,0.3163,,,,,,,,,,,,,,,,,,,,,,6103433959b11158bebca998,61036b1fe1eb1d931b7a34fa,2021-07-29_20h11.32.474,Simcolourproject_2stim_asymm_v5,2020.2.10,Win32,60,61025ae37ef11b136ea224fe,,,,,,,,,3452,51.20001221,91.99999575,1,0,0,response1disk,,7,0.800011456,0.799994394,1,0,0,rectangle,0.800011456,0.799994394,1,0,0,0.800011456,0.799994394,1,0,0,1,23,183,149,1,,,,,,,,
,,,,,,,,,,,,,FF,,,,,,,,0.3501,,,,,,,,,,,,,,,,,,,,,,6103433959b11158bebca998,61036b1fe1eb1d931b7a34fa,2021-07-29_20h11.32.474,Simcolourproject_2stim_asymm_v5,2020.2.10,Win32,60,61025ae37ef11b136ea224fe,,,,,,,,,416,57.6000123,98.39999585,1,0,0,response1disk,,7,-3.199988604,-6.400030127,1,0,0,rectangle,-3.199988604,-6.400030127,1,0,0,-3.199988604,-6.400030127,1,0,0,1,24,184,152,1,,,,,,,,
,,,,,,,,,,,,,FF,,,,,,,,0.5502,,,,,,,,,,,,,,,,,,,,,,6103433959b11158bebca998,61036b1fe1eb1d931b7a34fa,2021-07-29_20h11.32.474,Simcolourproject_2stim_asymm_v5,2020.2.10,Win32,60,61025ae37ef11b136ea224fe,,,,,,,,,3685,59.20001233,99.19997145,1,0,0,response1disk,,7,-2.399939764,-0.800030044,1,0,0,rectangle,-51.19998932,-91.2000558,1,0,0,-3.199988604,-2.400030068,1,0,0,1,25,185,42,1,,response5disk_3,TRUE,3,3,"[30,13,123,244,139,13,82,248,278,305,223,224,190,186,260,111,212,132,217,51]",1.3663,rectangle
,,,,,,,,,,,,,FF,,,,,,,,5.9637,,,,,,,,,,,,,,,,,,,,,,6103433959b11158bebca998,61036b1fe1eb1d931b7a34fa,2021-07-29_20h11.32.474,Simcolourproject_2stim_asymm_v5,2020.2.10,Win32,60,61025ae37ef11b136ea224fe,,,,,,,,,4248,39.20001203,112.7999961,1,0,0,response1disk,,7,0.800011456,-3.200005665,1,0,0,rectangle,0.800011456,-3.200005665,1,0,0,0.800011456,-3.200005665,1,0,0,1,26,186,125,1,,,,,,,,
,,,,,,,,,,,,,FF,,,,,,,,0.2843,,,,,,,,,,,,,,,,,,,,,,6103433959b11158bebca998,61036b1fe1eb1d931b7a34fa,2021-07-29_20h11.32.474,Simcolourproject_2stim_asymm_v5,2020.2.10,Win32,60,61025ae37ef11b136ea224fe,,,,,,,,,4138,41.60006089,85.59997124,1,0,0,response1disk,,7,-3.199988604,-7.200005725,1,0,0,rectangle,-3.199988604,-7.200005725,1,0,0,-3.199988604,-7.200005725,1,0,0,1,27,187,136,1,,,,,,,,
,,,,,,,,,,,,,FF,,,,,,,,0.2495,,,,,,,,,,,,,,,,,,,,,,6103433959b11158bebca998,61036b1fe1eb1d931b7a34fa,2021-07-29_20h11.32.474,Simcolourproject_2stim_asymm_v5,2020.2.10,Win32,60,61025ae37ef11b136ea224fe,,,,,,,,,647,55.20001227,100.7999959,1,0,0,response1disk,,7,-7.999988675,0.799994394,1,0,0,rectangle,-7.999988675,0.799994394,1,0,0,-7.999988675,0.799994394,1,0,0,1,28,188,22,1,,,,,,,,
,,,,,,,,,,,,,FF,,,,,,,,0.2645,,,,,,,,,,,,,,,,,,,,,,6103433959b11158bebca998,61036b1fe1eb1d931b7a34fa,2021-07-29_20h11.32.474,Simcolourproject_2stim_asymm_v5,2020.2.10,Win32,60,61025ae37ef11b136ea224fe,,,,,,,,,3036,51.20001221,104.7999959,1,0,0,response1disk,,7,-2.399939764,7.999994501,1,0,0,rectangle,-38.3999403,70.39999543,1,0,0,12.80001163,2.399994418,1,0,0,1,29,189,146,1,,response7disk_3,TRUE,0,0,"[30,13,123,244,139,13,82,248,278,305,223,224,190,186,260,111,212,132,217,51]",0.9314,rectangle
,,,,,,,,,,,,,FF,,,,,,,,0.4662,,,,,,,,,,,,,,,,,,,,,,6103433959b11158bebca998,61036b1fe1eb1d931b7a34fa,2021-07-29_20h11.32.474,Simcolourproject_2stim_asymm_v5,2020.2.10,Win32,60,61025ae37ef11b136ea224fe,,,,,,,,,657,68.00001246,98.39999585,1,0,0,response1disk,,7,12.00001162,6.399994478,1,0,0,rectangle,12.00001162,6.399994478,1,0,0,12.00001162,6.399994478,1,0,0,1,30,190,45,1,,,,,,,,
,,,,,,,,,,,,,FF,,,,,,,,0.3188,,,,,,,,,,,,,,,,,,,,,,6103433959b11158bebca998,61036b1fe1eb1d931b7a34fa,2021-07-29_20h11.32.474,Simcolourproject_2stim_asymm_v5,2020.2.10,Win32,60,61025ae37ef11b136ea224fe,,,,,,,,,2587,57.6000123,95.19997139,1,0,0,response1disk,,7,-3.199988604,7.999994501,1,0,0,rectangle,-3.199988604,7.999994501,1,0,0,-3.199988604,7.999994501,1,0,0,1,31,191,99,1,,,,,,,,
,,,,,,,,,,,,,FF,,,,,,,,0.2484,,,,,,,,,,,,,,,,,,,,,,6103433959b11158bebca998,61036b1fe1eb1d931b7a34fa,2021-07-29_20h11.32.474,Simcolourproject_2stim_asymm_v5,2020.2.10,Win32,60,61025ae37ef11b136ea224fe,,,,,,,,,1693,56.00001228,84.79999565,1,0,0,response1disk,,7,5.600060356,-9.600005761,1,0,0,rectangle,5.600060356,-9.600005761,1,0,0,5.600060356,-9.600005761,1,0,0,1,32,192,148,1,,,,,,,,
,,,,,,,,,,,,,FF,,,,,,,,0.2653,,,,,,,,,,,,,,,,,,,,,,6103433959b11158bebca998,61036b1fe1eb1d931b7a34fa,2021-07-29_20h11.32.474,Simcolourproject_2stim_asymm_v5,2020.2.10,Win32,60,61025ae37ef11b136ea224fe,,,,,,,,,3790,59.20001233,88.79999571,1,0,0,response1disk,,7,4.000011504,2.399994418,1,0,0,rectangle,4.000011504,2.399994418,1,0,0,4.000011504,2.399994418,1,0,0,1,33,193,134,1,,,,,,,,
,,,,,,,,,,,,,FF,,,,,,,,0.282,,,,,,,,,,,,,,,,,,,,,,6103433959b11158bebca998,61036b1fe1eb1d931b7a34fa,2021-07-29_20h11.32.474,Simcolourproject_2stim_asymm_v5,2020.2.10,Win32,60,61025ae37ef11b136ea224fe,,,,,,,,,505,49.60006101,98.39999585,1,0,0,response1disk,,7,8.800011575,-12.80003022,1,0,0,rectangle,8.800011575,-12.80003022,1,0,0,8.800011575,-12.80003022,1,0,0,1,34,194,55,1,,,,,,,,
,,,,,,,,,,,,,FF,,,,,,,,0.2666,,,,,,,,,,,,,,,,,,,,,,6103433959b11158bebca998,61036b1fe1eb1d931b7a34fa,2021-07-29_20h11.32.474,Simcolourproject_2stim_asymm_v5,2020.2.10,Win32,60,61025ae37ef11b136ea224fe,,,,,,,,,4264,60.80001235,84.79999565,1,0,0,response1disk,,7,4.800011516,-5.61774E-06,1,0,0,rectangle,4.800011516,-5.61774E-06,1,0,0,4.800011516,-5.61774E-06,1,0,0,1,35,195,5,1,,,,,,,,
,,,,,,,,,,,,,FF,,,,,,,,0.215,,,,,,,,,,,,,,,,,,,,,,6103433959b11158bebca998,61036b1fe1eb1d931b7a34fa,2021-07-29_20h11.32.474,Simcolourproject_2stim_asymm_v5,2020.2.10,Win32,60,61025ae37ef11b136ea224fe,,,,,,,,,684,57.6000123,92.79999577,1,0,0,response1disk,,7,2.40001148,-4.800030103,1,0,0,rectangle,2.40001148,-4.800030103,1,0,0,2.40001148,-4.800030103,1,0,0,1,36,196,133,1,,,,,,,,
,,,,,,,,,,,,,FF,,,,,,,,0.2319,,,,,,,,,,,,,,,,,,,,,,6103433959b11158bebca998,61036b1fe1eb1d931b7a34fa,2021-07-29_20h11.32.474,Simcolourproject_2stim_asymm_v5,2020.2.10,Win32,60,61025ae37ef11b136ea224fe,,,,,,,,,373,56.00001228,91.19997133,1,0,0,response1disk,,7,4.000011504,-1.600005642,1,0,0,rectangle,4.000011504,-1.600005642,1,0,0,4.000011504,-1.600005642,1,0,0,1,37,197,121,1,,,,,,,,
,,,,,,,,,,,,,FF,,,,,,,,0.2318,,,,,,,,,,,,,,,,,,,,,,6103433959b11158bebca998,61036b1fe1eb1d931b7a34fa,2021-07-29_20h11.32.474,Simcolourproject_2stim_asymm_v5,2020.2.10,Win32,60,61025ae37ef11b136ea224fe,,,,,,,,,2191,51.20001221,78.39999555,1,0,0,response1disk,,7,8.800011575,-3.200005665,1,0,0,rectangle,8.800011575,-3.200005665,1,0,0,8.800011575,-3.200005665,1,0,0,1,38,198,101,1,,,,,,,,
,,,,,,,,,,,,,FF,,,,,,,,0.249,,,,,,,,,,,,,,,,,,,,,,6103433959b11158bebca998,61036b1fe1eb1d931b7a34fa,2021-07-29_20h11.32.474,Simcolourproject_2stim_asymm_v5,2020.2.10,Win32,60,61025ae37ef11b136ea224fe,,,,,,,,,2453,52.80001223,85.59997124,1,0,0,response1disk,,7,1.600060296,-3.200005665,1,0,0,rectangle,1.600060296,-3.200005665,1,0,0,1.600060296,-3.200005665,1,0,0,1,39,199,100,1,,,,,,,,
,,,,,,,,,,,,,FF,,,,,,,,0.2002,,,,,,,,,,,,,,,,,,,,,,6103433959b11158bebca998,61036b1fe1eb1d931b7a34fa,2021-07-29_20h11.32.474,Simcolourproject_2stim_asymm_v5,2020.2.10,Win32,60,61025ae37ef11b136ea224fe,,,,,,,,,3794,51.20001221,88.79999571,1,0,0,response1disk,,7,1.600060296,-11.20000578,1,0,0,rectangle,1.600060296,-11.20000578,1,0,0,1.600060296,-11.20000578,1,0,0,1,40,200,150,1,,,,,,,,
,,,,,,,,,,,,,FF,,,,,,,,0.2003,,,,,,,,,,,,,,,,,,,,,,6103433959b11158bebca998,61036b1fe1eb1d931b7a34fa,2021-07-29_20h11.32.474,Simcolourproject_2stim_asymm_v5,2020.2.10,Win32,60,61025ae37ef11b136ea224fe,,,,,,,,,3264,48.00001216,85.59997124,1,0,0,response1disk,,7,-3.999988616,0.799994394,1,0,0,rectangle,-3.999988616,0.799994394,1,0,0,-3.999988616,0.799994394,1,0,0,1,41,201,138,1,,,,,,,,
,,,,,,,,,,,,,FF,,,,,,,,0.2661,,,,,,,,,,,,,,,,,,,,,,6103433959b11158bebca998,61036b1fe1eb1d931b7a34fa,2021-07-29_20h11.32.474,Simcolourproject_2stim_asymm_v5,2020.2.10,Win32,60,61025ae37ef11b136ea224fe,,,,,,,,,3485,56.00001228,89.5999713,1,0,0,response1disk,,7,1.600060296,0.799994394,1,0,0,rectangle,1.600060296,0.799994394,1,0,0,1.600060296,0.799994394,1,0,0,1,42,202,72,1,,,,,,,,
,,,,,,,,,,,,,FF,,,,,,,,0.6814,,,,,,,,,,,,,,,,,,,,,,6103433959b11158bebca998,61036b1fe1eb1d931b7a34fa,2021-07-29_20h11.32.474,Simcolourproject_2stim_asymm_v5,2020.2.10,Win32,60,61025ae37ef11b136ea224fe,,,,,,,,,3473,72.80001253,45.59997065,1,0,0,response1disk,,6,18.40001172,-5.61774E-06,1,0,0,rectangle,18.40001172,-5.61774E-06,1,0,0,18.40001172,-5.61774E-06,1,0,0,1,43,203,80,1,,,,,,,,
,,,,,,,,,,,,,FF,,,,,,,,1.2174,,,,,,,,,,,,,,,,,,,,,,6103433959b11158bebca998,61036b1fe1eb1d931b7a34fa,2021-07-29_20h11.32.474,Simcolourproject_2stim_asymm_v5,2020.2.10,Win32,60,61025ae37ef11b136ea224fe,,,,,,,,,3812,39.20001203,-88.00000693,1,0,0,response3disk,,4,-2.399939764,3.199970016,1,0,0,rectangle,-2.399939764,3.199970016,1,0,0,-2.399939764,3.199970016,1,0,0,1,44,204,75,1,,,,,,,,
,,,,,,,,,,,,,FF,,,,,,,,1.0325,,,,,,,,,,,,,,,,,,,,,,6103433959b11158bebca998,61036b1fe1eb1d931b7a34fa,2021-07-29_20h11.32.474,Simcolourproject_2stim_asymm_v5,2020.2.10,Win32,60,61025ae37ef11b136ea224fe,,,,,,,,,2173,113.6000131,39.19997055,1,0,0,response1disk,,6,4.800011516,-4.000005677,1,0,0,rectangle,4.800011516,-4.000005677,1,0,0,4.800011516,-4.000005677,1,0,0,1,45,205,2,1,,,,,,,,
,,,,,,,,,,,,,FF,,,,,,,,0.5848,,,,,,,,,,,,,,,,,,,,,,6103433959b11158bebca998,61036b1fe1eb1d931b7a34fa,2021-07-29_20h11.32.474,Simcolourproject_2stim_asymm_v5,2020.2.10,Win32,60,61025ae37ef11b136ea224fe,,,,,,,,,3362,52.00001222,106.399996,1,0,0,response1disk,,7,8.000011563,10.39999454,1,0,0,rectangle,8.000011563,10.39999454,1,0,0,8.000011563,10.39999454,1,0,0,1,46,206,129,1,,,,,,,,
,,,,,,,,,,,,,FF,,,,,,,,0.717,,,,,,,,,,,,,,,,,,,,,,6103433959b11158bebca998,61036b1fe1eb1d931b7a34fa,2021-07-29_20h11.32.474,Simcolourproject_2stim_asymm_v5,2020.2.10,Win32,60,61025ae37ef11b136ea224fe,,,,,,,,,1294,96.00001287,-52.8000064,1,0,0,response3disk,,5,-2.399939764,4.799994454,1,0,0,rectangle,-2.399939764,4.799994454,1,0,0,-2.399939764,4.799994454,1,0,0,1,47,207,141,1,,,,,,,,
,,,,,,,,,,,,,FF,,,,,,,,0.3341,,,,,,,,,,,,,,,,,,,,,,6103433959b11158bebca998,61036b1fe1eb1d931b7a34fa,2021-07-29_20h11.32.474,Simcolourproject_2stim_asymm_v5,2020.2.10,Win32,60,61025ae37ef11b136ea224fe,,,,,,,,,3945,52.80001223,94.39999579,1,0,0,response1disk,,7,2.40001148,3.199970016,1,0,0,rectangle,2.40001148,3.199970016,1,0,0,2.40001148,3.199970016,1,0,0,1,48,208,98,1,,,,,,,,
,,,,,,,,,,,,,FF,,,,,,,,0.3326,,,,,,,,,,,,,,,,,,,,,,6103433959b11158bebca998,61036b1fe1eb1d931b7a34fa,2021-07-29_20h11.32.474,Simcolourproject_2stim_asymm_v5,2020.2.10,Win32,60,61025ae37ef11b136ea224fe,,,,,,,,,3223,28.00001186,92.79999577,1,0,0,response1disk,,7,1.14441E-05,-7.200005725,1,0,0,rectangle,1.14441E-05,-7.200005725,1,0,0,1.14441E-05,-7.200005725,1,0,0,1,49,209,159,1,,,,,,,,
,,,,,,,,,,,,,FF,,,,,,,,0.8491,,,,,,,,,,,,,,,,,,,,,,6103433959b11158bebca998,61036b1fe1eb1d931b7a34fa,2021-07-29_20h11.32.474,Simcolourproject_2stim_asymm_v5,2020.2.10,Win32,60,61025ae37ef11b136ea224fe,,,,,,,,,1688,105.600013,41.59997059,1,0,0,response1disk,,6,-6.399939823,-3.200005665,1,0,0,rectangle,-6.399939823,-3.200005665,1,0,0,-6.399939823,-3.200005665,1,0,0,1,50,210,1,1,,,,,,,,
,,,,,,,,,,,,,FF,,,,,,,,0.3334,,,,,,,,,,,,,,,,,,,,,,6103433959b11158bebca998,61036b1fe1eb1d931b7a34fa,2021-07-29_20h11.32.474,Simcolourproject_2stim_asymm_v5,2020.2.10,Win32,60,61025ae37ef11b136ea224fe,,,,,,,,,2745,59.20001233,88.79999571,1,0,0,response1disk,,7,2.40001148,2.399994418,1,0,0,rectangle,-83.1999898,-40.00000621,1,0,0,-4.799988627,10.39999454,1,0,0,1,51,211,61,1,,response5disk_3,TRUE,2,2,"[30,13,123,244,139,13,82,248,278,305,223,224,190,186,260,111,212,132,217,51]",1.0653,rectangle
,,,,,,,,,,,,,FF,,,,,,,,0.5504,,,,,,,,,,,,,,,,,,,,,,6103433959b11158bebca998,61036b1fe1eb1d931b7a34fa,2021-07-29_20h11.32.474,Simcolourproject_2stim_asymm_v5,2020.2.10,Win32,60,61025ae37ef11b136ea224fe,,,,,,,,,2704,60.80001235,88.79999571,1,0,0,response1disk,,7,-2.399939764,-7.200005725,1,0,0,rectangle,-2.399939764,-7.200005725,1,0,0,-2.399939764,-7.200005725,1,0,0,1,52,212,10,1,,,,,,,,
,,,,,,,,,,,,,FF,,,,,,,,0.3004,,,,,,,,,,,,,,,,,,,,,,6103433959b11158bebca998,61036b1fe1eb1d931b7a34fa,2021-07-29_20h11.32.474,Simcolourproject_2stim_asymm_v5,2020.2.10,Win32,60,61025ae37ef11b136ea224fe,,,,,,,,,1200,37.60006083,106.399996,1,0,0,response1disk,,7,-1.59998858,-4.000005677,1,0,0,rectangle,-1.59998858,-4.000005677,1,0,0,-1.59998858,-4.000005677,1,0,0,1,53,213,74,1,,,,,,,,
,,,,,,,,,,,,,FF,,,,,,,,0.3335,,,,,,,,,,,,,,,,,,,,,,6103433959b11158bebca998,61036b1fe1eb1d931b7a34fa,2021-07-29_20h11.32.474,Simcolourproject_2stim_asymm_v5,2020.2.10,Win32,60,61025ae37ef11b136ea224fe,,,,,,,,,2743,44.0000121,89.5999713,1,0,0,response1disk,,7,-3.199988604,7.199970075,1,0,0,rectangle,-3.199988604,7.199970075,1,0,0,-3.199988604,7.199970075,1,0,0,1,54,214,36,1,,,,,,,,
,,,,,,,,,,,,,FF,,,,,,,,0.3508,,,,,,,,,,,,,,,,,,,,,,6103433959b11158bebca998,61036b1fe1eb1d931b7a34fa,2021-07-29_20h11.32.474,Simcolourproject_2stim_asymm_v5,2020.2.10,Win32,60,61025ae37ef11b136ea224fe,,,,,,,,,1397,56.00001228,89.5999713,1,0,0,response1disk,,7,-7.999988675,-8.000005737,1,0,0,rectangle,-7.999988675,-8.000005737,1,0,0,-7.999988675,-8.000005737,1,0,0,1,55,215,95,1,,,,,,,,
,,,,,,,,,,,,,FF,,,,,,,,0.3328,,,,,,,,,,,,,,,,,,,,,,6103433959b11158bebca998,61036b1fe1eb1d931b7a34fa,2021-07-29_20h11.32.474,Simcolourproject_2stim_asymm_v5,2020.2.10,Win32,60,61025ae37ef11b136ea224fe,,,,,,,,,3399,59.20001233,86.39999567,1,0,0,response1disk,,7,12.80001163,-1.600005642,1,0,0,rectangle,-74.39994084,-27.20000602,1,0,0,7.200011551,7.199970075,1,0,0,1,56,216,25,1,,response5disk_3,TRUE,2,2,"[30,13,123,244,139,13,82,248,278,305,223,224,190,186,260,111,212,132,217,51]",1.0652,rectangle
,,,,,,,,,,,,,FF,,,,,,,,0.9827,,,,,,,,,,,,,,,,,,,,,,6103433959b11158bebca998,61036b1fe1eb1d931b7a34fa,2021-07-29_20h11.32.474,Simcolourproject_2stim_asymm_v5,2020.2.10,Win32,60,61025ae37ef11b136ea224fe,,,,,,,,,3522,126.4000133,66.39999537,1,0,0,response1disk,,6,12.80001163,-0.800030044,1,0,0,rectangle,12.80001163,-0.800030044,1,0,0,12.80001163,-0.800030044,1,0,0,1,57,217,59,1,,,,,,,,
,,,,,,,,,,,,,FF,,,,,,,,0.3309,,,,,,,,,,,,,,,,,,,,,,6103433959b11158bebca998,61036b1fe1eb1d931b7a34fa,2021-07-29_20h11.32.474,Simcolourproject_2stim_asymm_v5,2020.2.10,Win32,60,61025ae37ef11b136ea224fe,,,,,,,,,372,32.80001193,92.79999577,1,0,0,response1disk,,7,4.000011504,12.79999457,1,0,0,rectangle,4.000011504,12.79999457,1,0,0,4.000011504,12.79999457,1,0,0,1,58,218,68,1,,,,,,,,
,,,,,,,,,,,,,FF,,,,,,,,0.3989,,,,,,,,,,,,,,,,,,,,,,6103433959b11158bebca998,61036b1fe1eb1d931b7a34fa,2021-07-29_20h11.32.474,Simcolourproject_2stim_asymm_v5,2020.2.10,Win32,60,61025ae37ef11b136ea224fe,,,,,,,,,3960,35.20001197,77.59997112,1,0,0,response1disk,,7,9.600060415,-5.61774E-06,1,0,0,rectangle,9.600060415,-5.61774E-06,1,0,0,9.600060415,-5.61774E-06,1,0,0,1,59,219,123,1,,,,,,,,
,,,,,,,,,,,,,FF,,,,,,,,0.7157,,,,,,,,,,,,,,,,,,,,,,6103433959b11158bebca998,61036b1fe1eb1d931b7a34fa,2021-07-29_20h11.32.474,Simcolourproject_2stim_asymm_v5,2020.2.10,Win32,60,61025ae37ef11b136ea224fe,,,,,,,,,1534,89.60001278,47.9999951,1,0,0,response1disk,,6,17.60006053,0.799994394,1,0,0,rectangle,17.60006053,0.799994394,1,0,0,17.60006053,0.799994394,1,0,0,1,60,220,60,1,,,,,,,,
,,,,,,,,,,,,,FF,,,,,,,,0.2825,,,,,,,,,,,,,,,,,,,,,,6103433959b11158bebca998,61036b1fe1eb1d931b7a34fa,2021-07-29_20h11.32.474,Simcolourproject_2stim_asymm_v5,2020.2.10,Win32,60,61025ae37ef11b136ea224fe,,,,,,,,,1043,39.20001203,113.5999717,1,0,0,response1disk,,7,10.4000116,2.399994418,1,0,0,rectangle,10.4000116,2.399994418,1,0,0,10.4000116,2.399994418,1,0,0,1,61,221,147,1,,,,,,,,
,,,,,,,,,,,,,FF,,,,,,,,0.2425,,,,,,,,,,,,,,,,,,,,,,6103433959b11158bebca998,61036b1fe1eb1d931b7a34fa,2021-07-29_20h11.32.474,Simcolourproject_2stim_asymm_v5,2020.2.10,Win32,60,61025ae37ef11b136ea224fe,,,,,,,,,1315,37.60006083,77.59997112,1,0,0,response1disk,,7,6.400011539,-5.61774E-06,1,0,0,rectangle,-79.19998974,-36.80000617,1,0,0,-14.39993994,2.399994418,1,0,0,1,62,222,71,1,,response5disk_3,TRUE,2,2,"[30,13,123,244,139,13,82,248,278,305,223,224,190,186,260,111,212,132,217,51]",0.8833,rectangle
,,,,,,,,,,,,,FF,,,,,,,,0.4164,,,,,,,,,,,,,,,,,,,,,,6103433959b11158bebca998,61036b1fe1eb1d931b7a34fa,2021-07-29_20h11.32.474,Simcolourproject_2stim_asymm_v5,2020.2.10,Win32,60,61025ae37ef11b136ea224fe,,,,,,,,,3009,61.60001236,93.59997136,1,0,0,response1disk,,7,10.4000116,-5.61774E-06,1,0,0,rectangle,-63.99998951,-45.6000063,1,0,0,-11.99998873,9.599970111,1,0,0,1,63,223,4,1,,response5disk_3,TRUE,2,2,"[30,13,123,244,139,13,82,248,278,305,223,224,190,186,260,111,212,132,217,51]",0.9021,rectangle
,,,,,,,,,,,,,FF,,,,,,,,0.4837,,,,,,,,,,,,,,,,,,,,,,6103433959b11158bebca998,61036b1fe1eb1d931b7a34fa,2021-07-29_20h11.32.474,Simcolourproject_2stim_asymm_v5,2020.2.10,Win32,60,61025ae37ef11b136ea224fe,,,,,,,,,123,56.00001228,108.799996,1,0,0,response1disk,,7,-0.799988568,1.599969992,1,0,0,rectangle,-0.799988568,1.599969992,1,0,0,-0.799988568,1.599969992,1,0,0,1,64,224,111,1,,,,,,,,
,,,,,,,,,,,,,FF,,,,,,,,0.4318,,,,,,,,,,,,,,,,,,,,,,6103433959b11158bebca998,61036b1fe1eb1d931b7a34fa,2021-07-29_20h11.32.474,Simcolourproject_2stim_asymm_v5,2020.2.10,Win32,60,61025ae37ef11b136ea224fe,,,,,,,,,498,49.60006101,93.59997136,1,0,0,response1disk,,7,-15.99998879,-12.80003022,1,0,0,rectangle,-15.99998879,-12.80003022,1,0,0,-15.99998879,-12.80003022,1,0,0,1,65,225,69,1,,,,,,,,
,,,,,,,,,,,,,FF,,,,,,,,0.8164,,,,,,,,,,,,,,,,,,,,,,6103433959b11158bebca998,61036b1fe1eb1d931b7a34fa,2021-07-29_20h11.32.474,Simcolourproject_2stim_asymm_v5,2020.2.10,Win32,60,61025ae37ef11b136ea224fe,,,,,,,,,3146,-30.39994018,85.59997124,1,0,0,response7disk,,0,7.200011551,-5.600005701,1,0,0,rectangle,7.200011551,-5.600005701,1,0,0,7.200011551,-5.600005701,1,0,0,1,66,226,154,1,,,,,,,,
,,,,,,,,,,,,,FF,,,,,,,,0.4167,,,,,,,,,,,,,,,,,,,,,,6103433959b11158bebca998,61036b1fe1eb1d931b7a34fa,2021-07-29_20h11.32.474,Simcolourproject_2stim_asymm_v5,2020.2.10,Win32,60,61025ae37ef11b136ea224fe,,,,,,,,,4251,-35.99998909,84.79999565,1,0,0,response7disk,,0,-18.39994,-1.600005642,1,0,0,rectangle,-18.39994,-1.600005642,1,0,0,-18.39994,-1.600005642,1,0,0,1,67,227,137,1,,,,,,,,
,,,,,,,,,,,,,FF,,,,,,,,0.5645,,,,,,,,,,,,,,,,,,,,,,6103433959b11158bebca998,61036b1fe1eb1d931b7a34fa,2021-07-29_20h11.32.474,Simcolourproject_2stim_asymm_v5,2020.2.10,Win32,60,61025ae37ef11b136ea224fe,,,,,,,,,1701,63.20001239,101.5999715,1,0,0,response1disk,,7,9.600060415,-1.600005642,1,0,0,rectangle,9.600060415,-1.600005642,1,0,0,9.600060415,-1.600005642,1,0,0,1,68,228,132,1,,,,,,,,
,,,,,,,,,,,,,FF,,,,,,,,0.3991,,,,,,,,,,,,,,,,,,,,,,6103433959b11158bebca998,61036b1fe1eb1d931b7a34fa,2021-07-29_20h11.32.474,Simcolourproject_2stim_asymm_v5,2020.2.10,Win32,60,61025ae37ef11b136ea224fe,,,,,,,,,4249,32.00001192,101.5999715,1,0,0,response1disk,,7,1.14441E-05,-11.20000578,1,0,0,rectangle,1.14441E-05,-11.20000578,1,0,0,1.14441E-05,-11.20000578,1,0,0,1,69,229,39,1,,,,,,,,
,,,,,,,,,,,,,FF,,,,,,,,7.8473,,,,,,,,,,,,,,,,,,,,,,6103433959b11158bebca998,61036b1fe1eb1d931b7a34fa,2021-07-29_20h11.32.474,Simcolourproject_2stim_asymm_v5,2020.2.10,Win32,60,61025ae37ef11b136ea224fe,,,,,,,,,1184,44.80001211,78.39999555,1,0,0,response1disk,,7,-1.59998858,-1.600005642,1,0,0,rectangle,-1.59998858,-1.600005642,1,0,0,-1.59998858,-1.600005642,1,0,0,1,70,230,67,1,,,,,,,,
,,,,,,,,,,,,,FF,,,,,,,,0.2488,,,,,,,,,,,,,,,,,,,,,,6103433959b11158bebca998,61036b1fe1eb1d931b7a34fa,2021-07-29_20h11.32.474,Simcolourproject_2stim_asymm_v5,2020.2.10,Win32,60,61025ae37ef11b136ea224fe,,,,,,,,,1971,73.60001254,87.99999569,1,0,0,response1disk,,7,16.80001169,-4.000005677,1,0,0,rectangle,16.80001169,-4.000005677,1,0,0,16.80001169,-4.000005677,1,0,0,1,71,231,107,1,,,,,,,,
,,,,,,,,,,,,,FF,,,,,,,,0.2321,,,,,,,,,,,,,,,,,,,,,,6103433959b11158bebca998,61036b1fe1eb1d931b7a34fa,2021-07-29_20h11.32.474,Simcolourproject_2stim_asymm_v5,2020.2.10,Win32,60,61025ae37ef11b136ea224fe,,,,,,,,,1123,45.60006095,88.79999571,1,0,0,response1disk,,7,24.0000118,2.399994418,1,0,0,rectangle,24.0000118,2.399994418,1,0,0,24.0000118,2.399994418,1,0,0,1,72,232,66,1,,,,,,,,
,,,,,,,,,,,,,FF,,,,,,,,0.2156,,,,,,,,,,,,,,,,,,,,,,6103433959b11158bebca998,61036b1fe1eb1d931b7a34fa,2021-07-29_20h11.32.474,Simcolourproject_2stim_asymm_v5,2020.2.10,Win32,60,61025ae37ef11b136ea224fe,,,,,,,,,3259,56.00001228,81.59997118,1,0,0,response1disk,,7,4.800011516,1.599969992,1,0,0,rectangle,4.800011516,1.599969992,1,0,0,4.800011516,1.599969992,1,0,0,1,73,233,63,1,,,,,,,,
,,,,,,,,,,,,,FF,,,,,,,,0.2669,,,,,,,,,,,,,,,,,,,,,,6103433959b11158bebca998,61036b1fe1eb1d931b7a34fa,2021-07-29_20h11.32.474,Simcolourproject_2stim_asymm_v5,2020.2.10,Win32,60,61025ae37ef11b136ea224fe,,,,,,,,,3116,48.80001217,96.79999582,1,0,0,response1disk,,7,0.800011456,2.399994418,1,0,0,rectangle,0.800011456,2.399994418,1,0,0,0.800011456,2.399994418,1,0,0,1,74,234,56,1,,,,,,,,
,,,,,,,,,,,,,FF,,,,,,,,0.7656,,,,,,,,,,,,,,,,,,,,,,6103433959b11158bebca998,61036b1fe1eb1d931b7a34fa,2021-07-29_20h11.32.474,Simcolourproject_2stim_asymm_v5,2020.2.10,Win32,60,61025ae37ef11b136ea224fe,,,,,,,,,1222,103.200013,38.39999495,1,0,0,response1disk,,6,6.400011539,-1.600005642,1,0,0,rectangle,6.400011539,-1.600005642,1,0,0,6.400011539,-1.600005642,1,0,0,1,75,235,117,1,,,,,,,,
,,,,,,,,,,,,,FF,,,,,,,,0.701,,,,,,,,,,,,,,,,,,,,,,6103433959b11158bebca998,61036b1fe1eb1d931b7a34fa,2021-07-29_20h11.32.474,Simcolourproject_2stim_asymm_v5,2020.2.10,Win32,60,61025ae37ef11b136ea224fe,,,,,,,,,3716,101.600013,36.79999493,1,0,0,response1disk,,6,8.000011563,-4.800030103,1,0,0,rectangle,8.000011563,-4.800030103,1,0,0,8.000011563,-4.800030103,1,0,0,1,76,236,23,1,,,,,,,,
,,,,,,,,,,,,,FF,,,,,,,,0.3495,,,,,,,,,,,,,,,,,,,,,,6103433959b11158bebca998,61036b1fe1eb1d931b7a34fa,2021-07-29_20h11.32.474,Simcolourproject_2stim_asymm_v5,2020.2.10,Win32,60,61025ae37ef11b136ea224fe,,,,,,,,,1031,40.00001204,94.39999579,1,0,0,response1disk,,7,-3.999988616,-5.600005701,1,0,0,rectangle,-3.999988616,-5.600005701,1,0,0,-3.999988616,-5.600005701,1,0,0,1,77,237,53,1,,,,,,,,
,,,,,,,,,,,,,FF,,,,,,,,0.2999,,,,,,,,,,,,,,,,,,,,,,6103433959b11158bebca998,61036b1fe1eb1d931b7a34fa,2021-07-29_20h11.32.474,Simcolourproject_2stim_asymm_v5,2020.2.10,Win32,60,61025ae37ef11b136ea224fe,,,,,,,,,2838,40.80001205,97.59997142,1,0,0,response1disk,,7,-15.99998879,-2.400030068,1,0,0,rectangle,-15.99998879,-2.400030068,1,0,0,-15.99998879,-2.400030068,1,0,0,1,78,238,79,1,,,,,,,,
,,,,,,,,,,,,,FF,,,,,,,,1.9832,,,,,,,,,,,,,,,,,,,,,,6103433959b11158bebca998,61036b1fe1eb1d931b7a34fa,2021-07-29_20h11.32.474,Simcolourproject_2stim_asymm_v5,2020.2.10,Win32,60,61025ae37ef11b136ea224fe,,,,,,,,,4027,52.00001222,100.7999959,1,0,0,response1disk,,7,-23.1999889,-2.400030068,1,0,0,rectangle,-23.1999889,-2.400030068,1,0,0,-23.1999889,-2.400030068,1,0,0,1,79,239,12,1,,,,,,,,
,,,,,,,,,,,,,FF,,,,,,,,0.282,,,,,,,,,,,,,,,,,,,,,,6103433959b11158bebca998,61036b1fe1eb1d931b7a34fa,2021-07-29_20h11.32.474,Simcolourproject_2stim_asymm_v5,2020.2.10,Win32,60,61025ae37ef11b136ea224fe,,,,,,,,,3737,32.80001193,67.9999954,1,0,0,response1disk,,7,-2.399939764,7.999994501,1,0,0,rectangle,-2.399939764,7.999994501,1,0,0,-2.399939764,7.999994501,1,0,0,1,80,240,8,1,,,,,,,,
,,,,,,,,,,,,,FF,,,,,,,,0.3002,,,,,,,,,,,,,,,,,,,,,,6103433959b11158bebca998,61036b1fe1eb1d931b7a34fa,2021-07-29_20h11.32.474,Simcolourproject_2stim_asymm_v5,2020.2.10,Win32,60,61025ae37ef11b136ea224fe,,,,,,,,,370,49.60006101,79.19997115,1,0,0,response1disk,,7,12.00001162,2.399994418,1,0,0,rectangle,12.00001162,2.399994418,1,0,0,12.00001162,2.399994418,1,0,0,1,81,241,131,1,,,,,,,,
,,,,,,,,,,,,,FF,,,,,,,,0.3498,,,,,,,,,,,,,,,,,,,,,,6103433959b11158bebca998,61036b1fe1eb1d931b7a34fa,2021-07-29_20h11.32.474,Simcolourproject_2stim_asymm_v5,2020.2.10,Win32,60,61025ae37ef11b136ea224fe,,,,,,,,,2706,48.00001216,95.99999581,1,0,0,response1disk,,7,-3.199988604,-5.600005701,1,0,0,rectangle,-3.199988604,-5.600005701,1,0,0,-3.199988604,-5.600005701,1,0,0,1,82,242,70,1,,,,,,,,
,,,,,,,,,,,,,FF,,,,,,,,0.265,,,,,,,,,,,,,,,,,,,,,,6103433959b11158bebca998,61036b1fe1eb1d931b7a34fa,2021-07-29_20h11.32.474,Simcolourproject_2stim_asymm_v5,2020.2.10,Win32,60,61025ae37ef11b136ea224fe,,,,,,,,,2177,55.20001227,87.19997127,1,0,0,response1disk,,7,1.14441E-05,-7.200005725,1,0,0,rectangle,-91.99998993,33.59997047,1,0,0,0.800011456,-5.600005701,1,0,0,1,83,243,62,1,,response7disk_3,TRUE,1,1,"[30,13,123,244,139,13,82,248,278,305,223,224,190,186,260,111,212,132,217,51]",0.883,rectangle
