key_resp.keys,key_resp.rt,key_resp_14.keys,key_resp_14.rt,key_resp_15.keys,key_resp_15.rt,key_resp_17.keys,key_resp_17.rt,key_resp_9.keys,key_resp_9.rt,key_resp_10.keys,key_resp_10.rt,practice_comparison,Ecc,mouse_5.x,mouse_5.y,mouse_5.leftButton,mouse_5.midButton,mouse_5.rightButton,mouse_5.clicked_name,pracsimilarity,response_time,mouse_10.x,mouse_10.y,mouse_10.leftButton,mouse_10.midButton,mouse_10.rightButton,mouse_10.clicked_name,mouse_7.x,mouse_7.y,mouse_7.leftButton,mouse_7.midButton,mouse_7.rightButton,mouse_6.x,mouse_6.y,mouse_6.leftButton,mouse_6.midButton,mouse_6.rightButton,duringprac.thisRepN,duringprac.thisTrialN,duringprac.thisN,duringprac.thisIndex,duringprac.ran,participant,session,date,expName,psychopyVersion,OS,frameRate,study_id,mouse_7.clicked_name,catchpracsimilarity,catch_response_time,catchnumberprac,catchtrialorderprac,mouse_6.clicked_name,key_resp_22.keys,key_resp_22.rt,realcomparison,mouse.x,mouse.y,mouse.leftButton,mouse.midButton,mouse.rightButton,mouse.clicked_name,Colour2,similarity,mouse_2.x,mouse_2.y,mouse_2.leftButton,mouse_2.midButton,mouse_2.rightButton,mouse_2.clicked_name,mouse_3.x,mouse_3.y,mouse_3.leftButton,mouse_3.midButton,mouse_3.rightButton,mouse_11.x,mouse_11.y,mouse_11.leftButton,mouse_11.midButton,mouse_11.rightButton,trials_2.thisRepN,trials_2.thisTrialN,trials_2.thisN,trials_2.thisIndex,trials_2.ran,Colour1,mouse_3.clicked_name,catchornah,catchsimilarity,catchnumber,catchtrialorder,catchRT,mouse_11.clicked_name
space,1.261685,space,24.400635,space,39.000315,space,2.153585,space,3.042575,space,3.114095,128,PF,-63.10546875,-46.16015625,1,0,0,response5disk_5,2,14.12799,-13.58984375,-7.14453125,1,0,0,rectangle_8,-13.58984375,-7.14453125,1,0,0,-13.58984375,-7.14453125,1,0,0,0,0,0,4,1,610329a74ccff557eb132122,61036f2fca5be39e19acdc77,2021-07-29_23h22.57.565,Simcolourproject_2stim_asymm_v5,2020.2.10,MacIntel,60,61025ae37ef11b136ea224fe,,,,,,,,,,,,,,,,,,,,,,,,,,,,,,,,,,,,,,,,,,,,,,
,,,,,,,,,,,,101,FF,-73.87890625,-53.703125,1,0,0,response5disk_5,2,5.765375,11.15625,-14.40625,1,0,0,rectangle_8,36.76953125,56.4921875,1,0,0,3.7421875,-0.21875,1,0,0,0,1,1,0,1,610329a74ccff557eb132122,61036f2fca5be39e19acdc77,2021-07-29_23h22.57.565,Simcolourproject_2stim_asymm_v5,2020.2.10,MacIntel,60,61025ae37ef11b136ea224fe,response1disk_7,7,2.270815,7,"[2,5]",rectangle_4,,,,,,,,,,,,,,,,,,,,,,,,,,,,,,,,,,,,,,,,
,,,,,,,,,,,,43,FF,86.734375,-62.97265625,1,0,0,response3disk_5,5,3.63485,-3.94921875,-0.7265625,1,0,0,rectangle_8,-3.94921875,-0.7265625,1,0,0,-3.94921875,-0.7265625,1,0,0,0,2,2,5,1,610329a74ccff557eb132122,61036f2fca5be39e19acdc77,2021-07-29_23h22.57.565,Simcolourproject_2stim_asymm_v5,2020.2.10,MacIntel,60,61025ae37ef11b136ea224fe,,,,,,,,,,,,,,,,,,,,,,,,,,,,,,,,,,,,,,,,,,,,,,
,,,,,,,,,,,,158,PF,74.9453125,-47.21875,1,0,0,response3disk_5,5,3.33686,5.6875,2.375,1,0,0,rectangle_8,5.6875,2.375,1,0,0,5.6875,2.375,1,0,0,0,3,3,1,1,610329a74ccff557eb132122,61036f2fca5be39e19acdc77,2021-07-29_23h22.57.565,Simcolourproject_2stim_asymm_v5,2020.2.10,MacIntel,60,61025ae37ef11b136ea224fe,,,,,,,,,,,,,,,,,,,,,,,,,,,,,,,,,,,,,,,,,,,,,,
,,,,,,,,,,,,105,FF,-70.5,-34.67578125,1,0,0,response5disk_5,2,1.503225,-0.30078125,-1.99609375,1,0,0,rectangle_8,59.48828125,82.5,1,0,0,2.0859375,-0.328125,1,0,0,0,4,4,3,1,610329a74ccff557eb132122,61036f2fca5be39e19acdc77,2021-07-29_23h22.57.565,Simcolourproject_2stim_asymm_v5,2020.2.10,MacIntel,60,61025ae37ef11b136ea224fe,response1disk_7,7,1.38408,7,"[2,5]",rectangle_4,,,,,,,,,,,,,,,,,,,,,,,,,,,,,,,,,,,,,,,,
,,,,,,,,,,,,148,PF,83.48046875,41.53515625,1,0,0,response1disk_5,6,2.685345,3.70703125,2.69140625,1,0,0,rectangle_8,3.70703125,2.69140625,1,0,0,3.70703125,2.69140625,1,0,0,0,5,5,6,1,610329a74ccff557eb132122,61036f2fca5be39e19acdc77,2021-07-29_23h22.57.565,Simcolourproject_2stim_asymm_v5,2020.2.10,MacIntel,60,61025ae37ef11b136ea224fe,,,,,,,,,,,,,,,,,,,,,,,,,,,,,,,,,,,,,,,,,,,,,,
,,,,,,,,,,,,79,PF,72.90625,33.7578125,1,0,0,response1disk_5,6,2.134645,-20.80859375,-2.875,1,0,0,rectangle_8,-20.80859375,-2.875,1,0,0,-20.80859375,-2.875,1,0,0,0,6,6,2,1,610329a74ccff557eb132122,61036f2fca5be39e19acdc77,2021-07-29_23h22.57.565,Simcolourproject_2stim_asymm_v5,2020.2.10,MacIntel,60,61025ae37ef11b136ea224fe,,,,,,,,,,,,,,,,,,,,,,,,,,,,,,,,,,,,,,,,,,,,,,
,,,,,,,,,,,,,FF,,,,,,,,3.92074,,,,,,,,,,,,,,,,,,,,,,610329a74ccff557eb132122,61036f2fca5be39e19acdc77,2021-07-29_23h22.57.565,Simcolourproject_2stim_asymm_v5,2020.2.10,MacIntel,60,61025ae37ef11b136ea224fe,,,,,,,space,2.67392,820,-34.2734375,-72.609375,1,0,0,response5disk,,3,-9.8203125,-6.40234375,1,0,0,rectangle,-9.8203125,-6.40234375,1,0,0,-9.8203125,-6.40234375,1,0,0,0,0,0,56,1,,,,,,,,
,,,,,,,,,,,,,FF,,,,,,,,1.00062,,,,,,,,,,,,,,,,,,,,,,610329a74ccff557eb132122,61036f2fca5be39e19acdc77,2021-07-29_23h22.57.565,Simcolourproject_2stim_asymm_v5,2020.2.10,MacIntel,60,61025ae37ef11b136ea224fe,,,,,,,,,701,-57.46484375,-21.25,1,0,0,response5disk,,2,-8.39453125,-0.0859375,1,0,0,rectangle,-8.39453125,-0.0859375,1,0,0,-8.39453125,-0.0859375,1,0,0,0,1,1,96,1,,,,,,,,
,,,,,,,,,,,,,FF,,,,,,,,2.767535,,,,,,,,,,,,,,,,,,,,,,610329a74ccff557eb132122,61036f2fca5be39e19acdc77,2021-07-29_23h22.57.565,Simcolourproject_2stim_asymm_v5,2020.2.10,MacIntel,60,61025ae37ef11b136ea224fe,,,,,,,,,202,35.99609375,-66.234375,1,0,0,response3disk,,4,-1.77734375,-1.171875,1,0,0,rectangle,-1.77734375,-1.171875,1,0,0,-1.77734375,-1.171875,1,0,0,0,2,2,13,1,,,,,,,,
,,,,,,,,,,,,,FF,,,,,,,,0.90209,,,,,,,,,,,,,,,,,,,,,,610329a74ccff557eb132122,61036f2fca5be39e19acdc77,2021-07-29_23h22.57.565,Simcolourproject_2stim_asymm_v5,2020.2.10,MacIntel,60,61025ae37ef11b136ea224fe,,,,,,,,,1310,-31.7265625,-63.6484375,1,0,0,response5disk,,3,-7.01171875,2.3828125,1,0,0,rectangle,-7.01171875,2.3828125,1,0,0,-7.01171875,2.3828125,1,0,0,0,3,3,67,1,,,,,,,,
,,,,,,,,,,,,,FF,,,,,,,,2.517985,,,,,,,,,,,,,,,,,,,,,,610329a74ccff557eb132122,61036f2fca5be39e19acdc77,2021-07-29_23h22.57.565,Simcolourproject_2stim_asymm_v5,2020.2.10,MacIntel,60,61025ae37ef11b136ea224fe,,,,,,,,,4333,67.23046875,47.9140625,1,0,0,response1disk,,6,17.91015625,13.42578125,1,0,0,rectangle,17.91015625,13.42578125,1,0,0,17.91015625,13.42578125,1,0,0,0,4,4,29,1,,,,,,,,
,,,,,,,,,,,,,FF,,,,,,,,1.40029,,,,,,,,,,,,,,,,,,,,,,610329a74ccff557eb132122,61036f2fca5be39e19acdc77,2021-07-29_23h22.57.565,Simcolourproject_2stim_asymm_v5,2020.2.10,MacIntel,60,61025ae37ef11b136ea224fe,,,,,,,,,596,74.3515625,61.3359375,1,0,0,response1disk,,6,-0.4296875,4.29296875,1,0,0,rectangle,-0.4296875,4.29296875,1,0,0,-0.4296875,4.29296875,1,0,0,0,5,5,86,1,,,,,,,,
,,,,,,,,,,,,,FF,,,,,,,,0.951165,,,,,,,,,,,,,,,,,,,,,,610329a74ccff557eb132122,61036f2fca5be39e19acdc77,2021-07-29_23h22.57.565,Simcolourproject_2stim_asymm_v5,2020.2.10,MacIntel,60,61025ae37ef11b136ea224fe,,,,,,,,,3430,-67.6015625,-36.6171875,1,0,0,response5disk,,2,5.8671875,7.26171875,1,0,0,rectangle,5.8671875,7.26171875,1,0,0,5.8671875,7.26171875,1,0,0,0,6,6,152,1,,,,,,,,
,,,,,,,,,,,,,FF,,,,,,,,0.850465,,,,,,,,,,,,,,,,,,,,,,610329a74ccff557eb132122,61036f2fca5be39e19acdc77,2021-07-29_23h22.57.565,Simcolourproject_2stim_asymm_v5,2020.2.10,MacIntel,60,61025ae37ef11b136ea224fe,,,,,,,,,1063,-72.8125,-43.1640625,1,0,0,response5disk,,2,-11,-0.21875,1,0,0,rectangle,-11,-0.21875,1,0,0,-11,-0.21875,1,0,0,0,7,7,61,1,,,,,,,,
,,,,,,,,,,,,,FF,,,,,,,,0.74935,,,,,,,,,,,,,,,,,,,,,,610329a74ccff557eb132122,61036f2fca5be39e19acdc77,2021-07-29_23h22.57.565,Simcolourproject_2stim_asymm_v5,2020.2.10,MacIntel,60,61025ae37ef11b136ea224fe,,,,,,,,,2652,-59.83203125,-26.39453125,1,0,0,response5disk,,2,-11.546875,4.44140625,1,0,0,rectangle,-11.546875,4.44140625,1,0,0,-11.546875,4.44140625,1,0,0,0,8,8,124,1,,,,,,,,
,,,,,,,,,,,,,FF,,,,,,,,0.65012,,,,,,,,,,,,,,,,,,,,,,610329a74ccff557eb132122,61036f2fca5be39e19acdc77,2021-07-29_23h22.57.565,Simcolourproject_2stim_asymm_v5,2020.2.10,MacIntel,60,61025ae37ef11b136ea224fe,,,,,,,,,1294,-63.55078125,-30.84765625,1,0,0,response5disk,,2,-4.79296875,-3.203125,1,0,0,rectangle,-4.79296875,-3.203125,1,0,0,-4.79296875,-3.203125,1,0,0,0,9,9,22,1,,,,,,,,
,,,,,,,,,,,,,FF,,,,,,,,0.884505,,,,,,,,,,,,,,,,,,,,,,610329a74ccff557eb132122,61036f2fca5be39e19acdc77,2021-07-29_23h22.57.565,Simcolourproject_2stim_asymm_v5,2020.2.10,MacIntel,60,61025ae37ef11b136ea224fe,,,,,,,,,768,59.15625,-38.27734375,1,0,0,response3disk,,5,20.51171875,-2.625,1,0,0,rectangle,20.51171875,-2.625,1,0,0,20.51171875,-2.625,1,0,0,0,10,10,57,1,,,,,,,,
,,,,,,,,,,,,,FF,,,,,,,,1.36741,,,,,,,,,,,,,,,,,,,,,,610329a74ccff557eb132122,61036f2fca5be39e19acdc77,2021-07-29_23h22.57.565,Simcolourproject_2stim_asymm_v5,2020.2.10,MacIntel,60,61025ae37ef11b136ea224fe,,,,,,,,,3932,71.625,-47.1171875,1,0,0,response3disk,,5,9.42578125,-3.5,1,0,0,rectangle,9.42578125,-3.5,1,0,0,9.42578125,-3.5,1,0,0,0,11,11,126,1,,,,,,,,
,,,,,,,,,,,,,FF,,,,,,,,1.167655,,,,,,,,,,,,,,,,,,,,,,610329a74ccff557eb132122,61036f2fca5be39e19acdc77,2021-07-29_23h22.57.565,Simcolourproject_2stim_asymm_v5,2020.2.10,MacIntel,60,61025ae37ef11b136ea224fe,,,,,,,,,2049,63.98046875,-45.234375,1,0,0,response3disk,,5,24.8828125,-1.48046875,1,0,0,rectangle,24.8828125,-1.48046875,1,0,0,24.8828125,-1.48046875,1,0,0,0,12,12,130,1,,,,,,,,
,,,,,,,,,,,,,FF,,,,,,,,2.46789,,,,,,,,,,,,,,,,,,,,,,610329a74ccff557eb132122,61036f2fca5be39e19acdc77,2021-07-29_23h22.57.565,Simcolourproject_2stim_asymm_v5,2020.2.10,MacIntel,60,61025ae37ef11b136ea224fe,,,,,,,,,2963,73.89453125,-36.2734375,1,0,0,response3disk,,5,9.35546875,-11.46875,1,0,0,rectangle,9.35546875,-11.46875,1,0,0,9.35546875,-11.46875,1,0,0,0,13,13,81,1,,,,,,,,
,,,,,,,,,,,,,FF,,,,,,,,0.803585,,,,,,,,,,,,,,,,,,,,,,610329a74ccff557eb132122,61036f2fca5be39e19acdc77,2021-07-29_23h22.57.565,Simcolourproject_2stim_asymm_v5,2020.2.10,MacIntel,60,61025ae37ef11b136ea224fe,,,,,,,,,517,30.15625,-68.1640625,1,0,0,response3disk,,4,5.15234375,-5.578125,1,0,0,rectangle,5.15234375,-5.578125,1,0,0,5.15234375,-5.578125,1,0,0,0,14,14,112,1,,,,,,,,
,,,,,,,,,,,,,FF,,,,,,,,0.935325,,,,,,,,,,,,,,,,,,,,,,610329a74ccff557eb132122,61036f2fca5be39e19acdc77,2021-07-29_23h22.57.565,Simcolourproject_2stim_asymm_v5,2020.2.10,MacIntel,60,61025ae37ef11b136ea224fe,,,,,,,,,2045,-50.5859375,-74.6640625,1,0,0,response5disk,,3,-2.41015625,-0.21484375,1,0,0,rectangle,-2.41015625,-0.21484375,1,0,0,-2.41015625,-0.21484375,1,0,0,0,15,15,39,1,,,,,,,,
,,,,,,,,,,,,,FF,,,,,,,,0.88595,,,,,,,,,,,,,,,,,,,,,,610329a74ccff557eb132122,61036f2fca5be39e19acdc77,2021-07-29_23h22.57.565,Simcolourproject_2stim_asymm_v5,2020.2.10,MacIntel,60,61025ae37ef11b136ea224fe,,,,,,,,,3981,-76.53125,-36.16796875,1,0,0,response5disk,,2,-11.28125,5.2890625,1,0,0,rectangle,-11.28125,5.2890625,1,0,0,-11.28125,5.2890625,1,0,0,0,16,16,106,1,,,,,,,,
,,,,,,,,,,,,,FF,,,,,,,,0.767075,,,,,,,,,,,,,,,,,,,,,,610329a74ccff557eb132122,61036f2fca5be39e19acdc77,2021-07-29_23h22.57.565,Simcolourproject_2stim_asymm_v5,2020.2.10,MacIntel,60,61025ae37ef11b136ea224fe,,,,,,,,,2892,-33.83203125,-60.09765625,1,0,0,response5disk,,3,-7.8828125,-7.5390625,1,0,0,rectangle,-7.8828125,-7.5390625,1,0,0,-7.8828125,-7.5390625,1,0,0,0,17,17,0,1,,,,,,,,
,,,,,,,,,,,,,FF,,,,,,,,0.85123,,,,,,,,,,,,,,,,,,,,,,610329a74ccff557eb132122,61036f2fca5be39e19acdc77,2021-07-29_23h22.57.565,Simcolourproject_2stim_asymm_v5,2020.2.10,MacIntel,60,61025ae37ef11b136ea224fe,,,,,,,,,1200,70.828125,-47.59765625,1,0,0,response3disk,,5,9.8515625,-0.25390625,1,0,0,rectangle,9.8515625,-0.25390625,1,0,0,9.8515625,-0.25390625,1,0,0,0,18,18,125,1,,,,,,,,
,,,,,,,,,,,,,FF,,,,,,,,1.500475,,,,,,,,,,,,,,,,,,,,,,610329a74ccff557eb132122,61036f2fca5be39e19acdc77,2021-07-29_23h22.57.565,Simcolourproject_2stim_asymm_v5,2020.2.10,MacIntel,60,61025ae37ef11b136ea224fe,,,,,,,,,694,88.45703125,41.0390625,1,0,0,response1disk,,6,9.14453125,13.1484375,1,0,0,rectangle,9.14453125,13.1484375,1,0,0,9.14453125,13.1484375,1,0,0,0,19,19,80,1,,,,,,,,
,,,,,,,,,,,,,FF,,,,,,,,1.099535,,,,,,,,,,,,,,,,,,,,,,610329a74ccff557eb132122,61036f2fca5be39e19acdc77,2021-07-29_23h22.57.565,Simcolourproject_2stim_asymm_v5,2020.2.10,MacIntel,60,61025ae37ef11b136ea224fe,,,,,,,,,3764,90.1796875,27.87890625,1,0,0,response1disk,,6,12.265625,3.3671875,1,0,0,rectangle,12.265625,3.3671875,1,0,0,12.265625,3.3671875,1,0,0,0,20,20,50,1,,,,,,,,
,,,,,,,,,,,,,FF,,,,,,,,1.048285,,,,,,,,,,,,,,,,,,,,,,610329a74ccff557eb132122,61036f2fca5be39e19acdc77,2021-07-29_23h22.57.565,Simcolourproject_2stim_asymm_v5,2020.2.10,MacIntel,60,61025ae37ef11b136ea224fe,,,,,,,,,2696,37.80859375,61.13671875,1,0,0,response1disk,,7,0.48828125,-4.6484375,1,0,0,rectangle,0.48828125,-4.6484375,1,0,0,0.48828125,-4.6484375,1,0,0,0,21,21,127,1,,,,,,,,
,,,,,,,,,,,,,FF,,,,,,,,0.80105,,,,,,,,,,,,,,,,,,,,,,610329a74ccff557eb132122,61036f2fca5be39e19acdc77,2021-07-29_23h22.57.565,Simcolourproject_2stim_asymm_v5,2020.2.10,MacIntel,60,61025ae37ef11b136ea224fe,,,,,,,,,4252,-67.7265625,-36.140625,1,0,0,response5disk,,2,-13.703125,-7.37109375,1,0,0,rectangle,-13.703125,-7.37109375,1,0,0,-13.703125,-7.37109375,1,0,0,0,22,22,48,1,,,,,,,,
,,,,,,,,,,,,,FF,,,,,,,,0.800615,,,,,,,,,,,,,,,,,,,,,,610329a74ccff557eb132122,61036f2fca5be39e19acdc77,2021-07-29_23h22.57.565,Simcolourproject_2stim_asymm_v5,2020.2.10,MacIntel,60,61025ae37ef11b136ea224fe,,,,,,,,,947,47.12109375,-76.75,1,0,0,response3disk,,4,9.953125,-7.6328125,1,0,0,rectangle,9.953125,-7.6328125,1,0,0,9.953125,-7.6328125,1,0,0,0,23,23,77,1,,,,,,,,
,,,,,,,,,,,,,FF,,,,,,,,0.766395,,,,,,,,,,,,,,,,,,,,,,610329a74ccff557eb132122,61036f2fca5be39e19acdc77,2021-07-29_23h22.57.565,Simcolourproject_2stim_asymm_v5,2020.2.10,MacIntel,60,61025ae37ef11b136ea224fe,,,,,,,,,1530,-69.77734375,-33.53515625,1,0,0,response5disk,,2,-4.7578125,-9.1328125,1,0,0,rectangle,-4.7578125,-9.1328125,1,0,0,-4.7578125,-9.1328125,1,0,0,0,24,24,93,1,,,,,,,,
,,,,,,,,,,,,,FF,,,,,,,,0.700415,,,,,,,,,,,,,,,,,,,,,,610329a74ccff557eb132122,61036f2fca5be39e19acdc77,2021-07-29_23h22.57.565,Simcolourproject_2stim_asymm_v5,2020.2.10,MacIntel,60,61025ae37ef11b136ea224fe,,,,,,,,,1384,-63.16015625,-33.16796875,1,0,0,response5disk,,2,-7.203125,5.1015625,1,0,0,rectangle,-7.203125,5.1015625,1,0,0,-7.203125,5.1015625,1,0,0,0,25,25,128,1,,,,,,,,
,,,,,,,,,,,,,FF,,,,,,,,3.26869,,,,,,,,,,,,,,,,,,,,,,610329a74ccff557eb132122,61036f2fca5be39e19acdc77,2021-07-29_23h22.57.565,Simcolourproject_2stim_asymm_v5,2020.2.10,MacIntel,60,61025ae37ef11b136ea224fe,,,,,,,,,3648,70.5,22.12890625,1,0,0,response1disk,,6,9.43359375,5.39453125,1,0,0,rectangle,9.43359375,5.39453125,1,0,0,9.43359375,5.39453125,1,0,0,0,26,26,140,1,,,,,,,,
,,,,,,,,,,,,,FF,,,,,,,,0.816805,,,,,,,,,,,,,,,,,,,,,,610329a74ccff557eb132122,61036f2fca5be39e19acdc77,2021-07-29_23h22.57.565,Simcolourproject_2stim_asymm_v5,2020.2.10,MacIntel,60,61025ae37ef11b136ea224fe,,,,,,,,,1268,73.48828125,37.48828125,1,0,0,response1disk,,6,-9.87890625,-6.37890625,1,0,0,rectangle,-9.87890625,-6.37890625,1,0,0,-9.87890625,-6.37890625,1,0,0,0,27,27,148,1,,,,,,,,
,,,,,,,,,,,,,FF,,,,,,,,1.115945,,,,,,,,,,,,,,,,,,,,,,610329a74ccff557eb132122,61036f2fca5be39e19acdc77,2021-07-29_23h22.57.565,Simcolourproject_2stim_asymm_v5,2020.2.10,MacIntel,60,61025ae37ef11b136ea224fe,,,,,,,,,3885,75.49609375,29.78515625,1,0,0,response1disk,,6,10.4921875,-8.94921875,1,0,0,rectangle,10.4921875,-8.94921875,1,0,0,10.4921875,-8.94921875,1,0,0,0,28,28,20,1,,,,,,,,
,,,,,,,,,,,,,FF,,,,,,,,0.681565,,,,,,,,,,,,,,,,,,,,,,610329a74ccff557eb132122,61036f2fca5be39e19acdc77,2021-07-29_23h22.57.565,Simcolourproject_2stim_asymm_v5,2020.2.10,MacIntel,60,61025ae37ef11b136ea224fe,,,,,,,,,941,84.46875,36.93359375,1,0,0,response1disk,,6,3.07421875,-5.20703125,1,0,0,rectangle,3.07421875,-5.20703125,1,0,0,3.07421875,-5.20703125,1,0,0,0,29,29,159,1,,,,,,,,
,,,,,,,,,,,,,FF,,,,,,,,3.00304,,,,,,,,,,,,,,,,,,,,,,610329a74ccff557eb132122,61036f2fca5be39e19acdc77,2021-07-29_23h22.57.565,Simcolourproject_2stim_asymm_v5,2020.2.10,MacIntel,60,61025ae37ef11b136ea224fe,,,,,,,,,2893,-70.73046875,-35.640625,1,0,0,response5disk,,2,-26.55859375,2.01953125,1,0,0,rectangle,-26.55859375,2.01953125,1,0,0,-26.55859375,2.01953125,1,0,0,0,30,30,3,1,,,,,,,,
,,,,,,,,,,,,,FF,,,,,,,,0.752935,,,,,,,,,,,,,,,,,,,,,,610329a74ccff557eb132122,61036f2fca5be39e19acdc77,2021-07-29_23h22.57.565,Simcolourproject_2stim_asymm_v5,2020.2.10,MacIntel,60,61025ae37ef11b136ea224fe,,,,,,,,,2762,73.2421875,-38.87109375,1,0,0,response3disk,,5,6.96484375,-0.43359375,1,0,0,rectangle,6.96484375,-0.43359375,1,0,0,6.96484375,-0.43359375,1,0,0,0,31,31,55,1,,,,,,,,
,,,,,,,,,,,,,FF,,,,,,,,0.83389,,,,,,,,,,,,,,,,,,,,,,610329a74ccff557eb132122,61036f2fca5be39e19acdc77,2021-07-29_23h22.57.565,Simcolourproject_2stim_asymm_v5,2020.2.10,MacIntel,60,61025ae37ef11b136ea224fe,,,,,,,,,4000,-25.80859375,-63.046875,1,0,0,response5disk,,3,3.52734375,9.53515625,1,0,0,rectangle,3.52734375,9.53515625,1,0,0,3.52734375,9.53515625,1,0,0,0,32,32,51,1,,,,,,,,
,,,,,,,,,,,,,FF,,,,,,,,0.66851,,,,,,,,,,,,,,,,,,,,,,610329a74ccff557eb132122,61036f2fca5be39e19acdc77,2021-07-29_23h22.57.565,Simcolourproject_2stim_asymm_v5,2020.2.10,MacIntel,60,61025ae37ef11b136ea224fe,,,,,,,,,2985,-60.82421875,-27.7265625,1,0,0,response5disk,,2,-20.06640625,-8.32421875,1,0,0,rectangle,-20.06640625,-8.32421875,1,0,0,-20.06640625,-8.32421875,1,0,0,0,33,33,7,1,,,,,,,,
,,,,,,,,,,,,,FF,,,,,,,,0.66983,,,,,,,,,,,,,,,,,,,,,,610329a74ccff557eb132122,61036f2fca5be39e19acdc77,2021-07-29_23h22.57.565,Simcolourproject_2stim_asymm_v5,2020.2.10,MacIntel,60,61025ae37ef11b136ea224fe,,,,,,,,,2421,-70.30859375,-29.9375,1,0,0,response5disk,,2,-10.09375,-3.73828125,1,0,0,rectangle,-10.09375,-3.73828125,1,0,0,-10.09375,-3.73828125,1,0,0,0,34,34,59,1,,,,,,,,
,,,,,,,,,,,,,FF,,,,,,,,1.21957,,,,,,,,,,,,,,,,,,,,,,610329a74ccff557eb132122,61036f2fca5be39e19acdc77,2021-07-29_23h22.57.565,Simcolourproject_2stim_asymm_v5,2020.2.10,MacIntel,60,61025ae37ef11b136ea224fe,,,,,,,,,318,79.078125,34.328125,1,0,0,response1disk,,6,-6.046875,4.49609375,1,0,0,rectangle,-6.046875,4.49609375,1,0,0,-6.046875,4.49609375,1,0,0,0,35,35,89,1,,,,,,,,
,,,,,,,,,,,,,FF,,,,,,,,1.249665,,,,,,,,,,,,,,,,,,,,,,610329a74ccff557eb132122,61036f2fca5be39e19acdc77,2021-07-29_23h22.57.565,Simcolourproject_2stim_asymm_v5,2020.2.10,MacIntel,60,61025ae37ef11b136ea224fe,,,,,,,,,2,-80.3515625,-33.62109375,1,0,0,response5disk,,2,7.84765625,15.0703125,1,0,0,rectangle,7.84765625,15.0703125,1,0,0,7.84765625,15.0703125,1,0,0,0,36,36,132,1,,,,,,,,
,,,,,,,,,,,,,FF,,,,,,,,0.68398,,,,,,,,,,,,,,,,,,,,,,610329a74ccff557eb132122,61036f2fca5be39e19acdc77,2021-07-29_23h22.57.565,Simcolourproject_2stim_asymm_v5,2020.2.10,MacIntel,60,61025ae37ef11b136ea224fe,,,,,,,,,3514,-77.99609375,25.1953125,1,0,0,response7disk,,1,-10.25,2.59375,1,0,0,rectangle,-10.25,2.59375,1,0,0,-10.25,2.59375,1,0,0,0,37,37,16,1,,,,,,,,
,,,,,,,,,,,,,FF,,,,,,,,0.833145,,,,,,,,,,,,,,,,,,,,,,610329a74ccff557eb132122,61036f2fca5be39e19acdc77,2021-07-29_23h22.57.565,Simcolourproject_2stim_asymm_v5,2020.2.10,MacIntel,60,61025ae37ef11b136ea224fe,,,,,,,,,3353,65.80859375,-31.78515625,1,0,0,response3disk,,5,1.671875,-3.29296875,1,0,0,rectangle,1.671875,-3.29296875,1,0,0,1.671875,-3.29296875,1,0,0,0,38,38,33,1,,,,,,,,
,,,,,,,,,,,,,FF,,,,,,,,0.7835,,,,,,,,,,,,,,,,,,,,,,610329a74ccff557eb132122,61036f2fca5be39e19acdc77,2021-07-29_23h22.57.565,Simcolourproject_2stim_asymm_v5,2020.2.10,MacIntel,60,61025ae37ef11b136ea224fe,,,,,,,,,2608,-76.453125,-31.48828125,1,0,0,response5disk,,2,3.90234375,-5.640625,1,0,0,rectangle,3.90234375,-5.640625,1,0,0,3.90234375,-5.640625,1,0,0,0,39,39,38,1,,,,,,,,
,,,,,,,,,,,,,FF,,,,,,,,0.750405,,,,,,,,,,,,,,,,,,,,,,610329a74ccff557eb132122,61036f2fca5be39e19acdc77,2021-07-29_23h22.57.565,Simcolourproject_2stim_asymm_v5,2020.2.10,MacIntel,60,61025ae37ef11b136ea224fe,,,,,,,,,3547,-76.6171875,-35.53515625,1,0,0,response5disk,,2,-14.83203125,-8.3515625,1,0,0,rectangle,47.546875,-86.84375,1,0,0,12.30859375,-3.4921875,1,0,0,0,40,40,139,1,,response3disk_3,TRUE,4,4,"[148,102,71,41,184,224,317,308,140,251,229,79,208,271,298,173,196,186,125,191]",2.002345,rectangle
,,,,,,,,,,,,,FF,,,,,,,,0.848995,,,,,,,,,,,,,,,,,,,,,,610329a74ccff557eb132122,61036f2fca5be39e19acdc77,2021-07-29_23h22.57.565,Simcolourproject_2stim_asymm_v5,2020.2.10,MacIntel,60,61025ae37ef11b136ea224fe,,,,,,,,,3574,80.375,37.40234375,1,0,0,response1disk,,6,8.9765625,-2.484375,1,0,0,rectangle,8.9765625,-2.484375,1,0,0,8.9765625,-2.484375,1,0,0,0,41,41,116,1,,,,,,,,
,,,,,,,,,,,,,FF,,,,,,,,0.76638,,,,,,,,,,,,,,,,,,,,,,610329a74ccff557eb132122,61036f2fca5be39e19acdc77,2021-07-29_23h22.57.565,Simcolourproject_2stim_asymm_v5,2020.2.10,MacIntel,60,61025ae37ef11b136ea224fe,,,,,,,,,781,73.31640625,36.0703125,1,0,0,response1disk,,6,11.51171875,5.38671875,1,0,0,rectangle,11.51171875,5.38671875,1,0,0,11.51171875,5.38671875,1,0,0,0,42,42,19,1,,,,,,,,
,,,,,,,,,,,,,FF,,,,,,,,0.716615,,,,,,,,,,,,,,,,,,,,,,610329a74ccff557eb132122,61036f2fca5be39e19acdc77,2021-07-29_23h22.57.565,Simcolourproject_2stim_asymm_v5,2020.2.10,MacIntel,60,61025ae37ef11b136ea224fe,,,,,,,,,359,72.265625,33.625,1,0,0,response1disk,,6,3.0859375,7.4921875,1,0,0,rectangle,3.0859375,7.4921875,1,0,0,3.0859375,7.4921875,1,0,0,0,43,43,121,1,,,,,,,,
,,,,,,,,,,,,,FF,,,,,,,,0.85431,,,,,,,,,,,,,,,,,,,,,,610329a74ccff557eb132122,61036f2fca5be39e19acdc77,2021-07-29_23h22.57.565,Simcolourproject_2stim_asymm_v5,2020.2.10,MacIntel,60,61025ae37ef11b136ea224fe,,,,,,,,,2695,90.42578125,-45.2265625,1,0,0,response3disk,,5,1.0390625,-3.5390625,1,0,0,rectangle,1.0390625,-3.5390625,1,0,0,1.0390625,-3.5390625,1,0,0,0,44,44,141,1,,,,,,,,
,,,,,,,,,,,,,FF,,,,,,,,0.91587,,,,,,,,,,,,,,,,,,,,,,610329a74ccff557eb132122,61036f2fca5be39e19acdc77,2021-07-29_23h22.57.565,Simcolourproject_2stim_asymm_v5,2020.2.10,MacIntel,60,61025ae37ef11b136ea224fe,,,,,,,,,2923,88.10546875,37.8125,1,0,0,response1disk,,6,-3.01171875,10.734375,1,0,0,rectangle,-3.01171875,10.734375,1,0,0,-3.01171875,10.734375,1,0,0,0,45,45,14,1,,,,,,,,
,,,,,,,,,,,,,FF,,,,,,,,1.46719,,,,,,,,,,,,,,,,,,,,,,610329a74ccff557eb132122,61036f2fca5be39e19acdc77,2021-07-29_23h22.57.565,Simcolourproject_2stim_asymm_v5,2020.2.10,MacIntel,60,61025ae37ef11b136ea224fe,,,,,,,,,749,49.62890625,-65.5,1,0,0,response3disk,,4,8.51171875,-0.96484375,1,0,0,rectangle,8.51171875,-0.96484375,1,0,0,8.51171875,-0.96484375,1,0,0,0,46,46,83,1,,,,,,,,
,,,,,,,,,,,,,FF,,,,,,,,0.934495,,,,,,,,,,,,,,,,,,,,,,610329a74ccff557eb132122,61036f2fca5be39e19acdc77,2021-07-29_23h22.57.565,Simcolourproject_2stim_asymm_v5,2020.2.10,MacIntel,60,61025ae37ef11b136ea224fe,,,,,,,,,520,79.63671875,-48.5546875,1,0,0,response3disk,,5,16.9765625,-7.5390625,1,0,0,rectangle,16.9765625,-7.5390625,1,0,0,16.9765625,-7.5390625,1,0,0,0,47,47,84,1,,,,,,,,
,,,,,,,,,,,,,FF,,,,,,,,1.550725,,,,,,,,,,,,,,,,,,,,,,610329a74ccff557eb132122,61036f2fca5be39e19acdc77,2021-07-29_23h22.57.565,Simcolourproject_2stim_asymm_v5,2020.2.10,MacIntel,60,61025ae37ef11b136ea224fe,,,,,,,,,4327,-72.21875,42.1640625,1,0,0,response7disk,,1,-5.296875,2.5390625,1,0,0,rectangle,-5.296875,2.5390625,1,0,0,-5.296875,2.5390625,1,0,0,0,48,48,149,1,,,,,,,,
,,,,,,,,,,,,,FF,,,,,,,,1.050845,,,,,,,,,,,,,,,,,,,,,,610329a74ccff557eb132122,61036f2fca5be39e19acdc77,2021-07-29_23h22.57.565,Simcolourproject_2stim_asymm_v5,2020.2.10,MacIntel,60,61025ae37ef11b136ea224fe,,,,,,,,,2014,89.24609375,32.30859375,1,0,0,response1disk,,6,12.57421875,5.34765625,1,0,0,rectangle,12.57421875,5.34765625,1,0,0,12.57421875,5.34765625,1,0,0,0,49,49,156,1,,,,,,,,
,,,,,,,,,,,,,FF,,,,,,,,0.55172,,,,,,,,,,,,,,,,,,,,,,610329a74ccff557eb132122,61036f2fca5be39e19acdc77,2021-07-29_23h22.57.565,Simcolourproject_2stim_asymm_v5,2020.2.10,MacIntel,60,61025ae37ef11b136ea224fe,,,,,,,,,2567,84.43359375,53.4453125,1,0,0,response1disk,,6,3.1484375,7.62109375,1,0,0,rectangle,3.1484375,7.62109375,1,0,0,3.1484375,7.62109375,1,0,0,0,50,50,58,1,,,,,,,,
,,,,,,,,,,,,,FF,,,,,,,,0.76726,,,,,,,,,,,,,,,,,,,,,,610329a74ccff557eb132122,61036f2fca5be39e19acdc77,2021-07-29_23h22.57.565,Simcolourproject_2stim_asymm_v5,2020.2.10,MacIntel,60,61025ae37ef11b136ea224fe,,,,,,,,,1783,72.484375,-41.50390625,1,0,0,response3disk,,5,9.3203125,-0.75390625,1,0,0,rectangle,9.3203125,-0.75390625,1,0,0,9.3203125,-0.75390625,1,0,0,0,51,51,60,1,,,,,,,,
,,,,,,,,,,,,,FF,,,,,,,,1.567005,,,,,,,,,,,,,,,,,,,,,,610329a74ccff557eb132122,61036f2fca5be39e19acdc77,2021-07-29_23h22.57.565,Simcolourproject_2stim_asymm_v5,2020.2.10,MacIntel,60,61025ae37ef11b136ea224fe,,,,,,,,,992,71.71484375,-38.8828125,1,0,0,response3disk,,5,6.046875,-5.23046875,1,0,0,rectangle,6.046875,-5.23046875,1,0,0,6.046875,-5.23046875,1,0,0,0,52,52,42,1,,,,,,,,
,,,,,,,,,,,,,FF,,,,,,,,0.883545,,,,,,,,,,,,,,,,,,,,,,610329a74ccff557eb132122,61036f2fca5be39e19acdc77,2021-07-29_23h22.57.565,Simcolourproject_2stim_asymm_v5,2020.2.10,MacIntel,60,61025ae37ef11b136ea224fe,,,,,,,,,3512,-41.625,-75.09375,1,0,0,response5disk,,3,-15.0625,-14.2421875,1,0,0,rectangle,-15.0625,-14.2421875,1,0,0,-15.0625,-14.2421875,1,0,0,0,53,53,11,1,,,,,,,,
,,,,,,,,,,,,,FF,,,,,,,,0.56682,,,,,,,,,,,,,,,,,,,,,,610329a74ccff557eb132122,61036f2fca5be39e19acdc77,2021-07-29_23h22.57.565,Simcolourproject_2stim_asymm_v5,2020.2.10,MacIntel,60,61025ae37ef11b136ea224fe,,,,,,,,,1493,54.39453125,-88.2109375,1,0,0,response3disk,,4,5.01953125,-6.87109375,1,0,0,rectangle,5.01953125,-6.87109375,1,0,0,5.01953125,-6.87109375,1,0,0,0,54,54,31,1,,,,,,,,
,,,,,,,,,,,,,FF,,,,,,,,1.81779,,,,,,,,,,,,,,,,,,,,,,610329a74ccff557eb132122,61036f2fca5be39e19acdc77,2021-07-29_23h22.57.565,Simcolourproject_2stim_asymm_v5,2020.2.10,MacIntel,60,61025ae37ef11b136ea224fe,,,,,,,,,725,-39.66796875,-86.3515625,1,0,0,response5disk,,3,1.02734375,-5.21484375,1,0,0,rectangle,1.02734375,-5.21484375,1,0,0,1.02734375,-5.21484375,1,0,0,0,55,55,151,1,,,,,,,,
,,,,,,,,,,,,,FF,,,,,,,,0.64938,,,,,,,,,,,,,,,,,,,,,,610329a74ccff557eb132122,61036f2fca5be39e19acdc77,2021-07-29_23h22.57.565,Simcolourproject_2stim_asymm_v5,2020.2.10,MacIntel,60,61025ae37ef11b136ea224fe,,,,,,,,,390,78.24609375,-36.02734375,1,0,0,response3disk,,5,-3.70703125,-1.01953125,1,0,0,rectangle,-3.70703125,-1.01953125,1,0,0,-3.70703125,-1.01953125,1,0,0,0,56,56,17,1,,,,,,,,
,,,,,,,,,,,,,FF,,,,,,,,1.65077,,,,,,,,,,,,,,,,,,,,,,610329a74ccff557eb132122,61036f2fca5be39e19acdc77,2021-07-29_23h22.57.565,Simcolourproject_2stim_asymm_v5,2020.2.10,MacIntel,60,61025ae37ef11b136ea224fe,,,,,,,,,1062,-23.09765625,-85.9375,1,0,0,response5disk,,3,-2.62890625,-1.33984375,1,0,0,rectangle,-2.62890625,-1.33984375,1,0,0,-2.62890625,-1.33984375,1,0,0,0,57,57,123,1,,,,,,,,
,,,,,,,,,,,,,FF,,,,,,,,0.750535,,,,,,,,,,,,,,,,,,,,,,610329a74ccff557eb132122,61036f2fca5be39e19acdc77,2021-07-29_23h22.57.565,Simcolourproject_2stim_asymm_v5,2020.2.10,MacIntel,60,61025ae37ef11b136ea224fe,,,,,,,,,3483,-54.7890625,-93.38671875,1,0,0,response5disk,,3,-1.23046875,-12.94140625,1,0,0,rectangle,-1.23046875,-12.94140625,1,0,0,-1.23046875,-12.94140625,1,0,0,0,58,58,49,1,,,,,,,,
,,,,,,,,,,,,,FF,,,,,,,,0.58307,,,,,,,,,,,,,,,,,,,,,,610329a74ccff557eb132122,61036f2fca5be39e19acdc77,2021-07-29_23h22.57.565,Simcolourproject_2stim_asymm_v5,2020.2.10,MacIntel,60,61025ae37ef11b136ea224fe,,,,,,,,,4130,36.73046875,-84.59375,1,0,0,response3disk,,4,1.84765625,-3.796875,1,0,0,rectangle,1.84765625,-3.796875,1,0,0,1.84765625,-3.796875,1,0,0,0,59,59,135,1,,,,,,,,
,,,,,,,,,,,,,FF,,,,,,,,1.03502,,,,,,,,,,,,,,,,,,,,,,610329a74ccff557eb132122,61036f2fca5be39e19acdc77,2021-07-29_23h22.57.565,Simcolourproject_2stim_asymm_v5,2020.2.10,MacIntel,60,61025ae37ef11b136ea224fe,,,,,,,,,3075,68.30078125,-37.265625,1,0,0,response3disk,,5,6.578125,3.015625,1,0,0,rectangle,6.578125,3.015625,1,0,0,6.578125,3.015625,1,0,0,0,60,60,25,1,,,,,,,,
,,,,,,,,,,,,,FF,,,,,,,,1.234125,,,,,,,,,,,,,,,,,,,,,,610329a74ccff557eb132122,61036f2fca5be39e19acdc77,2021-07-29_23h22.57.565,Simcolourproject_2stim_asymm_v5,2020.2.10,MacIntel,60,61025ae37ef11b136ea224fe,,,,,,,,,3255,-27.92578125,-84.03515625,1,0,0,response5disk,,3,-3.96875,-6.8515625,1,0,0,rectangle,-3.96875,-6.8515625,1,0,0,-3.96875,-6.8515625,1,0,0,0,61,61,98,1,,,,,,,,
,,,,,,,,,,,,,FF,,,,,,,,1.42094,,,,,,,,,,,,,,,,,,,,,,610329a74ccff557eb132122,61036f2fca5be39e19acdc77,2021-07-29_23h22.57.565,Simcolourproject_2stim_asymm_v5,2020.2.10,MacIntel,60,61025ae37ef11b136ea224fe,,,,,,,,,570,-42.48046875,-77.96484375,1,0,0,response5disk,,3,-15.8203125,-11.58203125,1,0,0,rectangle,-15.8203125,-11.58203125,1,0,0,-15.8203125,-11.58203125,1,0,0,0,62,62,45,1,,,,,,,,
,,,,,,,,,,,,,FF,,,,,,,,0.71688,,,,,,,,,,,,,,,,,,,,,,610329a74ccff557eb132122,61036f2fca5be39e19acdc77,2021-07-29_23h22.57.565,Simcolourproject_2stim_asymm_v5,2020.2.10,MacIntel,60,61025ae37ef11b136ea224fe,,,,,,,,,4155,30.91796875,-79.8984375,1,0,0,response3disk,,4,10.234375,-14.125,1,0,0,rectangle,10.234375,-14.125,1,0,0,10.234375,-14.125,1,0,0,0,63,63,46,1,,,,,,,,
,,,,,,,,,,,,,FF,,,,,,,,0.784225,,,,,,,,,,,,,,,,,,,,,,610329a74ccff557eb132122,61036f2fca5be39e19acdc77,2021-07-29_23h22.57.565,Simcolourproject_2stim_asymm_v5,2020.2.10,MacIntel,60,61025ae37ef11b136ea224fe,,,,,,,,,1058,-84.91796875,-33.5078125,1,0,0,response5disk,,2,1.6484375,6.1015625,1,0,0,rectangle,1.6484375,6.1015625,1,0,0,1.6484375,6.1015625,1,0,0,0,64,64,115,1,,,,,,,,
,,,,,,,,,,,,,FF,,,,,,,,0.93526,,,,,,,,,,,,,,,,,,,,,,610329a74ccff557eb132122,61036f2fca5be39e19acdc77,2021-07-29_23h22.57.565,Simcolourproject_2stim_asymm_v5,2020.2.10,MacIntel,60,61025ae37ef11b136ea224fe,,,,,,,,,1542,-49.32421875,-66.4921875,1,0,0,response5disk,,3,-19.75390625,-8.5390625,1,0,0,rectangle,-19.75390625,-8.5390625,1,0,0,-19.75390625,-8.5390625,1,0,0,0,65,65,137,1,,,,,,,,
,,,,,,,,,,,,,FF,,,,,,,,0.785235,,,,,,,,,,,,,,,,,,,,,,610329a74ccff557eb132122,61036f2fca5be39e19acdc77,2021-07-29_23h22.57.565,Simcolourproject_2stim_asymm_v5,2020.2.10,MacIntel,60,61025ae37ef11b136ea224fe,,,,,,,,,2052,49.296875,-83.8125,1,0,0,response3disk,,4,5.23828125,-7.58203125,1,0,0,rectangle,5.23828125,-7.58203125,1,0,0,5.23828125,-7.58203125,1,0,0,0,66,66,138,1,,,,,,,,
,,,,,,,,,,,,,FF,,,,,,,,0.90098,,,,,,,,,,,,,,,,,,,,,,610329a74ccff557eb132122,61036f2fca5be39e19acdc77,2021-07-29_23h22.57.565,Simcolourproject_2stim_asymm_v5,2020.2.10,MacIntel,60,61025ae37ef11b136ea224fe,,,,,,,,,3426,-81.625,-34.37890625,1,0,0,response5disk,,2,-22.53125,-10.12890625,1,0,0,rectangle,-22.53125,-10.12890625,1,0,0,-22.53125,-10.12890625,1,0,0,0,67,67,68,1,,,,,,,,
,,,,,,,,,,,,,FF,,,,,,,,0.883965,,,,,,,,,,,,,,,,,,,,,,610329a74ccff557eb132122,61036f2fca5be39e19acdc77,2021-07-29_23h22.57.565,Simcolourproject_2stim_asymm_v5,2020.2.10,MacIntel,60,61025ae37ef11b136ea224fe,,,,,,,,,2314,60.19140625,-43.52734375,1,0,0,response3disk,,5,17.1484375,4.796875,1,0,0,rectangle,17.1484375,4.796875,1,0,0,17.1484375,4.796875,1,0,0,0,68,68,74,1,,,,,,,,
,,,,,,,,,,,,,FF,,,,,,,,1.06739,,,,,,,,,,,,,,,,,,,,,,610329a74ccff557eb132122,61036f2fca5be39e19acdc77,2021-07-29_23h22.57.565,Simcolourproject_2stim_asymm_v5,2020.2.10,MacIntel,60,61025ae37ef11b136ea224fe,,,,,,,,,2903,79.9453125,-47.25390625,1,0,0,response3disk,,5,7.77734375,1.68359375,1,0,0,rectangle,7.77734375,1.68359375,1,0,0,7.77734375,1.68359375,1,0,0,0,69,69,37,1,,,,,,,,
,,,,,,,,,,,,,FF,,,,,,,,1.001485,,,,,,,,,,,,,,,,,,,,,,610329a74ccff557eb132122,61036f2fca5be39e19acdc77,2021-07-29_23h22.57.565,Simcolourproject_2stim_asymm_v5,2020.2.10,MacIntel,60,61025ae37ef11b136ea224fe,,,,,,,,,3372,78.3125,40.59765625,1,0,0,response1disk,,6,9.5078125,3.05078125,1,0,0,rectangle,79.828125,17.7578125,1,0,0,13.40234375,0.54296875,1,0,0,0,70,70,92,1,,response1disk_3,TRUE,6,6,"[148,102,71,41,184,224,317,308,140,251,229,79,208,271,298,173,196,186,125,191]",1.316915,rectangle
,,,,,,,,,,,,,FF,,,,,,,,1.234715,,,,,,,,,,,,,,,,,,,,,,610329a74ccff557eb132122,61036f2fca5be39e19acdc77,2021-07-29_23h22.57.565,Simcolourproject_2stim_asymm_v5,2020.2.10,MacIntel,60,61025ae37ef11b136ea224fe,,,,,,,,,3676,-68.4765625,-49.3359375,1,0,0,response5disk,,2,0.60546875,-3.1953125,1,0,0,rectangle,0.60546875,-3.1953125,1,0,0,0.60546875,-3.1953125,1,0,0,0,71,71,157,1,,,,,,,,
,,,,,,,,,,,,,FF,,,,,,,,0.734275,,,,,,,,,,,,,,,,,,,,,,610329a74ccff557eb132122,61036f2fca5be39e19acdc77,2021-07-29_23h22.57.565,Simcolourproject_2stim_asymm_v5,2020.2.10,MacIntel,60,61025ae37ef11b136ea224fe,,,,,,,,,3096,-73.55859375,28.99609375,1,0,0,response7disk,,1,-4.99609375,-0.1796875,1,0,0,rectangle,-4.99609375,-0.1796875,1,0,0,-4.99609375,-0.1796875,1,0,0,0,72,72,104,1,,,,,,,,
,,,,,,,,,,,,,FF,,,,,,,,0.75049,,,,,,,,,,,,,,,,,,,,,,610329a74ccff557eb132122,61036f2fca5be39e19acdc77,2021-07-29_23h22.57.565,Simcolourproject_2stim_asymm_v5,2020.2.10,MacIntel,60,61025ae37ef11b136ea224fe,,,,,,,,,174,-78.28125,-45.3125,1,0,0,response5disk,,2,-14.57421875,3.984375,1,0,0,rectangle,-14.57421875,3.984375,1,0,0,-14.57421875,3.984375,1,0,0,0,73,73,142,1,,,,,,,,
,,,,,,,,,,,,,FF,,,,,,,,0.983485,,,,,,,,,,,,,,,,,,,,,,610329a74ccff557eb132122,61036f2fca5be39e19acdc77,2021-07-29_23h22.57.565,Simcolourproject_2stim_asymm_v5,2020.2.10,MacIntel,60,61025ae37ef11b136ea224fe,,,,,,,,,3450,75.51953125,-40.67578125,1,0,0,response3disk,,5,-12.61328125,-9.65625,1,0,0,rectangle,-12.61328125,-9.65625,1,0,0,-12.61328125,-9.65625,1,0,0,0,74,74,66,1,,,,,,,,
,,,,,,,,,,,,,FF,,,,,,,,1.08466,,,,,,,,,,,,,,,,,,,,,,610329a74ccff557eb132122,61036f2fca5be39e19acdc77,2021-07-29_23h22.57.565,Simcolourproject_2stim_asymm_v5,2020.2.10,MacIntel,60,61025ae37ef11b136ea224fe,,,,,,,,,2350,91.62109375,-33.23828125,1,0,0,response3disk,,5,-1.88671875,-1.765625,1,0,0,rectangle,-1.88671875,-1.765625,1,0,0,-1.88671875,-1.765625,1,0,0,0,75,75,91,1,,,,,,,,
,,,,,,,,,,,,,FF,,,,,,,,0.702315,,,,,,,,,,,,,,,,,,,,,,610329a74ccff557eb132122,61036f2fca5be39e19acdc77,2021-07-29_23h22.57.565,Simcolourproject_2stim_asymm_v5,2020.2.10,MacIntel,60,61025ae37ef11b136ea224fe,,,,,,,,,3573,79.546875,33.96875,1,0,0,response1disk,,6,14.296875,7.4140625,1,0,0,rectangle,14.296875,7.4140625,1,0,0,14.296875,7.4140625,1,0,0,0,76,76,97,1,,,,,,,,
,,,,,,,,,,,,,FF,,,,,,,,1.232235,,,,,,,,,,,,,,,,,,,,,,610329a74ccff557eb132122,61036f2fca5be39e19acdc77,2021-07-29_23h22.57.565,Simcolourproject_2stim_asymm_v5,2020.2.10,MacIntel,60,61025ae37ef11b136ea224fe,,,,,,,,,1649,81.21875,17.89453125,1,0,0,response1disk,,6,14.0625,7.21875,1,0,0,rectangle,14.0625,7.21875,1,0,0,14.0625,7.21875,1,0,0,0,77,77,143,1,,,,,,,,
,,,,,,,,,,,,,FF,,,,,,,,1.251155,,,,,,,,,,,,,,,,,,,,,,610329a74ccff557eb132122,61036f2fca5be39e19acdc77,2021-07-29_23h22.57.565,Simcolourproject_2stim_asymm_v5,2020.2.10,MacIntel,60,61025ae37ef11b136ea224fe,,,,,,,,,529,-45.6015625,-76.80078125,1,0,0,response5disk,,3,0.38671875,9.97265625,1,0,0,rectangle,-73.9921875,28.8828125,1,0,0,-1.4296875,-2.65234375,1,0,0,0,78,78,32,1,,response7disk_3,TRUE,1,1,"[148,102,71,41,184,224,317,308,140,251,229,79,208,271,298,173,196,186,125,191]",1.3674,rectangle
,,,,,,,,,,,,,FF,,,,,,,,1.8181,,,,,,,,,,,,,,,,,,,,,,610329a74ccff557eb132122,61036f2fca5be39e19acdc77,2021-07-29_23h22.57.565,Simcolourproject_2stim_asymm_v5,2020.2.10,MacIntel,60,61025ae37ef11b136ea224fe,,,,,,,,,3767,78.890625,33.1484375,1,0,0,response1disk,,6,10.76171875,9.703125,1,0,0,rectangle,10.76171875,9.703125,1,0,0,10.76171875,9.703125,1,0,0,0,79,79,2,1,,,,,,,,
,,,,,,,,,,,,,FF,,,,,,,,1.05144,,,,,,,,,,,,,,,,,,,,,,610329a74ccff557eb132122,61036f2fca5be39e19acdc77,2021-07-29_23h22.57.565,Simcolourproject_2stim_asymm_v5,2020.2.10,MacIntel,60,61025ae37ef11b136ea224fe,,,,,,,,,1970,-62.55859375,-31.69921875,1,0,0,response5disk,,2,-5.71875,-4.328125,1,0,0,rectangle,-5.71875,-4.328125,1,0,0,-5.71875,-4.328125,1,0,0,0,80,80,79,1,,,,,,,,
,,,,,,,,,,,,,FF,,,,,,,,0.715515,,,,,,,,,,,,,,,,,,,,,,610329a74ccff557eb132122,61036f2fca5be39e19acdc77,2021-07-29_23h22.57.565,Simcolourproject_2stim_asymm_v5,2020.2.10,MacIntel,60,61025ae37ef11b136ea224fe,,,,,,,,,4096,-75.4765625,-41.87890625,1,0,0,response5disk,,2,-15.85546875,-8.796875,1,0,0,rectangle,-15.85546875,-8.796875,1,0,0,-15.85546875,-8.796875,1,0,0,0,81,81,103,1,,,,,,,,
,,,,,,,,,,,,,FF,,,,,,,,0.7512,,,,,,,,,,,,,,,,,,,,,,610329a74ccff557eb132122,61036f2fca5be39e19acdc77,2021-07-29_23h22.57.565,Simcolourproject_2stim_asymm_v5,2020.2.10,MacIntel,60,61025ae37ef11b136ea224fe,,,,,,,,,1564,61.21875,-72.3046875,1,0,0,response3disk,,4,8.9921875,-5.75,1,0,0,rectangle,8.9921875,-5.75,1,0,0,8.9921875,-5.75,1,0,0,0,82,82,101,1,,,,,,,,
,,,,,,,,,,,,,FF,,,,,,,,1.06736,,,,,,,,,,,,,,,,,,,,,,610329a74ccff557eb132122,61036f2fca5be39e19acdc77,2021-07-29_23h22.57.565,Simcolourproject_2stim_asymm_v5,2020.2.10,MacIntel,60,61025ae37ef11b136ea224fe,,,,,,,,,2329,40.46875,-82.1328125,1,0,0,response3disk,,4,4.46484375,-5.28125,1,0,0,rectangle,4.46484375,-5.28125,1,0,0,4.46484375,-5.28125,1,0,0,0,83,83,4,1,,,,,,,,
,,,,,,,,,,,,,FF,,,,,,,,0.90206,,,,,,,,,,,,,,,,,,,,,,610329a74ccff557eb132122,61036f2fca5be39e19acdc77,2021-07-29_23h22.57.565,Simcolourproject_2stim_asymm_v5,2020.2.10,MacIntel,60,61025ae37ef11b136ea224fe,,,,,,,,,981,-50.921875,-85.6484375,1,0,0,response5disk,,3,-9.078125,-12.01171875,1,0,0,rectangle,-9.078125,-12.01171875,1,0,0,-9.078125,-12.01171875,1,0,0,0,84,84,23,1,,,,,,,,
,,,,,,,,,,,,,FF,,,,,,,,1.36869,,,,,,,,,,,,,,,,,,,,,,610329a74ccff557eb132122,61036f2fca5be39e19acdc77,2021-07-29_23h22.57.565,Simcolourproject_2stim_asymm_v5,2020.2.10,MacIntel,60,61025ae37ef11b136ea224fe,,,,,,,,,491,-44.078125,-76.67578125,1,0,0,response5disk,,3,-13.0078125,-2.03515625,1,0,0,rectangle,-13.0078125,-2.03515625,1,0,0,-13.0078125,-2.03515625,1,0,0,0,85,85,63,1,,,,,,,,
,,,,,,,,,,,,,FF,,,,,,,,0.829445,,,,,,,,,,,,,,,,,,,,,,610329a74ccff557eb132122,61036f2fca5be39e19acdc77,2021-07-29_23h22.57.565,Simcolourproject_2stim_asymm_v5,2020.2.10,MacIntel,60,61025ae37ef11b136ea224fe,,,,,,,,,67,37.59375,-76.89453125,1,0,0,response3disk,,4,9.61328125,-2.140625,1,0,0,rectangle,9.61328125,-2.140625,1,0,0,9.61328125,-2.140625,1,0,0,0,86,86,53,1,,,,,,,,
,,,,,,,,,,,,,FF,,,,,,,,0.749025,,,,,,,,,,,,,,,,,,,,,,610329a74ccff557eb132122,61036f2fca5be39e19acdc77,2021-07-29_23h22.57.565,Simcolourproject_2stim_asymm_v5,2020.2.10,MacIntel,60,61025ae37ef11b136ea224fe,,,,,,,,,825,-36.16796875,-62.91796875,1,0,0,response5disk,,3,-8.265625,-2.03515625,1,0,0,rectangle,-8.265625,-2.03515625,1,0,0,-8.265625,-2.03515625,1,0,0,0,87,87,133,1,,,,,,,,
,,,,,,,,,,,,,FF,,,,,,,,0.64553,,,,,,,,,,,,,,,,,,,,,,610329a74ccff557eb132122,61036f2fca5be39e19acdc77,2021-07-29_23h22.57.565,Simcolourproject_2stim_asymm_v5,2020.2.10,MacIntel,60,61025ae37ef11b136ea224fe,,,,,,,,,4048,65.40625,-41.24609375,1,0,0,response3disk,,5,8.8515625,-6.11328125,1,0,0,rectangle,8.8515625,-6.11328125,1,0,0,8.8515625,-6.11328125,1,0,0,0,88,88,35,1,,,,,,,,
,,,,,,,,,,,,,FF,,,,,,,,0.800925,,,,,,,,,,,,,,,,,,,,,,610329a74ccff557eb132122,61036f2fca5be39e19acdc77,2021-07-29_23h22.57.565,Simcolourproject_2stim_asymm_v5,2020.2.10,MacIntel,60,61025ae37ef11b136ea224fe,,,,,,,,,3920,-30.19921875,-73.25390625,1,0,0,response5disk,,3,-8.71875,-7.56640625,1,0,0,rectangle,-8.71875,-7.56640625,1,0,0,-8.71875,-7.56640625,1,0,0,0,89,89,146,1,,,,,,,,
,,,,,,,,,,,,,FF,,,,,,,,0.74835,,,,,,,,,,,,,,,,,,,,,,610329a74ccff557eb132122,61036f2fca5be39e19acdc77,2021-07-29_23h22.57.565,Simcolourproject_2stim_asymm_v5,2020.2.10,MacIntel,60,61025ae37ef11b136ea224fe,,,,,,,,,2643,-36.23046875,-68.8515625,1,0,0,response5disk,,3,-15.8203125,-6.453125,1,0,0,rectangle,-15.8203125,-6.453125,1,0,0,-15.8203125,-6.453125,1,0,0,0,90,90,73,1,,,,,,,,
,,,,,,,,,,,,,FF,,,,,,,,1.218275,,,,,,,,,,,,,,,,,,,,,,610329a74ccff557eb132122,61036f2fca5be39e19acdc77,2021-07-29_23h22.57.565,Simcolourproject_2stim_asymm_v5,2020.2.10,MacIntel,60,61025ae37ef11b136ea224fe,,,,,,,,,1815,-76.11328125,34.21875,1,0,0,response7disk,,1,-1.0546875,-1.8671875,1,0,0,rectangle,-1.0546875,-1.8671875,1,0,0,-1.0546875,-1.8671875,1,0,0,0,91,91,27,1,,,,,,,,
,,,,,,,,,,,,,FF,,,,,,,,0.71232,,,,,,,,,,,,,,,,,,,,,,610329a74ccff557eb132122,61036f2fca5be39e19acdc77,2021-07-29_23h22.57.565,Simcolourproject_2stim_asymm_v5,2020.2.10,MacIntel,60,61025ae37ef11b136ea224fe,,,,,,,,,4082,70.21484375,-35.24609375,1,0,0,response3disk,,5,-1.2265625,1.3046875,1,0,0,rectangle,-1.2265625,1.3046875,1,0,0,-1.2265625,1.3046875,1,0,0,0,92,92,9,1,,,,,,,,
,,,,,,,,,,,,,FF,,,,,,,,1.568135,,,,,,,,,,,,,,,,,,,,,,610329a74ccff557eb132122,61036f2fca5be39e19acdc77,2021-07-29_23h22.57.565,Simcolourproject_2stim_asymm_v5,2020.2.10,MacIntel,60,61025ae37ef11b136ea224fe,,,,,,,,,2636,38.00390625,-68.12890625,1,0,0,response3disk,,4,3.02734375,-0.7734375,1,0,0,rectangle,3.02734375,-0.7734375,1,0,0,3.02734375,-0.7734375,1,0,0,0,93,93,40,1,,,,,,,,
,,,,,,,,,,,,,FF,,,,,,,,0.733835,,,,,,,,,,,,,,,,,,,,,,610329a74ccff557eb132122,61036f2fca5be39e19acdc77,2021-07-29_23h22.57.565,Simcolourproject_2stim_asymm_v5,2020.2.10,MacIntel,60,61025ae37ef11b136ea224fe,,,,,,,,,2789,-84.9296875,-32.9453125,1,0,0,response5disk,,2,-11.23828125,-10.5859375,1,0,0,rectangle,-11.23828125,-10.5859375,1,0,0,-11.23828125,-10.5859375,1,0,0,0,94,94,88,1,,,,,,,,
,,,,,,,,,,,,,FF,,,,,,,,0.900295,,,,,,,,,,,,,,,,,,,,,,610329a74ccff557eb132122,61036f2fca5be39e19acdc77,2021-07-29_23h22.57.565,Simcolourproject_2stim_asymm_v5,2020.2.10,MacIntel,60,61025ae37ef11b136ea224fe,,,,,,,,,526,-82.31640625,-30.3828125,1,0,0,response5disk,,2,1.49609375,8.734375,1,0,0,rectangle,1.49609375,8.734375,1,0,0,1.49609375,8.734375,1,0,0,0,95,95,111,1,,,,,,,,
,,,,,,,,,,,,,FF,,,,,,,,0.6006,,,,,,,,,,,,,,,,,,,,,,610329a74ccff557eb132122,61036f2fca5be39e19acdc77,2021-07-29_23h22.57.565,Simcolourproject_2stim_asymm_v5,2020.2.10,MacIntel,60,61025ae37ef11b136ea224fe,,,,,,,,,1291,-75.9296875,-37.64453125,1,0,0,response5disk,,2,-26.84765625,-8.96875,1,0,0,rectangle,-26.84765625,-8.96875,1,0,0,-26.84765625,-8.96875,1,0,0,0,96,96,108,1,,,,,,,,
,,,,,,,,,,,,,FF,,,,,,,,0.916915,,,,,,,,,,,,,,,,,,,,,,610329a74ccff557eb132122,61036f2fca5be39e19acdc77,2021-07-29_23h22.57.565,Simcolourproject_2stim_asymm_v5,2020.2.10,MacIntel,60,61025ae37ef11b136ea224fe,,,,,,,,,4214,76.89453125,34.3984375,1,0,0,response1disk,,6,-4.828125,-11.15625,1,0,0,rectangle,-4.828125,-11.15625,1,0,0,-4.828125,-11.15625,1,0,0,0,97,97,70,1,,,,,,,,
,,,,,,,,,,,,,FF,,,,,,,,0.598995,,,,,,,,,,,,,,,,,,,,,,610329a74ccff557eb132122,61036f2fca5be39e19acdc77,2021-07-29_23h22.57.565,Simcolourproject_2stim_asymm_v5,2020.2.10,MacIntel,60,61025ae37ef11b136ea224fe,,,,,,,,,1082,109.78125,53.859375,1,0,0,response1disk,,6,4.1640625,-0.12890625,1,0,0,rectangle,4.1640625,-0.12890625,1,0,0,4.1640625,-0.12890625,1,0,0,0,98,98,113,1,,,,,,,,
,,,,,,,,,,,,,FF,,,,,,,,0.9841,,,,,,,,,,,,,,,,,,,,,,610329a74ccff557eb132122,61036f2fca5be39e19acdc77,2021-07-29_23h22.57.565,Simcolourproject_2stim_asymm_v5,2020.2.10,MacIntel,60,61025ae37ef11b136ea224fe,,,,,,,,,20,72.70703125,36.27734375,1,0,0,response1disk,,6,3.984375,2.6953125,1,0,0,rectangle,3.984375,2.6953125,1,0,0,3.984375,2.6953125,1,0,0,0,99,99,154,1,,,,,,,,
,,,,,,,,,,,,,FF,,,,,,,,0.964305,,,,,,,,,,,,,,,,,,,,,,610329a74ccff557eb132122,61036f2fca5be39e19acdc77,2021-07-29_23h22.57.565,Simcolourproject_2stim_asymm_v5,2020.2.10,MacIntel,60,61025ae37ef11b136ea224fe,,,,,,,,,3640,62.80078125,-29.84765625,1,0,0,response3disk,,5,2.50390625,-5.82421875,1,0,0,rectangle,2.50390625,-5.82421875,1,0,0,2.50390625,-5.82421875,1,0,0,0,100,100,69,1,,,,,,,,
,,,,,,,,,,,,,FF,,,,,,,,1.06677,,,,,,,,,,,,,,,,,,,,,,610329a74ccff557eb132122,61036f2fca5be39e19acdc77,2021-07-29_23h22.57.565,Simcolourproject_2stim_asymm_v5,2020.2.10,MacIntel,60,61025ae37ef11b136ea224fe,,,,,,,,,1690,-41.23828125,-81.48046875,1,0,0,response5disk,,3,-14.69921875,-10.6640625,1,0,0,rectangle,-62.90234375,28.44140625,1,0,0,-2.23046875,6.41015625,1,0,0,0,101,101,136,1,,response7disk_3,TRUE,1,1,"[148,102,71,41,184,224,317,308,140,251,229,79,208,271,298,173,196,186,125,191]",1.234135,rectangle
,,,,,,,,,,,,,FF,,,,,,,,0.766825,,,,,,,,,,,,,,,,,,,,,,610329a74ccff557eb132122,61036f2fca5be39e19acdc77,2021-07-29_23h22.57.565,Simcolourproject_2stim_asymm_v5,2020.2.10,MacIntel,60,61025ae37ef11b136ea224fe,,,,,,,,,519,75.37109375,-32.66796875,1,0,0,response3disk,,5,15.15625,-9.11328125,1,0,0,rectangle,15.15625,-9.11328125,1,0,0,15.15625,-9.11328125,1,0,0,0,102,102,8,1,,,,,,,,
,,,,,,,,,,,,,FF,,,,,,,,1.1112,,,,,,,,,,,,,,,,,,,,,,610329a74ccff557eb132122,61036f2fca5be39e19acdc77,2021-07-29_23h22.57.565,Simcolourproject_2stim_asymm_v5,2020.2.10,MacIntel,60,61025ae37ef11b136ea224fe,,,,,,,,,279,-47.1484375,-75.2578125,1,0,0,response5disk,,3,-2.7265625,5.33984375,1,0,0,rectangle,-2.7265625,5.33984375,1,0,0,-2.7265625,5.33984375,1,0,0,0,103,103,64,1,,,,,,,,
,,,,,,,,,,,,,FF,,,,,,,,0.779755,,,,,,,,,,,,,,,,,,,,,,610329a74ccff557eb132122,61036f2fca5be39e19acdc77,2021-07-29_23h22.57.565,Simcolourproject_2stim_asymm_v5,2020.2.10,MacIntel,60,61025ae37ef11b136ea224fe,,,,,,,,,1399,33.8046875,-72.2109375,1,0,0,response3disk,,4,8.140625,-9.1640625,1,0,0,rectangle,8.140625,-9.1640625,1,0,0,8.140625,-9.1640625,1,0,0,0,104,104,105,1,,,,,,,,
,,,,,,,,,,,,,FF,,,,,,,,0.89309,,,,,,,,,,,,,,,,,,,,,,610329a74ccff557eb132122,61036f2fca5be39e19acdc77,2021-07-29_23h22.57.565,Simcolourproject_2stim_asymm_v5,2020.2.10,MacIntel,60,61025ae37ef11b136ea224fe,,,,,,,,,3286,-20.7265625,-69.77734375,1,0,0,response5disk,,3,-1.58984375,-8.03515625,1,0,0,rectangle,-1.58984375,-8.03515625,1,0,0,-1.58984375,-8.03515625,1,0,0,0,105,105,28,1,,,,,,,,
,,,,,,,,,,,,,FF,,,,,,,,0.66643,,,,,,,,,,,,,,,,,,,,,,610329a74ccff557eb132122,61036f2fca5be39e19acdc77,2021-07-29_23h22.57.565,Simcolourproject_2stim_asymm_v5,2020.2.10,MacIntel,60,61025ae37ef11b136ea224fe,,,,,,,,,1777,42.5,-80.2421875,1,0,0,response3disk,,4,-4.51171875,-2.80078125,1,0,0,rectangle,-4.51171875,-2.80078125,1,0,0,-4.51171875,-2.80078125,1,0,0,0,106,106,44,1,,,,,,,,
,,,,,,,,,,,,,FF,,,,,,,,0.80087,,,,,,,,,,,,,,,,,,,,,,610329a74ccff557eb132122,61036f2fca5be39e19acdc77,2021-07-29_23h22.57.565,Simcolourproject_2stim_asymm_v5,2020.2.10,MacIntel,60,61025ae37ef11b136ea224fe,,,,,,,,,970,-30.859375,-67.4765625,1,0,0,response5disk,,3,-8.94921875,-5.3515625,1,0,0,rectangle,-8.94921875,-5.3515625,1,0,0,-8.94921875,-5.3515625,1,0,0,0,107,107,120,1,,,,,,,,
,,,,,,,,,,,,,FF,,,,,,,,0.684255,,,,,,,,,,,,,,,,,,,,,,610329a74ccff557eb132122,61036f2fca5be39e19acdc77,2021-07-29_23h22.57.565,Simcolourproject_2stim_asymm_v5,2020.2.10,MacIntel,60,61025ae37ef11b136ea224fe,,,,,,,,,2697,59.82421875,-43.5390625,1,0,0,response3disk,,5,13.1015625,3.90625,1,0,0,rectangle,13.1015625,3.90625,1,0,0,13.1015625,3.90625,1,0,0,0,108,108,43,1,,,,,,,,
,,,,,,,,,,,,,FF,,,,,,,,0.719815,,,,,,,,,,,,,,,,,,,,,,610329a74ccff557eb132122,61036f2fca5be39e19acdc77,2021-07-29_23h22.57.565,Simcolourproject_2stim_asymm_v5,2020.2.10,MacIntel,60,61025ae37ef11b136ea224fe,,,,,,,,,778,76.1875,-46.234375,1,0,0,response3disk,,5,-8.27734375,-0.05078125,1,0,0,rectangle,-8.27734375,-0.05078125,1,0,0,-8.27734375,-0.05078125,1,0,0,0,109,109,122,1,,,,,,,,
,,,,,,,,,,,,,FF,,,,,,,,0.978885,,,,,,,,,,,,,,,,,,,,,,610329a74ccff557eb132122,61036f2fca5be39e19acdc77,2021-07-29_23h22.57.565,Simcolourproject_2stim_asymm_v5,2020.2.10,MacIntel,60,61025ae37ef11b136ea224fe,,,,,,,,,1365,45.02734375,-79.5234375,1,0,0,response3disk,,4,18.87109375,-8.765625,1,0,0,rectangle,18.87109375,-8.765625,1,0,0,18.87109375,-8.765625,1,0,0,0,110,110,6,1,,,,,,,,
,,,,,,,,,,,,,FF,,,,,,,,0.700695,,,,,,,,,,,,,,,,,,,,,,610329a74ccff557eb132122,61036f2fca5be39e19acdc77,2021-07-29_23h22.57.565,Simcolourproject_2stim_asymm_v5,2020.2.10,MacIntel,60,61025ae37ef11b136ea224fe,,,,,,,,,1990,82.1171875,-52.49609375,1,0,0,response3disk,,5,11.25,2.421875,1,0,0,rectangle,11.25,2.421875,1,0,0,11.25,2.421875,1,0,0,0,111,111,153,1,,,,,,,,
,,,,,,,,,,,,,FF,,,,,,,,0.746335,,,,,,,,,,,,,,,,,,,,,,610329a74ccff557eb132122,61036f2fca5be39e19acdc77,2021-07-29_23h22.57.565,Simcolourproject_2stim_asymm_v5,2020.2.10,MacIntel,60,61025ae37ef11b136ea224fe,,,,,,,,,267,79.04296875,33.55078125,1,0,0,response1disk,,6,5.2265625,-3.671875,1,0,0,rectangle,5.2265625,-3.671875,1,0,0,5.2265625,-3.671875,1,0,0,0,112,112,52,1,,,,,,,,
,,,,,,,,,,,,,FF,,,,,,,,0.78313,,,,,,,,,,,,,,,,,,,,,,610329a74ccff557eb132122,61036f2fca5be39e19acdc77,2021-07-29_23h22.57.565,Simcolourproject_2stim_asymm_v5,2020.2.10,MacIntel,60,61025ae37ef11b136ea224fe,,,,,,,,,141,91.015625,-38.89453125,1,0,0,response3disk,,5,-6.08203125,-7.21875,1,0,0,rectangle,-6.08203125,-7.21875,1,0,0,-6.08203125,-7.21875,1,0,0,0,113,113,147,1,,,,,,,,
,,,,,,,,,,,,,FF,,,,,,,,1.301395,,,,,,,,,,,,,,,,,,,,,,610329a74ccff557eb132122,61036f2fca5be39e19acdc77,2021-07-29_23h22.57.565,Simcolourproject_2stim_asymm_v5,2020.2.10,MacIntel,60,61025ae37ef11b136ea224fe,,,,,,,,,1422,76.51953125,-49.3828125,1,0,0,response3disk,,5,9.546875,-4.7421875,1,0,0,rectangle,9.546875,-4.7421875,1,0,0,9.546875,-4.7421875,1,0,0,0,114,114,134,1,,,,,,,,
,,,,,,,,,,,,,FF,,,,,,,,1.00127,,,,,,,,,,,,,,,,,,,,,,610329a74ccff557eb132122,61036f2fca5be39e19acdc77,2021-07-29_23h22.57.565,Simcolourproject_2stim_asymm_v5,2020.2.10,MacIntel,60,61025ae37ef11b136ea224fe,,,,,,,,,549,-43.02734375,-71.66796875,1,0,0,response5disk,,3,-9.0859375,-0.59765625,1,0,0,rectangle,-9.0859375,-0.59765625,1,0,0,-9.0859375,-0.59765625,1,0,0,0,115,115,129,1,,,,,,,,
,,,,,,,,,,,,,FF,,,,,,,,0.61725,,,,,,,,,,,,,,,,,,,,,,610329a74ccff557eb132122,61036f2fca5be39e19acdc77,2021-07-29_23h22.57.565,Simcolourproject_2stim_asymm_v5,2020.2.10,MacIntel,60,61025ae37ef11b136ea224fe,,,,,,,,,3562,37.80859375,-87.12890625,1,0,0,response3disk,,4,-3.12109375,-3.984375,1,0,0,rectangle,-3.12109375,-3.984375,1,0,0,-3.12109375,-3.984375,1,0,0,0,116,116,102,1,,,,,,,,
,,,,,,,,,,,,,FF,,,,,,,,0.85032,,,,,,,,,,,,,,,,,,,,,,610329a74ccff557eb132122,61036f2fca5be39e19acdc77,2021-07-29_23h22.57.565,Simcolourproject_2stim_asymm_v5,2020.2.10,MacIntel,60,61025ae37ef11b136ea224fe,,,,,,,,,3658,44.96875,-63.98046875,1,0,0,response3disk,,4,9.48828125,0.67578125,1,0,0,rectangle,9.48828125,0.67578125,1,0,0,9.48828125,0.67578125,1,0,0,0,117,117,110,1,,,,,,,,
,,,,,,,,,,,,,FF,,,,,,,,0.88186,,,,,,,,,,,,,,,,,,,,,,610329a74ccff557eb132122,61036f2fca5be39e19acdc77,2021-07-29_23h22.57.565,Simcolourproject_2stim_asymm_v5,2020.2.10,MacIntel,60,61025ae37ef11b136ea224fe,,,,,,,,,2736,42.1953125,-75.3828125,1,0,0,response3disk,,4,9.6015625,7.30859375,1,0,0,rectangle,9.6015625,7.30859375,1,0,0,9.6015625,7.30859375,1,0,0,0,118,118,109,1,,,,,,,,
,,,,,,,,,,,,,FF,,,,,,,,0.629055,,,,,,,,,,,,,,,,,,,,,,610329a74ccff557eb132122,61036f2fca5be39e19acdc77,2021-07-29_23h22.57.565,Simcolourproject_2stim_asymm_v5,2020.2.10,MacIntel,60,61025ae37ef11b136ea224fe,,,,,,,,,693,36.7734375,-51.70703125,1,0,0,response3disk,,4,1.625,4.66015625,1,0,0,rectangle,1.625,4.66015625,1,0,0,1.625,4.66015625,1,0,0,0,119,119,94,1,,,,,,,,
,,,,,,,,,,,,,FF,,,,,,,,0.61616,,,,,,,,,,,,,,,,,,,,,,610329a74ccff557eb132122,61036f2fca5be39e19acdc77,2021-07-29_23h22.57.565,Simcolourproject_2stim_asymm_v5,2020.2.10,MacIntel,60,61025ae37ef11b136ea224fe,,,,,,,,,2618,42.4453125,-75.3515625,1,0,0,response3disk,,4,5.8828125,-1.21484375,1,0,0,rectangle,5.8828125,-1.21484375,1,0,0,5.8828125,-1.21484375,1,0,0,0,120,120,41,1,,,,,,,,
,,,,,,,,,,,,,FF,,,,,,,,0.651105,,,,,,,,,,,,,,,,,,,,,,610329a74ccff557eb132122,61036f2fca5be39e19acdc77,2021-07-29_23h22.57.565,Simcolourproject_2stim_asymm_v5,2020.2.10,MacIntel,60,61025ae37ef11b136ea224fe,,,,,,,,,3602,37.71484375,-85.34375,1,0,0,response3disk,,4,6.609375,-1.37109375,1,0,0,rectangle,6.609375,-1.37109375,1,0,0,6.609375,-1.37109375,1,0,0,0,121,121,131,1,,,,,,,,
,,,,,,,,,,,,,FF,,,,,,,,0.801375,,,,,,,,,,,,,,,,,,,,,,610329a74ccff557eb132122,61036f2fca5be39e19acdc77,2021-07-29_23h22.57.565,Simcolourproject_2stim_asymm_v5,2020.2.10,MacIntel,60,61025ae37ef11b136ea224fe,,,,,,,,,1318,47.7109375,-87.74609375,1,0,0,response3disk,,4,9.09765625,-3.76171875,1,0,0,rectangle,9.09765625,-3.76171875,1,0,0,9.09765625,-3.76171875,1,0,0,0,122,122,30,1,,,,,,,,
,,,,,,,,,,,,,FF,,,,,,,,0.96458,,,,,,,,,,,,,,,,,,,,,,610329a74ccff557eb132122,61036f2fca5be39e19acdc77,2021-07-29_23h22.57.565,Simcolourproject_2stim_asymm_v5,2020.2.10,MacIntel,60,61025ae37ef11b136ea224fe,,,,,,,,,4196,52.78125,-79.37890625,1,0,0,response3disk,,4,8.08203125,0.19140625,1,0,0,rectangle,8.08203125,0.19140625,1,0,0,8.08203125,0.19140625,1,0,0,0,123,123,85,1,,,,,,,,
,,,,,,,,,,,,,FF,,,,,,,,2.28599,,,,,,,,,,,,,,,,,,,,,,610329a74ccff557eb132122,61036f2fca5be39e19acdc77,2021-07-29_23h22.57.565,Simcolourproject_2stim_asymm_v5,2020.2.10,MacIntel,60,61025ae37ef11b136ea224fe,,,,,,,,,2223,26.796875,-71.75390625,1,0,0,response3disk,,4,1.77734375,-3.67578125,1,0,0,rectangle,81.76171875,43.43359375,1,0,0,10.7265625,4.3515625,1,0,0,0,124,124,117,1,,response1disk_3,TRUE,6,6,"[148,102,71,41,184,224,317,308,140,251,229,79,208,271,298,173,196,186,125,191]",1.21752,rectangle
,,,,,,,,,,,,,FF,,,,,,,,0.715755,,,,,,,,,,,,,,,,,,,,,,610329a74ccff557eb132122,61036f2fca5be39e19acdc77,2021-07-29_23h22.57.565,Simcolourproject_2stim_asymm_v5,2020.2.10,MacIntel,60,61025ae37ef11b136ea224fe,,,,,,,,,2058,50.87109375,-69.44140625,1,0,0,response3disk,,4,15.47265625,-2.90234375,1,0,0,rectangle,15.47265625,-2.90234375,1,0,0,15.47265625,-2.90234375,1,0,0,0,125,125,12,1,,,,,,,,
,,,,,,,,,,,,,FF,,,,,,,,0.915685,,,,,,,,,,,,,,,,,,,,,,610329a74ccff557eb132122,61036f2fca5be39e19acdc77,2021-07-29_23h22.57.565,Simcolourproject_2stim_asymm_v5,2020.2.10,MacIntel,60,61025ae37ef11b136ea224fe,,,,,,,,,3113,-19.65625,-76.07421875,1,0,0,response5disk,,3,2.71484375,2.4609375,1,0,0,rectangle,2.71484375,2.4609375,1,0,0,2.71484375,2.4609375,1,0,0,0,126,126,21,1,,,,,,,,
,,,,,,,,,,,,,FF,,,,,,,,1.01175,,,,,,,,,,,,,,,,,,,,,,610329a74ccff557eb132122,61036f2fca5be39e19acdc77,2021-07-29_23h22.57.565,Simcolourproject_2stim_asymm_v5,2020.2.10,MacIntel,60,61025ae37ef11b136ea224fe,,,,,,,,,699,63.40625,-47.30859375,1,0,0,response3disk,,5,16.26953125,-10.96875,1,0,0,rectangle,16.26953125,-10.96875,1,0,0,16.26953125,-10.96875,1,0,0,0,127,127,62,1,,,,,,,,
,,,,,,,,,,,,,FF,,,,,,,,0.87278,,,,,,,,,,,,,,,,,,,,,,610329a74ccff557eb132122,61036f2fca5be39e19acdc77,2021-07-29_23h22.57.565,Simcolourproject_2stim_asymm_v5,2020.2.10,MacIntel,60,61025ae37ef11b136ea224fe,,,,,,,,,2766,93.578125,44.45703125,1,0,0,response1disk,,6,4.05078125,-1.38671875,1,0,0,rectangle,4.05078125,-1.38671875,1,0,0,4.05078125,-1.38671875,1,0,0,0,128,128,34,1,,,,,,,,
,,,,,,,,,,,,,FF,,,,,,,,2.202465,,,,,,,,,,,,,,,,,,,,,,610329a74ccff557eb132122,61036f2fca5be39e19acdc77,2021-07-29_23h22.57.565,Simcolourproject_2stim_asymm_v5,2020.2.10,MacIntel,60,61025ae37ef11b136ea224fe,,,,,,,,,3682,48.45703125,-82.6328125,1,0,0,response3disk,,4,18.96875,-3.37109375,1,0,0,rectangle,18.96875,-3.37109375,1,0,0,18.96875,-3.37109375,1,0,0,0,129,129,99,1,,,,,,,,
,,,,,,,,,,,,,FF,,,,,,,,1.06768,,,,,,,,,,,,,,,,,,,,,,610329a74ccff557eb132122,61036f2fca5be39e19acdc77,2021-07-29_23h22.57.565,Simcolourproject_2stim_asymm_v5,2020.2.10,MacIntel,60,61025ae37ef11b136ea224fe,,,,,,,,,1752,-44.52734375,-86.69140625,1,0,0,response5disk,,3,-5.1171875,-4.91796875,1,0,0,rectangle,-5.1171875,-4.91796875,1,0,0,-5.1171875,-4.91796875,1,0,0,0,130,130,24,1,,,,,,,,
,,,,,,,,,,,,,FF,,,,,,,,2.33523,,,,,,,,,,,,,,,,,,,,,,610329a74ccff557eb132122,61036f2fca5be39e19acdc77,2021-07-29_23h22.57.565,Simcolourproject_2stim_asymm_v5,2020.2.10,MacIntel,60,61025ae37ef11b136ea224fe,,,,,,,,,4033,30.46875,-75.015625,1,0,0,response3disk,,4,9.4765625,-11.546875,1,0,0,rectangle,9.4765625,-11.546875,1,0,0,9.4765625,-11.546875,1,0,0,0,131,131,158,1,,,,,,,,
,,,,,,,,,,,,,FF,,,,,,,,0.84976,,,,,,,,,,,,,,,,,,,,,,610329a74ccff557eb132122,61036f2fca5be39e19acdc77,2021-07-29_23h22.57.565,Simcolourproject_2stim_asymm_v5,2020.2.10,MacIntel,60,61025ae37ef11b136ea224fe,,,,,,,,,3817,-33.08203125,-73.1875,1,0,0,response5disk,,3,-10.546875,-12.98046875,1,0,0,rectangle,-10.546875,-12.98046875,1,0,0,-10.546875,-12.98046875,1,0,0,0,132,132,114,1,,,,,,,,
,,,,,,,,,,,,,FF,,,,,,,,0.87671,,,,,,,,,,,,,,,,,,,,,,610329a74ccff557eb132122,61036f2fca5be39e19acdc77,2021-07-29_23h22.57.565,Simcolourproject_2stim_asymm_v5,2020.2.10,MacIntel,60,61025ae37ef11b136ea224fe,,,,,,,,,4168,-78.75390625,-43.9921875,1,0,0,response5disk,,2,-10.109375,-11.53125,1,0,0,rectangle,-10.109375,-11.53125,1,0,0,-10.109375,-11.53125,1,0,0,0,133,133,87,1,,,,,,,,
,,,,,,,,,,,,,FF,,,,,,,,1.070005,,,,,,,,,,,,,,,,,,,,,,610329a74ccff557eb132122,61036f2fca5be39e19acdc77,2021-07-29_23h22.57.565,Simcolourproject_2stim_asymm_v5,2020.2.10,MacIntel,60,61025ae37ef11b136ea224fe,,,,,,,,,4140,-44.39453125,81.171875,1,0,0,response7disk,,0,-7.72265625,-6.6640625,1,0,0,rectangle,-7.72265625,-6.6640625,1,0,0,-7.72265625,-6.6640625,1,0,0,0,134,134,118,1,,,,,,,,
,,,,,,,,,,,,,FF,,,,,,,,1.53438,,,,,,,,,,,,,,,,,,,,,,610329a74ccff557eb132122,61036f2fca5be39e19acdc77,2021-07-29_23h22.57.565,Simcolourproject_2stim_asymm_v5,2020.2.10,MacIntel,60,61025ae37ef11b136ea224fe,,,,,,,,,715,69.74609375,-44.921875,1,0,0,response3disk,,5,0.75390625,2.359375,1,0,0,rectangle,0.75390625,2.359375,1,0,0,0.75390625,2.359375,1,0,0,0,135,135,71,1,,,,,,,,
,,,,,,,,,,,,,FF,,,,,,,,0.700995,,,,,,,,,,,,,,,,,,,,,,610329a74ccff557eb132122,61036f2fca5be39e19acdc77,2021-07-29_23h22.57.565,Simcolourproject_2stim_asymm_v5,2020.2.10,MacIntel,60,61025ae37ef11b136ea224fe,,,,,,,,,2104,38.90625,-73.80078125,1,0,0,response3disk,,4,8.8671875,-1.89453125,1,0,0,rectangle,8.8671875,-1.89453125,1,0,0,8.8671875,-1.89453125,1,0,0,0,136,136,90,1,,,,,,,,
,,,,,,,,,,,,,FF,,,,,,,,0.60151,,,,,,,,,,,,,,,,,,,,,,610329a74ccff557eb132122,61036f2fca5be39e19acdc77,2021-07-29_23h22.57.565,Simcolourproject_2stim_asymm_v5,2020.2.10,MacIntel,60,61025ae37ef11b136ea224fe,,,,,,,,,2518,76.90625,-42.76171875,1,0,0,response3disk,,5,4.05859375,-7.2421875,1,0,0,rectangle,4.05859375,-7.2421875,1,0,0,4.05859375,-7.2421875,1,0,0,0,137,137,47,1,,,,,,,,
,,,,,,,,,,,,,FF,,,,,,,,0.801385,,,,,,,,,,,,,,,,,,,,,,610329a74ccff557eb132122,61036f2fca5be39e19acdc77,2021-07-29_23h22.57.565,Simcolourproject_2stim_asymm_v5,2020.2.10,MacIntel,60,61025ae37ef11b136ea224fe,,,,,,,,,3670,-76.5625,-26.70703125,1,0,0,response5disk,,2,-1.84765625,-5.6640625,1,0,0,rectangle,-1.84765625,-5.6640625,1,0,0,-1.84765625,-5.6640625,1,0,0,0,138,138,1,1,,,,,,,,
,,,,,,,,,,,,,FF,,,,,,,,0.899945,,,,,,,,,,,,,,,,,,,,,,610329a74ccff557eb132122,61036f2fca5be39e19acdc77,2021-07-29_23h22.57.565,Simcolourproject_2stim_asymm_v5,2020.2.10,MacIntel,60,61025ae37ef11b136ea224fe,,,,,,,,,612,-62.76953125,-36.44140625,1,0,0,response5disk,,2,-3.92578125,-11.98828125,1,0,0,rectangle,65.69140625,-40.3359375,1,0,0,9.24609375,1.63671875,1,0,0,0,139,139,26,1,,response3disk_3,TRUE,5,5,"[148,102,71,41,184,224,317,308,140,251,229,79,208,271,298,173,196,186,125,191]",1.384015,rectangle
,,,,,,,,,,,,,FF,,,,,,,,0.746075,,,,,,,,,,,,,,,,,,,,,,610329a74ccff557eb132122,61036f2fca5be39e19acdc77,2021-07-29_23h22.57.565,Simcolourproject_2stim_asymm_v5,2020.2.10,MacIntel,60,61025ae37ef11b136ea224fe,,,,,,,,,1240,72.4453125,-39.91796875,1,0,0,response3disk,,5,9.49609375,-5.1640625,1,0,0,rectangle,9.49609375,-5.1640625,1,0,0,9.49609375,-5.1640625,1,0,0,0,140,140,54,1,,,,,,,,
,,,,,,,,,,,,,FF,,,,,,,,0.567545,,,,,,,,,,,,,,,,,,,,,,610329a74ccff557eb132122,61036f2fca5be39e19acdc77,2021-07-29_23h22.57.565,Simcolourproject_2stim_asymm_v5,2020.2.10,MacIntel,60,61025ae37ef11b136ea224fe,,,,,,,,,2578,70.515625,-38.5625,1,0,0,response3disk,,5,8.25,4.4296875,1,0,0,rectangle,8.25,4.4296875,1,0,0,8.25,4.4296875,1,0,0,0,141,141,75,1,,,,,,,,
,,,,,,,,,,,,,FF,,,,,,,,1.551375,,,,,,,,,,,,,,,,,,,,,,610329a74ccff557eb132122,61036f2fca5be39e19acdc77,2021-07-29_23h22.57.565,Simcolourproject_2stim_asymm_v5,2020.2.10,MacIntel,60,61025ae37ef11b136ea224fe,,,,,,,,,1387,69.2734375,-44.6484375,1,0,0,response3disk,,5,10.49609375,-6.8671875,1,0,0,rectangle,10.49609375,-6.8671875,1,0,0,10.49609375,-6.8671875,1,0,0,0,142,142,72,1,,,,,,,,
,,,,,,,,,,,,,FF,,,,,,,,0.785495,,,,,,,,,,,,,,,,,,,,,,610329a74ccff557eb132122,61036f2fca5be39e19acdc77,2021-07-29_23h22.57.565,Simcolourproject_2stim_asymm_v5,2020.2.10,MacIntel,60,61025ae37ef11b136ea224fe,,,,,,,,,2242,63.44140625,-81.3125,1,0,0,response3disk,,4,1.15625,0.2265625,1,0,0,rectangle,1.15625,0.2265625,1,0,0,1.15625,0.2265625,1,0,0,0,143,143,150,1,,,,,,,,
,,,,,,,,,,,,,FF,,,,,,,,0.969255,,,,,,,,,,,,,,,,,,,,,,610329a74ccff557eb132122,61036f2fca5be39e19acdc77,2021-07-29_23h22.57.565,Simcolourproject_2stim_asymm_v5,2020.2.10,MacIntel,60,61025ae37ef11b136ea224fe,,,,,,,,,1823,-26.32421875,-69.51171875,1,0,0,response5disk,,3,-12.4765625,-4.3359375,1,0,0,rectangle,-12.4765625,-4.3359375,1,0,0,-12.4765625,-4.3359375,1,0,0,0,144,144,145,1,,,,,,,,
,,,,,,,,,,,,,FF,,,,,,,,0.998875,,,,,,,,,,,,,,,,,,,,,,610329a74ccff557eb132122,61036f2fca5be39e19acdc77,2021-07-29_23h22.57.565,Simcolourproject_2stim_asymm_v5,2020.2.10,MacIntel,60,61025ae37ef11b136ea224fe,,,,,,,,,2142,79.84765625,29.2421875,1,0,0,response1disk,,6,-5.43359375,-5.71484375,1,0,0,rectangle,-5.43359375,-5.71484375,1,0,0,-5.43359375,-5.71484375,1,0,0,0,145,145,78,1,,,,,,,,
,,,,,,,,,,,,,FF,,,,,,,,1.285285,,,,,,,,,,,,,,,,,,,,,,610329a74ccff557eb132122,61036f2fca5be39e19acdc77,2021-07-29_23h22.57.565,Simcolourproject_2stim_asymm_v5,2020.2.10,MacIntel,60,61025ae37ef11b136ea224fe,,,,,,,,,3733,58.80859375,-35.9296875,1,0,0,response3disk,,5,14.27734375,-4.515625,1,0,0,rectangle,14.27734375,-4.515625,1,0,0,14.27734375,-4.515625,1,0,0,0,146,146,119,1,,,,,,,,
,,,,,,,,,,,,,FF,,,,,,,,0.78358,,,,,,,,,,,,,,,,,,,,,,610329a74ccff557eb132122,61036f2fca5be39e19acdc77,2021-07-29_23h22.57.565,Simcolourproject_2stim_asymm_v5,2020.2.10,MacIntel,60,61025ae37ef11b136ea224fe,,,,,,,,,3399,58.84375,-33.45703125,1,0,0,response3disk,,5,3.28515625,-6.0625,1,0,0,rectangle,52.91015625,-34.33984375,1,0,0,17.6328125,-3.59765625,1,0,0,0,147,147,15,1,,response3disk_3,TRUE,5,5,"[148,102,71,41,184,224,317,308,140,251,229,79,208,271,298,173,196,186,125,191]",1.18332,rectangle
,,,,,,,,,,,,,FF,,,,,,,,1.418865,,,,,,,,,,,,,,,,,,,,,,610329a74ccff557eb132122,61036f2fca5be39e19acdc77,2021-07-29_23h22.57.565,Simcolourproject_2stim_asymm_v5,2020.2.10,MacIntel,60,61025ae37ef11b136ea224fe,,,,,,,,,3617,83.23828125,16.75390625,1,0,0,response1disk,,6,14.94921875,8.9921875,1,0,0,rectangle,14.94921875,8.9921875,1,0,0,14.94921875,8.9921875,1,0,0,0,148,148,100,1,,,,,,,,
,,,,,,,,,,,,,FF,,,,,,,,1.24511,,,,,,,,,,,,,,,,,,,,,,610329a74ccff557eb132122,61036f2fca5be39e19acdc77,2021-07-29_23h22.57.565,Simcolourproject_2stim_asymm_v5,2020.2.10,MacIntel,60,61025ae37ef11b136ea224fe,,,,,,,,,3821,77.53515625,-33.8828125,1,0,0,response3disk,,5,-2.6171875,-5.21484375,1,0,0,rectangle,-2.6171875,-5.21484375,1,0,0,-2.6171875,-5.21484375,1,0,0,0,149,149,82,1,,,,,,,,
,,,,,,,,,,,,,FF,,,,,,,,0.934875,,,,,,,,,,,,,,,,,,,,,,610329a74ccff557eb132122,61036f2fca5be39e19acdc77,2021-07-29_23h22.57.565,Simcolourproject_2stim_asymm_v5,2020.2.10,MacIntel,60,61025ae37ef11b136ea224fe,,,,,,,,,486,71.5546875,43.109375,1,0,0,response1disk,,6,10.50390625,7.4921875,1,0,0,rectangle,10.50390625,7.4921875,1,0,0,10.50390625,7.4921875,1,0,0,0,150,150,95,1,,,,,,,,
,,,,,,,,,,,,,FF,,,,,,,,0.815045,,,,,,,,,,,,,,,,,,,,,,610329a74ccff557eb132122,61036f2fca5be39e19acdc77,2021-07-29_23h22.57.565,Simcolourproject_2stim_asymm_v5,2020.2.10,MacIntel,60,61025ae37ef11b136ea224fe,,,,,,,,,3389,-26.13671875,-63.5546875,1,0,0,response5disk,,3,-7.4765625,-3.3515625,1,0,0,rectangle,-7.4765625,-3.3515625,1,0,0,-7.4765625,-3.3515625,1,0,0,0,151,151,155,1,,,,,,,,
,,,,,,,,,,,,,FF,,,,,,,,1.05167,,,,,,,,,,,,,,,,,,,,,,610329a74ccff557eb132122,61036f2fca5be39e19acdc77,2021-07-29_23h22.57.565,Simcolourproject_2stim_asymm_v5,2020.2.10,MacIntel,60,61025ae37ef11b136ea224fe,,,,,,,,,1488,46.12890625,-73.43359375,1,0,0,response3disk,,4,16.12890625,-6.49609375,1,0,0,rectangle,16.12890625,-6.49609375,1,0,0,16.12890625,-6.49609375,1,0,0,0,152,152,65,1,,,,,,,,
,,,,,,,,,,,,,FF,,,,,,,,0.9963,,,,,,,,,,,,,,,,,,,,,,610329a74ccff557eb132122,61036f2fca5be39e19acdc77,2021-07-29_23h22.57.565,Simcolourproject_2stim_asymm_v5,2020.2.10,MacIntel,60,61025ae37ef11b136ea224fe,,,,,,,,,302,35.0546875,-77.7890625,1,0,0,response3disk,,4,15.4375,0.2421875,1,0,0,rectangle,15.4375,0.2421875,1,0,0,15.4375,0.2421875,1,0,0,0,153,153,36,1,,,,,,,,
,,,,,,,,,,,,,FF,,,,,,,,0.76806,,,,,,,,,,,,,,,,,,,,,,610329a74ccff557eb132122,61036f2fca5be39e19acdc77,2021-07-29_23h22.57.565,Simcolourproject_2stim_asymm_v5,2020.2.10,MacIntel,60,61025ae37ef11b136ea224fe,,,,,,,,,2361,-33.1171875,-67.75390625,1,0,0,response5disk,,3,-6.8203125,1.66796875,1,0,0,rectangle,-6.8203125,1.66796875,1,0,0,-6.8203125,1.66796875,1,0,0,0,154,154,144,1,,,,,,,,
,,,,,,,,,,,,,FF,,,,,,,,0.85769,,,,,,,,,,,,,,,,,,,,,,610329a74ccff557eb132122,61036f2fca5be39e19acdc77,2021-07-29_23h22.57.565,Simcolourproject_2stim_asymm_v5,2020.2.10,MacIntel,60,61025ae37ef11b136ea224fe,,,,,,,,,1618,-30.109375,-70.265625,1,0,0,response5disk,,3,-6.921875,-3.59765625,1,0,0,rectangle,-6.921875,-3.59765625,1,0,0,-6.921875,-3.59765625,1,0,0,0,155,155,18,1,,,,,,,,
,,,,,,,,,,,,,FF,,,,,,,,0.76668,,,,,,,,,,,,,,,,,,,,,,610329a74ccff557eb132122,61036f2fca5be39e19acdc77,2021-07-29_23h22.57.565,Simcolourproject_2stim_asymm_v5,2020.2.10,MacIntel,60,61025ae37ef11b136ea224fe,,,,,,,,,3001,44.1171875,-28.78515625,1,0,0,response3disk,,5,10.3984375,-9.26171875,1,0,0,rectangle,10.3984375,-9.26171875,1,0,0,10.3984375,-9.26171875,1,0,0,0,156,156,76,1,,,,,,,,
,,,,,,,,,,,,,FF,,,,,,,,0.77338,,,,,,,,,,,,,,,,,,,,,,610329a74ccff557eb132122,61036f2fca5be39e19acdc77,2021-07-29_23h22.57.565,Simcolourproject_2stim_asymm_v5,2020.2.10,MacIntel,60,61025ae37ef11b136ea224fe,,,,,,,,,3495,68.51171875,-33.08984375,1,0,0,response3disk,,5,12.59765625,-8.61328125,1,0,0,rectangle,12.59765625,-8.61328125,1,0,0,12.59765625,-8.61328125,1,0,0,0,157,157,107,1,,,,,,,,
,,,,,,,,,,,,,FF,,,,,,,,0.700775,,,,,,,,,,,,,,,,,,,,,,610329a74ccff557eb132122,61036f2fca5be39e19acdc77,2021-07-29_23h22.57.565,Simcolourproject_2stim_asymm_v5,2020.2.10,MacIntel,60,61025ae37ef11b136ea224fe,,,,,,,,,2261,62.875,-37.421875,1,0,0,response3disk,,5,8.83203125,-1.9453125,1,0,0,rectangle,8.83203125,-1.9453125,1,0,0,8.83203125,-1.9453125,1,0,0,0,158,158,5,1,,,,,,,,
,,,,,,,,,,,,,FF,,,,,,,,1.049745,,,,,,,,,,,,,,,,,,,,,,610329a74ccff557eb132122,61036f2fca5be39e19acdc77,2021-07-29_23h22.57.565,Simcolourproject_2stim_asymm_v5,2020.2.10,MacIntel,60,61025ae37ef11b136ea224fe,,,,,,,,,2993,-49.2109375,82.15234375,1,0,0,response7disk,,0,-5.08203125,-1.64453125,1,0,0,rectangle,-5.08203125,-1.64453125,1,0,0,-5.08203125,-1.64453125,1,0,0,0,159,159,10,1,,,,,,,,
,,,,,,,,,,,,,FF,,,,,,,,3.301615,,,,,,,,,,,,,,,,,,,,,,610329a74ccff557eb132122,61036f2fca5be39e19acdc77,2021-07-29_23h22.57.565,Simcolourproject_2stim_asymm_v5,2020.2.10,MacIntel,60,61025ae37ef11b136ea224fe,,,,,,,,,820,-31.9609375,-78.02734375,1,0,0,response5disk,,3,6.3671875,-4.703125,1,0,0,rectangle,6.3671875,-4.703125,1,0,0,6.3671875,-4.703125,1,0,0,1,0,160,107,1,,,,,,,,
,,,,,,,,,,,,,FF,,,,,,,,0.69434,,,,,,,,,,,,,,,,,,,,,,610329a74ccff557eb132122,61036f2fca5be39e19acdc77,2021-07-29_23h22.57.565,Simcolourproject_2stim_asymm_v5,2020.2.10,MacIntel,60,61025ae37ef11b136ea224fe,,,,,,,,,701,-27.08203125,-69.359375,1,0,0,response5disk,,3,7.1875,-3.05078125,1,0,0,rectangle,7.1875,-3.05078125,1,0,0,7.1875,-3.05078125,1,0,0,1,1,161,109,1,,,,,,,,
,,,,,,,,,,,,,FF,,,,,,,,0.78587,,,,,,,,,,,,,,,,,,,,,,610329a74ccff557eb132122,61036f2fca5be39e19acdc77,2021-07-29_23h22.57.565,Simcolourproject_2stim_asymm_v5,2020.2.10,MacIntel,60,61025ae37ef11b136ea224fe,,,,,,,,,202,31.390625,-67.25,1,0,0,response3disk,,4,8.34375,-10.6796875,1,0,0,rectangle,8.34375,-10.6796875,1,0,0,8.34375,-10.6796875,1,0,0,1,2,162,55,1,,,,,,,,
,,,,,,,,,,,,,FF,,,,,,,,0.60457,,,,,,,,,,,,,,,,,,,,,,610329a74ccff557eb132122,61036f2fca5be39e19acdc77,2021-07-29_23h22.57.565,Simcolourproject_2stim_asymm_v5,2020.2.10,MacIntel,60,61025ae37ef11b136ea224fe,,,,,,,,,1310,49.4609375,-70.38671875,1,0,0,response3disk,,4,15.484375,4.79296875,1,0,0,rectangle,15.484375,4.79296875,1,0,0,15.484375,4.79296875,1,0,0,1,3,163,121,1,,,,,,,,
,,,,,,,,,,,,,FF,,,,,,,,0.751085,,,,,,,,,,,,,,,,,,,,,,610329a74ccff557eb132122,61036f2fca5be39e19acdc77,2021-07-29_23h22.57.565,Simcolourproject_2stim_asymm_v5,2020.2.10,MacIntel,60,61025ae37ef11b136ea224fe,,,,,,,,,4333,33.02734375,71.72265625,1,0,0,response1disk,,7,-7.640625,-8.79296875,1,0,0,rectangle,-7.640625,-8.79296875,1,0,0,-7.640625,-8.79296875,1,0,0,1,4,164,74,1,,,,,,,,
,,,,,,,,,,,,,FF,,,,,,,,0.91869,,,,,,,,,,,,,,,,,,,,,,610329a74ccff557eb132122,61036f2fca5be39e19acdc77,2021-07-29_23h22.57.565,Simcolourproject_2stim_asymm_v5,2020.2.10,MacIntel,60,61025ae37ef11b136ea224fe,,,,,,,,,596,81.78125,30.96484375,1,0,0,response1disk,,6,13.1015625,1.83984375,1,0,0,rectangle,13.1015625,1.83984375,1,0,0,13.1015625,1.83984375,1,0,0,1,5,165,122,1,,,,,,,,
,,,,,,,,,,,,,FF,,,,,,,,0.86906,,,,,,,,,,,,,,,,,,,,,,610329a74ccff557eb132122,61036f2fca5be39e19acdc77,2021-07-29_23h22.57.565,Simcolourproject_2stim_asymm_v5,2020.2.10,MacIntel,60,61025ae37ef11b136ea224fe,,,,,,,,,3430,-31.35546875,-68.65625,1,0,0,response5disk,,3,-12.06640625,-2.69921875,1,0,0,rectangle,-12.06640625,-2.69921875,1,0,0,-12.06640625,-2.69921875,1,0,0,1,6,166,16,1,,,,,,,,
,,,,,,,,,,,,,FF,,,,,,,,0.700665,,,,,,,,,,,,,,,,,,,,,,610329a74ccff557eb132122,61036f2fca5be39e19acdc77,2021-07-29_23h22.57.565,Simcolourproject_2stim_asymm_v5,2020.2.10,MacIntel,60,61025ae37ef11b136ea224fe,,,,,,,,,1063,-32,-78.2578125,1,0,0,response5disk,,3,0.2421875,-2.6953125,1,0,0,rectangle,0.2421875,-2.6953125,1,0,0,0.2421875,-2.6953125,1,0,0,1,7,167,131,1,,,,,,,,
,,,,,,,,,,,,,FF,,,,,,,,1.02823,,,,,,,,,,,,,,,,,,,,,,610329a74ccff557eb132122,61036f2fca5be39e19acdc77,2021-07-29_23h22.57.565,Simcolourproject_2stim_asymm_v5,2020.2.10,MacIntel,60,61025ae37ef11b136ea224fe,,,,,,,,,2652,-40.55859375,-66.84765625,1,0,0,response5disk,,3,-2.38671875,4.0859375,1,0,0,rectangle,-2.38671875,4.0859375,1,0,0,-2.38671875,4.0859375,1,0,0,1,8,168,113,1,,,,,,,,
,,,,,,,,,,,,,FF,,,,,,,,0.71671,,,,,,,,,,,,,,,,,,,,,,610329a74ccff557eb132122,61036f2fca5be39e19acdc77,2021-07-29_23h22.57.565,Simcolourproject_2stim_asymm_v5,2020.2.10,MacIntel,60,61025ae37ef11b136ea224fe,,,,,,,,,1294,-33.87109375,-75.015625,1,0,0,response5disk,,3,-13.07421875,-7.44921875,1,0,0,rectangle,-13.07421875,-7.44921875,1,0,0,-13.07421875,-7.44921875,1,0,0,1,9,169,148,1,,,,,,,,
,,,,,,,,,,,,,FF,,,,,,,,1.15198,,,,,,,,,,,,,,,,,,,,,,610329a74ccff557eb132122,61036f2fca5be39e19acdc77,2021-07-29_23h22.57.565,Simcolourproject_2stim_asymm_v5,2020.2.10,MacIntel,60,61025ae37ef11b136ea224fe,,,,,,,,,768,69.52734375,-45.02734375,1,0,0,response3disk,,5,3.09375,-1.24609375,1,0,0,rectangle,3.09375,-1.24609375,1,0,0,3.09375,-1.24609375,1,0,0,1,10,170,104,1,,,,,,,,
,,,,,,,,,,,,,FF,,,,,,,,0.600165,,,,,,,,,,,,,,,,,,,,,,610329a74ccff557eb132122,61036f2fca5be39e19acdc77,2021-07-29_23h22.57.565,Simcolourproject_2stim_asymm_v5,2020.2.10,MacIntel,60,61025ae37ef11b136ea224fe,,,,,,,,,3932,44.87890625,-74.05859375,1,0,0,response3disk,,4,9.9375,-3.18359375,1,0,0,rectangle,9.9375,-3.18359375,1,0,0,9.9375,-3.18359375,1,0,0,1,11,171,8,1,,,,,,,,
,,,,,,,,,,,,,FF,,,,,,,,0.999895,,,,,,,,,,,,,,,,,,,,,,610329a74ccff557eb132122,61036f2fca5be39e19acdc77,2021-07-29_23h22.57.565,Simcolourproject_2stim_asymm_v5,2020.2.10,MacIntel,60,61025ae37ef11b136ea224fe,,,,,,,,,2049,64.32421875,-48.5390625,1,0,0,response3disk,,5,6.69140625,-1.0390625,1,0,0,rectangle,66.34765625,-51.3359375,1,0,0,12.80078125,-1.84375,1,0,0,1,12,172,111,1,,response3disk_3,TRUE,5,5,"[148,102,71,41,184,224,317,308,140,251,229,79,208,271,298,173,196,186,125,191]",1.283775,rectangle
,,,,,,,,,,,,,FF,,,,,,,,0.618205,,,,,,,,,,,,,,,,,,,,,,610329a74ccff557eb132122,61036f2fca5be39e19acdc77,2021-07-29_23h22.57.565,Simcolourproject_2stim_asymm_v5,2020.2.10,MacIntel,60,61025ae37ef11b136ea224fe,,,,,,,,,2963,76.5859375,-41.50390625,1,0,0,response3disk,,5,19.515625,-4.38671875,1,0,0,rectangle,19.515625,-4.38671875,1,0,0,19.515625,-4.38671875,1,0,0,1,13,173,134,1,,,,,,,,
,,,,,,,,,,,,,FF,,,,,,,,0.834065,,,,,,,,,,,,,,,,,,,,,,610329a74ccff557eb132122,61036f2fca5be39e19acdc77,2021-07-29_23h22.57.565,Simcolourproject_2stim_asymm_v5,2020.2.10,MacIntel,60,61025ae37ef11b136ea224fe,,,,,,,,,517,42.60546875,-69.2734375,1,0,0,response3disk,,4,8.0390625,-1.1875,1,0,0,rectangle,8.0390625,-1.1875,1,0,0,8.0390625,-1.1875,1,0,0,1,14,174,15,1,,,,,,,,
,,,,,,,,,,,,,FF,,,,,,,,0.51146,,,,,,,,,,,,,,,,,,,,,,610329a74ccff557eb132122,61036f2fca5be39e19acdc77,2021-07-29_23h22.57.565,Simcolourproject_2stim_asymm_v5,2020.2.10,MacIntel,60,61025ae37ef11b136ea224fe,,,,,,,,,2045,68.1953125,-51.60546875,1,0,0,response3disk,,5,15.66015625,1,1,0,0,rectangle,15.66015625,1,1,0,0,15.66015625,1,1,0,0,1,15,175,89,1,,,,,,,,
,,,,,,,,,,,,,FF,,,,,,,,0.61264,,,,,,,,,,,,,,,,,,,,,,610329a74ccff557eb132122,61036f2fca5be39e19acdc77,2021-07-29_23h22.57.565,Simcolourproject_2stim_asymm_v5,2020.2.10,MacIntel,60,61025ae37ef11b136ea224fe,,,,,,,,,3981,72.6640625,-34.37890625,1,0,0,response3disk,,5,10.01171875,3.4765625,1,0,0,rectangle,10.01171875,3.4765625,1,0,0,10.01171875,3.4765625,1,0,0,1,16,176,116,1,,,,,,,,
,,,,,,,,,,,,,FF,,,,,,,,1.17543,,,,,,,,,,,,,,,,,,,,,,610329a74ccff557eb132122,61036f2fca5be39e19acdc77,2021-07-29_23h22.57.565,Simcolourproject_2stim_asymm_v5,2020.2.10,MacIntel,60,61025ae37ef11b136ea224fe,,,,,,,,,2892,53.6796875,-74.3125,1,0,0,response3disk,,4,10.46484375,-2.19140625,1,0,0,rectangle,10.46484375,-2.19140625,1,0,0,10.46484375,-2.19140625,1,0,0,1,17,177,124,1,,,,,,,,
,,,,,,,,,,,,,FF,,,,,,,,0.76974,,,,,,,,,,,,,,,,,,,,,,610329a74ccff557eb132122,61036f2fca5be39e19acdc77,2021-07-29_23h22.57.565,Simcolourproject_2stim_asymm_v5,2020.2.10,MacIntel,60,61025ae37ef11b136ea224fe,,,,,,,,,1200,80.65625,-46.359375,1,0,0,response3disk,,5,-1.00390625,15.41796875,1,0,0,rectangle,-1.00390625,15.41796875,1,0,0,-1.00390625,15.41796875,1,0,0,1,18,178,146,1,,,,,,,,
,,,,,,,,,,,,,FF,,,,,,,,0.8058,,,,,,,,,,,,,,,,,,,,,,610329a74ccff557eb132122,61036f2fca5be39e19acdc77,2021-07-29_23h22.57.565,Simcolourproject_2stim_asymm_v5,2020.2.10,MacIntel,60,61025ae37ef11b136ea224fe,,,,,,,,,694,74.28125,-49,1,0,0,response3disk,,5,5.53125,2.57421875,1,0,0,rectangle,5.53125,2.57421875,1,0,0,5.53125,2.57421875,1,0,0,1,19,179,13,1,,,,,,,,
,,,,,,,,,,,,,FF,,,,,,,,0.571685,,,,,,,,,,,,,,,,,,,,,,610329a74ccff557eb132122,61036f2fca5be39e19acdc77,2021-07-29_23h22.57.565,Simcolourproject_2stim_asymm_v5,2020.2.10,MacIntel,60,61025ae37ef11b136ea224fe,,,,,,,,,3764,68.2734375,-34.40625,1,0,0,response3disk,,5,13.828125,-3.8359375,1,0,0,rectangle,13.828125,-3.8359375,1,0,0,13.828125,-3.8359375,1,0,0,1,20,180,127,1,,,,,,,,
,,,,,,,,,,,,,FF,,,,,,,,0.464855,,,,,,,,,,,,,,,,,,,,,,610329a74ccff557eb132122,61036f2fca5be39e19acdc77,2021-07-29_23h22.57.565,Simcolourproject_2stim_asymm_v5,2020.2.10,MacIntel,60,61025ae37ef11b136ea224fe,,,,,,,,,2696,71.74609375,-39.0703125,1,0,0,response3disk,,5,17.5234375,-7.5,1,0,0,rectangle,17.5234375,-7.5,1,0,0,17.5234375,-7.5,1,0,0,1,21,181,75,1,,,,,,,,
,,,,,,,,,,,,,FF,,,,,,,,0.81558,,,,,,,,,,,,,,,,,,,,,,610329a74ccff557eb132122,61036f2fca5be39e19acdc77,2021-07-29_23h22.57.565,Simcolourproject_2stim_asymm_v5,2020.2.10,MacIntel,60,61025ae37ef11b136ea224fe,,,,,,,,,4252,-40.2734375,-68.65625,1,0,0,response5disk,,3,-5.43359375,1.3515625,1,0,0,rectangle,-5.43359375,1.3515625,1,0,0,-5.43359375,1.3515625,1,0,0,1,22,182,33,1,,,,,,,,
,,,,,,,,,,,,,FF,,,,,,,,0.64752,,,,,,,,,,,,,,,,,,,,,,610329a74ccff557eb132122,61036f2fca5be39e19acdc77,2021-07-29_23h22.57.565,Simcolourproject_2stim_asymm_v5,2020.2.10,MacIntel,60,61025ae37ef11b136ea224fe,,,,,,,,,947,30.86328125,-77.84765625,1,0,0,response3disk,,4,4.046875,-15.94921875,1,0,0,rectangle,-74.765625,27.59375,1,0,0,-13.984375,-2.65234375,1,0,0,1,23,183,125,1,,response7disk_3,TRUE,1,1,"[148,102,71,41,184,224,317,308,140,251,229,79,208,271,298,173,196,186,125,191]",1.36177,rectangle
,,,,,,,,,,,,,FF,,,,,,,,1.03523,,,,,,,,,,,,,,,,,,,,,,610329a74ccff557eb132122,61036f2fca5be39e19acdc77,2021-07-29_23h22.57.565,Simcolourproject_2stim_asymm_v5,2020.2.10,MacIntel,60,61025ae37ef11b136ea224fe,,,,,,,,,1530,-49.1484375,-91.06640625,1,0,0,response5disk,,3,4.80078125,6.953125,1,0,0,rectangle,4.80078125,6.953125,1,0,0,4.80078125,6.953125,1,0,0,1,24,184,86,1,,,,,,,,
,,,,,,,,,,,,,FF,,,,,,,,0.567795,,,,,,,,,,,,,,,,,,,,,,610329a74ccff557eb132122,61036f2fca5be39e19acdc77,2021-07-29_23h22.57.565,Simcolourproject_2stim_asymm_v5,2020.2.10,MacIntel,60,61025ae37ef11b136ea224fe,,,,,,,,,1384,-43.25390625,-76.96484375,1,0,0,response5disk,,3,1.9765625,2.08203125,1,0,0,rectangle,67.1796875,31.28125,1,0,0,2.75,-6.76953125,1,0,0,1,25,185,4,1,,response1disk_3,TRUE,6,6,"[148,102,71,41,184,224,317,308,140,251,229,79,208,271,298,173,196,186,125,191]",1.18533,rectangle
,,,,,,,,,,,,,FF,,,,,,,,0.750955,,,,,,,,,,,,,,,,,,,,,,610329a74ccff557eb132122,61036f2fca5be39e19acdc77,2021-07-29_23h22.57.565,Simcolourproject_2stim_asymm_v5,2020.2.10,MacIntel,60,61025ae37ef11b136ea224fe,,,,,,,,,3648,82.1015625,-30.828125,1,0,0,response3disk,,5,0.02734375,-9.421875,1,0,0,rectangle,0.02734375,-9.421875,1,0,0,0.02734375,-9.421875,1,0,0,1,26,186,129,1,,,,,,,,
,,,,,,,,,,,,,FF,,,,,,,,0.625435,,,,,,,,,,,,,,,,,,,,,,610329a74ccff557eb132122,61036f2fca5be39e19acdc77,2021-07-29_23h22.57.565,Simcolourproject_2stim_asymm_v5,2020.2.10,MacIntel,60,61025ae37ef11b136ea224fe,,,,,,,,,1268,60.98828125,-34.08203125,1,0,0,response3disk,,5,15.9375,-3.19140625,1,0,0,rectangle,15.9375,-3.19140625,1,0,0,15.9375,-3.19140625,1,0,0,1,27,187,101,1,,,,,,,,
,,,,,,,,,,,,,FF,,,,,,,,0.650565,,,,,,,,,,,,,,,,,,,,,,610329a74ccff557eb132122,61036f2fca5be39e19acdc77,2021-07-29_23h22.57.565,Simcolourproject_2stim_asymm_v5,2020.2.10,MacIntel,60,61025ae37ef11b136ea224fe,,,,,,,,,3885,67.92578125,-38.12109375,1,0,0,response3disk,,5,4.93359375,-7.08984375,1,0,0,rectangle,4.93359375,-7.08984375,1,0,0,4.93359375,-7.08984375,1,0,0,1,28,188,43,1,,,,,,,,
,,,,,,,,,,,,,FF,,,,,,,,0.60022,,,,,,,,,,,,,,,,,,,,,,610329a74ccff557eb132122,61036f2fca5be39e19acdc77,2021-07-29_23h22.57.565,Simcolourproject_2stim_asymm_v5,2020.2.10,MacIntel,60,61025ae37ef11b136ea224fe,,,,,,,,,941,96.48046875,41.5546875,1,0,0,response1disk,,6,0.33203125,0.91796875,1,0,0,rectangle,0.33203125,0.91796875,1,0,0,0.33203125,0.91796875,1,0,0,1,29,189,88,1,,,,,,,,
,,,,,,,,,,,,,FF,,,,,,,,0.662445,,,,,,,,,,,,,,,,,,,,,,610329a74ccff557eb132122,61036f2fca5be39e19acdc77,2021-07-29_23h22.57.565,Simcolourproject_2stim_asymm_v5,2020.2.10,MacIntel,60,61025ae37ef11b136ea224fe,,,,,,,,,2893,-57.64453125,-31.515625,1,0,0,response5disk,,2,-6.296875,-10.7265625,1,0,0,rectangle,59.41796875,24.34765625,1,0,0,0.5,1.26171875,1,0,0,1,30,190,84,1,,response1disk_3,TRUE,6,6,"[148,102,71,41,184,224,317,308,140,251,229,79,208,271,298,173,196,186,125,191]",1.150145,rectangle
,,,,,,,,,,,,,FF,,,,,,,,0.596705,,,,,,,,,,,,,,,,,,,,,,610329a74ccff557eb132122,61036f2fca5be39e19acdc77,2021-07-29_23h22.57.565,Simcolourproject_2stim_asymm_v5,2020.2.10,MacIntel,60,61025ae37ef11b136ea224fe,,,,,,,,,2762,87.33984375,42.3828125,1,0,0,response1disk,,6,15.453125,11.2421875,1,0,0,rectangle,15.453125,11.2421875,1,0,0,15.453125,11.2421875,1,0,0,1,31,191,78,1,,,,,,,,
,,,,,,,,,,,,,FF,,,,,,,,1.1646,,,,,,,,,,,,,,,,,,,,,,610329a74ccff557eb132122,61036f2fca5be39e19acdc77,2021-07-29_23h22.57.565,Simcolourproject_2stim_asymm_v5,2020.2.10,MacIntel,60,61025ae37ef11b136ea224fe,,,,,,,,,4000,55.37109375,-70.85546875,1,0,0,response3disk,,4,0.71875,-7.3203125,1,0,0,rectangle,0.71875,-7.3203125,1,0,0,0.71875,-7.3203125,1,0,0,1,32,192,112,1,,,,,,,,
,,,,,,,,,,,,,FF,,,,,,,,0.69813,,,,,,,,,,,,,,,,,,,,,,610329a74ccff557eb132122,61036f2fca5be39e19acdc77,2021-07-29_23h22.57.565,Simcolourproject_2stim_asymm_v5,2020.2.10,MacIntel,60,61025ae37ef11b136ea224fe,,,,,,,,,2985,-42.7109375,-72.84765625,1,0,0,response5disk,,3,-9.17578125,-15.2578125,1,0,0,rectangle,-9.17578125,-15.2578125,1,0,0,-9.17578125,-15.2578125,1,0,0,1,33,193,159,1,,,,,,,,
,,,,,,,,,,,,,FF,,,,,,,,0.68604,,,,,,,,,,,,,,,,,,,,,,610329a74ccff557eb132122,61036f2fca5be39e19acdc77,2021-07-29_23h22.57.565,Simcolourproject_2stim_asymm_v5,2020.2.10,MacIntel,60,61025ae37ef11b136ea224fe,,,,,,,,,2421,-43.97265625,-74.98046875,1,0,0,response5disk,,3,0.0234375,-11.26953125,1,0,0,rectangle,0.0234375,-11.26953125,1,0,0,0.0234375,-11.26953125,1,0,0,1,34,194,52,1,,,,,,,,
,,,,,,,,,,,,,FF,,,,,,,,0.583075,,,,,,,,,,,,,,,,,,,,,,610329a74ccff557eb132122,61036f2fca5be39e19acdc77,2021-07-29_23h22.57.565,Simcolourproject_2stim_asymm_v5,2020.2.10,MacIntel,60,61025ae37ef11b136ea224fe,,,,,,,,,318,52.5703125,-35.2109375,1,0,0,response3disk,,5,-6.93359375,-7.48046875,1,0,0,rectangle,65.07421875,21.12109375,1,0,0,8.7578125,-4.75390625,1,0,0,1,35,195,72,1,,response1disk_3,TRUE,6,6,"[148,102,71,41,184,224,317,308,140,251,229,79,208,271,298,173,196,186,125,191]",1.13001,rectangle
,,,,,,,,,,,,,FF,,,,,,,,1.0823,,,,,,,,,,,,,,,,,,,,,,610329a74ccff557eb132122,61036f2fca5be39e19acdc77,2021-07-29_23h22.57.565,Simcolourproject_2stim_asymm_v5,2020.2.10,MacIntel,60,61025ae37ef11b136ea224fe,,,,,,,,,2,-40.703125,-76.17578125,1,0,0,response5disk,,3,-5.4296875,-2.6015625,1,0,0,rectangle,-5.4296875,-2.6015625,1,0,0,-5.4296875,-2.6015625,1,0,0,1,36,196,46,1,,,,,,,,
,,,,,,,,,,,,,FF,,,,,,,,0.54982,,,,,,,,,,,,,,,,,,,,,,610329a74ccff557eb132122,61036f2fca5be39e19acdc77,2021-07-29_23h22.57.565,Simcolourproject_2stim_asymm_v5,2020.2.10,MacIntel,60,61025ae37ef11b136ea224fe,,,,,,,,,3514,-47.03125,-88.21875,1,0,0,response5disk,,3,-6.20703125,-14.91796875,1,0,0,rectangle,-6.20703125,-14.91796875,1,0,0,-6.20703125,-14.91796875,1,0,0,1,37,197,120,1,,,,,,,,
,,,,,,,,,,,,,FF,,,,,,,,0.934995,,,,,,,,,,,,,,,,,,,,,,610329a74ccff557eb132122,61036f2fca5be39e19acdc77,2021-07-29_23h22.57.565,Simcolourproject_2stim_asymm_v5,2020.2.10,MacIntel,60,61025ae37ef11b136ea224fe,,,,,,,,,3353,89.2890625,-49.0859375,1,0,0,response3disk,,5,-1.8203125,-2.9609375,1,0,0,rectangle,-1.8203125,-2.9609375,1,0,0,-1.8203125,-2.9609375,1,0,0,1,38,198,9,1,,,,,,,,
,,,,,,,,,,,,,FF,,,,,,,,0.63834,,,,,,,,,,,,,,,,,,,,,,610329a74ccff557eb132122,61036f2fca5be39e19acdc77,2021-07-29_23h22.57.565,Simcolourproject_2stim_asymm_v5,2020.2.10,MacIntel,60,61025ae37ef11b136ea224fe,,,,,,,,,2608,38.1953125,-90.109375,1,0,0,response3disk,,4,-0.3671875,-15.578125,1,0,0,rectangle,-0.3671875,-15.578125,1,0,0,-0.3671875,-15.578125,1,0,0,1,39,199,155,1,,,,,,,,
,,,,,,,,,,,,,FF,,,,,,,,0.780095,,,,,,,,,,,,,,,,,,,,,,610329a74ccff557eb132122,61036f2fca5be39e19acdc77,2021-07-29_23h22.57.565,Simcolourproject_2stim_asymm_v5,2020.2.10,MacIntel,60,61025ae37ef11b136ea224fe,,,,,,,,,3547,41.8515625,-66.94921875,1,0,0,response3disk,,4,11.71484375,-11.70703125,1,0,0,rectangle,11.71484375,-11.70703125,1,0,0,11.71484375,-11.70703125,1,0,0,1,40,200,22,1,,,,,,,,
,,,,,,,,,,,,,FF,,,,,,,,0.93251,,,,,,,,,,,,,,,,,,,,,,610329a74ccff557eb132122,61036f2fca5be39e19acdc77,2021-07-29_23h22.57.565,Simcolourproject_2stim_asymm_v5,2020.2.10,MacIntel,60,61025ae37ef11b136ea224fe,,,,,,,,,3574,73.25390625,-46.08203125,1,0,0,response3disk,,5,9.95703125,-0.7421875,1,0,0,rectangle,9.95703125,-0.7421875,1,0,0,9.95703125,-0.7421875,1,0,0,1,41,201,34,1,,,,,,,,
,,,,,,,,,,,,,FF,,,,,,,,0.74113,,,,,,,,,,,,,,,,,,,,,,610329a74ccff557eb132122,61036f2fca5be39e19acdc77,2021-07-29_23h22.57.565,Simcolourproject_2stim_asymm_v5,2020.2.10,MacIntel,60,61025ae37ef11b136ea224fe,,,,,,,,,781,67.3203125,22.265625,1,0,0,response1disk,,6,-4.3671875,-13.3359375,1,0,0,rectangle,-4.3671875,-13.3359375,1,0,0,-4.3671875,-13.3359375,1,0,0,1,42,202,54,1,,,,,,,,
,,,,,,,,,,,,,FF,,,,,,,,0.76495,,,,,,,,,,,,,,,,,,,,,,610329a74ccff557eb132122,61036f2fca5be39e19acdc77,2021-07-29_23h22.57.565,Simcolourproject_2stim_asymm_v5,2020.2.10,MacIntel,60,61025ae37ef11b136ea224fe,,,,,,,,,359,56.6953125,17.19921875,1,0,0,response1disk,,6,7.359375,-4.59765625,1,0,0,rectangle,7.359375,-4.59765625,1,0,0,7.359375,-4.59765625,1,0,0,1,43,203,38,1,,,,,,,,
,,,,,,,,,,,,,FF,,,,,,,,0.681095,,,,,,,,,,,,,,,,,,,,,,610329a74ccff557eb132122,61036f2fca5be39e19acdc77,2021-07-29_23h22.57.565,Simcolourproject_2stim_asymm_v5,2020.2.10,MacIntel,60,61025ae37ef11b136ea224fe,,,,,,,,,2695,69.19921875,32.69140625,1,0,0,response1disk,,6,12.37890625,-0.02734375,1,0,0,rectangle,12.37890625,-0.02734375,1,0,0,12.37890625,-0.02734375,1,0,0,1,44,204,40,1,,,,,,,,
,,,,,,,,,,,,,FF,,,,,,,,0.60826,,,,,,,,,,,,,,,,,,,,,,610329a74ccff557eb132122,61036f2fca5be39e19acdc77,2021-07-29_23h22.57.565,Simcolourproject_2stim_asymm_v5,2020.2.10,MacIntel,60,61025ae37ef11b136ea224fe,,,,,,,,,2923,77.51953125,29.20703125,1,0,0,response1disk,,6,10.3828125,2.54296875,1,0,0,rectangle,10.3828125,2.54296875,1,0,0,10.3828125,2.54296875,1,0,0,1,45,205,31,1,,,,,,,,
,,,,,,,,,,,,,FF,,,,,,,,0.884745,,,,,,,,,,,,,,,,,,,,,,610329a74ccff557eb132122,61036f2fca5be39e19acdc77,2021-07-29_23h22.57.565,Simcolourproject_2stim_asymm_v5,2020.2.10,MacIntel,60,61025ae37ef11b136ea224fe,,,,,,,,,749,76.9296875,-49.69921875,1,0,0,response3disk,,5,18.7421875,0.375,1,0,0,rectangle,18.7421875,0.375,1,0,0,18.7421875,0.375,1,0,0,1,46,206,130,1,,,,,,,,
,,,,,,,,,,,,,FF,,,,,,,,0.79702,,,,,,,,,,,,,,,,,,,,,,610329a74ccff557eb132122,61036f2fca5be39e19acdc77,2021-07-29_23h22.57.565,Simcolourproject_2stim_asymm_v5,2020.2.10,MacIntel,60,61025ae37ef11b136ea224fe,,,,,,,,,520,90.8203125,-36.671875,1,0,0,response3disk,,5,18.53125,-5.62109375,1,0,0,rectangle,-77.4453125,44.41015625,1,0,0,-27.11328125,5.69140625,1,0,0,1,47,207,24,1,,response7disk_3,TRUE,1,1,"[148,102,71,41,184,224,317,308,140,251,229,79,208,271,298,173,196,186,125,191]",1.349025,rectangle
,,,,,,,,,,,,,FF,,,,,,,,1.514865,,,,,,,,,,,,,,,,,,,,,,610329a74ccff557eb132122,61036f2fca5be39e19acdc77,2021-07-29_23h22.57.565,Simcolourproject_2stim_asymm_v5,2020.2.10,MacIntel,60,61025ae37ef11b136ea224fe,,,,,,,,,4327,-77.9453125,30.67578125,1,0,0,response7disk,,1,-8.18359375,-1.4140625,1,0,0,rectangle,-8.18359375,-1.4140625,1,0,0,-8.18359375,-1.4140625,1,0,0,1,48,208,68,1,,,,,,,,
,,,,,,,,,,,,,FF,,,,,,,,0.83447,,,,,,,,,,,,,,,,,,,,,,610329a74ccff557eb132122,61036f2fca5be39e19acdc77,2021-07-29_23h22.57.565,Simcolourproject_2stim_asymm_v5,2020.2.10,MacIntel,60,61025ae37ef11b136ea224fe,,,,,,,,,2014,87.12890625,32.94140625,1,0,0,response1disk,,6,28.91796875,13.234375,1,0,0,rectangle,28.91796875,13.234375,1,0,0,28.91796875,13.234375,1,0,0,1,49,209,71,1,,,,,,,,
,,,,,,,,,,,,,FF,,,,,,,,0.518635,,,,,,,,,,,,,,,,,,,,,,610329a74ccff557eb132122,61036f2fca5be39e19acdc77,2021-07-29_23h22.57.565,Simcolourproject_2stim_asymm_v5,2020.2.10,MacIntel,60,61025ae37ef11b136ea224fe,,,,,,,,,2567,70.73828125,35.50390625,1,0,0,response1disk,,6,-2.87890625,-2.62890625,1,0,0,rectangle,-2.87890625,-2.62890625,1,0,0,-2.87890625,-2.62890625,1,0,0,1,50,210,70,1,,,,,,,,
,,,,,,,,,,,,,FF,,,,,,,,0.716475,,,,,,,,,,,,,,,,,,,,,,610329a74ccff557eb132122,61036f2fca5be39e19acdc77,2021-07-29_23h22.57.565,Simcolourproject_2stim_asymm_v5,2020.2.10,MacIntel,60,61025ae37ef11b136ea224fe,,,,,,,,,1783,90.12109375,-29.69921875,1,0,0,response3disk,,5,2.39453125,-13.9140625,1,0,0,rectangle,2.39453125,-13.9140625,1,0,0,2.39453125,-13.9140625,1,0,0,1,51,211,100,1,,,,,,,,
,,,,,,,,,,,,,FF,,,,,,,,0.48607,,,,,,,,,,,,,,,,,,,,,,610329a74ccff557eb132122,61036f2fca5be39e19acdc77,2021-07-29_23h22.57.565,Simcolourproject_2stim_asymm_v5,2020.2.10,MacIntel,60,61025ae37ef11b136ea224fe,,,,,,,,,992,74.8125,-39.28515625,1,0,0,response3disk,,5,10.67578125,-0.7109375,1,0,0,rectangle,10.67578125,-0.7109375,1,0,0,10.67578125,-0.7109375,1,0,0,1,52,212,32,1,,,,,,,,
,,,,,,,,,,,,,FF,,,,,,,,0.6644,,,,,,,,,,,,,,,,,,,,,,610329a74ccff557eb132122,61036f2fca5be39e19acdc77,2021-07-29_23h22.57.565,Simcolourproject_2stim_asymm_v5,2020.2.10,MacIntel,60,61025ae37ef11b136ea224fe,,,,,,,,,3512,44.6796875,-70.80859375,1,0,0,response3disk,,4,13.53125,1.11328125,1,0,0,rectangle,13.53125,1.11328125,1,0,0,13.53125,1.11328125,1,0,0,1,53,213,45,1,,,,,,,,
,,,,,,,,,,,,,FF,,,,,,,,1.405005,,,,,,,,,,,,,,,,,,,,,,610329a74ccff557eb132122,61036f2fca5be39e19acdc77,2021-07-29_23h22.57.565,Simcolourproject_2stim_asymm_v5,2020.2.10,MacIntel,60,61025ae37ef11b136ea224fe,,,,,,,,,1493,77,-46.43359375,1,0,0,response3disk,,5,14.92578125,-4.55078125,1,0,0,rectangle,14.92578125,-4.55078125,1,0,0,14.92578125,-4.55078125,1,0,0,1,54,214,30,1,,,,,,,,
,,,,,,,,,,,,,FF,,,,,,,,0.58505,,,,,,,,,,,,,,,,,,,,,,610329a74ccff557eb132122,61036f2fca5be39e19acdc77,2021-07-29_23h22.57.565,Simcolourproject_2stim_asymm_v5,2020.2.10,MacIntel,60,61025ae37ef11b136ea224fe,,,,,,,,,725,71.36328125,-40.23046875,1,0,0,response3disk,,5,9.09765625,3.765625,1,0,0,rectangle,9.09765625,3.765625,1,0,0,9.09765625,3.765625,1,0,0,1,55,215,80,1,,,,,,,,
,,,,,,,,,,,,,FF,,,,,,,,0.584035,,,,,,,,,,,,,,,,,,,,,,610329a74ccff557eb132122,61036f2fca5be39e19acdc77,2021-07-29_23h22.57.565,Simcolourproject_2stim_asymm_v5,2020.2.10,MacIntel,60,61025ae37ef11b136ea224fe,,,,,,,,,390,59.953125,-37.4140625,1,0,0,response3disk,,5,14.23828125,-4.5859375,1,0,0,rectangle,14.23828125,-4.5859375,1,0,0,14.23828125,-4.5859375,1,0,0,1,56,216,158,1,,,,,,,,
,,,,,,,,,,,,,FF,,,,,,,,1.071475,,,,,,,,,,,,,,,,,,,,,,610329a74ccff557eb132122,61036f2fca5be39e19acdc77,2021-07-29_23h22.57.565,Simcolourproject_2stim_asymm_v5,2020.2.10,MacIntel,60,61025ae37ef11b136ea224fe,,,,,,,,,1062,39.8046875,-69.76171875,1,0,0,response3disk,,4,0.5703125,-2.51171875,1,0,0,rectangle,0.5703125,-2.51171875,1,0,0,0.5703125,-2.51171875,1,0,0,1,57,217,79,1,,,,,,,,
,,,,,,,,,,,,,FF,,,,,,,,0.792825,,,,,,,,,,,,,,,,,,,,,,610329a74ccff557eb132122,61036f2fca5be39e19acdc77,2021-07-29_23h22.57.565,Simcolourproject_2stim_asymm_v5,2020.2.10,MacIntel,60,61025ae37ef11b136ea224fe,,,,,,,,,3483,66.08984375,-49.78515625,1,0,0,response3disk,,5,-3.05078125,-0.1875,1,0,0,rectangle,-3.05078125,-0.1875,1,0,0,-3.05078125,-0.1875,1,0,0,1,58,218,142,1,,,,,,,,
,,,,,,,,,,,,,FF,,,,,,,,0.634715,,,,,,,,,,,,,,,,,,,,,,610329a74ccff557eb132122,61036f2fca5be39e19acdc77,2021-07-29_23h22.57.565,Simcolourproject_2stim_asymm_v5,2020.2.10,MacIntel,60,61025ae37ef11b136ea224fe,,,,,,,,,4130,60.72265625,-35.25,1,0,0,response3disk,,5,6.6015625,-9.0625,1,0,0,rectangle,6.6015625,-9.0625,1,0,0,6.6015625,-9.0625,1,0,0,1,59,219,94,1,,,,,,,,
,,,,,,,,,,,,,FF,,,,,,,,0.635685,,,,,,,,,,,,,,,,,,,,,,610329a74ccff557eb132122,61036f2fca5be39e19acdc77,2021-07-29_23h22.57.565,Simcolourproject_2stim_asymm_v5,2020.2.10,MacIntel,60,61025ae37ef11b136ea224fe,,,,,,,,,3075,71.74609375,-34.8359375,1,0,0,response3disk,,5,12.296875,-6.859375,1,0,0,rectangle,12.296875,-6.859375,1,0,0,12.296875,-6.859375,1,0,0,1,60,220,99,1,,,,,,,,
,,,,,,,,,,,,,FF,,,,,,,,0.78885,,,,,,,,,,,,,,,,,,,,,,610329a74ccff557eb132122,61036f2fca5be39e19acdc77,2021-07-29_23h22.57.565,Simcolourproject_2stim_asymm_v5,2020.2.10,MacIntel,60,61025ae37ef11b136ea224fe,,,,,,,,,3255,41.1953125,-66.55078125,1,0,0,response3disk,,4,12.73828125,-7.40625,1,0,0,rectangle,12.73828125,-7.40625,1,0,0,12.73828125,-7.40625,1,0,0,1,61,221,20,1,,,,,,,,
,,,,,,,,,,,,,FF,,,,,,,,0.619475,,,,,,,,,,,,,,,,,,,,,,610329a74ccff557eb132122,61036f2fca5be39e19acdc77,2021-07-29_23h22.57.565,Simcolourproject_2stim_asymm_v5,2020.2.10,MacIntel,60,61025ae37ef11b136ea224fe,,,,,,,,,570,35.78125,-69.35546875,1,0,0,response3disk,,4,9.5625,-0.640625,1,0,0,rectangle,9.5625,-0.640625,1,0,0,9.5625,-0.640625,1,0,0,1,62,222,93,1,,,,,,,,
,,,,,,,,,,,,,FF,,,,,,,,0.551115,,,,,,,,,,,,,,,,,,,,,,610329a74ccff557eb132122,61036f2fca5be39e19acdc77,2021-07-29_23h22.57.565,Simcolourproject_2stim_asymm_v5,2020.2.10,MacIntel,60,61025ae37ef11b136ea224fe,,,,,,,,,4155,73.7265625,-34.23828125,1,0,0,response3disk,,5,9.40234375,-10.94140625,1,0,0,rectangle,66.84375,-52.046875,1,0,0,6.12890625,-12.76171875,1,0,0,1,63,223,58,1,,response3disk_3,TRUE,5,5,"[148,102,71,41,184,224,317,308,140,251,229,79,208,271,298,173,196,186,125,191]",1.38453,rectangle
,,,,,,,,,,,,,FF,,,,,,,,1.5145,,,,,,,,,,,,,,,,,,,,,,610329a74ccff557eb132122,61036f2fca5be39e19acdc77,2021-07-29_23h22.57.565,Simcolourproject_2stim_asymm_v5,2020.2.10,MacIntel,60,61025ae37ef11b136ea224fe,,,,,,,,,1058,-27.05859375,-59.46875,1,0,0,response5disk,,3,6.46484375,-1.6953125,1,0,0,rectangle,6.46484375,-1.6953125,1,0,0,6.46484375,-1.6953125,1,0,0,1,64,224,39,1,,,,,,,,
,,,,,,,,,,,,,FF,,,,,,,,0.93237,,,,,,,,,,,,,,,,,,,,,,610329a74ccff557eb132122,61036f2fca5be39e19acdc77,2021-07-29_23h22.57.565,Simcolourproject_2stim_asymm_v5,2020.2.10,MacIntel,60,61025ae37ef11b136ea224fe,,,,,,,,,1542,-28.51171875,-73.0390625,1,0,0,response5disk,,3,-9.08203125,-8.59375,1,0,0,rectangle,-9.08203125,-8.59375,1,0,0,-9.08203125,-8.59375,1,0,0,1,65,225,23,1,,,,,,,,
,,,,,,,,,,,,,FF,,,,,,,,1.068315,,,,,,,,,,,,,,,,,,,,,,610329a74ccff557eb132122,61036f2fca5be39e19acdc77,2021-07-29_23h22.57.565,Simcolourproject_2stim_asymm_v5,2020.2.10,MacIntel,60,61025ae37ef11b136ea224fe,,,,,,,,,2052,83.42578125,-48.828125,1,0,0,response3disk,,5,1.03125,-10.54296875,1,0,0,rectangle,1.03125,-10.54296875,1,0,0,1.03125,-10.54296875,1,0,0,1,66,226,152,1,,,,,,,,
,,,,,,,,,,,,,FF,,,,,,,,1.350175,,,,,,,,,,,,,,,,,,,,,,610329a74ccff557eb132122,61036f2fca5be39e19acdc77,2021-07-29_23h22.57.565,Simcolourproject_2stim_asymm_v5,2020.2.10,MacIntel,60,61025ae37ef11b136ea224fe,,,,,,,,,3426,-69.41015625,-42.328125,1,0,0,response5disk,,2,5.94921875,-9.75390625,1,0,0,rectangle,5.94921875,-9.75390625,1,0,0,5.94921875,-9.75390625,1,0,0,1,67,227,51,1,,,,,,,,
,,,,,,,,,,,,,FF,,,,,,,,0.649675,,,,,,,,,,,,,,,,,,,,,,610329a74ccff557eb132122,61036f2fca5be39e19acdc77,2021-07-29_23h22.57.565,Simcolourproject_2stim_asymm_v5,2020.2.10,MacIntel,60,61025ae37ef11b136ea224fe,,,,,,,,,2314,61.04296875,-82.24609375,1,0,0,response3disk,,4,0.625,9.52734375,1,0,0,rectangle,67.49609375,-41.65625,1,0,0,2.2265625,-2.7578125,1,0,0,1,68,228,90,1,,response3disk_3,TRUE,5,5,"[148,102,71,41,184,224,317,308,140,251,229,79,208,271,298,173,196,186,125,191]",1.233325,rectangle
,,,,,,,,,,,,,FF,,,,,,,,0.56786,,,,,,,,,,,,,,,,,,,,,,610329a74ccff557eb132122,61036f2fca5be39e19acdc77,2021-07-29_23h22.57.565,Simcolourproject_2stim_asymm_v5,2020.2.10,MacIntel,60,61025ae37ef11b136ea224fe,,,,,,,,,2903,69.41796875,-35.49609375,1,0,0,response3disk,,5,12.58203125,-9.15234375,1,0,0,rectangle,12.58203125,-9.15234375,1,0,0,12.58203125,-9.15234375,1,0,0,1,69,229,42,1,,,,,,,,
,,,,,,,,,,,,,FF,,,,,,,,0.7174,,,,,,,,,,,,,,,,,,,,,,610329a74ccff557eb132122,61036f2fca5be39e19acdc77,2021-07-29_23h22.57.565,Simcolourproject_2stim_asymm_v5,2020.2.10,MacIntel,60,61025ae37ef11b136ea224fe,,,,,,,,,3372,76.58203125,22.92578125,1,0,0,response1disk,,6,1.0078125,-0.09765625,1,0,0,rectangle,1.0078125,-0.09765625,1,0,0,1.0078125,-0.09765625,1,0,0,1,70,230,157,1,,,,,,,,
,,,,,,,,,,,,,FF,,,,,,,,2.26802,,,,,,,,,,,,,,,,,,,,,,610329a74ccff557eb132122,61036f2fca5be39e19acdc77,2021-07-29_23h22.57.565,Simcolourproject_2stim_asymm_v5,2020.2.10,MacIntel,60,61025ae37ef11b136ea224fe,,,,,,,,,3676,-24.484375,-75.29296875,1,0,0,response5disk,,3,-1.76171875,-2.50390625,1,0,0,rectangle,-1.76171875,-2.50390625,1,0,0,-1.76171875,-2.50390625,1,0,0,1,71,231,36,1,,,,,,,,
,,,,,,,,,,,,,FF,,,,,,,,1.08037,,,,,,,,,,,,,,,,,,,,,,610329a74ccff557eb132122,61036f2fca5be39e19acdc77,2021-07-29_23h22.57.565,Simcolourproject_2stim_asymm_v5,2020.2.10,MacIntel,60,61025ae37ef11b136ea224fe,,,,,,,,,3096,-46.36328125,77.734375,1,0,0,response7disk,,0,7.125,1.31640625,1,0,0,rectangle,7.125,1.31640625,1,0,0,7.125,1.31640625,1,0,0,1,72,232,103,1,,,,,,,,
,,,,,,,,,,,,,FF,,,,,,,,0.96708,,,,,,,,,,,,,,,,,,,,,,610329a74ccff557eb132122,61036f2fca5be39e19acdc77,2021-07-29_23h22.57.565,Simcolourproject_2stim_asymm_v5,2020.2.10,MacIntel,60,61025ae37ef11b136ea224fe,,,,,,,,,174,-72.44921875,-31.99609375,1,0,0,response5disk,,2,-6.421875,0.4375,1,0,0,rectangle,-6.421875,0.4375,1,0,0,-6.421875,0.4375,1,0,0,1,73,233,29,1,,,,,,,,
,,,,,,,,,,,,,FF,,,,,,,,0.803445,,,,,,,,,,,,,,,,,,,,,,610329a74ccff557eb132122,61036f2fca5be39e19acdc77,2021-07-29_23h22.57.565,Simcolourproject_2stim_asymm_v5,2020.2.10,MacIntel,60,61025ae37ef11b136ea224fe,,,,,,,,,3450,72.90625,-47.234375,1,0,0,response3disk,,5,5.1875,-3.72265625,1,0,0,rectangle,5.1875,-3.72265625,1,0,0,5.1875,-3.72265625,1,0,0,1,74,234,96,1,,,,,,,,
,,,,,,,,,,,,,FF,,,,,,,,0.949085,,,,,,,,,,,,,,,,,,,,,,610329a74ccff557eb132122,61036f2fca5be39e19acdc77,2021-07-29_23h22.57.565,Simcolourproject_2stim_asymm_v5,2020.2.10,MacIntel,60,61025ae37ef11b136ea224fe,,,,,,,,,2350,85.1640625,37.90625,1,0,0,response1disk,,6,-9.234375,-9.359375,1,0,0,rectangle,-9.234375,-9.359375,1,0,0,-9.234375,-9.359375,1,0,0,1,75,235,6,1,,,,,,,,
,,,,,,,,,,,,,FF,,,,,,,,0.75112,,,,,,,,,,,,,,,,,,,,,,610329a74ccff557eb132122,61036f2fca5be39e19acdc77,2021-07-29_23h22.57.565,Simcolourproject_2stim_asymm_v5,2020.2.10,MacIntel,60,61025ae37ef11b136ea224fe,,,,,,,,,3573,61.39453125,26.9609375,1,0,0,response1disk,,6,9.5390625,11.37109375,1,0,0,rectangle,9.5390625,11.37109375,1,0,0,9.5390625,11.37109375,1,0,0,1,76,236,41,1,,,,,,,,
,,,,,,,,,,,,,FF,,,,,,,,0.5686,,,,,,,,,,,,,,,,,,,,,,610329a74ccff557eb132122,61036f2fca5be39e19acdc77,2021-07-29_23h22.57.565,Simcolourproject_2stim_asymm_v5,2020.2.10,MacIntel,60,61025ae37ef11b136ea224fe,,,,,,,,,1649,104.3867188,51.5703125,1,0,0,response1disk,,6,18.54296875,8.1796875,1,0,0,rectangle,18.54296875,8.1796875,1,0,0,18.54296875,8.1796875,1,0,0,1,77,237,151,1,,,,,,,,
,,,,,,,,,,,,,FF,,,,,,,,1.024235,,,,,,,,,,,,,,,,,,,,,,610329a74ccff557eb132122,61036f2fca5be39e19acdc77,2021-07-29_23h22.57.565,Simcolourproject_2stim_asymm_v5,2020.2.10,MacIntel,60,61025ae37ef11b136ea224fe,,,,,,,,,529,38.10546875,-82.6328125,1,0,0,response3disk,,4,5.640625,-7.50390625,1,0,0,rectangle,5.640625,-7.50390625,1,0,0,5.640625,-7.50390625,1,0,0,1,78,238,27,1,,,,,,,,
,,,,,,,,,,,,,FF,,,,,,,,0.734415,,,,,,,,,,,,,,,,,,,,,,610329a74ccff557eb132122,61036f2fca5be39e19acdc77,2021-07-29_23h22.57.565,Simcolourproject_2stim_asymm_v5,2020.2.10,MacIntel,60,61025ae37ef11b136ea224fe,,,,,,,,,3767,46.40625,74.01171875,1,0,0,response1disk,,7,18.71484375,-4.54296875,1,0,0,rectangle,18.71484375,-4.54296875,1,0,0,18.71484375,-4.54296875,1,0,0,1,79,239,63,1,,,,,,,,
,,,,,,,,,,,,,FF,,,,,,,,0.801645,,,,,,,,,,,,,,,,,,,,,,610329a74ccff557eb132122,61036f2fca5be39e19acdc77,2021-07-29_23h22.57.565,Simcolourproject_2stim_asymm_v5,2020.2.10,MacIntel,60,61025ae37ef11b136ea224fe,,,,,,,,,1970,-63.37109375,-45.1953125,1,0,0,response5disk,,2,7.69140625,-13.9140625,1,0,0,rectangle,7.69140625,-13.9140625,1,0,0,7.69140625,-13.9140625,1,0,0,1,80,240,97,1,,,,,,,,
,,,,,,,,,,,,,FF,,,,,,,,0.632165,,,,,,,,,,,,,,,,,,,,,,610329a74ccff557eb132122,61036f2fca5be39e19acdc77,2021-07-29_23h22.57.565,Simcolourproject_2stim_asymm_v5,2020.2.10,MacIntel,60,61025ae37ef11b136ea224fe,,,,,,,,,4096,-67.46875,-43.52734375,1,0,0,response5disk,,2,-0.9609375,-9.75390625,1,0,0,rectangle,-0.9609375,-9.75390625,1,0,0,-0.9609375,-9.75390625,1,0,0,1,81,241,35,1,,,,,,,,
,,,,,,,,,,,,,FF,,,,,,,,1.6024,,,,,,,,,,,,,,,,,,,,,,610329a74ccff557eb132122,61036f2fca5be39e19acdc77,2021-07-29_23h22.57.565,Simcolourproject_2stim_asymm_v5,2020.2.10,MacIntel,60,61025ae37ef11b136ea224fe,,,,,,,,,1564,37.85546875,-83.0546875,1,0,0,response3disk,,4,7.96484375,-8.01953125,1,0,0,rectangle,7.96484375,-8.01953125,1,0,0,7.96484375,-8.01953125,1,0,0,1,82,242,5,1,,,,,,,,
,,,,,,,,,,,,,FF,,,,,,,,0.58991,,,,,,,,,,,,,,,,,,,,,,610329a74ccff557eb132122,61036f2fca5be39e19acdc77,2021-07-29_23h22.57.565,Simcolourproject_2stim_asymm_v5,2020.2.10,MacIntel,60,61025ae37ef11b136ea224fe,,,,,,,,,2329,63.22265625,-46.19140625,1,0,0,response3disk,,5,7.3984375,-1.2578125,1,0,0,rectangle,7.3984375,-1.2578125,1,0,0,7.3984375,-1.2578125,1,0,0,1,83,243,0,1,,,,,,,,
,,,,,,,,,,,,,FF,,,,,,,,0.834315,,,,,,,,,,,,,,,,,,,,,,610329a74ccff557eb132122,61036f2fca5be39e19acdc77,2021-07-29_23h22.57.565,Simcolourproject_2stim_asymm_v5,2020.2.10,MacIntel,60,61025ae37ef11b136ea224fe,,,,,,,,,981,46.48828125,-82.78515625,1,0,0,response3disk,,4,11.640625,0.8359375,1,0,0,rectangle,11.640625,0.8359375,1,0,0,11.640625,0.8359375,1,0,0,1,84,244,73,1,,,,,,,,
,,,,,,,,,,,,,FF,,,,,,,,0.684605,,,,,,,,,,,,,,,,,,,,,,610329a74ccff557eb132122,61036f2fca5be39e19acdc77,2021-07-29_23h22.57.565,Simcolourproject_2stim_asymm_v5,2020.2.10,MacIntel,60,61025ae37ef11b136ea224fe,,,,,,,,,491,37.85546875,-83.3828125,1,0,0,response3disk,,4,8.5390625,5.4375,1,0,0,rectangle,8.5390625,5.4375,1,0,0,8.5390625,5.4375,1,0,0,1,85,245,106,1,,,,,,,,
,,,,,,,,,,,,,FF,,,,,,,,1.617655,,,,,,,,,,,,,,,,,,,,,,610329a74ccff557eb132122,61036f2fca5be39e19acdc77,2021-07-29_23h22.57.565,Simcolourproject_2stim_asymm_v5,2020.2.10,MacIntel,60,61025ae37ef11b136ea224fe,,,,,,,,,67,82.60546875,-34.92578125,1,0,0,response3disk,,5,12.390625,-0.12109375,1,0,0,rectangle,12.390625,-0.12109375,1,0,0,12.390625,-0.12109375,1,0,0,1,86,246,85,1,,,,,,,,
