key_resp.keys,key_resp.rt,key_resp_14.keys,key_resp_14.rt,key_resp_15.keys,key_resp_15.rt,key_resp_17.keys,key_resp_17.rt,key_resp_9.keys,key_resp_9.rt,key_resp_10.keys,key_resp_10.rt,practice_comparison,Ecc,mouse_5.x,mouse_5.y,mouse_5.leftButton,mouse_5.midButton,mouse_5.rightButton,mouse_5.clicked_name,pracsimilarity,response_time,mouse_10.x,mouse_10.y,mouse_10.leftButton,mouse_10.midButton,mouse_10.rightButton,mouse_10.clicked_name,mouse_7.x,mouse_7.y,mouse_7.leftButton,mouse_7.midButton,mouse_7.rightButton,mouse_6.x,mouse_6.y,mouse_6.leftButton,mouse_6.midButton,mouse_6.rightButton,duringprac.thisRepN,duringprac.thisTrialN,duringprac.thisN,duringprac.thisIndex,duringprac.ran,participant,session,date,expName,psychopyVersion,OS,frameRate,study_id,mouse_7.clicked_name,catchpracsimilarity,catch_response_time,catchnumberprac,catchtrialorderprac,mouse_6.clicked_name,key_resp_22.keys,key_resp_22.rt,realcomparison,mouse.x,mouse.y,mouse.leftButton,mouse.midButton,mouse.rightButton,mouse.clicked_name,Colour2,similarity,mouse_2.x,mouse_2.y,mouse_2.leftButton,mouse_2.midButton,mouse_2.rightButton,mouse_2.clicked_name,mouse_3.x,mouse_3.y,mouse_3.leftButton,mouse_3.midButton,mouse_3.rightButton,mouse_11.x,mouse_11.y,mouse_11.leftButton,mouse_11.midButton,mouse_11.rightButton,trials_2.thisRepN,trials_2.thisTrialN,trials_2.thisN,trials_2.thisIndex,trials_2.ran,Colour1,mouse_3.clicked_name,catchornah,catchsimilarity,catchnumber,catchtrialorder,catchRT,mouse_11.clicked_name
space,5.532,space,7.431,space,18.994,space,4.233,space,2.394,space,5.781,139,FF,56,104,1,0,0,response1disk_5,7,14.199,4,5,1,0,0,rectangle_8,4,5,1,0,0,4,5,1,0,0,0,0,0,0,1,610363c0fdfd44b94488e6ef,61036fa0c4c2a383a6c91529,2021-07-29_22h20.20.877,Simcolourproject_2stim_asymm_v5,2020.2.10,MacIntel,60,61025ae37ef11b136ea224fe,,,,,,,,,,,,,,,,,,,,,,,,,,,,,,,,,,,,,,,,,,,,,,
,,,,,,,,,,,,34,FF,80,55,1,0,0,response1disk_5,6,23.051,-8,-2,1,0,0,rectangle_8,57,-42,1,0,0,8,-3,1,0,0,0,1,1,5,1,610363c0fdfd44b94488e6ef,61036fa0c4c2a383a6c91529,2021-07-29_22h20.20.877,Simcolourproject_2stim_asymm_v5,2020.2.10,MacIntel,60,61025ae37ef11b136ea224fe,response3disk_7,5,3.583,5,"[2,5]",rectangle_4,,,,,,,,,,,,,,,,,,,,,,,,,,,,,,,,,,,,,,,,
,,,,,,,,,,,,66,PF,-39,-70,1,0,0,response5disk_5,3,1.816,4,1,0,0,1,rectangle_8,4,1,0,0,1,4,1,0,0,1,0,2,2,1,1,610363c0fdfd44b94488e6ef,61036fa0c4c2a383a6c91529,2021-07-29_22h20.20.877,Simcolourproject_2stim_asymm_v5,2020.2.10,MacIntel,60,61025ae37ef11b136ea224fe,,,,,,,,,,,,,,,,,,,,,,,,,,,,,,,,,,,,,,,,,,,,,,
,,,,,,,,,,,,155,PF,54,-78,1,0,1,response3disk_5,4,6.499,5,-10,1,0,1,rectangle_8,5,-10,1,0,1,5,-10,1,0,1,0,3,3,6,1,610363c0fdfd44b94488e6ef,61036fa0c4c2a383a6c91529,2021-07-29_22h20.20.877,Simcolourproject_2stim_asymm_v5,2020.2.10,MacIntel,60,61025ae37ef11b136ea224fe,,,,,,,,,,,,,,,,,,,,,,,,,,,,,,,,,,,,,,,,,,,,,,
,,,,,,,,,,,,124,PF,50,-27,1,0,1,response3disk_5,5,4.932,1,-8,1,0,1,rectangle_8,77,-25,1,0,1,15,-6,1,0,1,0,4,4,4,1,610363c0fdfd44b94488e6ef,61036fa0c4c2a383a6c91529,2021-07-29_22h20.20.877,Simcolourproject_2stim_asymm_v5,2020.2.10,MacIntel,60,61025ae37ef11b136ea224fe,response3disk_7,5,1.666,5,"[2,5]",rectangle_4,,,,,,,,,,,,,,,,,,,,,,,,,,,,,,,,,,,,,,,,
,,,,,,,,,,,,77,PF,-75,-51,1,0,1,response5disk_5,2,1.986,11,1,1,0,1,rectangle_8,11,1,1,0,1,11,1,1,0,1,0,5,5,2,1,610363c0fdfd44b94488e6ef,61036fa0c4c2a383a6c91529,2021-07-29_22h20.20.877,Simcolourproject_2stim_asymm_v5,2020.2.10,MacIntel,60,61025ae37ef11b136ea224fe,,,,,,,,,,,,,,,,,,,,,,,,,,,,,,,,,,,,,,,,,,,,,,
,,,,,,,,,,,,37,FF,22,-30,1,0,1,response3disk_5,4,2.566,8,-5,1,0,1,rectangle_8,8,-5,1,0,1,8,-5,1,0,1,0,6,6,3,1,610363c0fdfd44b94488e6ef,61036fa0c4c2a383a6c91529,2021-07-29_22h20.20.877,Simcolourproject_2stim_asymm_v5,2020.2.10,MacIntel,60,61025ae37ef11b136ea224fe,,,,,,,,,,,,,,,,,,,,,,,,,,,,,,,,,,,,,,,,,,,,,,
,,,,,,,,,,,,,FF,,,,,,,,3.783,,,,,,,,,,,,,,,,,,,,,,610363c0fdfd44b94488e6ef,61036fa0c4c2a383a6c91529,2021-07-29_22h20.20.877,Simcolourproject_2stim_asymm_v5,2020.2.10,MacIntel,60,61025ae37ef11b136ea224fe,,,,,,,space,39.801,16,-45,-74,1,0,1,response5disk,,3,2,-3,1,0,1,rectangle,2,-3,1,0,1,2,-3,1,0,1,0,0,0,16,1,,,,,,,,
,,,,,,,,,,,,,FF,,,,,,,,5.482,,,,,,,,,,,,,,,,,,,,,,610363c0fdfd44b94488e6ef,61036fa0c4c2a383a6c91529,2021-07-29_22h20.20.877,Simcolourproject_2stim_asymm_v5,2020.2.10,MacIntel,60,61025ae37ef11b136ea224fe,,,,,,,,,1175,72,-35,1,0,1,response3disk,,5,-10,11,1,0,1,rectangle,-10,11,1,0,1,-10,11,1,0,1,0,1,1,104,1,,,,,,,,
,,,,,,,,,,,,,FF,,,,,,,,2.15,,,,,,,,,,,,,,,,,,,,,,610363c0fdfd44b94488e6ef,61036fa0c4c2a383a6c91529,2021-07-29_22h20.20.877,Simcolourproject_2stim_asymm_v5,2020.2.10,MacIntel,60,61025ae37ef11b136ea224fe,,,,,,,,,315,96,-37,1,0,1,response3disk,,5,3,6,1,0,1,rectangle,-56,111,1,0,1,5,-13,1,0,1,0,2,2,146,1,,response7disk_3,TRUE,0,0,"[208,217,3,146,229,136,80,193,46,209,272,142,322,314,46,280,113,273,145,136]",1.731,rectangle
,,,,,,,,,,,,,FF,,,,,,,,2.966,,,,,,,,,,,,,,,,,,,,,,610363c0fdfd44b94488e6ef,61036fa0c4c2a383a6c91529,2021-07-29_22h20.20.877,Simcolourproject_2stim_asymm_v5,2020.2.10,MacIntel,60,61025ae37ef11b136ea224fe,,,,,,,,,4258,55,25,1,0,1,response1disk,,6,9,6,1,0,1,rectangle,9,6,1,0,1,9,6,1,0,1,0,3,3,131,1,,,,,,,,
,,,,,,,,,,,,,FF,,,,,,,,1.5,,,,,,,,,,,,,,,,,,,,,,610363c0fdfd44b94488e6ef,61036fa0c4c2a383a6c91529,2021-07-29_22h20.20.877,Simcolourproject_2stim_asymm_v5,2020.2.10,MacIntel,60,61025ae37ef11b136ea224fe,,,,,,,,,785,-95,-78,1,0,1,response5disk,,2,-1,-4,1,0,1,rectangle,-1,-4,1,0,1,-1,-4,1,0,1,0,4,4,118,1,,,,,,,,
,,,,,,,,,,,,,FF,,,,,,,,2.399,,,,,,,,,,,,,,,,,,,,,,610363c0fdfd44b94488e6ef,61036fa0c4c2a383a6c91529,2021-07-29_22h20.20.877,Simcolourproject_2stim_asymm_v5,2020.2.10,MacIntel,60,61025ae37ef11b136ea224fe,,,,,,,,,3624,-95,-19,1,0,1,response5disk,,2,-12,-4,1,0,1,rectangle,-12,-4,1,0,1,-12,-4,1,0,1,0,5,5,26,1,,,,,,,,
,,,,,,,,,,,,,FF,,,,,,,,1.233,,,,,,,,,,,,,,,,,,,,,,610363c0fdfd44b94488e6ef,61036fa0c4c2a383a6c91529,2021-07-29_22h20.20.877,Simcolourproject_2stim_asymm_v5,2020.2.10,MacIntel,60,61025ae37ef11b136ea224fe,,,,,,,,,2019,25,-67,1,0,1,response3disk,,4,12,5,1,0,1,rectangle,12,5,1,0,1,12,5,1,0,1,0,6,6,139,1,,,,,,,,
,,,,,,,,,,,,,FF,,,,,,,,1.099,,,,,,,,,,,,,,,,,,,,,,610363c0fdfd44b94488e6ef,61036fa0c4c2a383a6c91529,2021-07-29_22h20.20.877,Simcolourproject_2stim_asymm_v5,2020.2.10,MacIntel,60,61025ae37ef11b136ea224fe,,,,,,,,,3703,-111,-42,1,0,1,response5disk,,2,-5,-3,1,0,1,rectangle,-5,-3,1,0,1,-5,-3,1,0,1,0,7,7,56,1,,,,,,,,
,,,,,,,,,,,,,FF,,,,,,,,2.383,,,,,,,,,,,,,,,,,,,,,,610363c0fdfd44b94488e6ef,61036fa0c4c2a383a6c91529,2021-07-29_22h20.20.877,Simcolourproject_2stim_asymm_v5,2020.2.10,MacIntel,60,61025ae37ef11b136ea224fe,,,,,,,,,2655,70,-28,1,0,1,response3disk,,5,-12,6,1,0,1,rectangle,-12,6,1,0,1,-12,6,1,0,1,0,8,8,157,1,,,,,,,,
,,,,,,,,,,,,,FF,,,,,,,,2.449,,,,,,,,,,,,,,,,,,,,,,610363c0fdfd44b94488e6ef,61036fa0c4c2a383a6c91529,2021-07-29_22h20.20.877,Simcolourproject_2stim_asymm_v5,2020.2.10,MacIntel,60,61025ae37ef11b136ea224fe,,,,,,,,,3809,-41,-105,1,0,1,response5disk,,3,-2,6,1,0,1,rectangle,-2,6,1,0,1,-2,6,1,0,1,0,9,9,111,1,,,,,,,,
,,,,,,,,,,,,,FF,,,,,,,,2.434,,,,,,,,,,,,,,,,,,,,,,610363c0fdfd44b94488e6ef,61036fa0c4c2a383a6c91529,2021-07-29_22h20.20.877,Simcolourproject_2stim_asymm_v5,2020.2.10,MacIntel,60,61025ae37ef11b136ea224fe,,,,,,,,,3363,105,24,1,0,1,response1disk,,6,0,-5,1,0,1,rectangle,0,-5,1,0,1,0,-5,1,0,1,0,10,10,58,1,,,,,,,,
,,,,,,,,,,,,,FF,,,,,,,,3.949,,,,,,,,,,,,,,,,,,,,,,610363c0fdfd44b94488e6ef,61036fa0c4c2a383a6c91529,2021-07-29_22h20.20.877,Simcolourproject_2stim_asymm_v5,2020.2.10,MacIntel,60,61025ae37ef11b136ea224fe,,,,,,,,,942,59,-19,1,0,1,response3disk,,5,-12,8,1,0,1,rectangle,-12,8,1,0,1,-12,8,1,0,1,0,11,11,49,1,,,,,,,,
,,,,,,,,,,,,,FF,,,,,,,,1.482,,,,,,,,,,,,,,,,,,,,,,610363c0fdfd44b94488e6ef,61036fa0c4c2a383a6c91529,2021-07-29_22h20.20.877,Simcolourproject_2stim_asymm_v5,2020.2.10,MacIntel,60,61025ae37ef11b136ea224fe,,,,,,,,,1081,66,-31,1,0,1,response3disk,,5,10,-8,1,0,1,rectangle,10,-8,1,0,1,10,-8,1,0,1,0,12,12,43,1,,,,,,,,
,,,,,,,,,,,,,FF,,,,,,,,2.733,,,,,,,,,,,,,,,,,,,,,,610363c0fdfd44b94488e6ef,61036fa0c4c2a383a6c91529,2021-07-29_22h20.20.877,Simcolourproject_2stim_asymm_v5,2020.2.10,MacIntel,60,61025ae37ef11b136ea224fe,,,,,,,,,1501,43,84,1,0,1,response1disk,,7,0,13,1,0,1,rectangle,0,13,1,0,1,0,13,1,0,1,0,13,13,124,1,,,,,,,,
,,,,,,,,,,,,,FF,,,,,,,,0.799,,,,,,,,,,,,,,,,,,,,,,610363c0fdfd44b94488e6ef,61036fa0c4c2a383a6c91529,2021-07-29_22h20.20.877,Simcolourproject_2stim_asymm_v5,2020.2.10,MacIntel,60,61025ae37ef11b136ea224fe,,,,,,,,,2923,94,49,1,0,1,response1disk,,6,6,9,1,0,1,rectangle,6,9,1,0,1,6,9,1,0,1,0,14,14,3,1,,,,,,,,
,,,,,,,,,,,,,FF,,,,,,,,1.415,,,,,,,,,,,,,,,,,,,,,,610363c0fdfd44b94488e6ef,61036fa0c4c2a383a6c91529,2021-07-29_22h20.20.877,Simcolourproject_2stim_asymm_v5,2020.2.10,MacIntel,60,61025ae37ef11b136ea224fe,,,,,,,,,1372,-39,-96,1,0,1,response5disk,,3,5,4,1,0,1,rectangle,5,4,1,0,1,5,4,1,0,1,0,15,15,133,1,,,,,,,,
,,,,,,,,,,,,,FF,,,,,,,,1.167,,,,,,,,,,,,,,,,,,,,,,610363c0fdfd44b94488e6ef,61036fa0c4c2a383a6c91529,2021-07-29_22h20.20.877,Simcolourproject_2stim_asymm_v5,2020.2.10,MacIntel,60,61025ae37ef11b136ea224fe,,,,,,,,,2174,-76,-47,1,0,1,response5disk,,2,9,-11,1,0,1,rectangle,9,-11,1,0,1,9,-11,1,0,1,0,16,16,123,1,,,,,,,,
,,,,,,,,,,,,,FF,,,,,,,,1.783,,,,,,,,,,,,,,,,,,,,,,610363c0fdfd44b94488e6ef,61036fa0c4c2a383a6c91529,2021-07-29_22h20.20.877,Simcolourproject_2stim_asymm_v5,2020.2.10,MacIntel,60,61025ae37ef11b136ea224fe,,,,,,,,,4114,-17,-114,1,0,1,response5disk,,3,-7,-15,1,0,1,rectangle,-7,-15,1,0,1,-7,-15,1,0,1,0,17,17,12,1,,,,,,,,
,,,,,,,,,,,,,FF,,,,,,,,0.848,,,,,,,,,,,,,,,,,,,,,,610363c0fdfd44b94488e6ef,61036fa0c4c2a383a6c91529,2021-07-29_22h20.20.877,Simcolourproject_2stim_asymm_v5,2020.2.10,MacIntel,60,61025ae37ef11b136ea224fe,,,,,,,,,718,-103,-38,1,0,1,response5disk,,2,-19,10,1,0,1,rectangle,-19,10,1,0,1,-19,10,1,0,1,0,18,18,61,1,,,,,,,,
,,,,,,,,,,,,,FF,,,,,,,,2.283,,,,,,,,,,,,,,,,,,,,,,610363c0fdfd44b94488e6ef,61036fa0c4c2a383a6c91529,2021-07-29_22h20.20.877,Simcolourproject_2stim_asymm_v5,2020.2.10,MacIntel,60,61025ae37ef11b136ea224fe,,,,,,,,,484,88,50,1,0,1,response1disk,,6,-12,-3,1,0,1,rectangle,-12,-3,1,0,1,-12,-3,1,0,1,0,19,19,102,1,,,,,,,,
,,,,,,,,,,,,,FF,,,,,,,,0.867,,,,,,,,,,,,,,,,,,,,,,610363c0fdfd44b94488e6ef,61036fa0c4c2a383a6c91529,2021-07-29_22h20.20.877,Simcolourproject_2stim_asymm_v5,2020.2.10,MacIntel,60,61025ae37ef11b136ea224fe,,,,,,,,,3618,91,44,1,0,1,response1disk,,6,17,14,1,0,1,rectangle,17,14,1,0,1,17,14,1,0,1,0,20,20,34,1,,,,,,,,
,,,,,,,,,,,,,FF,,,,,,,,1.584,,,,,,,,,,,,,,,,,,,,,,610363c0fdfd44b94488e6ef,61036fa0c4c2a383a6c91529,2021-07-29_22h20.20.877,Simcolourproject_2stim_asymm_v5,2020.2.10,MacIntel,60,61025ae37ef11b136ea224fe,,,,,,,,,2599,91,-54,1,0,1,response3disk,,5,-31,8,1,0,1,rectangle,-31,8,1,0,1,-31,8,1,0,1,0,21,21,37,1,,,,,,,,
,,,,,,,,,,,,,FF,,,,,,,,0.849,,,,,,,,,,,,,,,,,,,,,,610363c0fdfd44b94488e6ef,61036fa0c4c2a383a6c91529,2021-07-29_22h20.20.877,Simcolourproject_2stim_asymm_v5,2020.2.10,MacIntel,60,61025ae37ef11b136ea224fe,,,,,,,,,2792,-63,-91,1,0,1,response5disk,,3,-16,-9,1,0,1,rectangle,-16,-9,1,0,1,-16,-9,1,0,1,0,22,22,24,1,,,,,,,,
,,,,,,,,,,,,,FF,,,,,,,,0.65,,,,,,,,,,,,,,,,,,,,,,610363c0fdfd44b94488e6ef,61036fa0c4c2a383a6c91529,2021-07-29_22h20.20.877,Simcolourproject_2stim_asymm_v5,2020.2.10,MacIntel,60,61025ae37ef11b136ea224fe,,,,,,,,,2358,-119,-49,1,0,1,response5disk,,2,-6,-1,1,0,1,rectangle,-6,-1,1,0,1,-6,-1,1,0,1,0,23,23,73,1,,,,,,,,
,,,,,,,,,,,,,FF,,,,,,,,0.916,,,,,,,,,,,,,,,,,,,,,,610363c0fdfd44b94488e6ef,61036fa0c4c2a383a6c91529,2021-07-29_22h20.20.877,Simcolourproject_2stim_asymm_v5,2020.2.10,MacIntel,60,61025ae37ef11b136ea224fe,,,,,,,,,3883,49,-72,1,0,1,response3disk,,4,-3,8,1,0,1,rectangle,-3,8,1,0,1,-3,8,1,0,1,0,24,24,22,1,,,,,,,,
,,,,,,,,,,,,,FF,,,,,,,,1.25,,,,,,,,,,,,,,,,,,,,,,610363c0fdfd44b94488e6ef,61036fa0c4c2a383a6c91529,2021-07-29_22h20.20.877,Simcolourproject_2stim_asymm_v5,2020.2.10,MacIntel,60,61025ae37ef11b136ea224fe,,,,,,,,,3235,-92,-37,1,0,1,response5disk,,2,0,13,1,0,1,rectangle,0,13,1,0,1,0,13,1,0,1,0,25,25,75,1,,,,,,,,
,,,,,,,,,,,,,FF,,,,,,,,1.049,,,,,,,,,,,,,,,,,,,,,,610363c0fdfd44b94488e6ef,61036fa0c4c2a383a6c91529,2021-07-29_22h20.20.877,Simcolourproject_2stim_asymm_v5,2020.2.10,MacIntel,60,61025ae37ef11b136ea224fe,,,,,,,,,1781,80,45,1,0,1,response1disk,,6,5,-3,1,0,1,rectangle,5,-3,1,0,1,5,-3,1,0,1,0,26,26,65,1,,,,,,,,
,,,,,,,,,,,,,FF,,,,,,,,3.949,,,,,,,,,,,,,,,,,,,,,,610363c0fdfd44b94488e6ef,61036fa0c4c2a383a6c91529,2021-07-29_22h20.20.877,Simcolourproject_2stim_asymm_v5,2020.2.10,MacIntel,60,61025ae37ef11b136ea224fe,,,,,,,,,1352,-41,-67,1,0,1,response5disk,,3,-2,3,1,0,1,rectangle,-2,3,1,0,1,-2,3,1,0,1,0,27,27,152,1,,,,,,,,
,,,,,,,,,,,,,FF,,,,,,,,0.835,,,,,,,,,,,,,,,,,,,,,,610363c0fdfd44b94488e6ef,61036fa0c4c2a383a6c91529,2021-07-29_22h20.20.877,Simcolourproject_2stim_asymm_v5,2020.2.10,MacIntel,60,61025ae37ef11b136ea224fe,,,,,,,,,1454,-100,21,1,0,1,response7disk,,1,-3,10,1,0,1,rectangle,-3,10,1,0,1,-3,10,1,0,1,0,28,28,112,1,,,,,,,,
,,,,,,,,,,,,,FF,,,,,,,,1.199,,,,,,,,,,,,,,,,,,,,,,610363c0fdfd44b94488e6ef,61036fa0c4c2a383a6c91529,2021-07-29_22h20.20.877,Simcolourproject_2stim_asymm_v5,2020.2.10,MacIntel,60,61025ae37ef11b136ea224fe,,,,,,,,,2260,72,27,1,0,1,response1disk,,6,-10,5,1,0,1,rectangle,-10,5,1,0,1,-10,5,1,0,1,0,29,29,8,1,,,,,,,,
,,,,,,,,,,,,,FF,,,,,,,,0.848,,,,,,,,,,,,,,,,,,,,,,610363c0fdfd44b94488e6ef,61036fa0c4c2a383a6c91529,2021-07-29_22h20.20.877,Simcolourproject_2stim_asymm_v5,2020.2.10,MacIntel,60,61025ae37ef11b136ea224fe,,,,,,,,,1988,60,-34,1,0,1,response3disk,,5,-10,0,1,0,1,rectangle,-10,0,1,0,1,-10,0,1,0,1,0,30,30,113,1,,,,,,,,
,,,,,,,,,,,,,FF,,,,,,,,0.849,,,,,,,,,,,,,,,,,,,,,,610363c0fdfd44b94488e6ef,61036fa0c4c2a383a6c91529,2021-07-29_22h20.20.877,Simcolourproject_2stim_asymm_v5,2020.2.10,MacIntel,60,61025ae37ef11b136ea224fe,,,,,,,,,1399,62,44,1,0,1,response1disk,,6,1,12,1,0,1,rectangle,1,12,1,0,1,1,12,1,0,1,0,31,31,108,1,,,,,,,,
,,,,,,,,,,,,,FF,,,,,,,,0.7,,,,,,,,,,,,,,,,,,,,,,610363c0fdfd44b94488e6ef,61036fa0c4c2a383a6c91529,2021-07-29_22h20.20.877,Simcolourproject_2stim_asymm_v5,2020.2.10,MacIntel,60,61025ae37ef11b136ea224fe,,,,,,,,,3910,-82,-33,1,0,1,response5disk,,2,-3,4,1,0,1,rectangle,-3,4,1,0,1,-3,4,1,0,1,0,32,32,51,1,,,,,,,,
,,,,,,,,,,,,,FF,,,,,,,,1.582,,,,,,,,,,,,,,,,,,,,,,610363c0fdfd44b94488e6ef,61036fa0c4c2a383a6c91529,2021-07-29_22h20.20.877,Simcolourproject_2stim_asymm_v5,2020.2.10,MacIntel,60,61025ae37ef11b136ea224fe,,,,,,,,,4042,41,-80,1,0,1,response3disk,,4,2,10,1,0,1,rectangle,2,10,1,0,1,2,10,1,0,1,0,33,33,57,1,,,,,,,,
,,,,,,,,,,,,,FF,,,,,,,,0.783,,,,,,,,,,,,,,,,,,,,,,610363c0fdfd44b94488e6ef,61036fa0c4c2a383a6c91529,2021-07-29_22h20.20.877,Simcolourproject_2stim_asymm_v5,2020.2.10,MacIntel,60,61025ae37ef11b136ea224fe,,,,,,,,,2194,26,-74,1,0,1,response3disk,,4,-6,5,1,0,1,rectangle,-6,5,1,0,1,-6,5,1,0,1,0,34,34,140,1,,,,,,,,
,,,,,,,,,,,,,FF,,,,,,,,0.833,,,,,,,,,,,,,,,,,,,,,,610363c0fdfd44b94488e6ef,61036fa0c4c2a383a6c91529,2021-07-29_22h20.20.877,Simcolourproject_2stim_asymm_v5,2020.2.10,MacIntel,60,61025ae37ef11b136ea224fe,,,,,,,,,1210,28,-53,1,0,1,response3disk,,4,5,0,1,0,1,rectangle,5,0,1,0,1,5,0,1,0,1,0,35,35,44,1,,,,,,,,
,,,,,,,,,,,,,FF,,,,,,,,1.034,,,,,,,,,,,,,,,,,,,,,,610363c0fdfd44b94488e6ef,61036fa0c4c2a383a6c91529,2021-07-29_22h20.20.877,Simcolourproject_2stim_asymm_v5,2020.2.10,MacIntel,60,61025ae37ef11b136ea224fe,,,,,,,,,4176,40,102,1,0,1,response1disk,,7,2,7,1,0,1,rectangle,2,7,1,0,1,2,7,1,0,1,0,36,36,55,1,,,,,,,,
,,,,,,,,,,,,,FF,,,,,,,,1.246,,,,,,,,,,,,,,,,,,,,,,610363c0fdfd44b94488e6ef,61036fa0c4c2a383a6c91529,2021-07-29_22h20.20.877,Simcolourproject_2stim_asymm_v5,2020.2.10,MacIntel,60,61025ae37ef11b136ea224fe,,,,,,,,,3884,49,-31,1,0,1,response3disk,,5,1,-2,1,0,1,rectangle,1,-2,1,0,1,1,-2,1,0,1,0,37,37,70,1,,,,,,,,
,,,,,,,,,,,,,FF,,,,,,,,1.615,,,,,,,,,,,,,,,,,,,,,,610363c0fdfd44b94488e6ef,61036fa0c4c2a383a6c91529,2021-07-29_22h20.20.877,Simcolourproject_2stim_asymm_v5,2020.2.10,MacIntel,60,61025ae37ef11b136ea224fe,,,,,,,,,2421,-77,52,1,0,1,response7disk,,1,-15,-11,1,0,1,rectangle,-15,-11,1,0,1,-15,-11,1,0,1,0,38,38,145,1,,,,,,,,
,,,,,,,,,,,,,FF,,,,,,,,1.715,,,,,,,,,,,,,,,,,,,,,,610363c0fdfd44b94488e6ef,61036fa0c4c2a383a6c91529,2021-07-29_22h20.20.877,Simcolourproject_2stim_asymm_v5,2020.2.10,MacIntel,60,61025ae37ef11b136ea224fe,,,,,,,,,1955,29,-64,1,0,1,response3disk,,4,-3,0,1,0,1,rectangle,-3,0,1,0,1,-3,0,1,0,1,0,39,39,88,1,,,,,,,,
,,,,,,,,,,,,,FF,,,,,,,,1.283,,,,,,,,,,,,,,,,,,,,,,610363c0fdfd44b94488e6ef,61036fa0c4c2a383a6c91529,2021-07-29_22h20.20.877,Simcolourproject_2stim_asymm_v5,2020.2.10,MacIntel,60,61025ae37ef11b136ea224fe,,,,,,,,,54,71,39,1,0,1,response1disk,,6,1,3,1,0,1,rectangle,1,3,1,0,1,1,3,1,0,1,0,40,40,92,1,,,,,,,,
,,,,,,,,,,,,,FF,,,,,,,,0.683,,,,,,,,,,,,,,,,,,,,,,610363c0fdfd44b94488e6ef,61036fa0c4c2a383a6c91529,2021-07-29_22h20.20.877,Simcolourproject_2stim_asymm_v5,2020.2.10,MacIntel,60,61025ae37ef11b136ea224fe,,,,,,,,,3221,34,99,1,0,1,response1disk,,7,-2,-3,1,0,1,rectangle,-2,-3,1,0,1,-2,-3,1,0,1,0,41,41,42,1,,,,,,,,
,,,,,,,,,,,,,FF,,,,,,,,1.516,,,,,,,,,,,,,,,,,,,,,,610363c0fdfd44b94488e6ef,61036fa0c4c2a383a6c91529,2021-07-29_22h20.20.877,Simcolourproject_2stim_asymm_v5,2020.2.10,MacIntel,60,61025ae37ef11b136ea224fe,,,,,,,,,740,-54,-25,1,0,1,response5disk,,2,-9,-17,1,0,1,rectangle,-9,-17,1,0,1,-9,-17,1,0,1,0,42,42,78,1,,,,,,,,
,,,,,,,,,,,,,FF,,,,,,,,0.899,,,,,,,,,,,,,,,,,,,,,,610363c0fdfd44b94488e6ef,61036fa0c4c2a383a6c91529,2021-07-29_22h20.20.877,Simcolourproject_2stim_asymm_v5,2020.2.10,MacIntel,60,61025ae37ef11b136ea224fe,,,,,,,,,2851,27,-48,1,0,1,response3disk,,4,3,-3,1,0,1,rectangle,3,-3,1,0,1,3,-3,1,0,1,0,43,43,158,1,,,,,,,,
,,,,,,,,,,,,,FF,,,,,,,,0.799,,,,,,,,,,,,,,,,,,,,,,610363c0fdfd44b94488e6ef,61036fa0c4c2a383a6c91529,2021-07-29_22h20.20.877,Simcolourproject_2stim_asymm_v5,2020.2.10,MacIntel,60,61025ae37ef11b136ea224fe,,,,,,,,,1736,-54,-68,1,0,1,response5disk,,3,0,-4,1,0,1,rectangle,0,-4,1,0,1,0,-4,1,0,1,0,44,44,0,1,,,,,,,,
,,,,,,,,,,,,,FF,,,,,,,,0.917,,,,,,,,,,,,,,,,,,,,,,610363c0fdfd44b94488e6ef,61036fa0c4c2a383a6c91529,2021-07-29_22h20.20.877,Simcolourproject_2stim_asymm_v5,2020.2.10,MacIntel,60,61025ae37ef11b136ea224fe,,,,,,,,,1165,79,44,1,0,1,response1disk,,6,0,2,1,0,1,rectangle,35,93,1,0,1,4,5,1,0,1,0,45,45,159,1,,response1disk_3,TRUE,7,7,"[208,217,3,146,229,136,80,193,46,209,272,142,322,314,46,280,113,273,145,136]",2.699,rectangle
,,,,,,,,,,,,,FF,,,,,,,,1.217,,,,,,,,,,,,,,,,,,,,,,610363c0fdfd44b94488e6ef,61036fa0c4c2a383a6c91529,2021-07-29_22h20.20.877,Simcolourproject_2stim_asymm_v5,2020.2.10,MacIntel,60,61025ae37ef11b136ea224fe,,,,,,,,,3592,-77,-27,1,0,1,response5disk,,2,-4,-13,1,0,1,rectangle,-4,-13,1,0,1,-4,-13,1,0,1,0,46,46,156,1,,,,,,,,
,,,,,,,,,,,,,FF,,,,,,,,0.565,,,,,,,,,,,,,,,,,,,,,,610363c0fdfd44b94488e6ef,61036fa0c4c2a383a6c91529,2021-07-29_22h20.20.877,Simcolourproject_2stim_asymm_v5,2020.2.10,MacIntel,60,61025ae37ef11b136ea224fe,,,,,,,,,1672,-74,-45,1,0,1,response5disk,,2,4,-4,1,0,1,rectangle,4,-4,1,0,1,4,-4,1,0,1,0,47,47,119,1,,,,,,,,
,,,,,,,,,,,,,FF,,,,,,,,0.749,,,,,,,,,,,,,,,,,,,,,,610363c0fdfd44b94488e6ef,61036fa0c4c2a383a6c91529,2021-07-29_22h20.20.877,Simcolourproject_2stim_asymm_v5,2020.2.10,MacIntel,60,61025ae37ef11b136ea224fe,,,,,,,,,97,-79,-40,1,0,1,response5disk,,2,5,1,1,0,1,rectangle,5,1,1,0,1,5,1,1,0,1,0,48,48,115,1,,,,,,,,
,,,,,,,,,,,,,FF,,,,,,,,0.917,,,,,,,,,,,,,,,,,,,,,,610363c0fdfd44b94488e6ef,61036fa0c4c2a383a6c91529,2021-07-29_22h20.20.877,Simcolourproject_2stim_asymm_v5,2020.2.10,MacIntel,60,61025ae37ef11b136ea224fe,,,,,,,,,3982,25,-101,1,0,1,response3disk,,4,-4,-3,1,0,1,rectangle,-4,-3,1,0,1,-4,-3,1,0,1,0,49,49,144,1,,,,,,,,
,,,,,,,,,,,,,FF,,,,,,,,1.683,,,,,,,,,,,,,,,,,,,,,,610363c0fdfd44b94488e6ef,61036fa0c4c2a383a6c91529,2021-07-29_22h20.20.877,Simcolourproject_2stim_asymm_v5,2020.2.10,MacIntel,60,61025ae37ef11b136ea224fe,,,,,,,,,2188,-48,-99,1,0,1,response5disk,,3,-7,1,1,0,1,rectangle,-7,1,1,0,1,-7,1,1,0,1,0,50,50,83,1,,,,,,,,
,,,,,,,,,,,,,FF,,,,,,,,0.882,,,,,,,,,,,,,,,,,,,,,,610363c0fdfd44b94488e6ef,61036fa0c4c2a383a6c91529,2021-07-29_22h20.20.877,Simcolourproject_2stim_asymm_v5,2020.2.10,MacIntel,60,61025ae37ef11b136ea224fe,,,,,,,,,1954,84,32,1,0,1,response1disk,,6,5,-3,1,0,1,rectangle,5,-3,1,0,1,5,-3,1,0,1,0,51,51,47,1,,,,,,,,
,,,,,,,,,,,,,FF,,,,,,,,1.182,,,,,,,,,,,,,,,,,,,,,,610363c0fdfd44b94488e6ef,61036fa0c4c2a383a6c91529,2021-07-29_22h20.20.877,Simcolourproject_2stim_asymm_v5,2020.2.10,MacIntel,60,61025ae37ef11b136ea224fe,,,,,,,,,1498,93,18,1,0,1,response1disk,,6,22,10,1,0,1,rectangle,22,10,1,0,1,22,10,1,0,1,0,52,52,54,1,,,,,,,,
,,,,,,,,,,,,,FF,,,,,,,,1.684,,,,,,,,,,,,,,,,,,,,,,610363c0fdfd44b94488e6ef,61036fa0c4c2a383a6c91529,2021-07-29_22h20.20.877,Simcolourproject_2stim_asymm_v5,2020.2.10,MacIntel,60,61025ae37ef11b136ea224fe,,,,,,,,,2995,-49,-80,1,0,1,response5disk,,3,16,-10,1,0,1,rectangle,16,-10,1,0,1,16,-10,1,0,1,0,53,53,81,1,,,,,,,,
,,,,,,,,,,,,,FF,,,,,,,,0.918,,,,,,,,,,,,,,,,,,,,,,610363c0fdfd44b94488e6ef,61036fa0c4c2a383a6c91529,2021-07-29_22h20.20.877,Simcolourproject_2stim_asymm_v5,2020.2.10,MacIntel,60,61025ae37ef11b136ea224fe,,,,,,,,,1614,-70,-90,1,0,1,response5disk,,3,-2,2,1,0,1,rectangle,-2,2,1,0,1,-2,2,1,0,1,0,54,54,38,1,,,,,,,,
,,,,,,,,,,,,,FF,,,,,,,,1.533,,,,,,,,,,,,,,,,,,,,,,610363c0fdfd44b94488e6ef,61036fa0c4c2a383a6c91529,2021-07-29_22h20.20.877,Simcolourproject_2stim_asymm_v5,2020.2.10,MacIntel,60,61025ae37ef11b136ea224fe,,,,,,,,,2872,59,21,1,0,1,response1disk,,6,-1,-4,1,0,1,rectangle,-1,-4,1,0,1,-1,-4,1,0,1,0,55,55,135,1,,,,,,,,
,,,,,,,,,,,,,FF,,,,,,,,1.932,,,,,,,,,,,,,,,,,,,,,,610363c0fdfd44b94488e6ef,61036fa0c4c2a383a6c91529,2021-07-29_22h20.20.877,Simcolourproject_2stim_asymm_v5,2020.2.10,MacIntel,60,61025ae37ef11b136ea224fe,,,,,,,,,429,18,-90,1,0,1,response3disk,,4,-20,16,1,0,1,rectangle,-20,16,1,0,1,-20,16,1,0,1,0,56,56,89,1,,,,,,,,
,,,,,,,,,,,,,FF,,,,,,,,0.8,,,,,,,,,,,,,,,,,,,,,,610363c0fdfd44b94488e6ef,61036fa0c4c2a383a6c91529,2021-07-29_22h20.20.877,Simcolourproject_2stim_asymm_v5,2020.2.10,MacIntel,60,61025ae37ef11b136ea224fe,,,,,,,,,1591,84,-27,1,0,1,response3disk,,5,10,-5,1,0,1,rectangle,10,-5,1,0,1,10,-5,1,0,1,0,57,57,98,1,,,,,,,,
,,,,,,,,,,,,,FF,,,,,,,,1.667,,,,,,,,,,,,,,,,,,,,,,610363c0fdfd44b94488e6ef,61036fa0c4c2a383a6c91529,2021-07-29_22h20.20.877,Simcolourproject_2stim_asymm_v5,2020.2.10,MacIntel,60,61025ae37ef11b136ea224fe,,,,,,,,,3269,66,48,1,0,1,response1disk,,6,5,8,1,0,1,rectangle,5,8,1,0,1,5,8,1,0,1,0,58,58,23,1,,,,,,,,
,,,,,,,,,,,,,FF,,,,,,,,1.016,,,,,,,,,,,,,,,,,,,,,,610363c0fdfd44b94488e6ef,61036fa0c4c2a383a6c91529,2021-07-29_22h20.20.877,Simcolourproject_2stim_asymm_v5,2020.2.10,MacIntel,60,61025ae37ef11b136ea224fe,,,,,,,,,2463,79,32,1,0,1,response1disk,,6,-5,-1,1,0,1,rectangle,-5,-1,1,0,1,-5,-1,1,0,1,0,59,59,67,1,,,,,,,,
,,,,,,,,,,,,,FF,,,,,,,,1.616,,,,,,,,,,,,,,,,,,,,,,610363c0fdfd44b94488e6ef,61036fa0c4c2a383a6c91529,2021-07-29_22h20.20.877,Simcolourproject_2stim_asymm_v5,2020.2.10,MacIntel,60,61025ae37ef11b136ea224fe,,,,,,,,,2871,74,37,1,0,1,response1disk,,6,7,5,1,0,1,rectangle,7,5,1,0,1,7,5,1,0,1,0,60,60,63,1,,,,,,,,
,,,,,,,,,,,,,FF,,,,,,,,1.05,,,,,,,,,,,,,,,,,,,,,,610363c0fdfd44b94488e6ef,61036fa0c4c2a383a6c91529,2021-07-29_22h20.20.877,Simcolourproject_2stim_asymm_v5,2020.2.10,MacIntel,60,61025ae37ef11b136ea224fe,,,,,,,,,1347,36,-87,1,0,1,response3disk,,4,5,-6,1,0,1,rectangle,5,-6,1,0,1,5,-6,1,0,1,0,61,61,36,1,,,,,,,,
,,,,,,,,,,,,,FF,,,,,,,,1.133,,,,,,,,,,,,,,,,,,,,,,610363c0fdfd44b94488e6ef,61036fa0c4c2a383a6c91529,2021-07-29_22h20.20.877,Simcolourproject_2stim_asymm_v5,2020.2.10,MacIntel,60,61025ae37ef11b136ea224fe,,,,,,,,,3942,-86,-16,1,0,1,response5disk,,2,-3,9,1,0,1,rectangle,-3,9,1,0,1,-3,9,1,0,1,0,62,62,128,1,,,,,,,,
,,,,,,,,,,,,,FF,,,,,,,,0.667,,,,,,,,,,,,,,,,,,,,,,610363c0fdfd44b94488e6ef,61036fa0c4c2a383a6c91529,2021-07-29_22h20.20.877,Simcolourproject_2stim_asymm_v5,2020.2.10,MacIntel,60,61025ae37ef11b136ea224fe,,,,,,,,,3732,45,83,1,0,1,response1disk,,7,6,-4,1,0,1,rectangle,6,-4,1,0,1,6,-4,1,0,1,0,63,63,9,1,,,,,,,,
,,,,,,,,,,,,,FF,,,,,,,,1.832,,,,,,,,,,,,,,,,,,,,,,610363c0fdfd44b94488e6ef,61036fa0c4c2a383a6c91529,2021-07-29_22h20.20.877,Simcolourproject_2stim_asymm_v5,2020.2.10,MacIntel,60,61025ae37ef11b136ea224fe,,,,,,,,,1412,43,-68,1,0,1,response3disk,,4,-20,2,1,0,1,rectangle,-20,2,1,0,1,-20,2,1,0,1,0,64,64,141,1,,,,,,,,
,,,,,,,,,,,,,FF,,,,,,,,1.531,,,,,,,,,,,,,,,,,,,,,,610363c0fdfd44b94488e6ef,61036fa0c4c2a383a6c91529,2021-07-29_22h20.20.877,Simcolourproject_2stim_asymm_v5,2020.2.10,MacIntel,60,61025ae37ef11b136ea224fe,,,,,,,,,2201,37,61,1,0,1,response1disk,,7,10,-1,1,0,1,rectangle,10,-1,1,0,1,10,-1,1,0,1,0,65,65,13,1,,,,,,,,
,,,,,,,,,,,,,FF,,,,,,,,1.417,,,,,,,,,,,,,,,,,,,,,,610363c0fdfd44b94488e6ef,61036fa0c4c2a383a6c91529,2021-07-29_22h20.20.877,Simcolourproject_2stim_asymm_v5,2020.2.10,MacIntel,60,61025ae37ef11b136ea224fe,,,,,,,,,3428,-113,62,1,0,1,response7disk,,1,2,-3,1,0,1,rectangle,2,-3,1,0,1,2,-3,1,0,1,0,66,66,97,1,,,,,,,,
,,,,,,,,,,,,,FF,,,,,,,,1.2,,,,,,,,,,,,,,,,,,,,,,610363c0fdfd44b94488e6ef,61036fa0c4c2a383a6c91529,2021-07-29_22h20.20.877,Simcolourproject_2stim_asymm_v5,2020.2.10,MacIntel,60,61025ae37ef11b136ea224fe,,,,,,,,,641,-51,-82,1,0,1,response5disk,,3,1,-13,1,0,1,rectangle,1,-13,1,0,1,1,-13,1,0,1,0,67,67,147,1,,,,,,,,
,,,,,,,,,,,,,FF,,,,,,,,1.216,,,,,,,,,,,,,,,,,,,,,,610363c0fdfd44b94488e6ef,61036fa0c4c2a383a6c91529,2021-07-29_22h20.20.877,Simcolourproject_2stim_asymm_v5,2020.2.10,MacIntel,60,61025ae37ef11b136ea224fe,,,,,,,,,3073,86,-65,1,0,1,response3disk,,5,0,2,1,0,1,rectangle,0,2,1,0,1,0,2,1,0,1,0,68,68,96,1,,,,,,,,
,,,,,,,,,,,,,FF,,,,,,,,1.582,,,,,,,,,,,,,,,,,,,,,,610363c0fdfd44b94488e6ef,61036fa0c4c2a383a6c91529,2021-07-29_22h20.20.877,Simcolourproject_2stim_asymm_v5,2020.2.10,MacIntel,60,61025ae37ef11b136ea224fe,,,,,,,,,635,-75,-40,1,0,1,response5disk,,2,-10,-11,1,0,1,rectangle,-10,-11,1,0,1,-10,-11,1,0,1,0,69,69,35,1,,,,,,,,
,,,,,,,,,,,,,FF,,,,,,,,1.467,,,,,,,,,,,,,,,,,,,,,,610363c0fdfd44b94488e6ef,61036fa0c4c2a383a6c91529,2021-07-29_22h20.20.877,Simcolourproject_2stim_asymm_v5,2020.2.10,MacIntel,60,61025ae37ef11b136ea224fe,,,,,,,,,2531,-39,-70,1,0,1,response5disk,,3,0,-6,1,0,1,rectangle,0,-6,1,0,1,0,-6,1,0,1,0,70,70,53,1,,,,,,,,
,,,,,,,,,,,,,FF,,,,,,,,2.6,,,,,,,,,,,,,,,,,,,,,,610363c0fdfd44b94488e6ef,61036fa0c4c2a383a6c91529,2021-07-29_22h20.20.877,Simcolourproject_2stim_asymm_v5,2020.2.10,MacIntel,60,61025ae37ef11b136ea224fe,,,,,,,,,4172,56,83,1,0,1,response1disk,,7,-4,1,1,0,1,rectangle,-4,1,1,0,1,-4,1,1,0,1,0,71,71,99,1,,,,,,,,
,,,,,,,,,,,,,FF,,,,,,,,0.732,,,,,,,,,,,,,,,,,,,,,,610363c0fdfd44b94488e6ef,61036fa0c4c2a383a6c91529,2021-07-29_22h20.20.877,Simcolourproject_2stim_asymm_v5,2020.2.10,MacIntel,60,61025ae37ef11b136ea224fe,,,,,,,,,3404,70,-27,1,0,1,response3disk,,5,10,-1,1,0,1,rectangle,10,-1,1,0,1,10,-1,1,0,1,0,72,72,91,1,,,,,,,,
,,,,,,,,,,,,,FF,,,,,,,,1.083,,,,,,,,,,,,,,,,,,,,,,610363c0fdfd44b94488e6ef,61036fa0c4c2a383a6c91529,2021-07-29_22h20.20.877,Simcolourproject_2stim_asymm_v5,2020.2.10,MacIntel,60,61025ae37ef11b136ea224fe,,,,,,,,,3059,-60,-63,1,0,1,response5disk,,3,-3,1,1,0,1,rectangle,-3,1,1,0,1,-3,1,1,0,1,0,73,73,41,1,,,,,,,,
,,,,,,,,,,,,,FF,,,,,,,,1.633,,,,,,,,,,,,,,,,,,,,,,610363c0fdfd44b94488e6ef,61036fa0c4c2a383a6c91529,2021-07-29_22h20.20.877,Simcolourproject_2stim_asymm_v5,2020.2.10,MacIntel,60,61025ae37ef11b136ea224fe,,,,,,,,,3854,37,-90,1,0,1,response3disk,,4,-4,-1,1,0,1,rectangle,-4,-1,1,0,1,-4,-1,1,0,1,0,74,74,31,1,,,,,,,,
,,,,,,,,,,,,,FF,,,,,,,,3.151,,,,,,,,,,,,,,,,,,,,,,610363c0fdfd44b94488e6ef,61036fa0c4c2a383a6c91529,2021-07-29_22h20.20.877,Simcolourproject_2stim_asymm_v5,2020.2.10,MacIntel,60,61025ae37ef11b136ea224fe,,,,,,,,,129,105,-61,1,0,1,response3disk,,5,6,0,1,0,1,rectangle,6,0,1,0,1,6,0,1,0,1,0,75,75,82,1,,,,,,,,
,,,,,,,,,,,,,FF,,,,,,,,1.032,,,,,,,,,,,,,,,,,,,,,,610363c0fdfd44b94488e6ef,61036fa0c4c2a383a6c91529,2021-07-29_22h20.20.877,Simcolourproject_2stim_asymm_v5,2020.2.10,MacIntel,60,61025ae37ef11b136ea224fe,,,,,,,,,3452,80,29,1,0,1,response1disk,,6,8,4,1,0,1,rectangle,8,4,1,0,1,8,4,1,0,1,0,76,76,132,1,,,,,,,,
,,,,,,,,,,,,,FF,,,,,,,,0.616,,,,,,,,,,,,,,,,,,,,,,610363c0fdfd44b94488e6ef,61036fa0c4c2a383a6c91529,2021-07-29_22h20.20.877,Simcolourproject_2stim_asymm_v5,2020.2.10,MacIntel,60,61025ae37ef11b136ea224fe,,,,,,,,,3436,-79,-35,1,0,1,response5disk,,2,-14,-3,1,0,1,rectangle,-14,-3,1,0,1,-14,-3,1,0,1,0,77,77,117,1,,,,,,,,
,,,,,,,,,,,,,FF,,,,,,,,1.05,,,,,,,,,,,,,,,,,,,,,,610363c0fdfd44b94488e6ef,61036fa0c4c2a383a6c91529,2021-07-29_22h20.20.877,Simcolourproject_2stim_asymm_v5,2020.2.10,MacIntel,60,61025ae37ef11b136ea224fe,,,,,,,,,3185,79,-47,1,0,1,response3disk,,5,10,-7,1,0,1,rectangle,10,-7,1,0,1,10,-7,1,0,1,0,78,78,150,1,,,,,,,,
,,,,,,,,,,,,,FF,,,,,,,,0.683,,,,,,,,,,,,,,,,,,,,,,610363c0fdfd44b94488e6ef,61036fa0c4c2a383a6c91529,2021-07-29_22h20.20.877,Simcolourproject_2stim_asymm_v5,2020.2.10,MacIntel,60,61025ae37ef11b136ea224fe,,,,,,,,,364,31,-86,1,0,1,response3disk,,4,-1,4,1,0,1,rectangle,-26,-105,1,0,1,-5,-4,1,0,1,0,79,79,15,1,,response5disk_3,TRUE,3,3,"[208,217,3,146,229,136,80,193,46,209,272,142,322,314,46,280,113,273,145,136]",1.701,rectangle
,,,,,,,,,,,,,FF,,,,,,,,0.8,,,,,,,,,,,,,,,,,,,,,,610363c0fdfd44b94488e6ef,61036fa0c4c2a383a6c91529,2021-07-29_22h20.20.877,Simcolourproject_2stim_asymm_v5,2020.2.10,MacIntel,60,61025ae37ef11b136ea224fe,,,,,,,,,3351,42,-100,1,0,1,response3disk,,4,-5,3,1,0,1,rectangle,-5,3,1,0,1,-5,3,1,0,1,0,80,80,151,1,,,,,,,,
,,,,,,,,,,,,,FF,,,,,,,,0.966,,,,,,,,,,,,,,,,,,,,,,610363c0fdfd44b94488e6ef,61036fa0c4c2a383a6c91529,2021-07-29_22h20.20.877,Simcolourproject_2stim_asymm_v5,2020.2.10,MacIntel,60,61025ae37ef11b136ea224fe,,,,,,,,,2991,60,33,1,0,1,response1disk,,6,3,7,1,0,1,rectangle,3,7,1,0,1,3,7,1,0,1,0,81,81,154,1,,,,,,,,
,,,,,,,,,,,,,FF,,,,,,,,1.517,,,,,,,,,,,,,,,,,,,,,,610363c0fdfd44b94488e6ef,61036fa0c4c2a383a6c91529,2021-07-29_22h20.20.877,Simcolourproject_2stim_asymm_v5,2020.2.10,MacIntel,60,61025ae37ef11b136ea224fe,,,,,,,,,920,47,109,1,0,1,response1disk,,7,-6,-2,1,0,1,rectangle,-6,-2,1,0,1,-6,-2,1,0,1,0,82,82,33,1,,,,,,,,
,,,,,,,,,,,,,FF,,,,,,,,1.117,,,,,,,,,,,,,,,,,,,,,,610363c0fdfd44b94488e6ef,61036fa0c4c2a383a6c91529,2021-07-29_22h20.20.877,Simcolourproject_2stim_asymm_v5,2020.2.10,MacIntel,60,61025ae37ef11b136ea224fe,,,,,,,,,4142,-30,-63,1,0,1,response5disk,,3,8,-13,1,0,1,rectangle,8,-13,1,0,1,8,-13,1,0,1,0,83,83,125,1,,,,,,,,
,,,,,,,,,,,,,FF,,,,,,,,0.798,,,,,,,,,,,,,,,,,,,,,,610363c0fdfd44b94488e6ef,61036fa0c4c2a383a6c91529,2021-07-29_22h20.20.877,Simcolourproject_2stim_asymm_v5,2020.2.10,MacIntel,60,61025ae37ef11b136ea224fe,,,,,,,,,2547,-30,-62,1,0,1,response5disk,,3,-4,-8,1,0,1,rectangle,-4,-8,1,0,1,-4,-8,1,0,1,0,84,84,7,1,,,,,,,,
,,,,,,,,,,,,,FF,,,,,,,,0.566,,,,,,,,,,,,,,,,,,,,,,610363c0fdfd44b94488e6ef,61036fa0c4c2a383a6c91529,2021-07-29_22h20.20.877,Simcolourproject_2stim_asymm_v5,2020.2.10,MacIntel,60,61025ae37ef11b136ea224fe,,,,,,,,,3382,-85,32,1,0,1,response7disk,,1,4,-2,1,0,1,rectangle,4,-2,1,0,1,4,-2,1,0,1,0,85,85,48,1,,,,,,,,
,,,,,,,,,,,,,FF,,,,,,,,1.667,,,,,,,,,,,,,,,,,,,,,,610363c0fdfd44b94488e6ef,61036fa0c4c2a383a6c91529,2021-07-29_22h20.20.877,Simcolourproject_2stim_asymm_v5,2020.2.10,MacIntel,60,61025ae37ef11b136ea224fe,,,,,,,,,2707,53,105,1,0,1,response1disk,,7,10,14,1,0,1,rectangle,10,14,1,0,1,10,14,1,0,1,0,86,86,80,1,,,,,,,,
,,,,,,,,,,,,,FF,,,,,,,,1.617,,,,,,,,,,,,,,,,,,,,,,610363c0fdfd44b94488e6ef,61036fa0c4c2a383a6c91529,2021-07-29_22h20.20.877,Simcolourproject_2stim_asymm_v5,2020.2.10,MacIntel,60,61025ae37ef11b136ea224fe,,,,,,,,,1605,87,26,1,0,1,response1disk,,6,-18,3,1,0,1,rectangle,-18,3,1,0,1,-18,3,1,0,1,0,87,87,106,1,,,,,,,,
,,,,,,,,,,,,,FF,,,,,,,,1.216,,,,,,,,,,,,,,,,,,,,,,610363c0fdfd44b94488e6ef,61036fa0c4c2a383a6c91529,2021-07-29_22h20.20.877,Simcolourproject_2stim_asymm_v5,2020.2.10,MacIntel,60,61025ae37ef11b136ea224fe,,,,,,,,,4249,-47,-82,1,0,1,response5disk,,3,-3,6,1,0,1,rectangle,-3,6,1,0,1,-3,6,1,0,1,0,88,88,30,1,,,,,,,,
,,,,,,,,,,,,,FF,,,,,,,,1.516,,,,,,,,,,,,,,,,,,,,,,610363c0fdfd44b94488e6ef,61036fa0c4c2a383a6c91529,2021-07-29_22h20.20.877,Simcolourproject_2stim_asymm_v5,2020.2.10,MacIntel,60,61025ae37ef11b136ea224fe,,,,,,,,,3692,52,104,1,0,1,response1disk,,7,1,-2,1,0,1,rectangle,1,-2,1,0,1,1,-2,1,0,1,0,89,89,129,1,,,,,,,,
,,,,,,,,,,,,,FF,,,,,,,,0.767,,,,,,,,,,,,,,,,,,,,,,610363c0fdfd44b94488e6ef,61036fa0c4c2a383a6c91529,2021-07-29_22h20.20.877,Simcolourproject_2stim_asymm_v5,2020.2.10,MacIntel,60,61025ae37ef11b136ea224fe,,,,,,,,,1850,63,-32,1,0,1,response3disk,,5,4,-3,1,0,1,rectangle,4,-3,1,0,1,4,-3,1,0,1,0,90,90,28,1,,,,,,,,
,,,,,,,,,,,,,FF,,,,,,,,0.834,,,,,,,,,,,,,,,,,,,,,,610363c0fdfd44b94488e6ef,61036fa0c4c2a383a6c91529,2021-07-29_22h20.20.877,Simcolourproject_2stim_asymm_v5,2020.2.10,MacIntel,60,61025ae37ef11b136ea224fe,,,,,,,,,919,37,-65,1,0,1,response3disk,,4,9,-5,1,0,1,rectangle,9,-5,1,0,1,9,-5,1,0,1,0,91,91,6,1,,,,,,,,
,,,,,,,,,,,,,FF,,,,,,,,0.916,,,,,,,,,,,,,,,,,,,,,,610363c0fdfd44b94488e6ef,61036fa0c4c2a383a6c91529,2021-07-29_22h20.20.877,Simcolourproject_2stim_asymm_v5,2020.2.10,MacIntel,60,61025ae37ef11b136ea224fe,,,,,,,,,2917,39,-76,1,0,1,response3disk,,4,7,-7,1,0,1,rectangle,7,-7,1,0,1,7,-7,1,0,1,0,92,92,109,1,,,,,,,,
,,,,,,,,,,,,,FF,,,,,,,,2.034,,,,,,,,,,,,,,,,,,,,,,610363c0fdfd44b94488e6ef,61036fa0c4c2a383a6c91529,2021-07-29_22h20.20.877,Simcolourproject_2stim_asymm_v5,2020.2.10,MacIntel,60,61025ae37ef11b136ea224fe,,,,,,,,,998,45,90,1,0,1,response1disk,,7,-2,12,1,0,1,rectangle,-2,12,1,0,1,-2,12,1,0,1,0,93,93,66,1,,,,,,,,
,,,,,,,,,,,,,FF,,,,,,,,0.816,,,,,,,,,,,,,,,,,,,,,,610363c0fdfd44b94488e6ef,61036fa0c4c2a383a6c91529,2021-07-29_22h20.20.877,Simcolourproject_2stim_asymm_v5,2020.2.10,MacIntel,60,61025ae37ef11b136ea224fe,,,,,,,,,1604,-86,33,1,0,1,response7disk,,1,-14,3,1,0,1,rectangle,-14,3,1,0,1,-14,3,1,0,1,0,94,94,93,1,,,,,,,,
,,,,,,,,,,,,,FF,,,,,,,,0.916,,,,,,,,,,,,,,,,,,,,,,610363c0fdfd44b94488e6ef,61036fa0c4c2a383a6c91529,2021-07-29_22h20.20.877,Simcolourproject_2stim_asymm_v5,2020.2.10,MacIntel,60,61025ae37ef11b136ea224fe,,,,,,,,,685,46,74,1,0,1,response1disk,,7,1,-17,1,0,1,rectangle,1,-17,1,0,1,1,-17,1,0,1,0,95,95,1,1,,,,,,,,
,,,,,,,,,,,,,FF,,,,,,,,1,,,,,,,,,,,,,,,,,,,,,,610363c0fdfd44b94488e6ef,61036fa0c4c2a383a6c91529,2021-07-29_22h20.20.877,Simcolourproject_2stim_asymm_v5,2020.2.10,MacIntel,60,61025ae37ef11b136ea224fe,,,,,,,,,1780,68,-20,1,0,1,response3disk,,5,11,3,1,0,1,rectangle,11,3,1,0,1,11,3,1,0,1,0,96,96,138,1,,,,,,,,
,,,,,,,,,,,,,FF,,,,,,,,0.966,,,,,,,,,,,,,,,,,,,,,,610363c0fdfd44b94488e6ef,61036fa0c4c2a383a6c91529,2021-07-29_22h20.20.877,Simcolourproject_2stim_asymm_v5,2020.2.10,MacIntel,60,61025ae37ef11b136ea224fe,,,,,,,,,803,-47,-112,1,0,1,response5disk,,3,-7,-14,1,0,1,rectangle,-7,-14,1,0,1,-7,-14,1,0,1,0,97,97,90,1,,,,,,,,
,,,,,,,,,,,,,FF,,,,,,,,1.583,,,,,,,,,,,,,,,,,,,,,,610363c0fdfd44b94488e6ef,61036fa0c4c2a383a6c91529,2021-07-29_22h20.20.877,Simcolourproject_2stim_asymm_v5,2020.2.10,MacIntel,60,61025ae37ef11b136ea224fe,,,,,,,,,179,85,37,1,0,1,response1disk,,6,-2,6,1,0,1,rectangle,-2,6,1,0,1,-2,6,1,0,1,0,98,98,71,1,,,,,,,,
,,,,,,,,,,,,,FF,,,,,,,,0.933,,,,,,,,,,,,,,,,,,,,,,610363c0fdfd44b94488e6ef,61036fa0c4c2a383a6c91529,2021-07-29_22h20.20.877,Simcolourproject_2stim_asymm_v5,2020.2.10,MacIntel,60,61025ae37ef11b136ea224fe,,,,,,,,,4064,77,-35,1,0,1,response3disk,,5,12,0,1,0,1,rectangle,12,0,1,0,1,12,0,1,0,1,0,99,99,120,1,,,,,,,,
,,,,,,,,,,,,,FF,,,,,,,,0.816,,,,,,,,,,,,,,,,,,,,,,610363c0fdfd44b94488e6ef,61036fa0c4c2a383a6c91529,2021-07-29_22h20.20.877,Simcolourproject_2stim_asymm_v5,2020.2.10,MacIntel,60,61025ae37ef11b136ea224fe,,,,,,,,,3959,67,-42,1,0,1,response3disk,,5,2,-1,1,0,1,rectangle,2,-1,1,0,1,2,-1,1,0,1,0,100,100,27,1,,,,,,,,
,,,,,,,,,,,,,FF,,,,,,,,1.549,,,,,,,,,,,,,,,,,,,,,,610363c0fdfd44b94488e6ef,61036fa0c4c2a383a6c91529,2021-07-29_22h20.20.877,Simcolourproject_2stim_asymm_v5,2020.2.10,MacIntel,60,61025ae37ef11b136ea224fe,,,,,,,,,621,90,43,1,0,1,response1disk,,6,4,10,1,0,1,rectangle,4,10,1,0,1,4,10,1,0,1,0,101,101,94,1,,,,,,,,
,,,,,,,,,,,,,FF,,,,,,,,1.283,,,,,,,,,,,,,,,,,,,,,,610363c0fdfd44b94488e6ef,61036fa0c4c2a383a6c91529,2021-07-29_22h20.20.877,Simcolourproject_2stim_asymm_v5,2020.2.10,MacIntel,60,61025ae37ef11b136ea224fe,,,,,,,,,1246,83,42,1,0,1,response1disk,,6,2,-5,1,0,1,rectangle,2,-5,1,0,1,2,-5,1,0,1,0,102,102,52,1,,,,,,,,
,,,,,,,,,,,,,FF,,,,,,,,0.816,,,,,,,,,,,,,,,,,,,,,,610363c0fdfd44b94488e6ef,61036fa0c4c2a383a6c91529,2021-07-29_22h20.20.877,Simcolourproject_2stim_asymm_v5,2020.2.10,MacIntel,60,61025ae37ef11b136ea224fe,,,,,,,,,2677,34,-58,1,0,1,response3disk,,4,3,-2,1,0,1,rectangle,3,-2,1,0,1,3,-2,1,0,1,0,103,103,64,1,,,,,,,,
,,,,,,,,,,,,,FF,,,,,,,,1.566,,,,,,,,,,,,,,,,,,,,,,610363c0fdfd44b94488e6ef,61036fa0c4c2a383a6c91529,2021-07-29_22h20.20.877,Simcolourproject_2stim_asymm_v5,2020.2.10,MacIntel,60,61025ae37ef11b136ea224fe,,,,,,,,,1437,60,30,1,0,1,response1disk,,6,4,-3,1,0,1,rectangle,4,-3,1,0,1,4,-3,1,0,1,0,104,104,142,1,,,,,,,,
,,,,,,,,,,,,,FF,,,,,,,,1.267,,,,,,,,,,,,,,,,,,,,,,610363c0fdfd44b94488e6ef,61036fa0c4c2a383a6c91529,2021-07-29_22h20.20.877,Simcolourproject_2stim_asymm_v5,2020.2.10,MacIntel,60,61025ae37ef11b136ea224fe,,,,,,,,,2885,48,-66,1,0,1,response3disk,,4,12,1,1,0,1,rectangle,12,1,1,0,1,12,1,1,0,1,0,105,105,77,1,,,,,,,,
,,,,,,,,,,,,,FF,,,,,,,,0.816,,,,,,,,,,,,,,,,,,,,,,610363c0fdfd44b94488e6ef,61036fa0c4c2a383a6c91529,2021-07-29_22h20.20.877,Simcolourproject_2stim_asymm_v5,2020.2.10,MacIntel,60,61025ae37ef11b136ea224fe,,,,,,,,,1367,50,-109,1,0,1,response3disk,,4,4,-14,1,0,1,rectangle,4,-14,1,0,1,4,-14,1,0,1,0,106,106,105,1,,,,,,,,
,,,,,,,,,,,,,FF,,,,,,,,1.568,,,,,,,,,,,,,,,,,,,,,,610363c0fdfd44b94488e6ef,61036fa0c4c2a383a6c91529,2021-07-29_22h20.20.877,Simcolourproject_2stim_asymm_v5,2020.2.10,MacIntel,60,61025ae37ef11b136ea224fe,,,,,,,,,2846,62,-29,1,0,1,response3disk,,5,2,9,1,0,1,rectangle,2,9,1,0,1,2,9,1,0,1,0,107,107,103,1,,,,,,,,
,,,,,,,,,,,,,FF,,,,,,,,1,,,,,,,,,,,,,,,,,,,,,,610363c0fdfd44b94488e6ef,61036fa0c4c2a383a6c91529,2021-07-29_22h20.20.877,Simcolourproject_2stim_asymm_v5,2020.2.10,MacIntel,60,61025ae37ef11b136ea224fe,,,,,,,,,827,45,-88,1,0,1,response3disk,,4,0,0,1,0,1,rectangle,0,0,1,0,1,0,0,1,0,1,0,108,108,87,1,,,,,,,,
,,,,,,,,,,,,,FF,,,,,,,,2.649,,,,,,,,,,,,,,,,,,,,,,610363c0fdfd44b94488e6ef,61036fa0c4c2a383a6c91529,2021-07-29_22h20.20.877,Simcolourproject_2stim_asymm_v5,2020.2.10,MacIntel,60,61025ae37ef11b136ea224fe,,,,,,,,,1639,29,83,1,0,1,response1disk,,7,0,17,1,0,1,rectangle,0,17,1,0,1,0,17,1,0,1,0,109,109,39,1,,,,,,,,
,,,,,,,,,,,,,FF,,,,,,,,1.082,,,,,,,,,,,,,,,,,,,,,,610363c0fdfd44b94488e6ef,61036fa0c4c2a383a6c91529,2021-07-29_22h20.20.877,Simcolourproject_2stim_asymm_v5,2020.2.10,MacIntel,60,61025ae37ef11b136ea224fe,,,,,,,,,1973,-42,-86,1,0,1,response5disk,,3,11,8,1,0,1,rectangle,11,8,1,0,1,11,8,1,0,1,0,110,110,29,1,,,,,,,,
,,,,,,,,,,,,,FF,,,,,,,,2.499,,,,,,,,,,,,,,,,,,,,,,610363c0fdfd44b94488e6ef,61036fa0c4c2a383a6c91529,2021-07-29_22h20.20.877,Simcolourproject_2stim_asymm_v5,2020.2.10,MacIntel,60,61025ae37ef11b136ea224fe,,,,,,,,,2695,-41,-66,1,0,1,response5disk,,3,-3,-6,1,0,1,rectangle,-3,-6,1,0,1,-3,-6,1,0,1,0,111,111,17,1,,,,,,,,
,,,,,,,,,,,,,FF,,,,,,,,2.116,,,,,,,,,,,,,,,,,,,,,,610363c0fdfd44b94488e6ef,61036fa0c4c2a383a6c91529,2021-07-29_22h20.20.877,Simcolourproject_2stim_asymm_v5,2020.2.10,MacIntel,60,61025ae37ef11b136ea224fe,,,,,,,,,1588,37,-71,1,0,1,response3disk,,4,-7,6,1,0,1,rectangle,-29,-97,1,0,1,3,-1,1,0,1,0,112,112,100,1,,response5disk_3,TRUE,3,3,"[208,217,3,146,229,136,80,193,46,209,272,142,322,314,46,280,113,273,145,136]",1.7,rectangle
,,,,,,,,,,,,,FF,,,,,,,,1.45,,,,,,,,,,,,,,,,,,,,,,610363c0fdfd44b94488e6ef,61036fa0c4c2a383a6c91529,2021-07-29_22h20.20.877,Simcolourproject_2stim_asymm_v5,2020.2.10,MacIntel,60,61025ae37ef11b136ea224fe,,,,,,,,,2320,39,-50,1,0,1,response3disk,,4,6,8,1,0,1,rectangle,6,8,1,0,1,6,8,1,0,1,0,113,113,130,1,,,,,,,,
,,,,,,,,,,,,,FF,,,,,,,,1.232,,,,,,,,,,,,,,,,,,,,,,610363c0fdfd44b94488e6ef,61036fa0c4c2a383a6c91529,2021-07-29_22h20.20.877,Simcolourproject_2stim_asymm_v5,2020.2.10,MacIntel,60,61025ae37ef11b136ea224fe,,,,,,,,,2259,68,-39,1,0,1,response3disk,,5,3,-3,1,0,1,rectangle,3,-3,1,0,1,3,-3,1,0,1,0,114,114,32,1,,,,,,,,
,,,,,,,,,,,,,FF,,,,,,,,0.899,,,,,,,,,,,,,,,,,,,,,,610363c0fdfd44b94488e6ef,61036fa0c4c2a383a6c91529,2021-07-29_22h20.20.877,Simcolourproject_2stim_asymm_v5,2020.2.10,MacIntel,60,61025ae37ef11b136ea224fe,,,,,,,,,3258,-57,-96,1,0,1,response5disk,,3,-5,-6,1,0,1,rectangle,-5,-6,1,0,1,-5,-6,1,0,1,0,115,115,14,1,,,,,,,,
,,,,,,,,,,,,,FF,,,,,,,,1.217,,,,,,,,,,,,,,,,,,,,,,610363c0fdfd44b94488e6ef,61036fa0c4c2a383a6c91529,2021-07-29_22h20.20.877,Simcolourproject_2stim_asymm_v5,2020.2.10,MacIntel,60,61025ae37ef11b136ea224fe,,,,,,,,,4212,111,56,1,0,1,response1disk,,6,5,-6,1,0,1,rectangle,5,-6,1,0,1,5,-6,1,0,1,0,116,116,114,1,,,,,,,,
,,,,,,,,,,,,,FF,,,,,,,,0.599,,,,,,,,,,,,,,,,,,,,,,610363c0fdfd44b94488e6ef,61036fa0c4c2a383a6c91529,2021-07-29_22h20.20.877,Simcolourproject_2stim_asymm_v5,2020.2.10,MacIntel,60,61025ae37ef11b136ea224fe,,,,,,,,,539,107,51,1,0,1,response1disk,,6,-2,0,1,0,1,rectangle,-2,0,1,0,1,-2,0,1,0,1,0,117,117,10,1,,,,,,,,
,,,,,,,,,,,,,FF,,,,,,,,1.75,,,,,,,,,,,,,,,,,,,,,,610363c0fdfd44b94488e6ef,61036fa0c4c2a383a6c91529,2021-07-29_22h20.20.877,Simcolourproject_2stim_asymm_v5,2020.2.10,MacIntel,60,61025ae37ef11b136ea224fe,,,,,,,,,1587,26,-106,1,0,1,response3disk,,4,4,7,1,0,1,rectangle,4,7,1,0,1,4,7,1,0,1,0,118,118,107,1,,,,,,,,
,,,,,,,,,,,,,FF,,,,,,,,0.899,,,,,,,,,,,,,,,,,,,,,,610363c0fdfd44b94488e6ef,61036fa0c4c2a383a6c91529,2021-07-29_22h20.20.877,Simcolourproject_2stim_asymm_v5,2020.2.10,MacIntel,60,61025ae37ef11b136ea224fe,,,,,,,,,196,-31,-91,1,0,1,response5disk,,3,-5,-13,1,0,1,rectangle,-5,-13,1,0,1,-5,-13,1,0,1,0,119,119,148,1,,,,,,,,
,,,,,,,,,,,,,FF,,,,,,,,0.933,,,,,,,,,,,,,,,,,,,,,,610363c0fdfd44b94488e6ef,61036fa0c4c2a383a6c91529,2021-07-29_22h20.20.877,Simcolourproject_2stim_asymm_v5,2020.2.10,MacIntel,60,61025ae37ef11b136ea224fe,,,,,,,,,3819,56,-35,1,0,1,response3disk,,5,2,12,1,0,1,rectangle,2,12,1,0,1,2,12,1,0,1,0,120,120,79,1,,,,,,,,
,,,,,,,,,,,,,FF,,,,,,,,1.35,,,,,,,,,,,,,,,,,,,,,,610363c0fdfd44b94488e6ef,61036fa0c4c2a383a6c91529,2021-07-29_22h20.20.877,Simcolourproject_2stim_asymm_v5,2020.2.10,MacIntel,60,61025ae37ef11b136ea224fe,,,,,,,,,2401,82,59,1,0,1,response1disk,,6,-17,6,1,0,1,rectangle,-17,6,1,0,1,-17,6,1,0,1,0,121,121,5,1,,,,,,,,
,,,,,,,,,,,,,FF,,,,,,,,1.283,,,,,,,,,,,,,,,,,,,,,,610363c0fdfd44b94488e6ef,61036fa0c4c2a383a6c91529,2021-07-29_22h20.20.877,Simcolourproject_2stim_asymm_v5,2020.2.10,MacIntel,60,61025ae37ef11b136ea224fe,,,,,,,,,406,20,-86,1,0,1,response3disk,,4,2,2,1,0,1,rectangle,2,2,1,0,1,2,2,1,0,1,0,122,122,74,1,,,,,,,,
,,,,,,,,,,,,,FF,,,,,,,,1.116,,,,,,,,,,,,,,,,,,,,,,610363c0fdfd44b94488e6ef,61036fa0c4c2a383a6c91529,2021-07-29_22h20.20.877,Simcolourproject_2stim_asymm_v5,2020.2.10,MacIntel,60,61025ae37ef11b136ea224fe,,,,,,,,,3667,68,104,1,0,1,response1disk,,7,6,4,1,0,1,rectangle,6,4,1,0,1,6,4,1,0,1,0,123,123,4,1,,,,,,,,
,,,,,,,,,,,,,FF,,,,,,,,1.115,,,,,,,,,,,,,,,,,,,,,,610363c0fdfd44b94488e6ef,61036fa0c4c2a383a6c91529,2021-07-29_22h20.20.877,Simcolourproject_2stim_asymm_v5,2020.2.10,MacIntel,60,61025ae37ef11b136ea224fe,,,,,,,,,1416,72,-36,1,0,1,response3disk,,5,8,-14,1,0,1,rectangle,8,-14,1,0,1,8,-14,1,0,1,0,124,124,116,1,,,,,,,,
,,,,,,,,,,,,,FF,,,,,,,,0.934,,,,,,,,,,,,,,,,,,,,,,610363c0fdfd44b94488e6ef,61036fa0c4c2a383a6c91529,2021-07-29_22h20.20.877,Simcolourproject_2stim_asymm_v5,2020.2.10,MacIntel,60,61025ae37ef11b136ea224fe,,,,,,,,,1183,74,-29,1,0,1,response3disk,,5,8,-9,1,0,1,rectangle,8,-9,1,0,1,8,-9,1,0,1,0,125,125,122,1,,,,,,,,
,,,,,,,,,,,,,FF,,,,,,,,2.915,,,,,,,,,,,,,,,,,,,,,,610363c0fdfd44b94488e6ef,61036fa0c4c2a383a6c91529,2021-07-29_22h20.20.877,Simcolourproject_2stim_asymm_v5,2020.2.10,MacIntel,60,61025ae37ef11b136ea224fe,,,,,,,,,410,24,-93,1,0,1,response3disk,,4,-14,-2,1,0,1,rectangle,-14,-2,1,0,1,-14,-2,1,0,1,0,126,126,76,1,,,,,,,,
,,,,,,,,,,,,,FF,,,,,,,,0.983,,,,,,,,,,,,,,,,,,,,,,610363c0fdfd44b94488e6ef,61036fa0c4c2a383a6c91529,2021-07-29_22h20.20.877,Simcolourproject_2stim_asymm_v5,2020.2.10,MacIntel,60,61025ae37ef11b136ea224fe,,,,,,,,,1842,-26,-95,1,0,1,response5disk,,3,19,1,1,0,1,rectangle,19,1,1,0,1,19,1,1,0,1,0,127,127,84,1,,,,,,,,
,,,,,,,,,,,,,FF,,,,,,,,1.716,,,,,,,,,,,,,,,,,,,,,,610363c0fdfd44b94488e6ef,61036fa0c4c2a383a6c91529,2021-07-29_22h20.20.877,Simcolourproject_2stim_asymm_v5,2020.2.10,MacIntel,60,61025ae37ef11b136ea224fe,,,,,,,,,3999,-39,-83,1,0,1,response5disk,,3,2,-12,1,0,1,rectangle,2,-12,1,0,1,2,-12,1,0,1,0,128,128,59,1,,,,,,,,
,,,,,,,,,,,,,FF,,,,,,,,0.567,,,,,,,,,,,,,,,,,,,,,,610363c0fdfd44b94488e6ef,61036fa0c4c2a383a6c91529,2021-07-29_22h20.20.877,Simcolourproject_2stim_asymm_v5,2020.2.10,MacIntel,60,61025ae37ef11b136ea224fe,,,,,,,,,3944,-79,-88,1,0,1,response5disk,,3,-1,9,1,0,1,rectangle,-1,9,1,0,1,-1,9,1,0,1,0,129,129,86,1,,,,,,,,
,,,,,,,,,,,,,FF,,,,,,,,0.85,,,,,,,,,,,,,,,,,,,,,,610363c0fdfd44b94488e6ef,61036fa0c4c2a383a6c91529,2021-07-29_22h20.20.877,Simcolourproject_2stim_asymm_v5,2020.2.10,MacIntel,60,61025ae37ef11b136ea224fe,,,,,,,,,1223,-81,-113,1,0,1,response5disk,,3,-3,-5,1,0,1,rectangle,-3,-5,1,0,1,-3,-5,1,0,1,0,130,130,40,1,,,,,,,,
,,,,,,,,,,,,,FF,,,,,,,,0.799,,,,,,,,,,,,,,,,,,,,,,610363c0fdfd44b94488e6ef,61036fa0c4c2a383a6c91529,2021-07-29_22h20.20.877,Simcolourproject_2stim_asymm_v5,2020.2.10,MacIntel,60,61025ae37ef11b136ea224fe,,,,,,,,,4319,37,-65,1,0,1,response3disk,,4,10,-8,1,0,1,rectangle,10,-8,1,0,1,10,-8,1,0,1,0,131,131,101,1,,,,,,,,
,,,,,,,,,,,,,FF,,,,,,,,1.416,,,,,,,,,,,,,,,,,,,,,,610363c0fdfd44b94488e6ef,61036fa0c4c2a383a6c91529,2021-07-29_22h20.20.877,Simcolourproject_2stim_asymm_v5,2020.2.10,MacIntel,60,61025ae37ef11b136ea224fe,,,,,,,,,1473,-51,-77,1,0,1,response5disk,,3,-6,-2,1,0,1,rectangle,-6,-2,1,0,1,-6,-2,1,0,1,0,132,132,11,1,,,,,,,,
,,,,,,,,,,,,,FF,,,,,,,,4.049,,,,,,,,,,,,,,,,,,,,,,610363c0fdfd44b94488e6ef,61036fa0c4c2a383a6c91529,2021-07-29_22h20.20.877,Simcolourproject_2stim_asymm_v5,2020.2.10,MacIntel,60,61025ae37ef11b136ea224fe,,,,,,,,,3207,43,-75,1,0,1,response3disk,,4,11,-11,1,0,1,rectangle,11,-11,1,0,1,11,-11,1,0,1,0,133,133,127,1,,,,,,,,
,,,,,,,,,,,,,FF,,,,,,,,0.8,,,,,,,,,,,,,,,,,,,,,,610363c0fdfd44b94488e6ef,61036fa0c4c2a383a6c91529,2021-07-29_22h20.20.877,Simcolourproject_2stim_asymm_v5,2020.2.10,MacIntel,60,61025ae37ef11b136ea224fe,,,,,,,,,3474,-74,50,1,0,1,response7disk,,1,-8,10,1,0,1,rectangle,-8,10,1,0,1,-8,10,1,0,1,0,134,134,45,1,,,,,,,,
,,,,,,,,,,,,,FF,,,,,,,,2.299,,,,,,,,,,,,,,,,,,,,,,610363c0fdfd44b94488e6ef,61036fa0c4c2a383a6c91529,2021-07-29_22h20.20.877,Simcolourproject_2stim_asymm_v5,2020.2.10,MacIntel,60,61025ae37ef11b136ea224fe,,,,,,,,,1843,85,32,1,0,1,response1disk,,6,-10,-11,1,0,1,rectangle,-33,-114,1,0,1,0,2,1,0,1,0,135,135,62,1,,response5disk_3,TRUE,3,3,"[208,217,3,146,229,136,80,193,46,209,272,142,322,314,46,280,113,273,145,136]",1.591,rectangle
,,,,,,,,,,,,,FF,,,,,,,,1.066,,,,,,,,,,,,,,,,,,,,,,610363c0fdfd44b94488e6ef,61036fa0c4c2a383a6c91529,2021-07-29_22h20.20.877,Simcolourproject_2stim_asymm_v5,2020.2.10,MacIntel,60,61025ae37ef11b136ea224fe,,,,,,,,,2056,83,-48,1,0,1,response3disk,,5,10,2,1,0,1,rectangle,10,2,1,0,1,10,2,1,0,1,0,136,136,85,1,,,,,,,,
,,,,,,,,,,,,,FF,,,,,,,,0.816,,,,,,,,,,,,,,,,,,,,,,610363c0fdfd44b94488e6ef,61036fa0c4c2a383a6c91529,2021-07-29_22h20.20.877,Simcolourproject_2stim_asymm_v5,2020.2.10,MacIntel,60,61025ae37ef11b136ea224fe,,,,,,,,,3380,46,93,1,0,1,response1disk,,7,2,1,1,0,1,rectangle,2,1,1,0,1,2,1,1,0,1,0,137,137,153,1,,,,,,,,
,,,,,,,,,,,,,FF,,,,,,,,0.766,,,,,,,,,,,,,,,,,,,,,,610363c0fdfd44b94488e6ef,61036fa0c4c2a383a6c91529,2021-07-29_22h20.20.877,Simcolourproject_2stim_asymm_v5,2020.2.10,MacIntel,60,61025ae37ef11b136ea224fe,,,,,,,,,2104,-43,-95,1,0,1,response5disk,,3,-11,0,1,0,1,rectangle,-11,0,1,0,1,-11,0,1,0,1,0,138,138,72,1,,,,,,,,
,,,,,,,,,,,,,FF,,,,,,,,0.898,,,,,,,,,,,,,,,,,,,,,,610363c0fdfd44b94488e6ef,61036fa0c4c2a383a6c91529,2021-07-29_22h20.20.877,Simcolourproject_2stim_asymm_v5,2020.2.10,MacIntel,60,61025ae37ef11b136ea224fe,,,,,,,,,647,57,-92,1,0,1,response3disk,,4,0,-5,1,0,1,rectangle,0,-5,1,0,1,0,-5,1,0,1,0,139,139,21,1,,,,,,,,
,,,,,,,,,,,,,FF,,,,,,,,0.7,,,,,,,,,,,,,,,,,,,,,,610363c0fdfd44b94488e6ef,61036fa0c4c2a383a6c91529,2021-07-29_22h20.20.877,Simcolourproject_2stim_asymm_v5,2020.2.10,MacIntel,60,61025ae37ef11b136ea224fe,,,,,,,,,869,-82,-37,1,0,1,response5disk,,2,-4,-3,1,0,1,rectangle,-4,-3,1,0,1,-4,-3,1,0,1,0,140,140,110,1,,,,,,,,
,,,,,,,,,,,,,FF,,,,,,,,1.017,,,,,,,,,,,,,,,,,,,,,,610363c0fdfd44b94488e6ef,61036fa0c4c2a383a6c91529,2021-07-29_22h20.20.877,Simcolourproject_2stim_asymm_v5,2020.2.10,MacIntel,60,61025ae37ef11b136ea224fe,,,,,,,,,746,92,-60,1,0,1,response3disk,,5,-2,-1,1,0,1,rectangle,-20,-88,1,0,1,14,12,1,0,1,0,141,141,155,1,,response5disk_3,TRUE,3,3,"[208,217,3,146,229,136,80,193,46,209,272,142,322,314,46,280,113,273,145,136]",1.45,rectangle
,,,,,,,,,,,,,FF,,,,,,,,0.966,,,,,,,,,,,,,,,,,,,,,,610363c0fdfd44b94488e6ef,61036fa0c4c2a383a6c91529,2021-07-29_22h20.20.877,Simcolourproject_2stim_asymm_v5,2020.2.10,MacIntel,60,61025ae37ef11b136ea224fe,,,,,,,,,4119,-83,48,1,0,1,response7disk,,1,-1,-2,1,0,1,rectangle,-1,-2,1,0,1,-1,-2,1,0,1,0,142,142,134,1,,,,,,,,
,,,,,,,,,,,,,FF,,,,,,,,2.449,,,,,,,,,,,,,,,,,,,,,,610363c0fdfd44b94488e6ef,61036fa0c4c2a383a6c91529,2021-07-29_22h20.20.877,Simcolourproject_2stim_asymm_v5,2020.2.10,MacIntel,60,61025ae37ef11b136ea224fe,,,,,,,,,2656,-62,-61,1,0,1,response5disk,,2,-18,-9,1,0,1,rectangle,-18,-9,1,0,1,-18,-9,1,0,1,0,143,143,18,1,,,,,,,,
,,,,,,,,,,,,,FF,,,,,,,,0.751,,,,,,,,,,,,,,,,,,,,,,610363c0fdfd44b94488e6ef,61036fa0c4c2a383a6c91529,2021-07-29_22h20.20.877,Simcolourproject_2stim_asymm_v5,2020.2.10,MacIntel,60,61025ae37ef11b136ea224fe,,,,,,,,,3739,-71,-28,1,0,1,response5disk,,2,-5,-6,1,0,1,rectangle,-110,51,1,0,1,4,-4,1,0,1,0,144,144,149,1,,response7disk_3,TRUE,1,1,"[208,217,3,146,229,136,80,193,46,209,272,142,322,314,46,280,113,273,145,136]",1.433,rectangle
,,,,,,,,,,,,,FF,,,,,,,,0.733,,,,,,,,,,,,,,,,,,,,,,610363c0fdfd44b94488e6ef,61036fa0c4c2a383a6c91529,2021-07-29_22h20.20.877,Simcolourproject_2stim_asymm_v5,2020.2.10,MacIntel,60,61025ae37ef11b136ea224fe,,,,,,,,,478,96,-68,1,0,1,response3disk,,5,-13,-9,1,0,1,rectangle,-96,54,1,0,1,-14,-5,1,0,1,0,145,145,69,1,,response7disk_3,TRUE,1,1,"[208,217,3,146,229,136,80,193,46,209,272,142,322,314,46,280,113,273,145,136]",1.217,rectangle
,,,,,,,,,,,,,FF,,,,,,,,1.432,,,,,,,,,,,,,,,,,,,,,,610363c0fdfd44b94488e6ef,61036fa0c4c2a383a6c91529,2021-07-29_22h20.20.877,Simcolourproject_2stim_asymm_v5,2020.2.10,MacIntel,60,61025ae37ef11b136ea224fe,,,,,,,,,2735,-22,-100,1,0,1,response5disk,,3,-9,9,1,0,1,rectangle,-9,9,1,0,1,-9,9,1,0,1,0,146,146,19,1,,,,,,,,
,,,,,,,,,,,,,FF,,,,,,,,1.049,,,,,,,,,,,,,,,,,,,,,,610363c0fdfd44b94488e6ef,61036fa0c4c2a383a6c91529,2021-07-29_22h20.20.877,Simcolourproject_2stim_asymm_v5,2020.2.10,MacIntel,60,61025ae37ef11b136ea224fe,,,,,,,,,3014,-87,-31,1,0,1,response5disk,,2,-6,2,1,0,1,rectangle,-6,2,1,0,1,-6,2,1,0,1,0,147,147,2,1,,,,,,,,
,,,,,,,,,,,,,FF,,,,,,,,0.982,,,,,,,,,,,,,,,,,,,,,,610363c0fdfd44b94488e6ef,61036fa0c4c2a383a6c91529,2021-07-29_22h20.20.877,Simcolourproject_2stim_asymm_v5,2020.2.10,MacIntel,60,61025ae37ef11b136ea224fe,,,,,,,,,1032,32,-86,1,0,1,response3disk,,4,9,-1,1,0,1,rectangle,9,-1,1,0,1,9,-1,1,0,1,0,148,148,126,1,,,,,,,,
,,,,,,,,,,,,,FF,,,,,,,,0.884,,,,,,,,,,,,,,,,,,,,,,610363c0fdfd44b94488e6ef,61036fa0c4c2a383a6c91529,2021-07-29_22h20.20.877,Simcolourproject_2stim_asymm_v5,2020.2.10,MacIntel,60,61025ae37ef11b136ea224fe,,,,,,,,,244,27,-77,1,0,1,response3disk,,4,-3,9,1,0,1,rectangle,-3,9,1,0,1,-3,9,1,0,1,0,149,149,136,1,,,,,,,,
,,,,,,,,,,,,,FF,,,,,,,,1.166,,,,,,,,,,,,,,,,,,,,,,610363c0fdfd44b94488e6ef,61036fa0c4c2a383a6c91529,2021-07-29_22h20.20.877,Simcolourproject_2stim_asymm_v5,2020.2.10,MacIntel,60,61025ae37ef11b136ea224fe,,,,,,,,,2288,-61,-118,1,0,1,response5disk,,3,5,-16,1,0,1,rectangle,5,-16,1,0,1,5,-16,1,0,1,0,150,150,46,1,,,,,,,,
,,,,,,,,,,,,,FF,,,,,,,,0.949,,,,,,,,,,,,,,,,,,,,,,610363c0fdfd44b94488e6ef,61036fa0c4c2a383a6c91529,2021-07-29_22h20.20.877,Simcolourproject_2stim_asymm_v5,2020.2.10,MacIntel,60,61025ae37ef11b136ea224fe,,,,,,,,,2645,30,76,1,0,1,response1disk,,7,-7,-6,1,0,1,rectangle,-7,-6,1,0,1,-7,-6,1,0,1,0,151,151,137,1,,,,,,,,
,,,,,,,,,,,,,FF,,,,,,,,0.749,,,,,,,,,,,,,,,,,,,,,,610363c0fdfd44b94488e6ef,61036fa0c4c2a383a6c91529,2021-07-29_22h20.20.877,Simcolourproject_2stim_asymm_v5,2020.2.10,MacIntel,60,61025ae37ef11b136ea224fe,,,,,,,,,1596,-97,46,1,0,1,response7disk,,1,-1,0,1,0,1,rectangle,-1,0,1,0,1,-1,0,1,0,1,0,152,152,20,1,,,,,,,,
,,,,,,,,,,,,,FF,,,,,,,,9.517,,,,,,,,,,,,,,,,,,,,,,610363c0fdfd44b94488e6ef,61036fa0c4c2a383a6c91529,2021-07-29_22h20.20.877,Simcolourproject_2stim_asymm_v5,2020.2.10,MacIntel,60,61025ae37ef11b136ea224fe,,,,,,,,,2537,-48,-82,1,0,1,response5disk,,3,-9,-2,1,0,1,rectangle,-9,-2,1,0,1,-9,-2,1,0,1,0,153,153,95,1,,,,,,,,
,,,,,,,,,,,,,FF,,,,,,,,1.816,,,,,,,,,,,,,,,,,,,,,,610363c0fdfd44b94488e6ef,61036fa0c4c2a383a6c91529,2021-07-29_22h20.20.877,Simcolourproject_2stim_asymm_v5,2020.2.10,MacIntel,60,61025ae37ef11b136ea224fe,,,,,,,,,3262,67,-41,1,0,1,response3disk,,5,-6,9,1,0,1,rectangle,-6,9,1,0,1,-6,9,1,0,1,0,154,154,25,1,,,,,,,,
,,,,,,,,,,,,,FF,,,,,,,,1.199,,,,,,,,,,,,,,,,,,,,,,610363c0fdfd44b94488e6ef,61036fa0c4c2a383a6c91529,2021-07-29_22h20.20.877,Simcolourproject_2stim_asymm_v5,2020.2.10,MacIntel,60,61025ae37ef11b136ea224fe,,,,,,,,,1553,117,35,1,0,1,response1disk,,6,-9,-9,1,0,1,rectangle,-9,-9,1,0,1,-9,-9,1,0,1,0,155,155,143,1,,,,,,,,
,,,,,,,,,,,,,FF,,,,,,,,1.065,,,,,,,,,,,,,,,,,,,,,,610363c0fdfd44b94488e6ef,61036fa0c4c2a383a6c91529,2021-07-29_22h20.20.877,Simcolourproject_2stim_asymm_v5,2020.2.10,MacIntel,60,61025ae37ef11b136ea224fe,,,,,,,,,4275,-42,-86,1,0,1,response5disk,,3,2,1,1,0,1,rectangle,2,1,1,0,1,2,1,1,0,1,0,156,156,60,1,,,,,,,,
,,,,,,,,,,,,,FF,,,,,,,,0.732,,,,,,,,,,,,,,,,,,,,,,610363c0fdfd44b94488e6ef,61036fa0c4c2a383a6c91529,2021-07-29_22h20.20.877,Simcolourproject_2stim_asymm_v5,2020.2.10,MacIntel,60,61025ae37ef11b136ea224fe,,,,,,,,,3823,106,29,1,0,1,response1disk,,6,-7,6,1,0,1,rectangle,-7,6,1,0,1,-7,6,1,0,1,0,157,157,50,1,,,,,,,,
,,,,,,,,,,,,,FF,,,,,,,,1.332,,,,,,,,,,,,,,,,,,,,,,610363c0fdfd44b94488e6ef,61036fa0c4c2a383a6c91529,2021-07-29_22h20.20.877,Simcolourproject_2stim_asymm_v5,2020.2.10,MacIntel,60,61025ae37ef11b136ea224fe,,,,,,,,,2299,-77,44,1,0,1,response7disk,,1,-4,-6,1,0,1,rectangle,-4,-6,1,0,1,-4,-6,1,0,1,0,158,158,68,1,,,,,,,,
,,,,,,,,,,,,,FF,,,,,,,,1.683,,,,,,,,,,,,,,,,,,,,,,610363c0fdfd44b94488e6ef,61036fa0c4c2a383a6c91529,2021-07-29_22h20.20.877,Simcolourproject_2stim_asymm_v5,2020.2.10,MacIntel,60,61025ae37ef11b136ea224fe,,,,,,,,,702,-108,-27,1,0,1,response5disk,,2,20,0,1,0,1,rectangle,20,0,1,0,1,20,0,1,0,1,0,159,159,121,1,,,,,,,,
,,,,,,,,,,,,,FF,,,,,,,,2.466,,,,,,,,,,,,,,,,,,,,,,610363c0fdfd44b94488e6ef,61036fa0c4c2a383a6c91529,2021-07-29_22h20.20.877,Simcolourproject_2stim_asymm_v5,2020.2.10,MacIntel,60,61025ae37ef11b136ea224fe,,,,,,,,,16,-69,-39,1,0,1,response5disk,,2,-1,0,1,0,1,rectangle,-1,0,1,0,1,-1,0,1,0,1,1,0,160,47,1,,,,,,,,
,,,,,,,,,,,,,FF,,,,,,,,1.9,,,,,,,,,,,,,,,,,,,,,,610363c0fdfd44b94488e6ef,61036fa0c4c2a383a6c91529,2021-07-29_22h20.20.877,Simcolourproject_2stim_asymm_v5,2020.2.10,MacIntel,60,61025ae37ef11b136ea224fe,,,,,,,,,1175,30,51,1,0,1,response1disk,,7,-7,1,1,0,1,rectangle,-7,1,1,0,1,-7,1,1,0,1,1,1,161,120,1,,,,,,,,
,,,,,,,,,,,,,FF,,,,,,,,0.982,,,,,,,,,,,,,,,,,,,,,,610363c0fdfd44b94488e6ef,61036fa0c4c2a383a6c91529,2021-07-29_22h20.20.877,Simcolourproject_2stim_asymm_v5,2020.2.10,MacIntel,60,61025ae37ef11b136ea224fe,,,,,,,,,315,85,21,1,0,1,response1disk,,6,-2,2,1,0,1,rectangle,-2,2,1,0,1,-2,2,1,0,1,1,2,162,125,1,,,,,,,,
,,,,,,,,,,,,,FF,,,,,,,,0.915,,,,,,,,,,,,,,,,,,,,,,610363c0fdfd44b94488e6ef,61036fa0c4c2a383a6c91529,2021-07-29_22h20.20.877,Simcolourproject_2stim_asymm_v5,2020.2.10,MacIntel,60,61025ae37ef11b136ea224fe,,,,,,,,,4258,116,-17,1,0,1,response3disk,,5,26,2,1,0,1,rectangle,26,2,1,0,1,26,2,1,0,1,1,3,163,23,1,,,,,,,,
,,,,,,,,,,,,,FF,,,,,,,,1.199,,,,,,,,,,,,,,,,,,,,,,610363c0fdfd44b94488e6ef,61036fa0c4c2a383a6c91529,2021-07-29_22h20.20.877,Simcolourproject_2stim_asymm_v5,2020.2.10,MacIntel,60,61025ae37ef11b136ea224fe,,,,,,,,,785,-93,-32,1,0,1,response5disk,,2,-4,6,1,0,1,rectangle,-4,6,1,0,1,-4,6,1,0,1,1,4,164,147,1,,,,,,,,
,,,,,,,,,,,,,FF,,,,,,,,0.733,,,,,,,,,,,,,,,,,,,,,,610363c0fdfd44b94488e6ef,61036fa0c4c2a383a6c91529,2021-07-29_22h20.20.877,Simcolourproject_2stim_asymm_v5,2020.2.10,MacIntel,60,61025ae37ef11b136ea224fe,,,,,,,,,3624,-28,-68,1,0,1,response5disk,,3,2,1,1,0,1,rectangle,2,1,1,0,1,2,1,1,0,1,1,5,165,41,1,,,,,,,,
,,,,,,,,,,,,,FF,,,,,,,,0.899,,,,,,,,,,,,,,,,,,,,,,610363c0fdfd44b94488e6ef,61036fa0c4c2a383a6c91529,2021-07-29_22h20.20.877,Simcolourproject_2stim_asymm_v5,2020.2.10,MacIntel,60,61025ae37ef11b136ea224fe,,,,,,,,,2019,35,-57,1,0,1,response3disk,,4,-4,9,1,0,1,rectangle,-4,9,1,0,1,-4,9,1,0,1,1,6,166,98,1,,,,,,,,
,,,,,,,,,,,,,FF,,,,,,,,0.733,,,,,,,,,,,,,,,,,,,,,,610363c0fdfd44b94488e6ef,61036fa0c4c2a383a6c91529,2021-07-29_22h20.20.877,Simcolourproject_2stim_asymm_v5,2020.2.10,MacIntel,60,61025ae37ef11b136ea224fe,,,,,,,,,3703,-98,-35,1,0,1,response5disk,,2,-6,-3,1,0,1,rectangle,-6,-3,1,0,1,-6,-3,1,0,1,1,7,167,44,1,,,,,,,,
,,,,,,,,,,,,,FF,,,,,,,,2.132,,,,,,,,,,,,,,,,,,,,,,610363c0fdfd44b94488e6ef,61036fa0c4c2a383a6c91529,2021-07-29_22h20.20.877,Simcolourproject_2stim_asymm_v5,2020.2.10,MacIntel,60,61025ae37ef11b136ea224fe,,,,,,,,,2655,42,-87,1,0,1,response3disk,,4,19,-3,1,0,1,rectangle,19,-3,1,0,1,19,-3,1,0,1,1,8,168,4,1,,,,,,,,
,,,,,,,,,,,,,FF,,,,,,,,0.984,,,,,,,,,,,,,,,,,,,,,,610363c0fdfd44b94488e6ef,61036fa0c4c2a383a6c91529,2021-07-29_22h20.20.877,Simcolourproject_2stim_asymm_v5,2020.2.10,MacIntel,60,61025ae37ef11b136ea224fe,,,,,,,,,3809,-47,-70,1,0,1,response5disk,,3,5,10,1,0,1,rectangle,5,10,1,0,1,5,10,1,0,1,1,9,169,134,1,,,,,,,,
,,,,,,,,,,,,,FF,,,,,,,,0.716,,,,,,,,,,,,,,,,,,,,,,610363c0fdfd44b94488e6ef,61036fa0c4c2a383a6c91529,2021-07-29_22h20.20.877,Simcolourproject_2stim_asymm_v5,2020.2.10,MacIntel,60,61025ae37ef11b136ea224fe,,,,,,,,,3363,35,76,1,0,1,response1disk,,7,22,16,1,0,1,rectangle,22,16,1,0,1,22,16,1,0,1,1,10,170,39,1,,,,,,,,
,,,,,,,,,,,,,FF,,,,,,,,1.083,,,,,,,,,,,,,,,,,,,,,,610363c0fdfd44b94488e6ef,61036fa0c4c2a383a6c91529,2021-07-29_22h20.20.877,Simcolourproject_2stim_asymm_v5,2020.2.10,MacIntel,60,61025ae37ef11b136ea224fe,,,,,,,,,942,118,42,1,0,1,response1disk,,6,8,-6,1,0,1,rectangle,8,-6,1,0,1,8,-6,1,0,1,1,11,171,153,1,,,,,,,,
,,,,,,,,,,,,,FF,,,,,,,,0.8,,,,,,,,,,,,,,,,,,,,,,610363c0fdfd44b94488e6ef,61036fa0c4c2a383a6c91529,2021-07-29_22h20.20.877,Simcolourproject_2stim_asymm_v5,2020.2.10,MacIntel,60,61025ae37ef11b136ea224fe,,,,,,,,,1081,90,37,1,0,1,response1disk,,6,10,3,1,0,1,rectangle,10,3,1,0,1,10,3,1,0,1,1,12,172,94,1,,,,,,,,
,,,,,,,,,,,,,FF,,,,,,,,0.533,,,,,,,,,,,,,,,,,,,,,,610363c0fdfd44b94488e6ef,61036fa0c4c2a383a6c91529,2021-07-29_22h20.20.877,Simcolourproject_2stim_asymm_v5,2020.2.10,MacIntel,60,61025ae37ef11b136ea224fe,,,,,,,,,1501,60,-49,1,0,1,response3disk,,5,-5,6,1,0,1,rectangle,-5,6,1,0,1,-5,6,1,0,1,1,13,173,85,1,,,,,,,,
,,,,,,,,,,,,,FF,,,,,,,,0.716,,,,,,,,,,,,,,,,,,,,,,610363c0fdfd44b94488e6ef,61036fa0c4c2a383a6c91529,2021-07-29_22h20.20.877,Simcolourproject_2stim_asymm_v5,2020.2.10,MacIntel,60,61025ae37ef11b136ea224fe,,,,,,,,,2923,94,39,1,0,1,response1disk,,6,4,-3,1,0,1,rectangle,4,-3,1,0,1,4,-3,1,0,1,1,14,174,43,1,,,,,,,,
,,,,,,,,,,,,,FF,,,,,,,,2.717,,,,,,,,,,,,,,,,,,,,,,610363c0fdfd44b94488e6ef,61036fa0c4c2a383a6c91529,2021-07-29_22h20.20.877,Simcolourproject_2stim_asymm_v5,2020.2.10,MacIntel,60,61025ae37ef11b136ea224fe,,,,,,,,,1372,68,34,1,0,1,response1disk,,6,-2,14,1,0,1,rectangle,-2,14,1,0,1,-2,14,1,0,1,1,15,175,40,1,,,,,,,,
,,,,,,,,,,,,,FF,,,,,,,,0.966,,,,,,,,,,,,,,,,,,,,,,610363c0fdfd44b94488e6ef,61036fa0c4c2a383a6c91529,2021-07-29_22h20.20.877,Simcolourproject_2stim_asymm_v5,2020.2.10,MacIntel,60,61025ae37ef11b136ea224fe,,,,,,,,,2174,-110,36,1,0,1,response7disk,,1,5,10,1,0,1,rectangle,5,10,1,0,1,5,10,1,0,1,1,16,176,143,1,,,,,,,,
,,,,,,,,,,,,,FF,,,,,,,,1.216,,,,,,,,,,,,,,,,,,,,,,610363c0fdfd44b94488e6ef,61036fa0c4c2a383a6c91529,2021-07-29_22h20.20.877,Simcolourproject_2stim_asymm_v5,2020.2.10,MacIntel,60,61025ae37ef11b136ea224fe,,,,,,,,,4114,-52,-67,1,0,1,response5disk,,3,-21,-8,1,0,1,rectangle,-21,-8,1,0,1,-21,-8,1,0,1,1,17,177,8,1,,,,,,,,
,,,,,,,,,,,,,FF,,,,,,,,0.666,,,,,,,,,,,,,,,,,,,,,,610363c0fdfd44b94488e6ef,61036fa0c4c2a383a6c91529,2021-07-29_22h20.20.877,Simcolourproject_2stim_asymm_v5,2020.2.10,MacIntel,60,61025ae37ef11b136ea224fe,,,,,,,,,718,-87,-33,1,0,1,response5disk,,2,9,-7,1,0,1,rectangle,9,-7,1,0,1,9,-7,1,0,1,1,18,178,69,1,,,,,,,,
,,,,,,,,,,,,,FF,,,,,,,,1.065,,,,,,,,,,,,,,,,,,,,,,610363c0fdfd44b94488e6ef,61036fa0c4c2a383a6c91529,2021-07-29_22h20.20.877,Simcolourproject_2stim_asymm_v5,2020.2.10,MacIntel,60,61025ae37ef11b136ea224fe,,,,,,,,,484,82,-45,1,0,1,response3disk,,5,-10,11,1,0,1,rectangle,-10,11,1,0,1,-10,11,1,0,1,1,19,179,12,1,,,,,,,,
,,,,,,,,,,,,,FF,,,,,,,,0.85,,,,,,,,,,,,,,,,,,,,,,610363c0fdfd44b94488e6ef,61036fa0c4c2a383a6c91529,2021-07-29_22h20.20.877,Simcolourproject_2stim_asymm_v5,2020.2.10,MacIntel,60,61025ae37ef11b136ea224fe,,,,,,,,,3618,24,-47,1,0,1,response3disk,,4,10,-5,1,0,1,rectangle,10,-5,1,0,1,10,-5,1,0,1,1,20,180,138,1,,,,,,,,
,,,,,,,,,,,,,FF,,,,,,,,1.75,,,,,,,,,,,,,,,,,,,,,,610363c0fdfd44b94488e6ef,61036fa0c4c2a383a6c91529,2021-07-29_22h20.20.877,Simcolourproject_2stim_asymm_v5,2020.2.10,MacIntel,60,61025ae37ef11b136ea224fe,,,,,,,,,2599,50,-82,1,0,1,response3disk,,4,28,-1,1,0,1,rectangle,28,-1,1,0,1,28,-1,1,0,1,1,21,181,74,1,,,,,,,,
,,,,,,,,,,,,,FF,,,,,,,,0.8,,,,,,,,,,,,,,,,,,,,,,610363c0fdfd44b94488e6ef,61036fa0c4c2a383a6c91529,2021-07-29_22h20.20.877,Simcolourproject_2stim_asymm_v5,2020.2.10,MacIntel,60,61025ae37ef11b136ea224fe,,,,,,,,,2792,-75,-83,1,0,1,response5disk,,3,-19,0,1,0,1,rectangle,-19,0,1,0,1,-19,0,1,0,1,1,22,182,35,1,,,,,,,,
,,,,,,,,,,,,,FF,,,,,,,,2.017,,,,,,,,,,,,,,,,,,,,,,610363c0fdfd44b94488e6ef,61036fa0c4c2a383a6c91529,2021-07-29_22h20.20.877,Simcolourproject_2stim_asymm_v5,2020.2.10,MacIntel,60,61025ae37ef11b136ea224fe,,,,,,,,,2358,-21,-80,1,0,1,response5disk,,3,0,4,1,0,1,rectangle,0,4,1,0,1,0,4,1,0,1,1,23,183,151,1,,,,,,,,
,,,,,,,,,,,,,FF,,,,,,,,1.8,,,,,,,,,,,,,,,,,,,,,,610363c0fdfd44b94488e6ef,61036fa0c4c2a383a6c91529,2021-07-29_22h20.20.877,Simcolourproject_2stim_asymm_v5,2020.2.10,MacIntel,60,61025ae37ef11b136ea224fe,,,,,,,,,3883,38,-95,1,0,1,response3disk,,4,23,14,1,0,1,rectangle,23,14,1,0,1,23,14,1,0,1,1,24,184,133,1,,,,,,,,
,,,,,,,,,,,,,FF,,,,,,,,0.833,,,,,,,,,,,,,,,,,,,,,,610363c0fdfd44b94488e6ef,61036fa0c4c2a383a6c91529,2021-07-29_22h20.20.877,Simcolourproject_2stim_asymm_v5,2020.2.10,MacIntel,60,61025ae37ef11b136ea224fe,,,,,,,,,3235,55,-41,1,0,1,response3disk,,5,-1,-7,1,0,1,rectangle,-1,-7,1,0,1,-1,-7,1,0,1,1,25,185,116,1,,,,,,,,
,,,,,,,,,,,,,FF,,,,,,,,0.883,,,,,,,,,,,,,,,,,,,,,,610363c0fdfd44b94488e6ef,61036fa0c4c2a383a6c91529,2021-07-29_22h20.20.877,Simcolourproject_2stim_asymm_v5,2020.2.10,MacIntel,60,61025ae37ef11b136ea224fe,,,,,,,,,1781,-31,-73,1,0,1,response5disk,,3,-8,-3,1,0,1,rectangle,-8,-3,1,0,1,-8,-3,1,0,1,1,26,186,42,1,,,,,,,,
,,,,,,,,,,,,,FF,,,,,,,,0.849,,,,,,,,,,,,,,,,,,,,,,610363c0fdfd44b94488e6ef,61036fa0c4c2a383a6c91529,2021-07-29_22h20.20.877,Simcolourproject_2stim_asymm_v5,2020.2.10,MacIntel,60,61025ae37ef11b136ea224fe,,,,,,,,,1352,-73,-35,1,0,1,response5disk,,2,0,1,1,0,1,rectangle,0,1,1,0,1,0,1,1,0,1,1,27,187,93,1,,,,,,,,
,,,,,,,,,,,,,FF,,,,,,,,0.834,,,,,,,,,,,,,,,,,,,,,,610363c0fdfd44b94488e6ef,61036fa0c4c2a383a6c91529,2021-07-29_22h20.20.877,Simcolourproject_2stim_asymm_v5,2020.2.10,MacIntel,60,61025ae37ef11b136ea224fe,,,,,,,,,1454,-57,109,1,0,1,response7disk,,0,-13,9,1,0,1,rectangle,-13,9,1,0,1,-13,9,1,0,1,1,28,188,70,1,,,,,,,,
,,,,,,,,,,,,,FF,,,,,,,,0.882,,,,,,,,,,,,,,,,,,,,,,610363c0fdfd44b94488e6ef,61036fa0c4c2a383a6c91529,2021-07-29_22h20.20.877,Simcolourproject_2stim_asymm_v5,2020.2.10,MacIntel,60,61025ae37ef11b136ea224fe,,,,,,,,,2260,102,37,1,0,1,response1disk,,6,33,6,1,0,1,rectangle,33,6,1,0,1,33,6,1,0,1,1,29,189,95,1,,,,,,,,
,,,,,,,,,,,,,FF,,,,,,,,0.816,,,,,,,,,,,,,,,,,,,,,,610363c0fdfd44b94488e6ef,61036fa0c4c2a383a6c91529,2021-07-29_22h20.20.877,Simcolourproject_2stim_asymm_v5,2020.2.10,MacIntel,60,61025ae37ef11b136ea224fe,,,,,,,,,1988,106,-60,1,0,1,response3disk,,5,22,-8,1,0,1,rectangle,22,-8,1,0,1,22,-8,1,0,1,1,30,190,19,1,,,,,,,,
,,,,,,,,,,,,,FF,,,,,,,,2.984,,,,,,,,,,,,,,,,,,,,,,610363c0fdfd44b94488e6ef,61036fa0c4c2a383a6c91529,2021-07-29_22h20.20.877,Simcolourproject_2stim_asymm_v5,2020.2.10,MacIntel,60,61025ae37ef11b136ea224fe,,,,,,,,,1399,75,-76,1,0,1,response3disk,,4,20,-12,1,0,1,rectangle,20,-12,1,0,1,20,-12,1,0,1,1,31,191,128,1,,,,,,,,
,,,,,,,,,,,,,FF,,,,,,,,0.966,,,,,,,,,,,,,,,,,,,,,,610363c0fdfd44b94488e6ef,61036fa0c4c2a383a6c91529,2021-07-29_22h20.20.877,Simcolourproject_2stim_asymm_v5,2020.2.10,MacIntel,60,61025ae37ef11b136ea224fe,,,,,,,,,3910,-41,-88,1,0,1,response5disk,,3,-17,-6,1,0,1,rectangle,-118,50,1,0,1,-6,-3,1,0,1,1,32,192,53,1,,response7disk_3,TRUE,1,1,"[208,217,3,146,229,136,80,193,46,209,272,142,322,314,46,280,113,273,145,136]",5.516,rectangle
,,,,,,,,,,,,,FF,,,,,,,,0.8,,,,,,,,,,,,,,,,,,,,,,610363c0fdfd44b94488e6ef,61036fa0c4c2a383a6c91529,2021-07-29_22h20.20.877,Simcolourproject_2stim_asymm_v5,2020.2.10,MacIntel,60,61025ae37ef11b136ea224fe,,,,,,,,,4042,-32,-88,1,0,1,response5disk,,3,-4,-9,1,0,1,rectangle,-4,-9,1,0,1,-4,-9,1,0,1,1,33,193,32,1,,,,,,,,
,,,,,,,,,,,,,FF,,,,,,,,0.915,,,,,,,,,,,,,,,,,,,,,,610363c0fdfd44b94488e6ef,61036fa0c4c2a383a6c91529,2021-07-29_22h20.20.877,Simcolourproject_2stim_asymm_v5,2020.2.10,MacIntel,60,61025ae37ef11b136ea224fe,,,,,,,,,2194,23,-53,1,0,1,response3disk,,4,11,6,1,0,1,rectangle,11,6,1,0,1,11,6,1,0,1,1,34,194,65,1,,,,,,,,
,,,,,,,,,,,,,FF,,,,,,,,1.65,,,,,,,,,,,,,,,,,,,,,,610363c0fdfd44b94488e6ef,61036fa0c4c2a383a6c91529,2021-07-29_22h20.20.877,Simcolourproject_2stim_asymm_v5,2020.2.10,MacIntel,60,61025ae37ef11b136ea224fe,,,,,,,,,1210,44,117,1,0,1,response1disk,,7,-14,7,1,0,1,rectangle,-14,7,1,0,1,-14,7,1,0,1,1,35,195,132,1,,,,,,,,
,,,,,,,,,,,,,FF,,,,,,,,2.118,,,,,,,,,,,,,,,,,,,,,,610363c0fdfd44b94488e6ef,61036fa0c4c2a383a6c91529,2021-07-29_22h20.20.877,Simcolourproject_2stim_asymm_v5,2020.2.10,MacIntel,60,61025ae37ef11b136ea224fe,,,,,,,,,4176,62,45,1,0,1,response1disk,,6,-10,-4,1,0,1,rectangle,-10,-4,1,0,1,-10,-4,1,0,1,1,36,196,135,1,,,,,,,,
,,,,,,,,,,,,,FF,,,,,,,,0.966,,,,,,,,,,,,,,,,,,,,,,610363c0fdfd44b94488e6ef,61036fa0c4c2a383a6c91529,2021-07-29_22h20.20.877,Simcolourproject_2stim_asymm_v5,2020.2.10,MacIntel,60,61025ae37ef11b136ea224fe,,,,,,,,,3884,107,41,1,0,1,response1disk,,6,18,-5,1,0,1,rectangle,18,-5,1,0,1,18,-5,1,0,1,1,37,197,123,1,,,,,,,,
,,,,,,,,,,,,,FF,,,,,,,,0.798,,,,,,,,,,,,,,,,,,,,,,610363c0fdfd44b94488e6ef,61036fa0c4c2a383a6c91529,2021-07-29_22h20.20.877,Simcolourproject_2stim_asymm_v5,2020.2.10,MacIntel,60,61025ae37ef11b136ea224fe,,,,,,,,,2421,-114,-32,1,0,1,response5disk,,2,15,-4,1,0,1,rectangle,15,-4,1,0,1,15,-4,1,0,1,1,38,198,7,1,,,,,,,,
,,,,,,,,,,,,,FF,,,,,,,,1.05,,,,,,,,,,,,,,,,,,,,,,610363c0fdfd44b94488e6ef,61036fa0c4c2a383a6c91529,2021-07-29_22h20.20.877,Simcolourproject_2stim_asymm_v5,2020.2.10,MacIntel,60,61025ae37ef11b136ea224fe,,,,,,,,,1955,-73,43,1,0,1,response7disk,,1,12,9,1,0,1,rectangle,12,9,1,0,1,12,9,1,0,1,1,39,199,82,1,,,,,,,,
,,,,,,,,,,,,,FF,,,,,,,,2.783,,,,,,,,,,,,,,,,,,,,,,610363c0fdfd44b94488e6ef,61036fa0c4c2a383a6c91529,2021-07-29_22h20.20.877,Simcolourproject_2stim_asymm_v5,2020.2.10,MacIntel,60,61025ae37ef11b136ea224fe,,,,,,,,,54,65,-41,1,0,1,response3disk,,5,-11,-3,1,0,1,rectangle,-11,-3,1,0,1,-11,-3,1,0,1,1,40,200,139,1,,,,,,,,
,,,,,,,,,,,,,FF,,,,,,,,0.667,,,,,,,,,,,,,,,,,,,,,,610363c0fdfd44b94488e6ef,61036fa0c4c2a383a6c91529,2021-07-29_22h20.20.877,Simcolourproject_2stim_asymm_v5,2020.2.10,MacIntel,60,61025ae37ef11b136ea224fe,,,,,,,,,3221,22,-97,1,0,1,response3disk,,4,-11,11,1,0,1,rectangle,-11,11,1,0,1,-11,11,1,0,1,1,41,201,84,1,,,,,,,,
,,,,,,,,,,,,,FF,,,,,,,,0.817,,,,,,,,,,,,,,,,,,,,,,610363c0fdfd44b94488e6ef,61036fa0c4c2a383a6c91529,2021-07-29_22h20.20.877,Simcolourproject_2stim_asymm_v5,2020.2.10,MacIntel,60,61025ae37ef11b136ea224fe,,,,,,,,,740,-74,-18,1,0,1,response5disk,,2,-17,7,1,0,1,rectangle,-17,7,1,0,1,-17,7,1,0,1,1,42,202,97,1,,,,,,,,
,,,,,,,,,,,,,FF,,,,,,,,0.932,,,,,,,,,,,,,,,,,,,,,,610363c0fdfd44b94488e6ef,61036fa0c4c2a383a6c91529,2021-07-29_22h20.20.877,Simcolourproject_2stim_asymm_v5,2020.2.10,MacIntel,60,61025ae37ef11b136ea224fe,,,,,,,,,2851,103,33,1,0,1,response1disk,,6,-3,7,1,0,1,rectangle,-3,7,1,0,1,-3,7,1,0,1,1,43,203,49,1,,,,,,,,
,,,,,,,,,,,,,FF,,,,,,,,1.051,,,,,,,,,,,,,,,,,,,,,,610363c0fdfd44b94488e6ef,61036fa0c4c2a383a6c91529,2021-07-29_22h20.20.877,Simcolourproject_2stim_asymm_v5,2020.2.10,MacIntel,60,61025ae37ef11b136ea224fe,,,,,,,,,1736,60,-31,1,0,1,response3disk,,5,19,-12,1,0,1,rectangle,19,-12,1,0,1,19,-12,1,0,1,1,44,204,51,1,,,,,,,,
,,,,,,,,,,,,,FF,,,,,,,,1.2,,,,,,,,,,,,,,,,,,,,,,610363c0fdfd44b94488e6ef,61036fa0c4c2a383a6c91529,2021-07-29_22h20.20.877,Simcolourproject_2stim_asymm_v5,2020.2.10,MacIntel,60,61025ae37ef11b136ea224fe,,,,,,,,,1165,113,31,1,0,1,response1disk,,6,-27,-1,1,0,1,rectangle,-27,-1,1,0,1,-27,-1,1,0,1,1,45,205,111,1,,,,,,,,
,,,,,,,,,,,,,FF,,,,,,,,0.832,,,,,,,,,,,,,,,,,,,,,,610363c0fdfd44b94488e6ef,61036fa0c4c2a383a6c91529,2021-07-29_22h20.20.877,Simcolourproject_2stim_asymm_v5,2020.2.10,MacIntel,60,61025ae37ef11b136ea224fe,,,,,,,,,3592,-120,-60,1,0,1,response5disk,,2,26,6,1,0,1,rectangle,26,6,1,0,1,26,6,1,0,1,1,46,206,131,1,,,,,,,,
,,,,,,,,,,,,,FF,,,,,,,,0.948,,,,,,,,,,,,,,,,,,,,,,610363c0fdfd44b94488e6ef,61036fa0c4c2a383a6c91529,2021-07-29_22h20.20.877,Simcolourproject_2stim_asymm_v5,2020.2.10,MacIntel,60,61025ae37ef11b136ea224fe,,,,,,,,,1672,-55,-73,1,0,1,response5disk,,3,-11,-3,1,0,1,rectangle,25,-98,1,0,1,13,4,1,0,1,1,47,207,31,1,,response3disk_3,TRUE,4,4,"[208,217,3,146,229,136,80,193,46,209,272,142,322,314,46,280,113,273,145,136]",1.649,rectangle
,,,,,,,,,,,,,FF,,,,,,,,0.866,,,,,,,,,,,,,,,,,,,,,,610363c0fdfd44b94488e6ef,61036fa0c4c2a383a6c91529,2021-07-29_22h20.20.877,Simcolourproject_2stim_asymm_v5,2020.2.10,MacIntel,60,61025ae37ef11b136ea224fe,,,,,,,,,97,-85,-46,1,0,1,response5disk,,2,-11,-2,1,0,1,rectangle,31,-107,1,0,1,12,2,1,0,1,1,48,208,63,1,,response3disk_3,TRUE,4,4,"[208,217,3,146,229,136,80,193,46,209,272,142,322,314,46,280,113,273,145,136]",1.585,rectangle
,,,,,,,,,,,,,FF,,,,,,,,1.999,,,,,,,,,,,,,,,,,,,,,,610363c0fdfd44b94488e6ef,61036fa0c4c2a383a6c91529,2021-07-29_22h20.20.877,Simcolourproject_2stim_asymm_v5,2020.2.10,MacIntel,60,61025ae37ef11b136ea224fe,,,,,,,,,3982,41,-72,1,0,1,response3disk,,4,3,3,1,0,1,rectangle,3,3,1,0,1,3,3,1,0,1,1,49,209,91,1,,,,,,,,
,,,,,,,,,,,,,FF,,,,,,,,0.8,,,,,,,,,,,,,,,,,,,,,,610363c0fdfd44b94488e6ef,61036fa0c4c2a383a6c91529,2021-07-29_22h20.20.877,Simcolourproject_2stim_asymm_v5,2020.2.10,MacIntel,60,61025ae37ef11b136ea224fe,,,,,,,,,2188,34,-121,1,0,1,response3disk,,4,-5,0,1,0,1,rectangle,-5,0,1,0,1,-5,0,1,0,1,1,50,210,141,1,,,,,,,,
,,,,,,,,,,,,,FF,,,,,,,,1.399,,,,,,,,,,,,,,,,,,,,,,610363c0fdfd44b94488e6ef,61036fa0c4c2a383a6c91529,2021-07-29_22h20.20.877,Simcolourproject_2stim_asymm_v5,2020.2.10,MacIntel,60,61025ae37ef11b136ea224fe,,,,,,,,,1954,-21,-61,1,0,1,response5disk,,3,8,7,1,0,1,rectangle,8,7,1,0,1,8,7,1,0,1,1,51,211,109,1,,,,,,,,
,,,,,,,,,,,,,FF,,,,,,,,0.933,,,,,,,,,,,,,,,,,,,,,,610363c0fdfd44b94488e6ef,61036fa0c4c2a383a6c91529,2021-07-29_22h20.20.877,Simcolourproject_2stim_asymm_v5,2020.2.10,MacIntel,60,61025ae37ef11b136ea224fe,,,,,,,,,1498,87,35,1,0,1,response1disk,,6,-10,-10,1,0,1,rectangle,-10,-10,1,0,1,-10,-10,1,0,1,1,52,212,67,1,,,,,,,,
,,,,,,,,,,,,,FF,,,,,,,,1.068,,,,,,,,,,,,,,,,,,,,,,610363c0fdfd44b94488e6ef,61036fa0c4c2a383a6c91529,2021-07-29_22h20.20.877,Simcolourproject_2stim_asymm_v5,2020.2.10,MacIntel,60,61025ae37ef11b136ea224fe,,,,,,,,,2995,44,-83,1,0,1,response3disk,,4,18,4,1,0,1,rectangle,18,4,1,0,1,18,4,1,0,1,1,53,213,36,1,,,,,,,,
,,,,,,,,,,,,,FF,,,,,,,,1,,,,,,,,,,,,,,,,,,,,,,610363c0fdfd44b94488e6ef,61036fa0c4c2a383a6c91529,2021-07-29_22h20.20.877,Simcolourproject_2stim_asymm_v5,2020.2.10,MacIntel,60,61025ae37ef11b136ea224fe,,,,,,,,,1614,27,-83,1,0,1,response3disk,,4,8,4,1,0,1,rectangle,8,4,1,0,1,8,4,1,0,1,1,54,214,100,1,,,,,,,,
,,,,,,,,,,,,,FF,,,,,,,,1.1,,,,,,,,,,,,,,,,,,,,,,610363c0fdfd44b94488e6ef,61036fa0c4c2a383a6c91529,2021-07-29_22h20.20.877,Simcolourproject_2stim_asymm_v5,2020.2.10,MacIntel,60,61025ae37ef11b136ea224fe,,,,,,,,,2872,62,35,1,0,1,response1disk,,6,-8,-9,1,0,1,rectangle,-8,-9,1,0,1,-8,-9,1,0,1,1,55,215,0,1,,,,,,,,
,,,,,,,,,,,,,FF,,,,,,,,1.133,,,,,,,,,,,,,,,,,,,,,,610363c0fdfd44b94488e6ef,61036fa0c4c2a383a6c91529,2021-07-29_22h20.20.877,Simcolourproject_2stim_asymm_v5,2020.2.10,MacIntel,60,61025ae37ef11b136ea224fe,,,,,,,,,429,78,-40,1,0,1,response3disk,,5,22,-12,1,0,1,rectangle,50,-97,1,0,1,11,-1,1,0,1,1,56,216,15,1,,response3disk_3,TRUE,4,4,"[208,217,3,146,229,136,80,193,46,209,272,142,322,314,46,280,113,273,145,136]",1.584,rectangle
,,,,,,,,,,,,,FF,,,,,,,,2.199,,,,,,,,,,,,,,,,,,,,,,610363c0fdfd44b94488e6ef,61036fa0c4c2a383a6c91529,2021-07-29_22h20.20.877,Simcolourproject_2stim_asymm_v5,2020.2.10,MacIntel,60,61025ae37ef11b136ea224fe,,,,,,,,,1591,77,-46,1,0,1,response3disk,,5,3,4,1,0,1,rectangle,3,4,1,0,1,3,4,1,0,1,1,57,217,6,1,,,,,,,,
,,,,,,,,,,,,,FF,,,,,,,,0.9,,,,,,,,,,,,,,,,,,,,,,610363c0fdfd44b94488e6ef,61036fa0c4c2a383a6c91529,2021-07-29_22h20.20.877,Simcolourproject_2stim_asymm_v5,2020.2.10,MacIntel,60,61025ae37ef11b136ea224fe,,,,,,,,,3269,85,-21,1,0,1,response3disk,,5,5,0,1,0,1,rectangle,5,0,1,0,1,5,0,1,0,1,1,58,218,108,1,,,,,,,,
,,,,,,,,,,,,,FF,,,,,,,,0.982,,,,,,,,,,,,,,,,,,,,,,610363c0fdfd44b94488e6ef,61036fa0c4c2a383a6c91529,2021-07-29_22h20.20.877,Simcolourproject_2stim_asymm_v5,2020.2.10,MacIntel,60,61025ae37ef11b136ea224fe,,,,,,,,,2463,30,100,1,0,1,response1disk,,7,4,-1,1,0,1,rectangle,4,-1,1,0,1,4,-1,1,0,1,1,59,219,57,1,,,,,,,,
,,,,,,,,,,,,,FF,,,,,,,,0.799,,,,,,,,,,,,,,,,,,,,,,610363c0fdfd44b94488e6ef,61036fa0c4c2a383a6c91529,2021-07-29_22h20.20.877,Simcolourproject_2stim_asymm_v5,2020.2.10,MacIntel,60,61025ae37ef11b136ea224fe,,,,,,,,,2871,108,48,1,0,1,response1disk,,6,3,17,1,0,1,rectangle,3,17,1,0,1,3,17,1,0,1,1,60,220,64,1,,,,,,,,
,,,,,,,,,,,,,FF,,,,,,,,1.399,,,,,,,,,,,,,,,,,,,,,,610363c0fdfd44b94488e6ef,61036fa0c4c2a383a6c91529,2021-07-29_22h20.20.877,Simcolourproject_2stim_asymm_v5,2020.2.10,MacIntel,60,61025ae37ef11b136ea224fe,,,,,,,,,1347,37,-93,1,0,1,response3disk,,4,11,-8,1,0,1,rectangle,11,-8,1,0,1,11,-8,1,0,1,1,61,221,22,1,,,,,,,,
,,,,,,,,,,,,,FF,,,,,,,,1.333,,,,,,,,,,,,,,,,,,,,,,610363c0fdfd44b94488e6ef,61036fa0c4c2a383a6c91529,2021-07-29_22h20.20.877,Simcolourproject_2stim_asymm_v5,2020.2.10,MacIntel,60,61025ae37ef11b136ea224fe,,,,,,,,,3942,-110,-43,1,0,1,response5disk,,2,-2,6,1,0,1,rectangle,-2,6,1,0,1,-2,6,1,0,1,1,62,222,144,1,,,,,,,,
,,,,,,,,,,,,,FF,,,,,,,,1.1,,,,,,,,,,,,,,,,,,,,,,610363c0fdfd44b94488e6ef,61036fa0c4c2a383a6c91529,2021-07-29_22h20.20.877,Simcolourproject_2stim_asymm_v5,2020.2.10,MacIntel,60,61025ae37ef11b136ea224fe,,,,,,,,,3732,21,85,1,0,1,response1disk,,7,-8,16,1,0,1,rectangle,-8,16,1,0,1,-8,16,1,0,1,1,63,223,87,1,,,,,,,,
,,,,,,,,,,,,,FF,,,,,,,,1.35,,,,,,,,,,,,,,,,,,,,,,610363c0fdfd44b94488e6ef,61036fa0c4c2a383a6c91529,2021-07-29_22h20.20.877,Simcolourproject_2stim_asymm_v5,2020.2.10,MacIntel,60,61025ae37ef11b136ea224fe,,,,,,,,,1412,118,22,1,0,1,response1disk,,6,7,0,1,0,1,rectangle,7,0,1,0,1,7,0,1,0,1,1,64,224,102,1,,,,,,,,
,,,,,,,,,,,,,FF,,,,,,,,0.982,,,,,,,,,,,,,,,,,,,,,,610363c0fdfd44b94488e6ef,61036fa0c4c2a383a6c91529,2021-07-29_22h20.20.877,Simcolourproject_2stim_asymm_v5,2020.2.10,MacIntel,60,61025ae37ef11b136ea224fe,,,,,,,,,2201,78,37,1,0,1,response1disk,,6,18,0,1,0,1,rectangle,18,0,1,0,1,18,0,1,0,1,1,65,225,137,1,,,,,,,,
,,,,,,,,,,,,,FF,,,,,,,,1.032,,,,,,,,,,,,,,,,,,,,,,610363c0fdfd44b94488e6ef,61036fa0c4c2a383a6c91529,2021-07-29_22h20.20.877,Simcolourproject_2stim_asymm_v5,2020.2.10,MacIntel,60,61025ae37ef11b136ea224fe,,,,,,,,,3428,-121,-58,1,0,1,response5disk,,2,-8,-11,1,0,1,rectangle,-8,-11,1,0,1,-8,-11,1,0,1,1,66,226,107,1,,,,,,,,
,,,,,,,,,,,,,FF,,,,,,,,1.701,,,,,,,,,,,,,,,,,,,,,,610363c0fdfd44b94488e6ef,61036fa0c4c2a383a6c91529,2021-07-29_22h20.20.877,Simcolourproject_2stim_asymm_v5,2020.2.10,MacIntel,60,61025ae37ef11b136ea224fe,,,,,,,,,641,-87,-32,1,0,1,response5disk,,2,30,5,1,0,1,rectangle,30,5,1,0,1,30,5,1,0,1,1,67,227,157,1,,,,,,,,
,,,,,,,,,,,,,FF,,,,,,,,0.784,,,,,,,,,,,,,,,,,,,,,,610363c0fdfd44b94488e6ef,61036fa0c4c2a383a6c91529,2021-07-29_22h20.20.877,Simcolourproject_2stim_asymm_v5,2020.2.10,MacIntel,60,61025ae37ef11b136ea224fe,,,,,,,,,3073,29,-79,1,0,1,response3disk,,4,4,-9,1,0,1,rectangle,-119,-57,1,0,1,7,0,1,0,1,1,68,228,29,1,,response5disk_3,TRUE,2,2,"[208,217,3,146,229,136,80,193,46,209,272,142,322,314,46,280,113,273,145,136]",1.65,rectangle
,,,,,,,,,,,,,FF,,,,,,,,1.116,,,,,,,,,,,,,,,,,,,,,,610363c0fdfd44b94488e6ef,61036fa0c4c2a383a6c91529,2021-07-29_22h20.20.877,Simcolourproject_2stim_asymm_v5,2020.2.10,MacIntel,60,61025ae37ef11b136ea224fe,,,,,,,,,635,-32,-92,1,0,1,response5disk,,3,-15,-10,1,0,1,rectangle,-15,-10,1,0,1,-15,-10,1,0,1,1,69,229,10,1,,,,,,,,
,,,,,,,,,,,,,FF,,,,,,,,0.882,,,,,,,,,,,,,,,,,,,,,,610363c0fdfd44b94488e6ef,61036fa0c4c2a383a6c91529,2021-07-29_22h20.20.877,Simcolourproject_2stim_asymm_v5,2020.2.10,MacIntel,60,61025ae37ef11b136ea224fe,,,,,,,,,2531,112,52,1,0,1,response1disk,,6,0,-7,1,0,1,rectangle,0,-7,1,0,1,0,-7,1,0,1,1,70,230,73,1,,,,,,,,
,,,,,,,,,,,,,FF,,,,,,,,0.617,,,,,,,,,,,,,,,,,,,,,,610363c0fdfd44b94488e6ef,61036fa0c4c2a383a6c91529,2021-07-29_22h20.20.877,Simcolourproject_2stim_asymm_v5,2020.2.10,MacIntel,60,61025ae37ef11b136ea224fe,,,,,,,,,4172,35,78,1,0,1,response1disk,,7,22,1,1,0,1,rectangle,22,1,1,0,1,22,1,1,0,1,1,71,231,124,1,,,,,,,,
,,,,,,,,,,,,,FF,,,,,,,,0.966,,,,,,,,,,,,,,,,,,,,,,610363c0fdfd44b94488e6ef,61036fa0c4c2a383a6c91529,2021-07-29_22h20.20.877,Simcolourproject_2stim_asymm_v5,2020.2.10,MacIntel,60,61025ae37ef11b136ea224fe,,,,,,,,,3404,33,-82,1,0,1,response3disk,,4,8,-11,1,0,1,rectangle,8,-11,1,0,1,8,-11,1,0,1,1,72,232,86,1,,,,,,,,
,,,,,,,,,,,,,FF,,,,,,,,0.749,,,,,,,,,,,,,,,,,,,,,,610363c0fdfd44b94488e6ef,61036fa0c4c2a383a6c91529,2021-07-29_22h20.20.877,Simcolourproject_2stim_asymm_v5,2020.2.10,MacIntel,60,61025ae37ef11b136ea224fe,,,,,,,,,3059,-50,-78,1,0,1,response5disk,,3,-17,7,1,0,1,rectangle,-17,7,1,0,1,-17,7,1,0,1,1,73,233,48,1,,,,,,,,
,,,,,,,,,,,,,FF,,,,,,,,1.367,,,,,,,,,,,,,,,,,,,,,,610363c0fdfd44b94488e6ef,61036fa0c4c2a383a6c91529,2021-07-29_22h20.20.877,Simcolourproject_2stim_asymm_v5,2020.2.10,MacIntel,60,61025ae37ef11b136ea224fe,,,,,,,,,3854,25,-76,1,0,1,response3disk,,4,9,2,1,0,1,rectangle,9,2,1,0,1,9,2,1,0,1,1,74,234,126,1,,,,,,,,
,,,,,,,,,,,,,FF,,,,,,,,0.815,,,,,,,,,,,,,,,,,,,,,,610363c0fdfd44b94488e6ef,61036fa0c4c2a383a6c91529,2021-07-29_22h20.20.877,Simcolourproject_2stim_asymm_v5,2020.2.10,MacIntel,60,61025ae37ef11b136ea224fe,,,,,,,,,129,77,-31,1,0,1,response3disk,,5,-14,15,1,0,1,rectangle,-14,15,1,0,1,-14,15,1,0,1,1,75,235,103,1,,,,,,,,
,,,,,,,,,,,,,FF,,,,,,,,0.649,,,,,,,,,,,,,,,,,,,,,,610363c0fdfd44b94488e6ef,61036fa0c4c2a383a6c91529,2021-07-29_22h20.20.877,Simcolourproject_2stim_asymm_v5,2020.2.10,MacIntel,60,61025ae37ef11b136ea224fe,,,,,,,,,3452,84,36,1,0,1,response1disk,,6,9,9,1,0,1,rectangle,9,9,1,0,1,9,9,1,0,1,1,76,236,142,1,,,,,,,,
,,,,,,,,,,,,,FF,,,,,,,,0.95,,,,,,,,,,,,,,,,,,,,,,610363c0fdfd44b94488e6ef,61036fa0c4c2a383a6c91529,2021-07-29_22h20.20.877,Simcolourproject_2stim_asymm_v5,2020.2.10,MacIntel,60,61025ae37ef11b136ea224fe,,,,,,,,,3436,-85,-43,1,0,1,response5disk,,2,-5,-2,1,0,1,rectangle,-5,-2,1,0,1,-5,-2,1,0,1,1,77,237,61,1,,,,,,,,
,,,,,,,,,,,,,FF,,,,,,,,0.6,,,,,,,,,,,,,,,,,,,,,,610363c0fdfd44b94488e6ef,61036fa0c4c2a383a6c91529,2021-07-29_22h20.20.877,Simcolourproject_2stim_asymm_v5,2020.2.10,MacIntel,60,61025ae37ef11b136ea224fe,,,,,,,,,3185,111,50,1,0,1,response1disk,,6,16,-4,1,0,1,rectangle,16,-4,1,0,1,16,-4,1,0,1,1,78,238,149,1,,,,,,,,
,,,,,,,,,,,,,FF,,,,,,,,1.383,,,,,,,,,,,,,,,,,,,,,,610363c0fdfd44b94488e6ef,61036fa0c4c2a383a6c91529,2021-07-29_22h20.20.877,Simcolourproject_2stim_asymm_v5,2020.2.10,MacIntel,60,61025ae37ef11b136ea224fe,,,,,,,,,364,84,62,1,0,1,response1disk,,6,7,-3,1,0,1,rectangle,7,-3,1,0,1,7,-3,1,0,1,1,79,239,99,1,,,,,,,,
,,,,,,,,,,,,,FF,,,,,,,,1.567,,,,,,,,,,,,,,,,,,,,,,610363c0fdfd44b94488e6ef,61036fa0c4c2a383a6c91529,2021-07-29_22h20.20.877,Simcolourproject_2stim_asymm_v5,2020.2.10,MacIntel,60,61025ae37ef11b136ea224fe,,,,,,,,,3351,109,27,1,0,1,response1disk,,6,23,-7,1,0,1,rectangle,23,-7,1,0,1,23,-7,1,0,1,1,80,240,156,1,,,,,,,,
,,,,,,,,,,,,,FF,,,,,,,,0.734,,,,,,,,,,,,,,,,,,,,,,610363c0fdfd44b94488e6ef,61036fa0c4c2a383a6c91529,2021-07-29_22h20.20.877,Simcolourproject_2stim_asymm_v5,2020.2.10,MacIntel,60,61025ae37ef11b136ea224fe,,,,,,,,,2991,83,-24,1,0,1,response3disk,,5,14,3,1,0,1,rectangle,14,3,1,0,1,14,3,1,0,1,1,81,241,11,1,,,,,,,,
,,,,,,,,,,,,,FF,,,,,,,,0.75,,,,,,,,,,,,,,,,,,,,,,610363c0fdfd44b94488e6ef,61036fa0c4c2a383a6c91529,2021-07-29_22h20.20.877,Simcolourproject_2stim_asymm_v5,2020.2.10,MacIntel,60,61025ae37ef11b136ea224fe,,,,,,,,,920,95,-36,1,0,1,response3disk,,5,30,-1,1,0,1,rectangle,30,-1,1,0,1,30,-1,1,0,1,1,82,242,18,1,,,,,,,,
,,,,,,,,,,,,,FF,,,,,,,,1.015,,,,,,,,,,,,,,,,,,,,,,610363c0fdfd44b94488e6ef,61036fa0c4c2a383a6c91529,2021-07-29_22h20.20.877,Simcolourproject_2stim_asymm_v5,2020.2.10,MacIntel,60,61025ae37ef11b136ea224fe,,,,,,,,,4142,-108,-60,1,0,1,response5disk,,2,10,0,1,0,1,rectangle,10,0,1,0,1,10,0,1,0,1,1,83,243,25,1,,,,,,,,
,,,,,,,,,,,,,FF,,,,,,,,1.115,,,,,,,,,,,,,,,,,,,,,,610363c0fdfd44b94488e6ef,61036fa0c4c2a383a6c91529,2021-07-29_22h20.20.877,Simcolourproject_2stim_asymm_v5,2020.2.10,MacIntel,60,61025ae37ef11b136ea224fe,,,,,,,,,2547,-51,-97,1,0,1,response5disk,,3,-12,-16,1,0,1,rectangle,-12,-16,1,0,1,-12,-16,1,0,1,1,84,244,92,1,,,,,,,,
,,,,,,,,,,,,,FF,,,,,,,,0.85,,,,,,,,,,,,,,,,,,,,,,610363c0fdfd44b94488e6ef,61036fa0c4c2a383a6c91529,2021-07-29_22h20.20.877,Simcolourproject_2stim_asymm_v5,2020.2.10,MacIntel,60,61025ae37ef11b136ea224fe,,,,,,,,,3382,-79,55,1,0,1,response7disk,,1,1,3,1,0,1,rectangle,1,3,1,0,1,1,3,1,0,1,1,85,245,117,1,,,,,,,,
,,,,,,,,,,,,,FF,,,,,,,,1.549,,,,,,,,,,,,,,,,,,,,,,610363c0fdfd44b94488e6ef,61036fa0c4c2a383a6c91529,2021-07-29_22h20.20.877,Simcolourproject_2stim_asymm_v5,2020.2.10,MacIntel,60,61025ae37ef11b136ea224fe,,,,,,,,,2707,78,36,1,0,1,response1disk,,6,16,8,1,0,1,rectangle,16,8,1,0,1,16,8,1,0,1,1,86,246,50,1,,,,,,,,
,,,,,,,,,,,,,FF,,,,,,,,1.016,,,,,,,,,,,,,,,,,,,,,,610363c0fdfd44b94488e6ef,61036fa0c4c2a383a6c91529,2021-07-29_22h20.20.877,Simcolourproject_2stim_asymm_v5,2020.2.10,MacIntel,60,61025ae37ef11b136ea224fe,,,,,,,,,1605,-61,-73,1,0,1,response5disk,,3,-29,0,1,0,1,rectangle,-29,0,1,0,1,-29,0,1,0,1,1,87,247,121,1,,,,,,,,
,,,,,,,,,,,,,FF,,,,,,,,1.6,,,,,,,,,,,,,,,,,,,,,,610363c0fdfd44b94488e6ef,61036fa0c4c2a383a6c91529,2021-07-29_22h20.20.877,Simcolourproject_2stim_asymm_v5,2020.2.10,MacIntel,60,61025ae37ef11b136ea224fe,,,,,,,,,4249,-56,-120,1,0,1,response5disk,,3,8,15,1,0,1,rectangle,8,15,1,0,1,8,15,1,0,1,1,88,248,3,1,,,,,,,,
,,,,,,,,,,,,,FF,,,,,,,,0.816,,,,,,,,,,,,,,,,,,,,,,610363c0fdfd44b94488e6ef,61036fa0c4c2a383a6c91529,2021-07-29_22h20.20.877,Simcolourproject_2stim_asymm_v5,2020.2.10,MacIntel,60,61025ae37ef11b136ea224fe,,,,,,,,,3692,119,-36,1,0,1,response3disk,,5,3,-7,1,0,1,rectangle,3,-7,1,0,1,3,-7,1,0,1,1,89,249,68,1,,,,,,,,
,,,,,,,,,,,,,FF,,,,,,,,1.083,,,,,,,,,,,,,,,,,,,,,,610363c0fdfd44b94488e6ef,61036fa0c4c2a383a6c91529,2021-07-29_22h20.20.877,Simcolourproject_2stim_asymm_v5,2020.2.10,MacIntel,60,61025ae37ef11b136ea224fe,,,,,,,,,1850,88,49,1,0,1,response1disk,,6,-5,9,1,0,1,rectangle,-5,9,1,0,1,-5,9,1,0,1,1,90,250,71,1,,,,,,,,
,,,,,,,,,,,,,FF,,,,,,,,0.633,,,,,,,,,,,,,,,,,,,,,,610363c0fdfd44b94488e6ef,61036fa0c4c2a383a6c91529,2021-07-29_22h20.20.877,Simcolourproject_2stim_asymm_v5,2020.2.10,MacIntel,60,61025ae37ef11b136ea224fe,,,,,,,,,919,44,118,1,0,1,response1disk,,7,11,7,1,0,1,rectangle,11,7,1,0,1,11,7,1,0,1,1,91,251,62,1,,,,,,,,
,,,,,,,,,,,,,FF,,,,,,,,1.049,,,,,,,,,,,,,,,,,,,,,,610363c0fdfd44b94488e6ef,61036fa0c4c2a383a6c91529,2021-07-29_22h20.20.877,Simcolourproject_2stim_asymm_v5,2020.2.10,MacIntel,60,61025ae37ef11b136ea224fe,,,,,,,,,2917,46,-80,1,0,1,response3disk,,4,-13,1,1,0,1,rectangle,-13,1,1,0,1,-13,1,1,0,1,1,92,252,16,1,,,,,,,,
,,,,,,,,,,,,,FF,,,,,,,,0.567,,,,,,,,,,,,,,,,,,,,,,610363c0fdfd44b94488e6ef,61036fa0c4c2a383a6c91529,2021-07-29_22h20.20.877,Simcolourproject_2stim_asymm_v5,2020.2.10,MacIntel,60,61025ae37ef11b136ea224fe,,,,,,,,,998,42,67,1,0,1,response1disk,,7,23,14,1,0,1,rectangle,23,14,1,0,1,23,14,1,0,1,1,93,253,129,1,,,,,,,,
,,,,,,,,,,,,,FF,,,,,,,,0.732,,,,,,,,,,,,,,,,,,,,,,610363c0fdfd44b94488e6ef,61036fa0c4c2a383a6c91529,2021-07-29_22h20.20.877,Simcolourproject_2stim_asymm_v5,2020.2.10,MacIntel,60,61025ae37ef11b136ea224fe,,,,,,,,,1604,-101,52,1,0,1,response7disk,,1,1,17,1,0,1,rectangle,1,17,1,0,1,1,17,1,0,1,1,94,254,79,1,,,,,,,,
,,,,,,,,,,,,,FF,,,,,,,,0.882,,,,,,,,,,,,,,,,,,,,,,610363c0fdfd44b94488e6ef,61036fa0c4c2a383a6c91529,2021-07-29_22h20.20.877,Simcolourproject_2stim_asymm_v5,2020.2.10,MacIntel,60,61025ae37ef11b136ea224fe,,,,,,,,,685,103,-56,1,0,1,response3disk,,5,12,4,1,0,1,rectangle,12,4,1,0,1,12,4,1,0,1,1,95,255,106,1,,,,,,,,
,,,,,,,,,,,,,FF,,,,,,,,1.467,,,,,,,,,,,,,,,,,,,,,,610363c0fdfd44b94488e6ef,61036fa0c4c2a383a6c91529,2021-07-29_22h20.20.877,Simcolourproject_2stim_asymm_v5,2020.2.10,MacIntel,60,61025ae37ef11b136ea224fe,,,,,,,,,1780,47,-86,1,0,1,response3disk,,4,3,4,1,0,1,rectangle,3,4,1,0,1,3,4,1,0,1,1,96,256,66,1,,,,,,,,
,,,,,,,,,,,,,FF,,,,,,,,1.382,,,,,,,,,,,,,,,,,,,,,,610363c0fdfd44b94488e6ef,61036fa0c4c2a383a6c91529,2021-07-29_22h20.20.877,Simcolourproject_2stim_asymm_v5,2020.2.10,MacIntel,60,61025ae37ef11b136ea224fe,,,,,,,,,803,-97,-38,1,0,1,response5disk,,2,18,0,1,0,1,rectangle,18,0,1,0,1,18,0,1,0,1,1,97,257,28,1,,,,,,,,
,,,,,,,,,,,,,FF,,,,,,,,1.1,,,,,,,,,,,,,,,,,,,,,,610363c0fdfd44b94488e6ef,61036fa0c4c2a383a6c91529,2021-07-29_22h20.20.877,Simcolourproject_2stim_asymm_v5,2020.2.10,MacIntel,60,61025ae37ef11b136ea224fe,,,,,,,,,179,84,36,1,0,1,response1disk,,6,25,5,1,0,1,rectangle,25,5,1,0,1,25,5,1,0,1,1,98,258,88,1,,,,,,,,
,,,,,,,,,,,,,FF,,,,,,,,1.032,,,,,,,,,,,,,,,,,,,,,,610363c0fdfd44b94488e6ef,61036fa0c4c2a383a6c91529,2021-07-29_22h20.20.877,Simcolourproject_2stim_asymm_v5,2020.2.10,MacIntel,60,61025ae37ef11b136ea224fe,,,,,,,,,4064,62,-109,1,0,1,response3disk,,4,0,10,1,0,1,rectangle,0,10,1,0,1,0,10,1,0,1,1,99,259,77,1,,,,,,,,
,,,,,,,,,,,,,FF,,,,,,,,0.701,,,,,,,,,,,,,,,,,,,,,,610363c0fdfd44b94488e6ef,61036fa0c4c2a383a6c91529,2021-07-29_22h20.20.877,Simcolourproject_2stim_asymm_v5,2020.2.10,MacIntel,60,61025ae37ef11b136ea224fe,,,,,,,,,3959,55,-98,1,0,1,response3disk,,4,10,0,1,0,1,rectangle,10,0,1,0,1,10,0,1,0,1,1,100,260,152,1,,,,,,,,
,,,,,,,,,,,,,FF,,,,,,,,0.734,,,,,,,,,,,,,,,,,,,,,,610363c0fdfd44b94488e6ef,61036fa0c4c2a383a6c91529,2021-07-29_22h20.20.877,Simcolourproject_2stim_asymm_v5,2020.2.10,MacIntel,60,61025ae37ef11b136ea224fe,,,,,,,,,621,58,123,1,0,1,response1disk,,7,-3,-10,1,0,1,rectangle,-3,-10,1,0,1,-3,-10,1,0,1,1,101,261,14,1,,,,,,,,
,,,,,,,,,,,,,FF,,,,,,,,1.784,,,,,,,,,,,,,,,,,,,,,,610363c0fdfd44b94488e6ef,61036fa0c4c2a383a6c91529,2021-07-29_22h20.20.877,Simcolourproject_2stim_asymm_v5,2020.2.10,MacIntel,60,61025ae37ef11b136ea224fe,,,,,,,,,1246,-56,-82,1,0,1,response5disk,,3,-12,-8,1,0,1,rectangle,-12,-8,1,0,1,-12,-8,1,0,1,1,102,262,113,1,,,,,,,,
,,,,,,,,,,,,,FF,,,,,,,,0.683,,,,,,,,,,,,,,,,,,,,,,610363c0fdfd44b94488e6ef,61036fa0c4c2a383a6c91529,2021-07-29_22h20.20.877,Simcolourproject_2stim_asymm_v5,2020.2.10,MacIntel,60,61025ae37ef11b136ea224fe,,,,,,,,,2677,-60,-90,1,0,1,response5disk,,3,-15,12,1,0,1,rectangle,-15,12,1,0,1,-15,12,1,0,1,1,103,263,150,1,,,,,,,,
,,,,,,,,,,,,,FF,,,,,,,,1,,,,,,,,,,,,,,,,,,,,,,610363c0fdfd44b94488e6ef,61036fa0c4c2a383a6c91529,2021-07-29_22h20.20.877,Simcolourproject_2stim_asymm_v5,2020.2.10,MacIntel,60,61025ae37ef11b136ea224fe,,,,,,,,,1437,46,115,1,0,1,response1disk,,7,13,5,1,0,1,rectangle,13,5,1,0,1,13,5,1,0,1,1,104,264,122,1,,,,,,,,
,,,,,,,,,,,,,FF,,,,,,,,0.765,,,,,,,,,,,,,,,,,,,,,,610363c0fdfd44b94488e6ef,61036fa0c4c2a383a6c91529,2021-07-29_22h20.20.877,Simcolourproject_2stim_asymm_v5,2020.2.10,MacIntel,60,61025ae37ef11b136ea224fe,,,,,,,,,2885,40,104,1,0,1,response1disk,,7,19,8,1,0,1,rectangle,19,8,1,0,1,19,8,1,0,1,1,105,265,101,1,,,,,,,,
,,,,,,,,,,,,,FF,,,,,,,,0.765,,,,,,,,,,,,,,,,,,,,,,610363c0fdfd44b94488e6ef,61036fa0c4c2a383a6c91529,2021-07-29_22h20.20.877,Simcolourproject_2stim_asymm_v5,2020.2.10,MacIntel,60,61025ae37ef11b136ea224fe,,,,,,,,,1367,29,110,1,0,1,response1disk,,7,5,0,1,0,1,rectangle,5,0,1,0,1,5,0,1,0,1,1,106,266,140,1,,,,,,,,
,,,,,,,,,,,,,FF,,,,,,,,1.316,,,,,,,,,,,,,,,,,,,,,,610363c0fdfd44b94488e6ef,61036fa0c4c2a383a6c91529,2021-07-29_22h20.20.877,Simcolourproject_2stim_asymm_v5,2020.2.10,MacIntel,60,61025ae37ef11b136ea224fe,,,,,,,,,2846,34,-76,1,0,1,response3disk,,4,-11,2,1,0,1,rectangle,-11,2,1,0,1,-11,2,1,0,1,1,107,267,155,1,,,,,,,,
,,,,,,,,,,,,,FF,,,,,,,,2.149,,,,,,,,,,,,,,,,,,,,,,610363c0fdfd44b94488e6ef,61036fa0c4c2a383a6c91529,2021-07-29_22h20.20.877,Simcolourproject_2stim_asymm_v5,2020.2.10,MacIntel,60,61025ae37ef11b136ea224fe,,,,,,,,,827,45,-76,1,0,1,response3disk,,4,14,7,1,0,1,rectangle,14,7,1,0,1,14,7,1,0,1,1,108,268,148,1,,,,,,,,
,,,,,,,,,,,,,FF,,,,,,,,1.9,,,,,,,,,,,,,,,,,,,,,,610363c0fdfd44b94488e6ef,61036fa0c4c2a383a6c91529,2021-07-29_22h20.20.877,Simcolourproject_2stim_asymm_v5,2020.2.10,MacIntel,60,61025ae37ef11b136ea224fe,,,,,,,,,1639,100,-59,1,0,1,response3disk,,5,-5,4,1,0,1,rectangle,-5,4,1,0,1,-5,4,1,0,1,1,109,269,9,1,,,,,,,,
,,,,,,,,,,,,,FF,,,,,,,,0.682,,,,,,,,,,,,,,,,,,,,,,610363c0fdfd44b94488e6ef,61036fa0c4c2a383a6c91529,2021-07-29_22h20.20.877,Simcolourproject_2stim_asymm_v5,2020.2.10,MacIntel,60,61025ae37ef11b136ea224fe,,,,,,,,,1973,-73,-79,1,0,1,response5disk,,3,-12,-9,1,0,1,rectangle,-12,-9,1,0,1,-12,-9,1,0,1,1,110,270,26,1,,,,,,,,
,,,,,,,,,,,,,FF,,,,,,,,2.783,,,,,,,,,,,,,,,,,,,,,,610363c0fdfd44b94488e6ef,61036fa0c4c2a383a6c91529,2021-07-29_22h20.20.877,Simcolourproject_2stim_asymm_v5,2020.2.10,MacIntel,60,61025ae37ef11b136ea224fe,,,,,,,,,2695,-20,-94,1,0,1,response5disk,,3,20,13,1,0,1,rectangle,57,108,1,0,1,3,-4,1,0,1,1,111,271,89,1,,response1disk_3,TRUE,7,7,"[208,217,3,146,229,136,80,193,46,209,272,142,322,314,46,280,113,273,145,136]",1.599,rectangle
,,,,,,,,,,,,,FF,,,,,,,,1.2,,,,,,,,,,,,,,,,,,,,,,610363c0fdfd44b94488e6ef,61036fa0c4c2a383a6c91529,2021-07-29_22h20.20.877,Simcolourproject_2stim_asymm_v5,2020.2.10,MacIntel,60,61025ae37ef11b136ea224fe,,,,,,,,,1588,89,27,1,0,1,response1disk,,6,5,-7,1,0,1,rectangle,30,76,1,0,1,14,-3,1,0,1,1,112,272,114,1,,response1disk_3,TRUE,7,7,"[208,217,3,146,229,136,80,193,46,209,272,142,322,314,46,280,113,273,145,136]",1.801,rectangle
,,,,,,,,,,,,,FF,,,,,,,,2.316,,,,,,,,,,,,,,,,,,,,,,610363c0fdfd44b94488e6ef,61036fa0c4c2a383a6c91529,2021-07-29_22h20.20.877,Simcolourproject_2stim_asymm_v5,2020.2.10,MacIntel,60,61025ae37ef11b136ea224fe,,,,,,,,,2320,92,-42,1,0,1,response3disk,,5,6,6,1,0,1,rectangle,6,6,1,0,1,6,6,1,0,1,1,113,273,21,1,,,,,,,,
,,,,,,,,,,,,,FF,,,,,,,,0.633,,,,,,,,,,,,,,,,,,,,,,610363c0fdfd44b94488e6ef,61036fa0c4c2a383a6c91529,2021-07-29_22h20.20.877,Simcolourproject_2stim_asymm_v5,2020.2.10,MacIntel,60,61025ae37ef11b136ea224fe,,,,,,,,,2259,39,-63,1,0,1,response3disk,,4,3,6,1,0,1,rectangle,3,6,1,0,1,3,6,1,0,1,1,114,274,27,1,,,,,,,,
,,,,,,,,,,,,,FF,,,,,,,,1.867,,,,,,,,,,,,,,,,,,,,,,610363c0fdfd44b94488e6ef,61036fa0c4c2a383a6c91529,2021-07-29_22h20.20.877,Simcolourproject_2stim_asymm_v5,2020.2.10,MacIntel,60,61025ae37ef11b136ea224fe,,,,,,,,,3258,33,-80,1,0,1,response3disk,,4,-2,-3,1,0,1,rectangle,-2,-3,1,0,1,-2,-3,1,0,1,1,115,275,52,1,,,,,,,,
,,,,,,,,,,,,,FF,,,,,,,,0.816,,,,,,,,,,,,,,,,,,,,,,610363c0fdfd44b94488e6ef,61036fa0c4c2a383a6c91529,2021-07-29_22h20.20.877,Simcolourproject_2stim_asymm_v5,2020.2.10,MacIntel,60,61025ae37ef11b136ea224fe,,,,,,,,,4212,62,50,1,0,1,response1disk,,6,-11,10,1,0,1,rectangle,-11,10,1,0,1,-11,10,1,0,1,1,116,276,54,1,,,,,,,,
,,,,,,,,,,,,,FF,,,,,,,,0.6,,,,,,,,,,,,,,,,,,,,,,610363c0fdfd44b94488e6ef,61036fa0c4c2a383a6c91529,2021-07-29_22h20.20.877,Simcolourproject_2stim_asymm_v5,2020.2.10,MacIntel,60,61025ae37ef11b136ea224fe,,,,,,,,,539,109,54,1,0,1,response1disk,,6,10,11,1,0,1,rectangle,10,11,1,0,1,10,11,1,0,1,1,117,277,1,1,,,,,,,,
,,,,,,,,,,,,,FF,,,,,,,,0.516,,,,,,,,,,,,,,,,,,,,,,610363c0fdfd44b94488e6ef,61036fa0c4c2a383a6c91529,2021-07-29_22h20.20.877,Simcolourproject_2stim_asymm_v5,2020.2.10,MacIntel,60,61025ae37ef11b136ea224fe,,,,,,,,,1587,38,88,1,0,1,response1disk,,7,-7,3,1,0,1,rectangle,-7,3,1,0,1,-7,3,1,0,1,1,118,278,58,1,,,,,,,,
,,,,,,,,,,,,,FF,,,,,,,,1.116,,,,,,,,,,,,,,,,,,,,,,610363c0fdfd44b94488e6ef,61036fa0c4c2a383a6c91529,2021-07-29_22h20.20.877,Simcolourproject_2stim_asymm_v5,2020.2.10,MacIntel,60,61025ae37ef11b136ea224fe,,,,,,,,,196,90,-30,1,0,1,response3disk,,5,10,2,1,0,1,rectangle,44,109,1,0,1,-2,9,1,0,1,1,119,279,81,1,,response1disk_3,TRUE,7,7,"[208,217,3,146,229,136,80,193,46,209,272,142,322,314,46,280,113,273,145,136]",1.749,rectangle
,,,,,,,,,,,,,FF,,,,,,,,1.117,,,,,,,,,,,,,,,,,,,,,,610363c0fdfd44b94488e6ef,61036fa0c4c2a383a6c91529,2021-07-29_22h20.20.877,Simcolourproject_2stim_asymm_v5,2020.2.10,MacIntel,60,61025ae37ef11b136ea224fe,,,,,,,,,3819,-72,-93,1,0,1,response5disk,,3,-17,4,1,0,1,rectangle,-17,4,1,0,1,-17,4,1,0,1,1,120,280,5,1,,,,,,,,
,,,,,,,,,,,,,FF,,,,,,,,0.833,,,,,,,,,,,,,,,,,,,,,,610363c0fdfd44b94488e6ef,61036fa0c4c2a383a6c91529,2021-07-29_22h20.20.877,Simcolourproject_2stim_asymm_v5,2020.2.10,MacIntel,60,61025ae37ef11b136ea224fe,,,,,,,,,2401,47,84,1,0,1,response1disk,,7,16,6,1,0,1,rectangle,16,6,1,0,1,16,6,1,0,1,1,121,281,13,1,,,,,,,,
,,,,,,,,,,,,,FF,,,,,,,,0.85,,,,,,,,,,,,,,,,,,,,,,610363c0fdfd44b94488e6ef,61036fa0c4c2a383a6c91529,2021-07-29_22h20.20.877,Simcolourproject_2stim_asymm_v5,2020.2.10,MacIntel,60,61025ae37ef11b136ea224fe,,,,,,,,,406,92,-31,1,0,1,response3disk,,5,-19,-17,1,0,1,rectangle,-19,-17,1,0,1,-19,-17,1,0,1,1,122,282,96,1,,,,,,,,
,,,,,,,,,,,,,FF,,,,,,,,1.017,,,,,,,,,,,,,,,,,,,,,,610363c0fdfd44b94488e6ef,61036fa0c4c2a383a6c91529,2021-07-29_22h20.20.877,Simcolourproject_2stim_asymm_v5,2020.2.10,MacIntel,60,61025ae37ef11b136ea224fe,,,,,,,,,3667,47,103,1,0,1,response1disk,,7,15,2,1,0,1,rectangle,15,2,1,0,1,15,2,1,0,1,1,123,283,80,1,,,,,,,,
,,,,,,,,,,,,,FF,,,,,,,,0.934,,,,,,,,,,,,,,,,,,,,,,610363c0fdfd44b94488e6ef,61036fa0c4c2a383a6c91529,2021-07-29_22h20.20.877,Simcolourproject_2stim_asymm_v5,2020.2.10,MacIntel,60,61025ae37ef11b136ea224fe,,,,,,,,,1416,83,-42,1,0,1,response3disk,,5,-3,11,1,0,1,rectangle,-3,11,1,0,1,-3,11,1,0,1,1,124,284,119,1,,,,,,,,
,,,,,,,,,,,,,FF,,,,,,,,0.549,,,,,,,,,,,,,,,,,,,,,,610363c0fdfd44b94488e6ef,61036fa0c4c2a383a6c91529,2021-07-29_22h20.20.877,Simcolourproject_2stim_asymm_v5,2020.2.10,MacIntel,60,61025ae37ef11b136ea224fe,,,,,,,,,1183,54,-27,1,0,1,response3disk,,5,15,16,1,0,1,rectangle,15,16,1,0,1,15,16,1,0,1,1,125,285,24,1,,,,,,,,
,,,,,,,,,,,,,FF,,,,,,,,0.616,,,,,,,,,,,,,,,,,,,,,,610363c0fdfd44b94488e6ef,61036fa0c4c2a383a6c91529,2021-07-29_22h20.20.877,Simcolourproject_2stim_asymm_v5,2020.2.10,MacIntel,60,61025ae37ef11b136ea224fe,,,,,,,,,410,81,27,1,0,1,response1disk,,6,0,-14,1,0,1,rectangle,0,-14,1,0,1,0,-14,1,0,1,1,126,286,37,1,,,,,,,,
,,,,,,,,,,,,,FF,,,,,,,,0.616,,,,,,,,,,,,,,,,,,,,,,610363c0fdfd44b94488e6ef,61036fa0c4c2a383a6c91529,2021-07-29_22h20.20.877,Simcolourproject_2stim_asymm_v5,2020.2.10,MacIntel,60,61025ae37ef11b136ea224fe,,,,,,,,,1842,78,45,1,0,1,response1disk,,6,0,3,1,0,1,rectangle,0,3,1,0,1,0,3,1,0,1,1,127,287,90,1,,,,,,,,
,,,,,,,,,,,,,FF,,,,,,,,2.249,,,,,,,,,,,,,,,,,,,,,,610363c0fdfd44b94488e6ef,61036fa0c4c2a383a6c91529,2021-07-29_22h20.20.877,Simcolourproject_2stim_asymm_v5,2020.2.10,MacIntel,60,61025ae37ef11b136ea224fe,,,,,,,,,3999,-47,-86,1,0,1,response5disk,,3,-9,16,1,0,1,rectangle,-9,16,1,0,1,-9,16,1,0,1,1,128,288,136,1,,,,,,,,
,,,,,,,,,,,,,FF,,,,,,,,0.482,,,,,,,,,,,,,,,,,,,,,,610363c0fdfd44b94488e6ef,61036fa0c4c2a383a6c91529,2021-07-29_22h20.20.877,Simcolourproject_2stim_asymm_v5,2020.2.10,MacIntel,60,61025ae37ef11b136ea224fe,,,,,,,,,3944,-59,-71,1,0,1,response5disk,,3,-21,9,1,0,1,rectangle,-21,9,1,0,1,-21,9,1,0,1,1,129,289,78,1,,,,,,,,
,,,,,,,,,,,,,FF,,,,,,,,0.916,,,,,,,,,,,,,,,,,,,,,,610363c0fdfd44b94488e6ef,61036fa0c4c2a383a6c91529,2021-07-29_22h20.20.877,Simcolourproject_2stim_asymm_v5,2020.2.10,MacIntel,60,61025ae37ef11b136ea224fe,,,,,,,,,1223,-59,-98,1,0,1,response5disk,,3,-18,15,1,0,1,rectangle,-18,15,1,0,1,-18,15,1,0,1,1,130,290,30,1,,,,,,,,
,,,,,,,,,,,,,FF,,,,,,,,0.75,,,,,,,,,,,,,,,,,,,,,,610363c0fdfd44b94488e6ef,61036fa0c4c2a383a6c91529,2021-07-29_22h20.20.877,Simcolourproject_2stim_asymm_v5,2020.2.10,MacIntel,60,61025ae37ef11b136ea224fe,,,,,,,,,4319,119,-34,1,0,1,response3disk,,5,26,0,1,0,1,rectangle,26,0,1,0,1,26,0,1,0,1,1,131,291,46,1,,,,,,,,
,,,,,,,,,,,,,FF,,,,,,,,1.266,,,,,,,,,,,,,,,,,,,,,,610363c0fdfd44b94488e6ef,61036fa0c4c2a383a6c91529,2021-07-29_22h20.20.877,Simcolourproject_2stim_asymm_v5,2020.2.10,MacIntel,60,61025ae37ef11b136ea224fe,,,,,,,,,1473,77,-28,1,0,1,response3disk,,5,23,-6,1,0,1,rectangle,23,-6,1,0,1,23,-6,1,0,1,1,132,292,154,1,,,,,,,,
,,,,,,,,,,,,,FF,,,,,,,,0.949,,,,,,,,,,,,,,,,,,,,,,610363c0fdfd44b94488e6ef,61036fa0c4c2a383a6c91529,2021-07-29_22h20.20.877,Simcolourproject_2stim_asymm_v5,2020.2.10,MacIntel,60,61025ae37ef11b136ea224fe,,,,,,,,,3207,29,-81,1,0,1,response3disk,,4,-7,2,1,0,1,rectangle,-7,2,1,0,1,-7,2,1,0,1,1,133,293,76,1,,,,,,,,
,,,,,,,,,,,,,FF,,,,,,,,0.733,,,,,,,,,,,,,,,,,,,,,,610363c0fdfd44b94488e6ef,61036fa0c4c2a383a6c91529,2021-07-29_22h20.20.877,Simcolourproject_2stim_asymm_v5,2020.2.10,MacIntel,60,61025ae37ef11b136ea224fe,,,,,,,,,3474,-84,-100,1,0,1,response5disk,,3,-27,10,1,0,1,rectangle,-27,10,1,0,1,-27,10,1,0,1,1,134,294,20,1,,,,,,,,
,,,,,,,,,,,,,FF,,,,,,,,1.615,,,,,,,,,,,,,,,,,,,,,,610363c0fdfd44b94488e6ef,61036fa0c4c2a383a6c91529,2021-07-29_22h20.20.877,Simcolourproject_2stim_asymm_v5,2020.2.10,MacIntel,60,61025ae37ef11b136ea224fe,,,,,,,,,1843,25,-92,1,0,1,response3disk,,4,4,-1,1,0,1,rectangle,4,-1,1,0,1,4,-1,1,0,1,1,135,295,17,1,,,,,,,,
,,,,,,,,,,,,,FF,,,,,,,,1.166,,,,,,,,,,,,,,,,,,,,,,610363c0fdfd44b94488e6ef,61036fa0c4c2a383a6c91529,2021-07-29_22h20.20.877,Simcolourproject_2stim_asymm_v5,2020.2.10,MacIntel,60,61025ae37ef11b136ea224fe,,,,,,,,,2056,100,-22,1,0,1,response3disk,,5,14,-3,1,0,1,rectangle,14,-3,1,0,1,14,-3,1,0,1,1,136,296,59,1,,,,,,,,
,,,,,,,,,,,,,FF,,,,,,,,0.566,,,,,,,,,,,,,,,,,,,,,,610363c0fdfd44b94488e6ef,61036fa0c4c2a383a6c91529,2021-07-29_22h20.20.877,Simcolourproject_2stim_asymm_v5,2020.2.10,MacIntel,60,61025ae37ef11b136ea224fe,,,,,,,,,3380,40,121,1,0,1,response1disk,,7,18,6,1,0,1,rectangle,18,6,1,0,1,18,6,1,0,1,1,137,297,158,1,,,,,,,,
,,,,,,,,,,,,,FF,,,,,,,,1.016,,,,,,,,,,,,,,,,,,,,,,610363c0fdfd44b94488e6ef,61036fa0c4c2a383a6c91529,2021-07-29_22h20.20.877,Simcolourproject_2stim_asymm_v5,2020.2.10,MacIntel,60,61025ae37ef11b136ea224fe,,,,,,,,,2104,-31,-103,1,0,1,response5disk,,3,-19,7,1,0,1,rectangle,-19,7,1,0,1,-19,7,1,0,1,1,138,298,75,1,,,,,,,,
,,,,,,,,,,,,,FF,,,,,,,,0.651,,,,,,,,,,,,,,,,,,,,,,610363c0fdfd44b94488e6ef,61036fa0c4c2a383a6c91529,2021-07-29_22h20.20.877,Simcolourproject_2stim_asymm_v5,2020.2.10,MacIntel,60,61025ae37ef11b136ea224fe,,,,,,,,,647,59,-69,1,0,1,response3disk,,4,10,11,1,0,1,rectangle,10,11,1,0,1,10,11,1,0,1,1,139,299,105,1,,,,,,,,
,,,,,,,,,,,,,FF,,,,,,,,0.867,,,,,,,,,,,,,,,,,,,,,,610363c0fdfd44b94488e6ef,61036fa0c4c2a383a6c91529,2021-07-29_22h20.20.877,Simcolourproject_2stim_asymm_v5,2020.2.10,MacIntel,60,61025ae37ef11b136ea224fe,,,,,,,,,869,-48,-92,1,0,1,response5disk,,3,-25,-15,1,0,1,rectangle,-25,-15,1,0,1,-25,-15,1,0,1,1,140,300,110,1,,,,,,,,
,,,,,,,,,,,,,FF,,,,,,,,0.749,,,,,,,,,,,,,,,,,,,,,,610363c0fdfd44b94488e6ef,61036fa0c4c2a383a6c91529,2021-07-29_22h20.20.877,Simcolourproject_2stim_asymm_v5,2020.2.10,MacIntel,60,61025ae37ef11b136ea224fe,,,,,,,,,746,82,36,1,0,1,response1disk,,6,5,7,1,0,1,rectangle,5,7,1,0,1,5,7,1,0,1,1,141,301,83,1,,,,,,,,
