key_resp.keys,key_resp.rt,key_resp_14.keys,key_resp_14.rt,key_resp_15.keys,key_resp_15.rt,key_resp_17.keys,key_resp_17.rt,key_resp_9.keys,key_resp_9.rt,key_resp_10.keys,key_resp_10.rt,practice_comparison,Ecc,mouse_5.x,mouse_5.y,mouse_5.leftButton,mouse_5.midButton,mouse_5.rightButton,mouse_5.clicked_name,pracsimilarity,response_time,mouse_10.x,mouse_10.y,mouse_10.leftButton,mouse_10.midButton,mouse_10.rightButton,mouse_10.clicked_name,mouse_7.x,mouse_7.y,mouse_7.leftButton,mouse_7.midButton,mouse_7.rightButton,mouse_6.x,mouse_6.y,mouse_6.leftButton,mouse_6.midButton,mouse_6.rightButton,duringprac.thisRepN,duringprac.thisTrialN,duringprac.thisN,duringprac.thisIndex,duringprac.ran,participant,session,date,expName,psychopyVersion,OS,frameRate,study_id,mouse_7.clicked_name,catchpracsimilarity,catch_response_time,catchnumberprac,catchtrialorderprac,mouse_6.clicked_name,key_resp_22.keys,key_resp_22.rt,realcomparison,mouse.x,mouse.y,mouse.leftButton,mouse.midButton,mouse.rightButton,mouse.clicked_name,Colour2,similarity,mouse_2.x,mouse_2.y,mouse_2.leftButton,mouse_2.midButton,mouse_2.rightButton,mouse_2.clicked_name,mouse_3.x,mouse_3.y,mouse_3.leftButton,mouse_3.midButton,mouse_3.rightButton,mouse_3.clicked_name,catchornah,catchsimilarity,catchnumber,catchtrialorder,catchRT,mouse_11.x,mouse_11.y,mouse_11.leftButton,mouse_11.midButton,mouse_11.rightButton,mouse_11.clicked_name,trials_2.thisRepN,trials_2.thisTrialN,trials_2.thisN,trials_2.thisIndex,trials_2.ran,Colour1
space,1.119,space,8.4137,space,6.0852,space,2.9316,space,1.4835,space,11.3839,37,PF,54.01074219,-91.06396484,1,0,0,response3disk_5,4,5.4679,2.206970215,-2.584472656,1,0,0,rectangle_8,2.206970215,-2.584472656,1,0,0,2.206970215,-2.584472656,1,0,0,0,0,0,6,1,61033da02b2a5bf215b3dc11,61036e47404f7c59f50f2f07,2021-07-29_23h13.42.308,Simcolourproject_2stim_asymm_v5,2020.2.10,MacIntel,60,61025ae37ef11b136ea224fe,,,,,,,,,,,,,,,,,,,,,,,,,,,,,,,,,,,,,,,,,,,,,,
,,,,,,,,,,,,25,FF,-66.95758057,-34.73590088,1,0,0,response5disk_5,2,4.0331,-9.683410645,-3.334289551,1,0,0,rectangle_8,43.29638672,-87.45391846,1,0,0,9.175598145,-5.014770508,1,0,0,0,1,1,3,1,61033da02b2a5bf215b3dc11,61036e47404f7c59f50f2f07,2021-07-29_23h13.42.308,Simcolourproject_2stim_asymm_v5,2020.2.10,MacIntel,60,61025ae37ef11b136ea224fe,response3disk_7,4,2.1345,4,"[2,5]",rectangle_4,,,,,,,,,,,,,,,,,,,,,,,,,,,,,,,,,,,,,,,,
,,,,,,,,,,,,152,FF,41.32788086,66.18780518,1,0,0,response1disk_5,7,7.9156,-3.119445801,0.213775635,1,0,0,rectangle_8,-3.119445801,0.213775635,1,0,0,-3.119445801,0.213775635,1,0,0,0,2,2,5,1,61033da02b2a5bf215b3dc11,61036e47404f7c59f50f2f07,2021-07-29_23h13.42.308,Simcolourproject_2stim_asymm_v5,2020.2.10,MacIntel,60,61025ae37ef11b136ea224fe,,,,,,,,,,,,,,,,,,,,,,,,,,,,,,,,,,,,,,,,,,,,,,
,,,,,,,,,,,,54,PF,62.79156494,-41.39868164,1,0,0,response3disk_5,5,1.467,17.7769165,-6.162475586,1,0,0,rectangle_8,17.7769165,-6.162475586,1,0,0,17.7769165,-6.162475586,1,0,0,0,3,3,2,1,61033da02b2a5bf215b3dc11,61036e47404f7c59f50f2f07,2021-07-29_23h13.42.308,Simcolourproject_2stim_asymm_v5,2020.2.10,MacIntel,60,61025ae37ef11b136ea224fe,,,,,,,,,,,,,,,,,,,,,,,,,,,,,,,,,,,,,,,,,,,,,,
,,,,,,,,,,,,51,PF,-50.60162354,-27.90478516,1,0,0,response5disk_5,2,2.0492,-7.800720215,-10.23526001,1,0,0,rectangle_8,39.70080566,-103.8734741,1,0,0,10.17816162,2.349243164,1,0,0,0,4,4,4,1,61033da02b2a5bf215b3dc11,61036e47404f7c59f50f2f07,2021-07-29_23h13.42.308,Simcolourproject_2stim_asymm_v5,2020.2.10,MacIntel,60,61025ae37ef11b136ea224fe,response3disk_7,4,1.233,4,"[2,5]",rectangle_4,,,,,,,,,,,,,,,,,,,,,,,,,,,,,,,,,,,,,,,,
,,,,,,,,,,,,34,FF,-65.71746826,33.14355469,1,0,0,response7disk_5,1,1.7337,-12.53210449,-5.046081543,1,0,0,rectangle_8,-12.53210449,-5.046081543,1,0,0,-12.53210449,-5.046081543,1,0,0,0,5,5,0,1,61033da02b2a5bf215b3dc11,61036e47404f7c59f50f2f07,2021-07-29_23h13.42.308,Simcolourproject_2stim_asymm_v5,2020.2.10,MacIntel,60,61025ae37ef11b136ea224fe,,,,,,,,,,,,,,,,,,,,,,,,,,,,,,,,,,,,,,,,,,,,,,
,,,,,,,,,,,,80,PF,-32.6149292,79.70489502,1,0,0,response7disk_5,0,1.0343,6.160644531,-5.790405273,1,0,0,rectangle_8,6.160644531,-5.790405273,1,0,0,6.160644531,-5.790405273,1,0,0,0,6,6,1,1,61033da02b2a5bf215b3dc11,61036e47404f7c59f50f2f07,2021-07-29_23h13.42.308,Simcolourproject_2stim_asymm_v5,2020.2.10,MacIntel,60,61025ae37ef11b136ea224fe,,,,,,,,,,,,,,,,,,,,,,,,,,,,,,,,,,,,,,,,,,,,,,
,,,,,,,,,,,,,FF,,,,,,,,2.8161,,,,,,,,,,,,,,,,,,,,,,61033da02b2a5bf215b3dc11,61036e47404f7c59f50f2f07,2021-07-29_23h13.42.308,Simcolourproject_2stim_asymm_v5,2020.2.10,MacIntel,60,61025ae37ef11b136ea224fe,,,,,,,space,2.5285,1152,43.43389893,-86.96911621,1,0,0,response3disk,,4,-3.332641602,-2.902557373,1,0,0,rectangle,84.25109863,20.84375,1,0,0,response1disk_3,TRUE,6,6,"[95,184,237,93,126,293,120,65,213,112,195,81,294,235,1,251,115,246,57,169]",1.9011,10.02581787,-8.959533691,1,0,0,rectangle,0,0,0,32,1,
,,,,,,,,,,,,,FF,,,,,,,,1.1836,,,,,,,,,,,,,,,,,,,,,,61033da02b2a5bf215b3dc11,61036e47404f7c59f50f2f07,2021-07-29_23h13.42.308,Simcolourproject_2stim_asymm_v5,2020.2.10,MacIntel,60,61025ae37ef11b136ea224fe,,,,,,,,,3680,-64.46826172,-25.60144043,1,0,0,response5disk,,2,-18.32574463,-4.968505859,1,0,0,rectangle,-18.32574463,-4.968505859,1,0,0,,,,,,,-18.32574463,-4.968505859,1,0,0,,0,1,1,135,1,
,,,,,,,,,,,,,FF,,,,,,,,2.1327,,,,,,,,,,,,,,,,,,,,,,61033da02b2a5bf215b3dc11,61036e47404f7c59f50f2f07,2021-07-29_23h13.42.308,Simcolourproject_2stim_asymm_v5,2020.2.10,MacIntel,60,61025ae37ef11b136ea224fe,,,,,,,,,2699,73.95495605,40.92144775,1,0,0,response1disk,,6,24.00640869,5.742523193,1,0,0,rectangle,24.00640869,5.742523193,1,0,0,,,,,,,24.00640869,5.742523193,1,0,0,,0,2,2,75,1,
,,,,,,,,,,,,,FF,,,,,,,,2.6668,,,,,,,,,,,,,,,,,,,,,,61033da02b2a5bf215b3dc11,61036e47404f7c59f50f2f07,2021-07-29_23h13.42.308,Simcolourproject_2stim_asymm_v5,2020.2.10,MacIntel,60,61025ae37ef11b136ea224fe,,,,,,,,,3328,-44.9977417,-81.23327637,1,0,0,response5disk,,3,-7.842773438,-6.087493896,1,0,0,rectangle,-7.842773438,-6.087493896,1,0,0,,,,,,,-7.842773438,-6.087493896,1,0,0,,0,3,3,1,1,
,,,,,,,,,,,,,FF,,,,,,,,1.6502,,,,,,,,,,,,,,,,,,,,,,61033da02b2a5bf215b3dc11,61036e47404f7c59f50f2f07,2021-07-29_23h13.42.308,Simcolourproject_2stim_asymm_v5,2020.2.10,MacIntel,60,61025ae37ef11b136ea224fe,,,,,,,,,3205,-85.38275146,33.68835449,1,0,0,response7disk,,1,-18.04376221,2.218383789,1,0,0,rectangle,-18.04376221,2.218383789,1,0,0,,,,,,,-18.04376221,2.218383789,1,0,0,,0,4,4,63,1,
,,,,,,,,,,,,,FF,,,,,,,,1.0835,,,,,,,,,,,,,,,,,,,,,,61033da02b2a5bf215b3dc11,61036e47404f7c59f50f2f07,2021-07-29_23h13.42.308,Simcolourproject_2stim_asymm_v5,2020.2.10,MacIntel,60,61025ae37ef11b136ea224fe,,,,,,,,,1261,81.559021,37.92492676,1,0,0,response1disk,,6,15.6953125,-0.557617188,1,0,0,rectangle,15.6953125,-0.557617188,1,0,0,,,,,,,15.6953125,-0.557617188,1,0,0,,0,5,5,78,1,
,,,,,,,,,,,,,FF,,,,,,,,1.267,,,,,,,,,,,,,,,,,,,,,,61033da02b2a5bf215b3dc11,61036e47404f7c59f50f2f07,2021-07-29_23h13.42.308,Simcolourproject_2stim_asymm_v5,2020.2.10,MacIntel,60,61025ae37ef11b136ea224fe,,,,,,,,,4065,-71.38305664,-47.99847412,1,0,0,response5disk,,2,-10.08380127,-8.946289063,1,0,0,rectangle,-10.08380127,-8.946289063,1,0,0,,,,,,,-10.08380127,-8.946289063,1,0,0,,0,6,6,84,1,
,,,,,,,,,,,,,FF,,,,,,,,0.8668,,,,,,,,,,,,,,,,,,,,,,61033da02b2a5bf215b3dc11,61036e47404f7c59f50f2f07,2021-07-29_23h13.42.308,Simcolourproject_2stim_asymm_v5,2020.2.10,MacIntel,60,61025ae37ef11b136ea224fe,,,,,,,,,549,-55.97869873,32.43383789,1,0,0,response7disk,,1,-7.919494629,5.165649414,1,0,0,rectangle,-7.919494629,5.165649414,1,0,0,,,,,,,-7.919494629,5.165649414,1,0,0,,0,7,7,0,1,
,,,,,,,,,,,,,FF,,,,,,,,1.2179,,,,,,,,,,,,,,,,,,,,,,61033da02b2a5bf215b3dc11,61036e47404f7c59f50f2f07,2021-07-29_23h13.42.308,Simcolourproject_2stim_asymm_v5,2020.2.10,MacIntel,60,61025ae37ef11b136ea224fe,,,,,,,,,799,75.55413818,-46.51742554,1,0,0,response3disk,,5,7.421508789,-1.184814453,1,0,0,rectangle,7.421508789,-1.184814453,1,0,0,,,,,,,7.421508789,-1.184814453,1,0,0,,0,8,8,9,1,
,,,,,,,,,,,,,FF,,,,,,,,1.6498,,,,,,,,,,,,,,,,,,,,,,61033da02b2a5bf215b3dc11,61036e47404f7c59f50f2f07,2021-07-29_23h13.42.308,Simcolourproject_2stim_asymm_v5,2020.2.10,MacIntel,60,61025ae37ef11b136ea224fe,,,,,,,,,2981,60.8303833,36.56396484,1,0,0,response1disk,,6,22.00622559,3.217010498,1,0,0,rectangle,22.00622559,3.217010498,1,0,0,,,,,,,22.00622559,3.217010498,1,0,0,,0,9,9,119,1,
,,,,,,,,,,,,,FF,,,,,,,,2.4165,,,,,,,,,,,,,,,,,,,,,,61033da02b2a5bf215b3dc11,61036e47404f7c59f50f2f07,2021-07-29_23h13.42.308,Simcolourproject_2stim_asymm_v5,2020.2.10,MacIntel,60,61025ae37ef11b136ea224fe,,,,,,,,,2132,37.05487061,48.16326904,1,0,0,response1disk,,7,9.784484863,7.592224121,1,0,0,rectangle,9.784484863,7.592224121,1,0,0,,,,,,,9.784484863,7.592224121,1,0,0,,0,10,10,116,1,
,,,,,,,,,,,,,FF,,,,,,,,0.9344,,,,,,,,,,,,,,,,,,,,,,61033da02b2a5bf215b3dc11,61036e47404f7c59f50f2f07,2021-07-29_23h13.42.308,Simcolourproject_2stim_asymm_v5,2020.2.10,MacIntel,60,61025ae37ef11b136ea224fe,,,,,,,,,2249,-38.40545654,-78.70080566,1,0,0,response5disk,,3,-7.724121094,0.002319336,1,0,0,rectangle,-7.724121094,0.002319336,1,0,0,,,,,,,-7.724121094,0.002319336,1,0,0,,0,11,11,157,1,
,,,,,,,,,,,,,FF,,,,,,,,0.9177,,,,,,,,,,,,,,,,,,,,,,61033da02b2a5bf215b3dc11,61036e47404f7c59f50f2f07,2021-07-29_23h13.42.308,Simcolourproject_2stim_asymm_v5,2020.2.10,MacIntel,60,61025ae37ef11b136ea224fe,,,,,,,,,396,57.53125,-39.10784912,1,0,0,response3disk,,5,16.7076416,-3.196868896,1,0,0,rectangle,16.7076416,-3.196868896,1,0,0,,,,,,,16.7076416,-3.196868896,1,0,0,,0,12,12,18,1,
,,,,,,,,,,,,,FF,,,,,,,,3.2331,,,,,,,,,,,,,,,,,,,,,,61033da02b2a5bf215b3dc11,61036e47404f7c59f50f2f07,2021-07-29_23h13.42.308,Simcolourproject_2stim_asymm_v5,2020.2.10,MacIntel,60,61025ae37ef11b136ea224fe,,,,,,,,,1391,61.4385376,-50.43777466,1,0,0,response3disk,,5,10.9753418,-9.342590332,1,0,0,rectangle,10.9753418,-9.342590332,1,0,0,,,,,,,10.9753418,-9.342590332,1,0,0,,0,13,13,24,1,
,,,,,,,,,,,,,FF,,,,,,,,1.2166,,,,,,,,,,,,,,,,,,,,,,61033da02b2a5bf215b3dc11,61036e47404f7c59f50f2f07,2021-07-29_23h13.42.308,Simcolourproject_2stim_asymm_v5,2020.2.10,MacIntel,60,61025ae37ef11b136ea224fe,,,,,,,,,3407,62.57330322,28.97381592,1,0,0,response1disk,,6,0.630615234,-5.80267334,1,0,0,rectangle,0.630615234,-5.80267334,1,0,0,,,,,,,0.630615234,-5.80267334,1,0,0,,0,14,14,143,1,
,,,,,,,,,,,,,FF,,,,,,,,0.7839,,,,,,,,,,,,,,,,,,,,,,61033da02b2a5bf215b3dc11,61036e47404f7c59f50f2f07,2021-07-29_23h13.42.308,Simcolourproject_2stim_asymm_v5,2020.2.10,MacIntel,60,61025ae37ef11b136ea224fe,,,,,,,,,3861,-35.91619873,-67.69091797,1,0,0,response5disk,,3,-19.11212158,-7.010437012,1,0,0,rectangle,-19.11212158,-7.010437012,1,0,0,,,,,,,-19.11212158,-7.010437012,1,0,0,,0,15,15,77,1,
,,,,,,,,,,,,,FF,,,,,,,,0.8171,,,,,,,,,,,,,,,,,,,,,,61033da02b2a5bf215b3dc11,61036e47404f7c59f50f2f07,2021-07-29_23h13.42.308,Simcolourproject_2stim_asymm_v5,2020.2.10,MacIntel,60,61025ae37ef11b136ea224fe,,,,,,,,,2398,61.72052002,-31.48120117,1,0,0,response3disk,,5,17.19122314,0.145202637,1,0,0,rectangle,17.19122314,0.145202637,1,0,0,,,,,,,17.19122314,0.145202637,1,0,0,,0,16,16,28,1,
,,,,,,,,,,,,,FF,,,,,,,,1.0671,,,,,,,,,,,,,,,,,,,,,,61033da02b2a5bf215b3dc11,61036e47404f7c59f50f2f07,2021-07-29_23h13.42.308,Simcolourproject_2stim_asymm_v5,2020.2.10,MacIntel,60,61025ae37ef11b136ea224fe,,,,,,,,,2439,22.53222656,-78.47253418,1,0,0,response3disk,,4,-1.728088379,-9.329284668,1,0,0,rectangle,-1.728088379,-9.329284668,1,0,0,,,,,,,-1.728088379,-9.329284668,1,0,0,,0,17,17,138,1,
,,,,,,,,,,,,,FF,,,,,,,,0.9172,,,,,,,,,,,,,,,,,,,,,,61033da02b2a5bf215b3dc11,61036e47404f7c59f50f2f07,2021-07-29_23h13.42.308,Simcolourproject_2stim_asymm_v5,2020.2.10,MacIntel,60,61025ae37ef11b136ea224fe,,,,,,,,,359,-36.53265381,-77.17529297,1,0,0,response5disk,,3,-16.93157959,-6.977783203,1,0,0,rectangle,-16.93157959,-6.977783203,1,0,0,,,,,,,-16.93157959,-6.977783203,1,0,0,,0,18,18,102,1,
,,,,,,,,,,,,,FF,,,,,,,,0.8168,,,,,,,,,,,,,,,,,,,,,,61033da02b2a5bf215b3dc11,61036e47404f7c59f50f2f07,2021-07-29_23h13.42.308,Simcolourproject_2stim_asymm_v5,2020.2.10,MacIntel,60,61025ae37ef11b136ea224fe,,,,,,,,,3518,-71.77362061,-38.61514282,1,0,0,response5disk,,2,-17.63568115,-9.018707275,1,0,0,rectangle,-17.63568115,-9.018707275,1,0,0,,,,,,,-17.63568115,-9.018707275,1,0,0,,0,19,19,99,1,
,,,,,,,,,,,,,FF,,,,,,,,0.8326,,,,,,,,,,,,,,,,,,,,,,61033da02b2a5bf215b3dc11,61036e47404f7c59f50f2f07,2021-07-29_23h13.42.308,Simcolourproject_2stim_asymm_v5,2020.2.10,MacIntel,60,61025ae37ef11b136ea224fe,,,,,,,,,302,83.25500488,-29.12652588,1,0,0,response3disk,,5,24.00109863,-3.479003906,1,0,0,rectangle,24.00109863,-3.479003906,1,0,0,,,,,,,24.00109863,-3.479003906,1,0,0,,0,20,20,58,1,
,,,,,,,,,,,,,FF,,,,,,,,1.966,,,,,,,,,,,,,,,,,,,,,,61033da02b2a5bf215b3dc11,61036e47404f7c59f50f2f07,2021-07-29_23h13.42.308,Simcolourproject_2stim_asymm_v5,2020.2.10,MacIntel,60,61025ae37ef11b136ea224fe,,,,,,,,,691,-38.8572998,-62.29394531,1,0,0,response5disk,,3,-20.61047363,-7.281677246,1,0,0,rectangle,-20.61047363,-7.281677246,1,0,0,,,,,,,-20.61047363,-7.281677246,1,0,0,,0,21,21,29,1,
,,,,,,,,,,,,,FF,,,,,,,,1.1006,,,,,,,,,,,,,,,,,,,,,,61033da02b2a5bf215b3dc11,61036e47404f7c59f50f2f07,2021-07-29_23h13.42.308,Simcolourproject_2stim_asymm_v5,2020.2.10,MacIntel,60,61025ae37ef11b136ea224fe,,,,,,,,,316,60.24597168,25.95562744,1,0,0,response1disk,,6,5.000244141,1.317779541,1,0,0,rectangle,5.000244141,1.317779541,1,0,0,,,,,,,5.000244141,1.317779541,1,0,0,,0,22,22,158,1,
,,,,,,,,,,,,,FF,,,,,,,,0.8332,,,,,,,,,,,,,,,,,,,,,,61033da02b2a5bf215b3dc11,61036e47404f7c59f50f2f07,2021-07-29_23h13.42.308,Simcolourproject_2stim_asymm_v5,2020.2.10,MacIntel,60,61025ae37ef11b136ea224fe,,,,,,,,,376,-32.59552002,-63.70422363,1,0,0,response5disk,,3,-18.77819824,-6.781860352,1,0,0,rectangle,-18.77819824,-6.781860352,1,0,0,,,,,,,-18.77819824,-6.781860352,1,0,0,,0,23,23,128,1,
,,,,,,,,,,,,,FF,,,,,,,,2.4335,,,,,,,,,,,,,,,,,,,,,,61033da02b2a5bf215b3dc11,61036e47404f7c59f50f2f07,2021-07-29_23h13.42.308,Simcolourproject_2stim_asymm_v5,2020.2.10,MacIntel,60,61025ae37ef11b136ea224fe,,,,,,,,,1796,72.01867676,-34.39642334,1,0,0,response3disk,,5,9.291809082,16.00961304,1,0,0,rectangle,9.291809082,16.00961304,1,0,0,,,,,,,9.291809082,16.00961304,1,0,0,,0,24,24,155,1,
,,,,,,,,,,,,,FF,,,,,,,,1.3512,,,,,,,,,,,,,,,,,,,,,,61033da02b2a5bf215b3dc11,61036e47404f7c59f50f2f07,2021-07-29_23h13.42.308,Simcolourproject_2stim_asymm_v5,2020.2.10,MacIntel,60,61025ae37ef11b136ea224fe,,,,,,,,,3870,-63.38024902,-42.31625366,1,0,0,response5disk,,2,-12.4821167,3.48034668,1,0,0,rectangle,-12.4821167,3.48034668,1,0,0,,,,,,,-12.4821167,3.48034668,1,0,0,,0,25,25,149,1,
,,,,,,,,,,,,,FF,,,,,,,,0.8499,,,,,,,,,,,,,,,,,,,,,,61033da02b2a5bf215b3dc11,61036e47404f7c59f50f2f07,2021-07-29_23h13.42.308,Simcolourproject_2stim_asymm_v5,2020.2.10,MacIntel,60,61025ae37ef11b136ea224fe,,,,,,,,,2139,61.27630615,-35.05639648,1,0,0,response3disk,,5,31.27258301,-0.527893066,1,0,0,rectangle,31.27258301,-0.527893066,1,0,0,,,,,,,31.27258301,-0.527893066,1,0,0,,0,26,26,104,1,
,,,,,,,,,,,,,FF,,,,,,,,1.499,,,,,,,,,,,,,,,,,,,,,,61033da02b2a5bf215b3dc11,61036e47404f7c59f50f2f07,2021-07-29_23h13.42.308,Simcolourproject_2stim_asymm_v5,2020.2.10,MacIntel,60,61025ae37ef11b136ea224fe,,,,,,,,,3185,61.54064941,-24.08096313,1,0,0,response3disk,,5,-2.172302246,-0.085754395,1,0,0,rectangle,-2.172302246,-0.085754395,1,0,0,,,,,,,-2.172302246,-0.085754395,1,0,0,,0,27,27,151,1,
,,,,,,,,,,,,,FF,,,,,,,,1.8334,,,,,,,,,,,,,,,,,,,,,,61033da02b2a5bf215b3dc11,61036e47404f7c59f50f2f07,2021-07-29_23h13.42.308,Simcolourproject_2stim_asymm_v5,2020.2.10,MacIntel,60,61025ae37ef11b136ea224fe,,,,,,,,,2257,40.51367188,-88.95471191,1,0,0,response3disk,,4,4.154846191,-10.46542358,1,0,0,rectangle,4.154846191,-10.46542358,1,0,0,,,,,,,4.154846191,-10.46542358,1,0,0,,0,28,28,56,1,
,,,,,,,,,,,,,FF,,,,,,,,1.7166,,,,,,,,,,,,,,,,,,,,,,61033da02b2a5bf215b3dc11,61036e47404f7c59f50f2f07,2021-07-29_23h13.42.308,Simcolourproject_2stim_asymm_v5,2020.2.10,MacIntel,60,61025ae37ef11b136ea224fe,,,,,,,,,2546,-104.1715698,-57.01269531,1,0,0,response5disk,,2,-7.713134766,0.54675293,1,0,0,rectangle,-7.713134766,0.54675293,1,0,0,,,,,,,-7.713134766,0.54675293,1,0,0,,0,29,29,74,1,
,,,,,,,,,,,,,FF,,,,,,,,2.9006,,,,,,,,,,,,,,,,,,,,,,61033da02b2a5bf215b3dc11,61036e47404f7c59f50f2f07,2021-07-29_23h13.42.308,Simcolourproject_2stim_asymm_v5,2020.2.10,MacIntel,60,61025ae37ef11b136ea224fe,,,,,,,,,3719,-17.31591797,-97.11547852,1,0,0,response5disk,,3,-11.23394775,-5.506835938,1,0,0,rectangle,-11.23394775,-5.506835938,1,0,0,,,,,,,-11.23394775,-5.506835938,1,0,0,,0,30,30,14,1,
,,,,,,,,,,,,,FF,,,,,,,,2.6826,,,,,,,,,,,,,,,,,,,,,,61033da02b2a5bf215b3dc11,61036e47404f7c59f50f2f07,2021-07-29_23h13.42.308,Simcolourproject_2stim_asymm_v5,2020.2.10,MacIntel,60,61025ae37ef11b136ea224fe,,,,,,,,,1622,31.11993408,-77.00927734,1,0,0,response3disk,,4,-16.86895752,-0.931030273,1,0,0,rectangle,-16.86895752,-0.931030273,1,0,0,,,,,,,-16.86895752,-0.931030273,1,0,0,,0,31,31,65,1,
,,,,,,,,,,,,,FF,,,,,,,,2.4509,,,,,,,,,,,,,,,,,,,,,,61033da02b2a5bf215b3dc11,61036e47404f7c59f50f2f07,2021-07-29_23h13.42.308,Simcolourproject_2stim_asymm_v5,2020.2.10,MacIntel,60,61025ae37ef11b136ea224fe,,,,,,,,,318,76.05065918,28.33966064,1,0,0,response1disk,,6,0.446655273,12.87213135,1,0,0,rectangle,0.446655273,12.87213135,1,0,0,,,,,,,0.446655273,12.87213135,1,0,0,,0,32,32,114,1,
,,,,,,,,,,,,,FF,,,,,,,,2.1671,,,,,,,,,,,,,,,,,,,,,,61033da02b2a5bf215b3dc11,61036e47404f7c59f50f2f07,2021-07-29_23h13.42.308,Simcolourproject_2stim_asymm_v5,2020.2.10,MacIntel,60,61025ae37ef11b136ea224fe,,,,,,,,,3563,29.06286621,-101.1383057,1,0,0,response3disk,,4,15.14801025,1.664733887,1,0,0,rectangle,15.14801025,1.664733887,1,0,0,,,,,,,15.14801025,1.664733887,1,0,0,,0,33,33,137,1,
,,,,,,,,,,,,,FF,,,,,,,,1.0673,,,,,,,,,,,,,,,,,,,,,,61033da02b2a5bf215b3dc11,61036e47404f7c59f50f2f07,2021-07-29_23h13.42.308,Simcolourproject_2stim_asymm_v5,2020.2.10,MacIntel,60,61025ae37ef11b136ea224fe,,,,,,,,,2995,-74.46398926,29.1237793,1,0,0,response7disk,,1,-5.690368652,-16.88644409,1,0,0,rectangle,-5.690368652,-16.88644409,1,0,0,,,,,,,-5.690368652,-16.88644409,1,0,0,,0,34,34,98,1,
,,,,,,,,,,,,,FF,,,,,,,,0.7663,,,,,,,,,,,,,,,,,,,,,,61033da02b2a5bf215b3dc11,61036e47404f7c59f50f2f07,2021-07-29_23h13.42.308,Simcolourproject_2stim_asymm_v5,2020.2.10,MacIntel,60,61025ae37ef11b136ea224fe,,,,,,,,,3189,-59.28167725,26.06109619,1,0,0,response7disk,,1,-6.605224609,-1.88293457,1,0,0,rectangle,-6.605224609,-1.88293457,1,0,0,,,,,,,-6.605224609,-1.88293457,1,0,0,,0,35,35,25,1,
,,,,,,,,,,,,,FF,,,,,,,,0.7659,,,,,,,,,,,,,,,,,,,,,,61033da02b2a5bf215b3dc11,61036e47404f7c59f50f2f07,2021-07-29_23h13.42.308,Simcolourproject_2stim_asymm_v5,2020.2.10,MacIntel,60,61025ae37ef11b136ea224fe,,,,,,,,,841,66.10784912,36.10644531,1,0,0,response1disk,,6,-9.022705078,8.884460449,1,0,0,rectangle,-9.022705078,8.884460449,1,0,0,,,,,,,-9.022705078,8.884460449,1,0,0,,0,36,36,123,1,
,,,,,,,,,,,,,FF,,,,,,,,1.2008,,,,,,,,,,,,,,,,,,,,,,61033da02b2a5bf215b3dc11,61036e47404f7c59f50f2f07,2021-07-29_23h13.42.308,Simcolourproject_2stim_asymm_v5,2020.2.10,MacIntel,60,61025ae37ef11b136ea224fe,,,,,,,,,791,-67.19366455,-46.71871948,1,0,0,response5disk,,2,-1.077819824,-5.22253418,1,0,0,rectangle,-1.077819824,-5.22253418,1,0,0,,,,,,,-1.077819824,-5.22253418,1,0,0,,0,37,37,43,1,
,,,,,,,,,,,,,FF,,,,,,,,0.9166,,,,,,,,,,,,,,,,,,,,,,61033da02b2a5bf215b3dc11,61036e47404f7c59f50f2f07,2021-07-29_23h13.42.308,Simcolourproject_2stim_asymm_v5,2020.2.10,MacIntel,60,61025ae37ef11b136ea224fe,,,,,,,,,572,70.36785889,25.60803223,1,0,0,response1disk,,6,-16.18786621,-13.14385986,1,0,0,rectangle,-16.18786621,-13.14385986,1,0,0,,,,,,,-16.18786621,-13.14385986,1,0,0,,0,38,38,95,1,
,,,,,,,,,,,,,FF,,,,,,,,0.8163,,,,,,,,,,,,,,,,,,,,,,61033da02b2a5bf215b3dc11,61036e47404f7c59f50f2f07,2021-07-29_23h13.42.308,Simcolourproject_2stim_asymm_v5,2020.2.10,MacIntel,60,61025ae37ef11b136ea224fe,,,,,,,,,935,30.93695068,-64.30285645,1,0,0,response3disk,,4,-2.717407227,6.458435059,1,0,0,rectangle,-2.717407227,6.458435059,1,0,0,,,,,,,-2.717407227,6.458435059,1,0,0,,0,39,39,11,1,
,,,,,,,,,,,,,FF,,,,,,,,1.2679,,,,,,,,,,,,,,,,,,,,,,61033da02b2a5bf215b3dc11,61036e47404f7c59f50f2f07,2021-07-29_23h13.42.308,Simcolourproject_2stim_asymm_v5,2020.2.10,MacIntel,60,61025ae37ef11b136ea224fe,,,,,,,,,4007,-33.82507324,-92.81018066,1,0,0,response5disk,,3,-1.268859863,-1.602355957,1,0,0,rectangle,-1.268859863,-1.602355957,1,0,0,,,,,,,-1.268859863,-1.602355957,1,0,0,,0,40,40,80,1,
,,,,,,,,,,,,,FF,,,,,,,,0.6333,,,,,,,,,,,,,,,,,,,,,,61033da02b2a5bf215b3dc11,61036e47404f7c59f50f2f07,2021-07-29_23h13.42.308,Simcolourproject_2stim_asymm_v5,2020.2.10,MacIntel,60,61025ae37ef11b136ea224fe,,,,,,,,,1276,-77.23510742,-41.76428223,1,0,0,response5disk,,2,-22.38470459,-5.227233887,1,0,0,rectangle,-22.38470459,-5.227233887,1,0,0,,,,,,,-22.38470459,-5.227233887,1,0,0,,0,41,41,54,1,
,,,,,,,,,,,,,FF,,,,,,,,0.8163,,,,,,,,,,,,,,,,,,,,,,61033da02b2a5bf215b3dc11,61036e47404f7c59f50f2f07,2021-07-29_23h13.42.308,Simcolourproject_2stim_asymm_v5,2020.2.10,MacIntel,60,61025ae37ef11b136ea224fe,,,,,,,,,312,46.18414307,20.82141113,1,0,0,response1disk,,6,-4.358642578,4.198883057,1,0,0,rectangle,-4.358642578,4.198883057,1,0,0,,,,,,,-4.358642578,4.198883057,1,0,0,,0,42,42,82,1,
,,,,,,,,,,,,,FF,,,,,,,,1.5334,,,,,,,,,,,,,,,,,,,,,,61033da02b2a5bf215b3dc11,61036e47404f7c59f50f2f07,2021-07-29_23h13.42.308,Simcolourproject_2stim_asymm_v5,2020.2.10,MacIntel,60,61025ae37ef11b136ea224fe,,,,,,,,,464,-16.15979004,-90.7220459,1,0,0,response5disk,,3,5.9765625,1.157531738,1,0,0,rectangle,5.9765625,1.157531738,1,0,0,,,,,,,5.9765625,1.157531738,1,0,0,,0,43,43,6,1,
,,,,,,,,,,,,,FF,,,,,,,,1.7177,,,,,,,,,,,,,,,,,,,,,,61033da02b2a5bf215b3dc11,61036e47404f7c59f50f2f07,2021-07-29_23h13.42.308,Simcolourproject_2stim_asymm_v5,2020.2.10,MacIntel,60,61025ae37ef11b136ea224fe,,,,,,,,,155,-77.13189697,-53.60998535,1,0,0,response5disk,,2,-12.90917969,-1.631164551,1,0,0,rectangle,-12.90917969,-1.631164551,1,0,0,,,,,,,-12.90917969,-1.631164551,1,0,0,,0,44,44,91,1,
,,,,,,,,,,,,,FF,,,,,,,,1.6007,,,,,,,,,,,,,,,,,,,,,,61033da02b2a5bf215b3dc11,61036e47404f7c59f50f2f07,2021-07-29_23h13.42.308,Simcolourproject_2stim_asymm_v5,2020.2.10,MacIntel,60,61025ae37ef11b136ea224fe,,,,,,,,,4015,29.79052734,-84.65386963,1,0,0,response3disk,,4,2.451538086,-16.00112915,1,0,0,rectangle,2.451538086,-16.00112915,1,0,0,,,,,,,2.451538086,-16.00112915,1,0,0,,0,45,45,134,1,
,,,,,,,,,,,,,FF,,,,,,,,1.9167,,,,,,,,,,,,,,,,,,,,,,61033da02b2a5bf215b3dc11,61036e47404f7c59f50f2f07,2021-07-29_23h13.42.308,Simcolourproject_2stim_asymm_v5,2020.2.10,MacIntel,60,61025ae37ef11b136ea224fe,,,,,,,,,2314,59.97741699,-43.58831787,1,0,0,response3disk,,5,12.61315918,-5.264160156,1,0,0,rectangle,12.61315918,-5.264160156,1,0,0,,,,,,,12.61315918,-5.264160156,1,0,0,,0,46,46,125,1,
,,,,,,,,,,,,,FF,,,,,,,,0.734,,,,,,,,,,,,,,,,,,,,,,61033da02b2a5bf215b3dc11,61036e47404f7c59f50f2f07,2021-07-29_23h13.42.308,Simcolourproject_2stim_asymm_v5,2020.2.10,MacIntel,60,61025ae37ef11b136ea224fe,,,,,,,,,7,-73.37927246,-52.57110596,1,0,0,response5disk,,2,-21.55065918,6.527679443,1,0,0,rectangle,-21.55065918,6.527679443,1,0,0,,,,,,,-21.55065918,6.527679443,1,0,0,,0,47,47,115,1,
,,,,,,,,,,,,,FF,,,,,,,,1.5,,,,,,,,,,,,,,,,,,,,,,61033da02b2a5bf215b3dc11,61036e47404f7c59f50f2f07,2021-07-29_23h13.42.308,Simcolourproject_2stim_asymm_v5,2020.2.10,MacIntel,60,61025ae37ef11b136ea224fe,,,,,,,,,1003,40.53503418,-70.76196289,1,0,0,response3disk,,4,7.701599121,3.21484375,1,0,0,rectangle,7.701599121,3.21484375,1,0,0,,,,,,,7.701599121,3.21484375,1,0,0,,0,48,48,4,1,
,,,,,,,,,,,,,FF,,,,,,,,1.0666,,,,,,,,,,,,,,,,,,,,,,61033da02b2a5bf215b3dc11,61036e47404f7c59f50f2f07,2021-07-29_23h13.42.308,Simcolourproject_2stim_asymm_v5,2020.2.10,MacIntel,60,61025ae37ef11b136ea224fe,,,,,,,,,3420,-43.19000244,-65.42370605,1,0,0,response5disk,,3,-25.9230957,7.465148926,1,0,0,rectangle,-25.9230957,7.465148926,1,0,0,,,,,,,-25.9230957,7.465148926,1,0,0,,0,49,49,42,1,
,,,,,,,,,,,,,FF,,,,,,,,0.8003,,,,,,,,,,,,,,,,,,,,,,61033da02b2a5bf215b3dc11,61036e47404f7c59f50f2f07,2021-07-29_23h13.42.308,Simcolourproject_2stim_asymm_v5,2020.2.10,MacIntel,60,61025ae37ef11b136ea224fe,,,,,,,,,2763,55.68939209,-24.84732056,1,0,0,response3disk,,5,18.87268066,7.365631104,1,0,0,rectangle,18.87268066,7.365631104,1,0,0,,,,,,,18.87268066,7.365631104,1,0,0,,0,50,50,117,1,
,,,,,,,,,,,,,FF,,,,,,,,0.8335,,,,,,,,,,,,,,,,,,,,,,61033da02b2a5bf215b3dc11,61036e47404f7c59f50f2f07,2021-07-29_23h13.42.308,Simcolourproject_2stim_asymm_v5,2020.2.10,MacIntel,60,61025ae37ef11b136ea224fe,,,,,,,,,1960,-30.06512451,-64.64239502,1,0,0,response5disk,,3,-24.59393311,-17.01119995,1,0,0,rectangle,-24.59393311,-17.01119995,1,0,0,,,,,,,-24.59393311,-17.01119995,1,0,0,,0,51,51,64,1,
,,,,,,,,,,,,,FF,,,,,,,,0.6833,,,,,,,,,,,,,,,,,,,,,,61033da02b2a5bf215b3dc11,61036e47404f7c59f50f2f07,2021-07-29_23h13.42.308,Simcolourproject_2stim_asymm_v5,2020.2.10,MacIntel,60,61025ae37ef11b136ea224fe,,,,,,,,,3474,-53.52532959,-32.41885376,1,0,0,response5disk,,2,-13.15289307,-4.489440918,1,0,0,rectangle,-13.15289307,-4.489440918,1,0,0,,,,,,,-13.15289307,-4.489440918,1,0,0,,0,52,52,70,1,
,,,,,,,,,,,,,FF,,,,,,,,1.65,,,,,,,,,,,,,,,,,,,,,,61033da02b2a5bf215b3dc11,61036e47404f7c59f50f2f07,2021-07-29_23h13.42.308,Simcolourproject_2stim_asymm_v5,2020.2.10,MacIntel,60,61025ae37ef11b136ea224fe,,,,,,,,,1421,38.05377197,-71.53289795,1,0,0,response3disk,,4,9.104309082,-17.02282715,1,0,0,rectangle,9.104309082,-17.02282715,1,0,0,,,,,,,9.104309082,-17.02282715,1,0,0,,0,53,53,109,1,
,,,,,,,,,,,,,FF,,,,,,,,1.5496,,,,,,,,,,,,,,,,,,,,,,61033da02b2a5bf215b3dc11,61036e47404f7c59f50f2f07,2021-07-29_23h13.42.308,Simcolourproject_2stim_asymm_v5,2020.2.10,MacIntel,60,61025ae37ef11b136ea224fe,,,,,,,,,59,26.91558838,-63.74749756,1,0,0,response3disk,,4,20.8961792,-15.23254395,1,0,0,rectangle,20.8961792,-15.23254395,1,0,0,,,,,,,20.8961792,-15.23254395,1,0,0,,0,54,54,159,1,
,,,,,,,,,,,,,FF,,,,,,,,1.0161,,,,,,,,,,,,,,,,,,,,,,61033da02b2a5bf215b3dc11,61036e47404f7c59f50f2f07,2021-07-29_23h13.42.308,Simcolourproject_2stim_asymm_v5,2020.2.10,MacIntel,60,61025ae37ef11b136ea224fe,,,,,,,,,4289,72.77880859,-49.85675049,1,0,0,response3disk,,5,5.563110352,1.879821777,1,0,0,rectangle,5.563110352,1.879821777,1,0,0,,,,,,,5.563110352,1.879821777,1,0,0,,0,55,55,139,1,
,,,,,,,,,,,,,FF,,,,,,,,1.2835,,,,,,,,,,,,,,,,,,,,,,61033da02b2a5bf215b3dc11,61036e47404f7c59f50f2f07,2021-07-29_23h13.42.308,Simcolourproject_2stim_asymm_v5,2020.2.10,MacIntel,60,61025ae37ef11b136ea224fe,,,,,,,,,1726,32.77789307,-78.82373047,1,0,0,response3disk,,4,2.549133301,8.805236816,1,0,0,rectangle,-28.85906982,-82.90270996,1,0,0,response5disk_3,TRUE,3,3,"[95,184,237,93,126,293,120,65,213,112,195,81,294,235,1,251,115,246,57,169]",1.5168,-9.690002441,-7.831695557,1,0,0,rectangle,0,56,56,68,1,
,,,,,,,,,,,,,FF,,,,,,,,1.5502,,,,,,,,,,,,,,,,,,,,,,61033da02b2a5bf215b3dc11,61036e47404f7c59f50f2f07,2021-07-29_23h13.42.308,Simcolourproject_2stim_asymm_v5,2020.2.10,MacIntel,60,61025ae37ef11b136ea224fe,,,,,,,,,561,43.92944336,-109.5197754,1,0,0,response3disk,,4,15.14276123,-8.709289551,1,0,0,rectangle,15.14276123,-8.709289551,1,0,0,,,,,,,15.14276123,-8.709289551,1,0,0,,0,57,57,105,1,
,,,,,,,,,,,,,FF,,,,,,,,0.9669,,,,,,,,,,,,,,,,,,,,,,61033da02b2a5bf215b3dc11,61036e47404f7c59f50f2f07,2021-07-29_23h13.42.308,Simcolourproject_2stim_asymm_v5,2020.2.10,MacIntel,60,61025ae37ef11b136ea224fe,,,,,,,,,2567,75.54156494,24.34689331,1,0,0,response1disk,,6,20.54089355,4.760345459,1,0,0,rectangle,20.54089355,4.760345459,1,0,0,,,,,,,20.54089355,4.760345459,1,0,0,,0,58,58,38,1,
,,,,,,,,,,,,,FF,,,,,,,,0.8666,,,,,,,,,,,,,,,,,,,,,,61033da02b2a5bf215b3dc11,61036e47404f7c59f50f2f07,2021-07-29_23h13.42.308,Simcolourproject_2stim_asymm_v5,2020.2.10,MacIntel,60,61025ae37ef11b136ea224fe,,,,,,,,,1385,24.31158447,-59.53710938,1,0,0,response3disk,,4,5.885986328,-6.729125977,1,0,0,rectangle,5.885986328,-6.729125977,1,0,0,,,,,,,5.885986328,-6.729125977,1,0,0,,0,59,59,10,1,
,,,,,,,,,,,,,FF,,,,,,,,0.8662,,,,,,,,,,,,,,,,,,,,,,61033da02b2a5bf215b3dc11,61036e47404f7c59f50f2f07,2021-07-29_23h13.42.308,Simcolourproject_2stim_asymm_v5,2020.2.10,MacIntel,60,61025ae37ef11b136ea224fe,,,,,,,,,3503,-80.80053711,-60.61346436,1,0,0,response5disk,,2,6.756225586,-1.179443359,1,0,0,rectangle,6.756225586,-1.179443359,1,0,0,,,,,,,6.756225586,-1.179443359,1,0,0,,0,60,60,22,1,
,,,,,,,,,,,,,FF,,,,,,,,0.9178,,,,,,,,,,,,,,,,,,,,,,61033da02b2a5bf215b3dc11,61036e47404f7c59f50f2f07,2021-07-29_23h13.42.308,Simcolourproject_2stim_asymm_v5,2020.2.10,MacIntel,60,61025ae37ef11b136ea224fe,,,,,,,,,1577,46.86767578,-74.29504395,1,0,0,response3disk,,4,5.339294434,-8.191589355,1,0,0,rectangle,5.339294434,-8.191589355,1,0,0,,,,,,,5.339294434,-8.191589355,1,0,0,,0,61,61,92,1,
,,,,,,,,,,,,,FF,,,,,,,,1.166,,,,,,,,,,,,,,,,,,,,,,61033da02b2a5bf215b3dc11,61036e47404f7c59f50f2f07,2021-07-29_23h13.42.308,Simcolourproject_2stim_asymm_v5,2020.2.10,MacIntel,60,61025ae37ef11b136ea224fe,,,,,,,,,3848,-35.30181885,-64.22338867,1,0,0,response5disk,,3,-25.9921875,-2.410736084,1,0,0,rectangle,-25.9921875,-2.410736084,1,0,0,,,,,,,-25.9921875,-2.410736084,1,0,0,,0,62,62,113,1,
,,,,,,,,,,,,,FF,,,,,,,,1.1325,,,,,,,,,,,,,,,,,,,,,,61033da02b2a5bf215b3dc11,61036e47404f7c59f50f2f07,2021-07-29_23h13.42.308,Simcolourproject_2stim_asymm_v5,2020.2.10,MacIntel,60,61025ae37ef11b136ea224fe,,,,,,,,,196,34.08190918,-84.73242188,1,0,0,response3disk,,4,4.904968262,-2.414154053,1,0,0,rectangle,4.904968262,-2.414154053,1,0,0,,,,,,,4.904968262,-2.414154053,1,0,0,,0,63,63,156,1,
,,,,,,,,,,,,,FF,,,,,,,,0.8685,,,,,,,,,,,,,,,,,,,,,,61033da02b2a5bf215b3dc11,61036e47404f7c59f50f2f07,2021-07-29_23h13.42.308,Simcolourproject_2stim_asymm_v5,2020.2.10,MacIntel,60,61025ae37ef11b136ea224fe,,,,,,,,,598,72.25268555,-45.03573608,1,0,0,response3disk,,5,0.485839844,-12.56063843,1,0,0,rectangle,23.78234863,96.73260498,1,0,0,response1disk_3,TRUE,7,7,"[95,184,237,93,126,293,120,65,213,112,195,81,294,235,1,251,115,246,57,169]",1.4501,4.110778809,-5.549987793,1,0,0,rectangle,0,64,64,44,1,
,,,,,,,,,,,,,FF,,,,,,,,1.534,,,,,,,,,,,,,,,,,,,,,,61033da02b2a5bf215b3dc11,61036e47404f7c59f50f2f07,2021-07-29_23h13.42.308,Simcolourproject_2stim_asymm_v5,2020.2.10,MacIntel,60,61025ae37ef11b136ea224fe,,,,,,,,,3331,64.42803955,-32.65539551,1,0,0,response3disk,,5,9.986816406,-4.185974121,1,0,0,rectangle,9.986816406,-4.185974121,1,0,0,,,,,,,9.986816406,-4.185974121,1,0,0,,0,65,65,107,1,
,,,,,,,,,,,,,FF,,,,,,,,3.1496,,,,,,,,,,,,,,,,,,,,,,61033da02b2a5bf215b3dc11,61036e47404f7c59f50f2f07,2021-07-29_23h13.42.308,Simcolourproject_2stim_asymm_v5,2020.2.10,MacIntel,60,61025ae37ef11b136ea224fe,,,,,,,,,191,38.91668701,-69.12811279,1,0,0,response3disk,,4,10.25531006,-5.037139893,1,0,0,rectangle,10.25531006,-5.037139893,1,0,0,,,,,,,10.25531006,-5.037139893,1,0,0,,0,66,66,89,1,
,,,,,,,,,,,,,FF,,,,,,,,1.8171,,,,,,,,,,,,,,,,,,,,,,61033da02b2a5bf215b3dc11,61036e47404f7c59f50f2f07,2021-07-29_23h13.42.308,Simcolourproject_2stim_asymm_v5,2020.2.10,MacIntel,60,61025ae37ef11b136ea224fe,,,,,,,,,3692,110.6990967,-40.47143555,1,0,0,response3disk,,5,-2.263793945,-11.97064209,1,0,0,rectangle,-2.263793945,-11.97064209,1,0,0,,,,,,,-2.263793945,-11.97064209,1,0,0,,0,67,67,146,1,
,,,,,,,,,,,,,FF,,,,,,,,1.7843,,,,,,,,,,,,,,,,,,,,,,61033da02b2a5bf215b3dc11,61036e47404f7c59f50f2f07,2021-07-29_23h13.42.308,Simcolourproject_2stim_asymm_v5,2020.2.10,MacIntel,60,61025ae37ef11b136ea224fe,,,,,,,,,2638,41.25476074,-53.67010498,1,0,0,response3disk,,4,-5.860839844,-15.21383667,1,0,0,rectangle,-5.860839844,-15.21383667,1,0,0,,,,,,,-5.860839844,-15.21383667,1,0,0,,0,68,68,40,1,
,,,,,,,,,,,,,FF,,,,,,,,1.3323,,,,,,,,,,,,,,,,,,,,,,61033da02b2a5bf215b3dc11,61036e47404f7c59f50f2f07,2021-07-29_23h13.42.308,Simcolourproject_2stim_asymm_v5,2020.2.10,MacIntel,60,61025ae37ef11b136ea224fe,,,,,,,,,3722,-36.61004639,-69.31860352,1,0,0,response5disk,,3,-34.28411865,2.141479492,1,0,0,rectangle,-34.28411865,2.141479492,1,0,0,,,,,,,-34.28411865,2.141479492,1,0,0,,0,69,69,130,1,
,,,,,,,,,,,,,FF,,,,,,,,1.2334,,,,,,,,,,,,,,,,,,,,,,61033da02b2a5bf215b3dc11,61036e47404f7c59f50f2f07,2021-07-29_23h13.42.308,Simcolourproject_2stim_asymm_v5,2020.2.10,MacIntel,60,61025ae37ef11b136ea224fe,,,,,,,,,3150,-67.47271729,-48.59088135,1,0,0,response5disk,,2,-13.24859619,0.375671387,1,0,0,rectangle,-13.24859619,0.375671387,1,0,0,,,,,,,-13.24859619,0.375671387,1,0,0,,0,70,70,67,1,
,,,,,,,,,,,,,FF,,,,,,,,0.8666,,,,,,,,,,,,,,,,,,,,,,61033da02b2a5bf215b3dc11,61036e47404f7c59f50f2f07,2021-07-29_23h13.42.308,Simcolourproject_2stim_asymm_v5,2020.2.10,MacIntel,60,61025ae37ef11b136ea224fe,,,,,,,,,2105,-61.89801025,-36.78283691,1,0,0,response5disk,,2,-16.88952637,1.826812744,1,0,0,rectangle,-16.88952637,1.826812744,1,0,0,,,,,,,-16.88952637,1.826812744,1,0,0,,0,71,71,66,1,
,,,,,,,,,,,,,FF,,,,,,,,1.9999,,,,,,,,,,,,,,,,,,,,,,61033da02b2a5bf215b3dc11,61036e47404f7c59f50f2f07,2021-07-29_23h13.42.308,Simcolourproject_2stim_asymm_v5,2020.2.10,MacIntel,60,61025ae37ef11b136ea224fe,,,,,,,,,2120,60.80871582,-20.16937256,1,0,0,response3disk,,5,21.06878662,-0.147521973,1,0,0,rectangle,21.06878662,-0.147521973,1,0,0,,,,,,,21.06878662,-0.147521973,1,0,0,,0,72,72,7,1,
,,,,,,,,,,,,,FF,,,,,,,,1.7172,,,,,,,,,,,,,,,,,,,,,,61033da02b2a5bf215b3dc11,61036e47404f7c59f50f2f07,2021-07-29_23h13.42.308,Simcolourproject_2stim_asymm_v5,2020.2.10,MacIntel,60,61025ae37ef11b136ea224fe,,,,,,,,,2331,60.72119141,-30.84536743,1,0,0,response3disk,,5,-3.53137207,-8.345275879,1,0,0,rectangle,-3.53137207,-8.345275879,1,0,0,,,,,,,-3.53137207,-8.345275879,1,0,0,,0,73,73,39,1,
,,,,,,,,,,,,,FF,,,,,,,,2.7171,,,,,,,,,,,,,,,,,,,,,,61033da02b2a5bf215b3dc11,61036e47404f7c59f50f2f07,2021-07-29_23h13.42.308,Simcolourproject_2stim_asymm_v5,2020.2.10,MacIntel,60,61025ae37ef11b136ea224fe,,,,,,,,,516,-21.58337402,-71.02911377,1,0,0,response5disk,,3,-14.22918701,-6.273193359,1,0,0,rectangle,-14.22918701,-6.273193359,1,0,0,,,,,,,-14.22918701,-6.273193359,1,0,0,,0,74,74,97,1,
,,,,,,,,,,,,,FF,,,,,,,,1.0001,,,,,,,,,,,,,,,,,,,,,,61033da02b2a5bf215b3dc11,61036e47404f7c59f50f2f07,2021-07-29_23h13.42.308,Simcolourproject_2stim_asymm_v5,2020.2.10,MacIntel,60,61025ae37ef11b136ea224fe,,,,,,,,,4259,67.52252197,-41.00317383,1,0,0,response3disk,,5,13.27069092,-1.797546387,1,0,0,rectangle,13.27069092,-1.797546387,1,0,0,,,,,,,13.27069092,-1.797546387,1,0,0,,0,75,75,122,1,
,,,,,,,,,,,,,FF,,,,,,,,0.7828,,,,,,,,,,,,,,,,,,,,,,61033da02b2a5bf215b3dc11,61036e47404f7c59f50f2f07,2021-07-29_23h13.42.308,Simcolourproject_2stim_asymm_v5,2020.2.10,MacIntel,60,61025ae37ef11b136ea224fe,,,,,,,,,2788,-59.15631104,-36.73202515,1,0,0,response5disk,,2,-14.4430542,4.815429688,1,0,0,rectangle,-14.4430542,4.815429688,1,0,0,,,,,,,-14.4430542,4.815429688,1,0,0,,0,76,76,47,1,
,,,,,,,,,,,,,FF,,,,,,,,1.3679,,,,,,,,,,,,,,,,,,,,,,61033da02b2a5bf215b3dc11,61036e47404f7c59f50f2f07,2021-07-29_23h13.42.308,Simcolourproject_2stim_asymm_v5,2020.2.10,MacIntel,60,61025ae37ef11b136ea224fe,,,,,,,,,2088,-60.72363281,-36.82305908,1,0,0,response5disk,,2,-15.71392822,1.38470459,1,0,0,rectangle,-15.71392822,1.38470459,1,0,0,,,,,,,-15.71392822,1.38470459,1,0,0,,0,77,77,21,1,
,,,,,,,,,,,,,FF,,,,,,,,2.0167,,,,,,,,,,,,,,,,,,,,,,61033da02b2a5bf215b3dc11,61036e47404f7c59f50f2f07,2021-07-29_23h13.42.308,Simcolourproject_2stim_asymm_v5,2020.2.10,MacIntel,60,61025ae37ef11b136ea224fe,,,,,,,,,838,52.26452637,-39.44528198,1,0,0,response3disk,,5,7.851074219,-10.98852539,1,0,0,rectangle,7.851074219,-10.98852539,1,0,0,,,,,,,7.851074219,-10.98852539,1,0,0,,0,78,78,81,1,
,,,,,,,,,,,,,FF,,,,,,,,0.817,,,,,,,,,,,,,,,,,,,,,,61033da02b2a5bf215b3dc11,61036e47404f7c59f50f2f07,2021-07-29_23h13.42.308,Simcolourproject_2stim_asymm_v5,2020.2.10,MacIntel,60,61025ae37ef11b136ea224fe,,,,,,,,,1188,29.81591797,-50.85543823,1,0,0,response3disk,,4,-7.647827148,-13.95159912,1,0,0,rectangle,-7.647827148,-13.95159912,1,0,0,,,,,,,-7.647827148,-13.95159912,1,0,0,,0,79,79,142,1,
,,,,,,,,,,,,,FF,,,,,,,,1.1332,,,,,,,,,,,,,,,,,,,,,,61033da02b2a5bf215b3dc11,61036e47404f7c59f50f2f07,2021-07-29_23h13.42.308,Simcolourproject_2stim_asymm_v5,2020.2.10,MacIntel,60,61025ae37ef11b136ea224fe,,,,,,,,,4118,-55.45477295,68.71221924,1,0,0,response7disk,,0,-14.5826416,3.520202637,1,0,0,rectangle,30.55871582,79.18930054,1,0,0,response1disk_3,TRUE,7,7,"[95,184,237,93,126,293,120,65,213,112,195,81,294,235,1,251,115,246,57,169]",1.1665,11.77972412,-3.5078125,1,0,0,rectangle,0,80,80,5,1,
,,,,,,,,,,,,,FF,,,,,,,,1.0669,,,,,,,,,,,,,,,,,,,,,,61033da02b2a5bf215b3dc11,61036e47404f7c59f50f2f07,2021-07-29_23h13.42.308,Simcolourproject_2stim_asymm_v5,2020.2.10,MacIntel,60,61025ae37ef11b136ea224fe,,,,,,,,,1954,-27.68206787,-64.72338867,1,0,0,response5disk,,3,-20.28173828,7.022583008,1,0,0,rectangle,-20.28173828,7.022583008,1,0,0,,,,,,,-20.28173828,7.022583008,1,0,0,,0,81,81,17,1,
,,,,,,,,,,,,,FF,,,,,,,,0.8333,,,,,,,,,,,,,,,,,,,,,,61033da02b2a5bf215b3dc11,61036e47404f7c59f50f2f07,2021-07-29_23h13.42.308,Simcolourproject_2stim_asymm_v5,2020.2.10,MacIntel,60,61025ae37ef11b136ea224fe,,,,,,,,,339,-59.34771729,-38.31112671,1,0,0,response5disk,,2,-26.6473999,2.414398193,1,0,0,rectangle,-26.6473999,2.414398193,1,0,0,,,,,,,-26.6473999,2.414398193,1,0,0,,0,82,82,136,1,
,,,,,,,,,,,,,FF,,,,,,,,0.917,,,,,,,,,,,,,,,,,,,,,,61033da02b2a5bf215b3dc11,61036e47404f7c59f50f2f07,2021-07-29_23h13.42.308,Simcolourproject_2stim_asymm_v5,2020.2.10,MacIntel,60,61025ae37ef11b136ea224fe,,,,,,,,,2572,62.84069824,33.02487183,1,0,0,response1disk,,6,10.31732178,-8.858428955,1,0,0,rectangle,10.31732178,-8.858428955,1,0,0,,,,,,,10.31732178,-8.858428955,1,0,0,,0,83,83,35,1,
,,,,,,,,,,,,,FF,,,,,,,,1.7498,,,,,,,,,,,,,,,,,,,,,,61033da02b2a5bf215b3dc11,61036e47404f7c59f50f2f07,2021-07-29_23h13.42.308,Simcolourproject_2stim_asymm_v5,2020.2.10,MacIntel,60,61025ae37ef11b136ea224fe,,,,,,,,,3958,51.78436279,-25.59039307,1,0,0,response3disk,,5,14.40704346,-5.545501709,1,0,0,rectangle,14.40704346,-5.545501709,1,0,0,,,,,,,14.40704346,-5.545501709,1,0,0,,0,84,84,57,1,
,,,,,,,,,,,,,FF,,,,,,,,0.7503,,,,,,,,,,,,,,,,,,,,,,61033da02b2a5bf215b3dc11,61036e47404f7c59f50f2f07,2021-07-29_23h13.42.308,Simcolourproject_2stim_asymm_v5,2020.2.10,MacIntel,60,61025ae37ef11b136ea224fe,,,,,,,,,1585,31.25354004,-65.05944824,1,0,0,response3disk,,4,-2.900756836,-8.892883301,1,0,0,rectangle,-2.900756836,-8.892883301,1,0,0,,,,,,,-2.900756836,-8.892883301,1,0,0,,0,85,85,52,1,
,,,,,,,,,,,,,FF,,,,,,,,1.3678,,,,,,,,,,,,,,,,,,,,,,61033da02b2a5bf215b3dc11,61036e47404f7c59f50f2f07,2021-07-29_23h13.42.308,Simcolourproject_2stim_asymm_v5,2020.2.10,MacIntel,60,61025ae37ef11b136ea224fe,,,,,,,,,3550,35.87573242,-63.73657227,1,0,0,response3disk,,4,-12.37524414,-12.85827637,1,0,0,rectangle,-12.37524414,-12.85827637,1,0,0,,,,,,,-12.37524414,-12.85827637,1,0,0,,0,86,86,110,1,
,,,,,,,,,,,,,FF,,,,,,,,1.234,,,,,,,,,,,,,,,,,,,,,,61033da02b2a5bf215b3dc11,61036e47404f7c59f50f2f07,2021-07-29_23h13.42.308,Simcolourproject_2stim_asymm_v5,2020.2.10,MacIntel,60,61025ae37ef11b136ea224fe,,,,,,,,,2773,-30.5456543,-83.03259277,1,0,0,response5disk,,3,-13.61077881,14.46969604,1,0,0,rectangle,-13.61077881,14.46969604,1,0,0,,,,,,,-13.61077881,14.46969604,1,0,0,,0,87,87,46,1,
,,,,,,,,,,,,,FF,,,,,,,,1.6163,,,,,,,,,,,,,,,,,,,,,,61033da02b2a5bf215b3dc11,61036e47404f7c59f50f2f07,2021-07-29_23h13.42.308,Simcolourproject_2stim_asymm_v5,2020.2.10,MacIntel,60,61025ae37ef11b136ea224fe,,,,,,,,,4149,-48.79998779,-57.43218994,1,0,0,response5disk,,3,-27.51000977,5.506958008,1,0,0,rectangle,-27.51000977,5.506958008,1,0,0,,,,,,,-27.51000977,5.506958008,1,0,0,,0,88,88,96,1,
,,,,,,,,,,,,,FF,,,,,,,,1.6654,,,,,,,,,,,,,,,,,,,,,,61033da02b2a5bf215b3dc11,61036e47404f7c59f50f2f07,2021-07-29_23h13.42.308,Simcolourproject_2stim_asymm_v5,2020.2.10,MacIntel,60,61025ae37ef11b136ea224fe,,,,,,,,,2337,72.7800293,36.54962158,1,0,0,response1disk,,6,23.42681885,4.468139648,1,0,0,rectangle,23.42681885,4.468139648,1,0,0,,,,,,,23.42681885,4.468139648,1,0,0,,0,89,89,45,1,
,,,,,,,,,,,,,FF,,,,,,,,1.3843,,,,,,,,,,,,,,,,,,,,,,61033da02b2a5bf215b3dc11,61036e47404f7c59f50f2f07,2021-07-29_23h13.42.308,Simcolourproject_2stim_asymm_v5,2020.2.10,MacIntel,60,61025ae37ef11b136ea224fe,,,,,,,,,3618,-28.91217041,-79.03466797,1,0,0,response5disk,,3,-1.312072754,-1.839416504,1,0,0,rectangle,-1.312072754,-1.839416504,1,0,0,,,,,,,-1.312072754,-1.839416504,1,0,0,,0,90,90,83,1,
,,,,,,,,,,,,,FF,,,,,,,,0.8667,,,,,,,,,,,,,,,,,,,,,,61033da02b2a5bf215b3dc11,61036e47404f7c59f50f2f07,2021-07-29_23h13.42.308,Simcolourproject_2stim_asymm_v5,2020.2.10,MacIntel,60,61025ae37ef11b136ea224fe,,,,,,,,,2870,52.27313232,-32.82824707,1,0,0,response3disk,,5,10.61547852,16.8347168,1,0,0,rectangle,10.61547852,16.8347168,1,0,0,,,,,,,10.61547852,16.8347168,1,0,0,,0,91,91,132,1,
,,,,,,,,,,,,,FF,,,,,,,,0.9002,,,,,,,,,,,,,,,,,,,,,,61033da02b2a5bf215b3dc11,61036e47404f7c59f50f2f07,2021-07-29_23h13.42.308,Simcolourproject_2stim_asymm_v5,2020.2.10,MacIntel,60,61025ae37ef11b136ea224fe,,,,,,,,,912,49.89727783,-26.56295776,1,0,0,response3disk,,5,16.62347412,-8.787017822,1,0,0,rectangle,-39.73577881,-101.7028809,1,0,0,response5disk_3,TRUE,3,3,"[95,184,237,93,126,293,120,65,213,112,195,81,294,235,1,251,115,246,57,169]",1.4992,-11.1685791,-0.70425415,1,0,0,rectangle,0,92,92,30,1,
,,,,,,,,,,,,,FF,,,,,,,,0.8164,,,,,,,,,,,,,,,,,,,,,,61033da02b2a5bf215b3dc11,61036e47404f7c59f50f2f07,2021-07-29_23h13.42.308,Simcolourproject_2stim_asymm_v5,2020.2.10,MacIntel,60,61025ae37ef11b136ea224fe,,,,,,,,,2889,-72.76806641,-42.02642822,1,0,0,response5disk,,2,-24.80163574,-4.168029785,1,0,0,rectangle,-24.80163574,-4.168029785,1,0,0,,,,,,,-24.80163574,-4.168029785,1,0,0,,0,93,93,79,1,
,,,,,,,,,,,,,FF,,,,,,,,0.9173,,,,,,,,,,,,,,,,,,,,,,61033da02b2a5bf215b3dc11,61036e47404f7c59f50f2f07,2021-07-29_23h13.42.308,Simcolourproject_2stim_asymm_v5,2020.2.10,MacIntel,60,61025ae37ef11b136ea224fe,,,,,,,,,3963,-40.72015381,-75.64251709,1,0,0,response5disk,,3,-17.60528564,2.0184021,1,0,0,rectangle,67.58642578,-30.00765991,1,0,0,response3disk_3,TRUE,5,5,"[95,184,237,93,126,293,120,65,213,112,195,81,294,235,1,251,115,246,57,169]",1.4005,5.621154785,-2.988586426,1,0,0,rectangle,0,94,94,121,1,
,,,,,,,,,,,,,FF,,,,,,,,2.3824,,,,,,,,,,,,,,,,,,,,,,61033da02b2a5bf215b3dc11,61036e47404f7c59f50f2f07,2021-07-29_23h13.42.308,Simcolourproject_2stim_asymm_v5,2020.2.10,MacIntel,60,61025ae37ef11b136ea224fe,,,,,,,,,1325,84.29443359,45.33959961,1,0,0,response1disk,,6,21.46484375,-8.966583252,1,0,0,rectangle,21.46484375,-8.966583252,1,0,0,,,,,,,21.46484375,-8.966583252,1,0,0,,0,95,95,152,1,
,,,,,,,,,,,,,FF,,,,,,,,0.8008,,,,,,,,,,,,,,,,,,,,,,61033da02b2a5bf215b3dc11,61036e47404f7c59f50f2f07,2021-07-29_23h13.42.308,Simcolourproject_2stim_asymm_v5,2020.2.10,MacIntel,60,61025ae37ef11b136ea224fe,,,,,,,,,3267,24.87835693,-115.6480713,1,0,0,response3disk,,4,-7.783691406,1.852264404,1,0,0,rectangle,-7.783691406,1.852264404,1,0,0,,,,,,,-7.783691406,1.852264404,1,0,0,,0,96,96,127,1,
,,,,,,,,,,,,,FF,,,,,,,,1.883,,,,,,,,,,,,,,,,,,,,,,61033da02b2a5bf215b3dc11,61036e47404f7c59f50f2f07,2021-07-29_23h13.42.308,Simcolourproject_2stim_asymm_v5,2020.2.10,MacIntel,60,61025ae37ef11b136ea224fe,,,,,,,,,2303,-67.5680542,-47.38195801,1,0,0,response5disk,,2,1.304260254,-10.4230957,1,0,0,rectangle,1.304260254,-10.4230957,1,0,0,,,,,,,1.304260254,-10.4230957,1,0,0,,0,97,97,87,1,
,,,,,,,,,,,,,FF,,,,,,,,0.9833,,,,,,,,,,,,,,,,,,,,,,61033da02b2a5bf215b3dc11,61036e47404f7c59f50f2f07,2021-07-29_23h13.42.308,Simcolourproject_2stim_asymm_v5,2020.2.10,MacIntel,60,61025ae37ef11b136ea224fe,,,,,,,,,1454,-50.44561768,21.78793335,1,0,0,response7disk,,1,-15.51721191,10.87261963,1,0,0,rectangle,-15.51721191,10.87261963,1,0,0,,,,,,,-15.51721191,10.87261963,1,0,0,,0,98,98,108,1,
,,,,,,,,,,,,,FF,,,,,,,,0.767,,,,,,,,,,,,,,,,,,,,,,61033da02b2a5bf215b3dc11,61036e47404f7c59f50f2f07,2021-07-29_23h13.42.308,Simcolourproject_2stim_asymm_v5,2020.2.10,MacIntel,60,61025ae37ef11b136ea224fe,,,,,,,,,2978,48.45739746,25.668396,1,0,0,response1disk,,6,-0.301086426,-10.13934326,1,0,0,rectangle,-0.301086426,-10.13934326,1,0,0,,,,,,,-0.301086426,-10.13934326,1,0,0,,0,99,99,129,1,
,,,,,,,,,,,,,FF,,,,,,,,1.4509,,,,,,,,,,,,,,,,,,,,,,61033da02b2a5bf215b3dc11,61036e47404f7c59f50f2f07,2021-07-29_23h13.42.308,Simcolourproject_2stim_asymm_v5,2020.2.10,MacIntel,60,61025ae37ef11b136ea224fe,,,,,,,,,3432,-66.90777588,-46.45159912,1,0,0,response5disk,,2,-13.46905518,5.681152344,1,0,0,rectangle,-13.46905518,5.681152344,1,0,0,,,,,,,-13.46905518,5.681152344,1,0,0,,0,100,100,53,1,
,,,,,,,,,,,,,FF,,,,,,,,0.7657,,,,,,,,,,,,,,,,,,,,,,61033da02b2a5bf215b3dc11,61036e47404f7c59f50f2f07,2021-07-29_23h13.42.308,Simcolourproject_2stim_asymm_v5,2020.2.10,MacIntel,60,61025ae37ef11b136ea224fe,,,,,,,,,1431,-38.38909912,-67.60144043,1,0,0,response5disk,,3,-12.35290527,9.122772217,1,0,0,rectangle,-12.35290527,9.122772217,1,0,0,,,,,,,-12.35290527,9.122772217,1,0,0,,0,101,101,147,1,
,,,,,,,,,,,,,FF,,,,,,,,0.85,,,,,,,,,,,,,,,,,,,,,,61033da02b2a5bf215b3dc11,61036e47404f7c59f50f2f07,2021-07-29_23h13.42.308,Simcolourproject_2stim_asymm_v5,2020.2.10,MacIntel,60,61025ae37ef11b136ea224fe,,,,,,,,,2549,-36.61706543,-76.18286133,1,0,0,response5disk,,3,-14.87744141,-6.667388916,1,0,0,rectangle,-14.87744141,-6.667388916,1,0,0,,,,,,,-14.87744141,-6.667388916,1,0,0,,0,102,102,111,1,
,,,,,,,,,,,,,FF,,,,,,,,1.4162,,,,,,,,,,,,,,,,,,,,,,61033da02b2a5bf215b3dc11,61036e47404f7c59f50f2f07,2021-07-29_23h13.42.308,Simcolourproject_2stim_asymm_v5,2020.2.10,MacIntel,60,61025ae37ef11b136ea224fe,,,,,,,,,703,60.65844727,-32.42932129,1,0,0,response3disk,,5,2.563415527,-4.467651367,1,0,0,rectangle,2.563415527,-4.467651367,1,0,0,,,,,,,2.563415527,-4.467651367,1,0,0,,0,103,103,133,1,
,,,,,,,,,,,,,FF,,,,,,,,1.0348,,,,,,,,,,,,,,,,,,,,,,61033da02b2a5bf215b3dc11,61036e47404f7c59f50f2f07,2021-07-29_23h13.42.308,Simcolourproject_2stim_asymm_v5,2020.2.10,MacIntel,60,61025ae37ef11b136ea224fe,,,,,,,,,2923,61.59100342,21.7824707,1,0,0,response1disk,,6,24.58239746,4.875946045,1,0,0,rectangle,24.58239746,4.875946045,1,0,0,,,,,,,24.58239746,4.875946045,1,0,0,,0,104,104,145,1,
,,,,,,,,,,,,,FF,,,,,,,,1.2849,,,,,,,,,,,,,,,,,,,,,,61033da02b2a5bf215b3dc11,61036e47404f7c59f50f2f07,2021-07-29_23h13.42.308,Simcolourproject_2stim_asymm_v5,2020.2.10,MacIntel,60,61025ae37ef11b136ea224fe,,,,,,,,,290,59.90539551,-24.01266479,1,0,0,response3disk,,5,11.62158203,-7.831542969,1,0,0,rectangle,11.62158203,-7.831542969,1,0,0,,,,,,,11.62158203,-7.831542969,1,0,0,,0,105,105,85,1,
,,,,,,,,,,,,,FF,,,,,,,,1.1496,,,,,,,,,,,,,,,,,,,,,,61033da02b2a5bf215b3dc11,61036e47404f7c59f50f2f07,2021-07-29_23h13.42.308,Simcolourproject_2stim_asymm_v5,2020.2.10,MacIntel,60,61025ae37ef11b136ea224fe,,,,,,,,,3360,42.56408691,52.5508728,1,0,0,response1disk,,7,-7.721313477,1.182617188,1,0,0,rectangle,-7.721313477,1.182617188,1,0,0,,,,,,,-7.721313477,1.182617188,1,0,0,,0,106,106,150,1,
,,,,,,,,,,,,,FF,,,,,,,,0.9504,,,,,,,,,,,,,,,,,,,,,,61033da02b2a5bf215b3dc11,61036e47404f7c59f50f2f07,2021-07-29_23h13.42.308,Simcolourproject_2stim_asymm_v5,2020.2.10,MacIntel,60,61025ae37ef11b136ea224fe,,,,,,,,,4219,-37.48614502,-69.22564697,1,0,0,response5disk,,3,-19.83795166,-10.684021,1,0,0,rectangle,-19.83795166,-10.684021,1,0,0,,,,,,,-19.83795166,-10.684021,1,0,0,,0,107,107,93,1,
,,,,,,,,,,,,,FF,,,,,,,,3.9005,,,,,,,,,,,,,,,,,,,,,,61033da02b2a5bf215b3dc11,61036e47404f7c59f50f2f07,2021-07-29_23h13.42.308,Simcolourproject_2stim_asymm_v5,2020.2.10,MacIntel,60,61025ae37ef11b136ea224fe,,,,,,,,,2043,68.027771,-54.29052734,1,0,0,response3disk,,5,20.09356689,5.24230957,1,0,0,rectangle,20.09356689,5.24230957,1,0,0,,,,,,,20.09356689,5.24230957,1,0,0,,0,108,108,103,1,
,,,,,,,,,,,,,FF,,,,,,,,1.1335,,,,,,,,,,,,,,,,,,,,,,61033da02b2a5bf215b3dc11,61036e47404f7c59f50f2f07,2021-07-29_23h13.42.308,Simcolourproject_2stim_asymm_v5,2020.2.10,MacIntel,60,61025ae37ef11b136ea224fe,,,,,,,,,28,36.33947754,-75.13720703,1,0,0,response3disk,,4,-4.164428711,-8.580444336,1,0,0,rectangle,-4.164428711,-8.580444336,1,0,0,,,,,,,-4.164428711,-8.580444336,1,0,0,,0,109,109,124,1,
,,,,,,,,,,,,,FF,,,,,,,,0.8846,,,,,,,,,,,,,,,,,,,,,,61033da02b2a5bf215b3dc11,61036e47404f7c59f50f2f07,2021-07-29_23h13.42.308,Simcolourproject_2stim_asymm_v5,2020.2.10,MacIntel,60,61025ae37ef11b136ea224fe,,,,,,,,,4028,-57.21502686,-78.5267334,1,0,0,response5disk,,3,-17.99121094,-0.301422119,1,0,0,rectangle,-17.99121094,-0.301422119,1,0,0,,,,,,,-17.99121094,-0.301422119,1,0,0,,0,110,110,69,1,
,,,,,,,,,,,,,FF,,,,,,,,0.6326,,,,,,,,,,,,,,,,,,,,,,61033da02b2a5bf215b3dc11,61036e47404f7c59f50f2f07,2021-07-29_23h13.42.308,Simcolourproject_2stim_asymm_v5,2020.2.10,MacIntel,60,61025ae37ef11b136ea224fe,,,,,,,,,1891,-84.91870117,-53.88470459,1,0,0,response5disk,,2,-0.751342773,12.63525391,1,0,0,rectangle,-77.70318604,31.5604248,1,0,0,response7disk_3,TRUE,1,1,"[95,184,237,93,126,293,120,65,213,112,195,81,294,235,1,251,115,246,57,169]",1.4163,-3.414733887,-2.775634766,1,0,0,rectangle,0,111,111,33,1,
,,,,,,,,,,,,,FF,,,,,,,,1.7329,,,,,,,,,,,,,,,,,,,,,,61033da02b2a5bf215b3dc11,61036e47404f7c59f50f2f07,2021-07-29_23h13.42.308,Simcolourproject_2stim_asymm_v5,2020.2.10,MacIntel,60,61025ae37ef11b136ea224fe,,,,,,,,,2900,-58.41796875,-44.33361816,1,0,0,response5disk,,2,-8.172485352,-8.475402832,1,0,0,rectangle,-8.172485352,-8.475402832,1,0,0,,,,,,,-8.172485352,-8.475402832,1,0,0,,0,112,112,8,1,
,,,,,,,,,,,,,FF,,,,,,,,0.7335,,,,,,,,,,,,,,,,,,,,,,61033da02b2a5bf215b3dc11,61036e47404f7c59f50f2f07,2021-07-29_23h13.42.308,Simcolourproject_2stim_asymm_v5,2020.2.10,MacIntel,60,61025ae37ef11b136ea224fe,,,,,,,,,4214,37.29974365,-41.85437012,1,0,0,response3disk,,4,19.08056641,-8.086334229,1,0,0,rectangle,19.08056641,-8.086334229,1,0,0,,,,,,,19.08056641,-8.086334229,1,0,0,,0,113,113,72,1,
,,,,,,,,,,,,,FF,,,,,,,,1.4005,,,,,,,,,,,,,,,,,,,,,,61033da02b2a5bf215b3dc11,61036e47404f7c59f50f2f07,2021-07-29_23h13.42.308,Simcolourproject_2stim_asymm_v5,2020.2.10,MacIntel,60,61025ae37ef11b136ea224fe,,,,,,,,,2452,39.27075195,16.00054932,1,0,0,response1disk,,6,7.279907227,-14.2059021,1,0,0,rectangle,62.30310059,29.79974365,1,0,0,response1disk_3,TRUE,6,6,"[95,184,237,93,126,293,120,65,213,112,195,81,294,235,1,251,115,246,57,169]",1.2322,27.35333252,3.694946289,1,0,0,rectangle,0,114,114,31,1,
,,,,,,,,,,,,,FF,,,,,,,,1.3659,,,,,,,,,,,,,,,,,,,,,,61033da02b2a5bf215b3dc11,61036e47404f7c59f50f2f07,2021-07-29_23h13.42.308,Simcolourproject_2stim_asymm_v5,2020.2.10,MacIntel,60,61025ae37ef11b136ea224fe,,,,,,,,,2386,34.10809326,-63.3013916,1,0,0,response3disk,,4,10.97143555,-10.69116211,1,0,0,rectangle,10.97143555,-10.69116211,1,0,0,,,,,,,10.97143555,-10.69116211,1,0,0,,0,115,115,16,1,
,,,,,,,,,,,,,FF,,,,,,,,1.067,,,,,,,,,,,,,,,,,,,,,,61033da02b2a5bf215b3dc11,61036e47404f7c59f50f2f07,2021-07-29_23h13.42.308,Simcolourproject_2stim_asymm_v5,2020.2.10,MacIntel,60,61025ae37ef11b136ea224fe,,,,,,,,,2443,90.24273682,55.52987671,1,0,0,response1disk,,6,0.427307129,-10.55432129,1,0,0,rectangle,0.427307129,-10.55432129,1,0,0,,,,,,,0.427307129,-10.55432129,1,0,0,,0,116,116,154,1,
,,,,,,,,,,,,,FF,,,,,,,,3.6669,,,,,,,,,,,,,,,,,,,,,,61033da02b2a5bf215b3dc11,61036e47404f7c59f50f2f07,2021-07-29_23h13.42.308,Simcolourproject_2stim_asymm_v5,2020.2.10,MacIntel,60,61025ae37ef11b136ea224fe,,,,,,,,,2215,88.83630371,40.60940552,1,0,0,response1disk,,6,8.074829102,-14.46121216,1,0,0,rectangle,8.074829102,-14.46121216,1,0,0,,,,,,,8.074829102,-14.46121216,1,0,0,,0,117,117,126,1,
,,,,,,,,,,,,,FF,,,,,,,,0.8836,,,,,,,,,,,,,,,,,,,,,,61033da02b2a5bf215b3dc11,61036e47404f7c59f50f2f07,2021-07-29_23h13.42.308,Simcolourproject_2stim_asymm_v5,2020.2.10,MacIntel,60,61025ae37ef11b136ea224fe,,,,,,,,,975,-80.01403809,42.35894775,1,0,0,response7disk,,1,-24.83648682,10.98345947,1,0,0,rectangle,-24.83648682,10.98345947,1,0,0,,,,,,,-24.83648682,10.98345947,1,0,0,,0,118,118,41,1,
,,,,,,,,,,,,,FF,,,,,,,,1.1655,,,,,,,,,,,,,,,,,,,,,,61033da02b2a5bf215b3dc11,61036e47404f7c59f50f2f07,2021-07-29_23h13.42.308,Simcolourproject_2stim_asymm_v5,2020.2.10,MacIntel,60,61025ae37ef11b136ea224fe,,,,,,,,,1849,35.5010376,-63.34197998,1,0,0,response3disk,,4,-5.641967773,-2.868591309,1,0,0,rectangle,-41.12890625,-86.13146973,1,0,0,response5disk_3,TRUE,3,3,"[95,184,237,93,126,293,120,65,213,112,195,81,294,235,1,251,115,246,57,169]",1.5838,0.009216309,0.247283936,1,0,0,rectangle,0,119,119,55,1,
,,,,,,,,,,,,,FF,,,,,,,,1.0167,,,,,,,,,,,,,,,,,,,,,,61033da02b2a5bf215b3dc11,61036e47404f7c59f50f2f07,2021-07-29_23h13.42.308,Simcolourproject_2stim_asymm_v5,2020.2.10,MacIntel,60,61025ae37ef11b136ea224fe,,,,,,,,,3477,-70.98248291,-49.95620728,1,0,0,response5disk,,2,-4.399353027,-11.87561035,1,0,0,rectangle,-4.399353027,-11.87561035,1,0,0,,,,,,,-4.399353027,-11.87561035,1,0,0,,0,120,120,27,1,
,,,,,,,,,,,,,FF,,,,,,,,1.117,,,,,,,,,,,,,,,,,,,,,,61033da02b2a5bf215b3dc11,61036e47404f7c59f50f2f07,2021-07-29_23h13.42.308,Simcolourproject_2stim_asymm_v5,2020.2.10,MacIntel,60,61025ae37ef11b136ea224fe,,,,,,,,,3494,30.4083252,-90.8081665,1,0,0,response3disk,,4,-2.532226563,-12.28015137,1,0,0,rectangle,-2.532226563,-12.28015137,1,0,0,,,,,,,-2.532226563,-12.28015137,1,0,0,,0,121,121,34,1,
,,,,,,,,,,,,,FF,,,,,,,,0.9338,,,,,,,,,,,,,,,,,,,,,,61033da02b2a5bf215b3dc11,61036e47404f7c59f50f2f07,2021-07-29_23h13.42.308,Simcolourproject_2stim_asymm_v5,2020.2.10,MacIntel,60,61025ae37ef11b136ea224fe,,,,,,,,,938,63.75067139,38.57089233,1,0,0,response1disk,,6,-0.41394043,1.034118652,1,0,0,rectangle,-0.41394043,1.034118652,1,0,0,,,,,,,-0.41394043,1.034118652,1,0,0,,0,122,122,106,1,
,,,,,,,,,,,,,FF,,,,,,,,1.5329,,,,,,,,,,,,,,,,,,,,,,61033da02b2a5bf215b3dc11,61036e47404f7c59f50f2f07,2021-07-29_23h13.42.308,Simcolourproject_2stim_asymm_v5,2020.2.10,MacIntel,60,61025ae37ef11b136ea224fe,,,,,,,,,1065,-56.45532227,-37.72506714,1,0,0,response5disk,,2,-17.4430542,0.512207031,1,0,0,rectangle,-17.4430542,0.512207031,1,0,0,,,,,,,-17.4430542,0.512207031,1,0,0,,0,123,123,13,1,
,,,,,,,,,,,,,FF,,,,,,,,1.4825,,,,,,,,,,,,,,,,,,,,,,61033da02b2a5bf215b3dc11,61036e47404f7c59f50f2f07,2021-07-29_23h13.42.308,Simcolourproject_2stim_asymm_v5,2020.2.10,MacIntel,60,61025ae37ef11b136ea224fe,,,,,,,,,2529,-50.06713867,-41.80209351,1,0,0,response5disk,,2,-2.892150879,-7.192382813,1,0,0,rectangle,-2.892150879,-7.192382813,1,0,0,,,,,,,-2.892150879,-7.192382813,1,0,0,,0,124,124,86,1,
,,,,,,,,,,,,,FF,,,,,,,,1.2829,,,,,,,,,,,,,,,,,,,,,,61033da02b2a5bf215b3dc11,61036e47404f7c59f50f2f07,2021-07-29_23h13.42.308,Simcolourproject_2stim_asymm_v5,2020.2.10,MacIntel,60,61025ae37ef11b136ea224fe,,,,,,,,,2958,23.0098877,-76.61645508,1,0,0,response3disk,,4,-2.97668457,-11.0947876,1,0,0,rectangle,-82.39862061,75.83074951,1,0,0,response7disk_3,TRUE,1,1,"[95,184,237,93,126,293,120,65,213,112,195,81,294,235,1,251,115,246,57,169]",1.8833,-6.221374512,7.926177979,1,0,0,rectangle,0,125,125,120,1,
,,,,,,,,,,,,,FF,,,,,,,,0.9336,,,,,,,,,,,,,,,,,,,,,,61033da02b2a5bf215b3dc11,61036e47404f7c59f50f2f07,2021-07-29_23h13.42.308,Simcolourproject_2stim_asymm_v5,2020.2.10,MacIntel,60,61025ae37ef11b136ea224fe,,,,,,,,,3928,46.45007324,-23.54370117,1,0,0,response3disk,,5,-1.059143066,-9.572998047,1,0,0,rectangle,-1.059143066,-9.572998047,1,0,0,,,,,,,-1.059143066,-9.572998047,1,0,0,,0,126,126,62,1,
,,,,,,,,,,,,,FF,,,,,,,,1.3,,,,,,,,,,,,,,,,,,,,,,61033da02b2a5bf215b3dc11,61036e47404f7c59f50f2f07,2021-07-29_23h13.42.308,Simcolourproject_2stim_asymm_v5,2020.2.10,MacIntel,60,61025ae37ef11b136ea224fe,,,,,,,,,2397,24.82513428,-84.0067749,1,0,0,response3disk,,4,5.961364746,-5.575927734,1,0,0,rectangle,5.961364746,-5.575927734,1,0,0,,,,,,,5.961364746,-5.575927734,1,0,0,,0,127,127,88,1,
,,,,,,,,,,,,,FF,,,,,,,,0.9832,,,,,,,,,,,,,,,,,,,,,,61033da02b2a5bf215b3dc11,61036e47404f7c59f50f2f07,2021-07-29_23h13.42.308,Simcolourproject_2stim_asymm_v5,2020.2.10,MacIntel,60,61025ae37ef11b136ea224fe,,,,,,,,,1061,-48.84375,-80.26202393,1,0,0,response5disk,,3,-18.07940674,2.251525879,1,0,0,rectangle,-18.07940674,2.251525879,1,0,0,,,,,,,-18.07940674,2.251525879,1,0,0,,0,128,128,148,1,
,,,,,,,,,,,,,FF,,,,,,,,0.7175,,,,,,,,,,,,,,,,,,,,,,61033da02b2a5bf215b3dc11,61036e47404f7c59f50f2f07,2021-07-29_23h13.42.308,Simcolourproject_2stim_asymm_v5,2020.2.10,MacIntel,60,61025ae37ef11b136ea224fe,,,,,,,,,3567,80.12890625,-42.26751709,1,0,0,response3disk,,5,9.026855469,-9.009552002,1,0,0,rectangle,9.026855469,-9.009552002,1,0,0,,,,,,,9.026855469,-9.009552002,1,0,0,,0,129,129,20,1,
,,,,,,,,,,,,,FF,,,,,,,,0.683,,,,,,,,,,,,,,,,,,,,,,61033da02b2a5bf215b3dc11,61036e47404f7c59f50f2f07,2021-07-29_23h13.42.308,Simcolourproject_2stim_asymm_v5,2020.2.10,MacIntel,60,61025ae37ef11b136ea224fe,,,,,,,,,2349,49.58996582,-28.04025269,1,0,0,response3disk,,5,-10.44171143,-12.93493652,1,0,0,rectangle,-10.44171143,-12.93493652,1,0,0,,,,,,,-10.44171143,-12.93493652,1,0,0,,0,130,130,59,1,
,,,,,,,,,,,,,FF,,,,,,,,0.7668,,,,,,,,,,,,,,,,,,,,,,61033da02b2a5bf215b3dc11,61036e47404f7c59f50f2f07,2021-07-29_23h13.42.308,Simcolourproject_2stim_asymm_v5,2020.2.10,MacIntel,60,61025ae37ef11b136ea224fe,,,,,,,,,314,66.87921143,45.65942383,1,0,0,response1disk,,6,2.99597168,7.514953613,1,0,0,rectangle,2.99597168,7.514953613,1,0,0,,,,,,,2.99597168,7.514953613,1,0,0,,0,131,131,71,1,
,,,,,,,,,,,,,FF,,,,,,,,1.6665,,,,,,,,,,,,,,,,,,,,,,61033da02b2a5bf215b3dc11,61036e47404f7c59f50f2f07,2021-07-29_23h13.42.308,Simcolourproject_2stim_asymm_v5,2020.2.10,MacIntel,60,61025ae37ef11b136ea224fe,,,,,,,,,676,52.50048828,-25.73901367,1,0,0,response3disk,,5,-8.751281738,-3.820922852,1,0,0,rectangle,-8.751281738,-3.820922852,1,0,0,,,,,,,-8.751281738,-3.820922852,1,0,0,,0,132,132,60,1,
,,,,,,,,,,,,,FF,,,,,,,,1.3663,,,,,,,,,,,,,,,,,,,,,,61033da02b2a5bf215b3dc11,61036e47404f7c59f50f2f07,2021-07-29_23h13.42.308,Simcolourproject_2stim_asymm_v5,2020.2.10,MacIntel,60,61025ae37ef11b136ea224fe,,,,,,,,,2819,68.70465088,-40.78051758,1,0,0,response3disk,,5,-5.959228516,3.870483398,1,0,0,rectangle,-5.959228516,3.870483398,1,0,0,,,,,,,-5.959228516,3.870483398,1,0,0,,0,133,133,90,1,
,,,,,,,,,,,,,FF,,,,,,,,0.9006,,,,,,,,,,,,,,,,,,,,,,61033da02b2a5bf215b3dc11,61036e47404f7c59f50f2f07,2021-07-29_23h13.42.308,Simcolourproject_2stim_asymm_v5,2020.2.10,MacIntel,60,61025ae37ef11b136ea224fe,,,,,,,,,1990,43.26763916,28.66516113,1,0,0,response1disk,,6,-8.811462402,-9.409729004,1,0,0,rectangle,-8.811462402,-9.409729004,1,0,0,,,,,,,-8.811462402,-9.409729004,1,0,0,,0,134,134,26,1,
,,,,,,,,,,,,,FF,,,,,,,,2.7497,,,,,,,,,,,,,,,,,,,,,,61033da02b2a5bf215b3dc11,61036e47404f7c59f50f2f07,2021-07-29_23h13.42.308,Simcolourproject_2stim_asymm_v5,2020.2.10,MacIntel,60,61025ae37ef11b136ea224fe,,,,,,,,,931,58.18054199,-31.20043945,1,0,0,response3disk,,5,4.074523926,-3.016479492,1,0,0,rectangle,4.074523926,-3.016479492,1,0,0,,,,,,,4.074523926,-3.016479492,1,0,0,,0,135,135,94,1,
,,,,,,,,,,,,,FF,,,,,,,,1.4821,,,,,,,,,,,,,,,,,,,,,,61033da02b2a5bf215b3dc11,61036e47404f7c59f50f2f07,2021-07-29_23h13.42.308,Simcolourproject_2stim_asymm_v5,2020.2.10,MacIntel,60,61025ae37ef11b136ea224fe,,,,,,,,,1568,-17.17602539,-82.71466064,1,0,0,response5disk,,3,0.507324219,0.537841797,1,0,0,rectangle,0.507324219,0.537841797,1,0,0,,,,,,,0.507324219,0.537841797,1,0,0,,0,136,136,118,1,
,,,,,,,,,,,,,FF,,,,,,,,1.3008,,,,,,,,,,,,,,,,,,,,,,61033da02b2a5bf215b3dc11,61036e47404f7c59f50f2f07,2021-07-29_23h13.42.308,Simcolourproject_2stim_asymm_v5,2020.2.10,MacIntel,60,61025ae37ef11b136ea224fe,,,,,,,,,1609,-36.31341553,62.34442139,1,0,0,response7disk,,0,7.042480469,-12.79888916,1,0,0,rectangle,7.042480469,-12.79888916,1,0,0,,,,,,,7.042480469,-12.79888916,1,0,0,,0,137,137,49,1,
,,,,,,,,,,,,,FF,,,,,,,,1.5348,,,,,,,,,,,,,,,,,,,,,,61033da02b2a5bf215b3dc11,61036e47404f7c59f50f2f07,2021-07-29_23h13.42.308,Simcolourproject_2stim_asymm_v5,2020.2.10,MacIntel,60,61025ae37ef11b136ea224fe,,,,,,,,,4167,-64.75335693,-42.8192749,1,0,0,response5disk,,2,-12.39074707,16.17303467,1,0,0,rectangle,-12.39074707,16.17303467,1,0,0,,,,,,,-12.39074707,16.17303467,1,0,0,,0,138,138,61,1,
,,,,,,,,,,,,,FF,,,,,,,,0.8165,,,,,,,,,,,,,,,,,,,,,,61033da02b2a5bf215b3dc11,61036e47404f7c59f50f2f07,2021-07-29_23h13.42.308,Simcolourproject_2stim_asymm_v5,2020.2.10,MacIntel,60,61025ae37ef11b136ea224fe,,,,,,,,,3489,62.53521729,-30.20440674,1,0,0,response3disk,,5,3.850830078,11.98150635,1,0,0,rectangle,3.850830078,11.98150635,1,0,0,,,,,,,3.850830078,11.98150635,1,0,0,,0,139,139,37,1,
,,,,,,,,,,,,,FF,,,,,,,,1.067,,,,,,,,,,,,,,,,,,,,,,61033da02b2a5bf215b3dc11,61036e47404f7c59f50f2f07,2021-07-29_23h13.42.308,Simcolourproject_2stim_asymm_v5,2020.2.10,MacIntel,60,61025ae37ef11b136ea224fe,,,,,,,,,3264,36.24725342,-75.12646484,1,0,0,response3disk,,4,15.75982666,-6.034362793,1,0,0,rectangle,15.75982666,-6.034362793,1,0,0,,,,,,,15.75982666,-6.034362793,1,0,0,,0,140,140,36,1,
,,,,,,,,,,,,,FF,,,,,,,,3.3342,,,,,,,,,,,,,,,,,,,,,,61033da02b2a5bf215b3dc11,61036e47404f7c59f50f2f07,2021-07-29_23h13.42.308,Simcolourproject_2stim_asymm_v5,2020.2.10,MacIntel,60,61025ae37ef11b136ea224fe,,,,,,,,,271,-37.59613037,-69.64099121,1,0,0,response5disk,,3,-19.484375,4.55065918,1,0,0,rectangle,-19.484375,4.55065918,1,0,0,,,,,,,-19.484375,4.55065918,1,0,0,,0,141,141,15,1,
,,,,,,,,,,,,,FF,,,,,,,,0.9159,,,,,,,,,,,,,,,,,,,,,,61033da02b2a5bf215b3dc11,61036e47404f7c59f50f2f07,2021-07-29_23h13.42.308,Simcolourproject_2stim_asymm_v5,2020.2.10,MacIntel,60,61025ae37ef11b136ea224fe,,,,,,,,,3839,-51.82922363,-23.20855713,1,0,0,response5disk,,2,-25.84997559,3.820343018,1,0,0,rectangle,-25.84997559,3.820343018,1,0,0,,,,,,,-25.84997559,3.820343018,1,0,0,,0,142,142,12,1,
,,,,,,,,,,,,,FF,,,,,,,,1.2006,,,,,,,,,,,,,,,,,,,,,,61033da02b2a5bf215b3dc11,61036e47404f7c59f50f2f07,2021-07-29_23h13.42.308,Simcolourproject_2stim_asymm_v5,2020.2.10,MacIntel,60,61025ae37ef11b136ea224fe,,,,,,,,,1379,45.63586426,-80.41949463,1,0,0,response3disk,,4,3.676513672,-7.409973145,1,0,0,rectangle,3.676513672,-7.409973145,1,0,0,,,,,,,3.676513672,-7.409973145,1,0,0,,0,143,143,50,1,
,,,,,,,,,,,,,FF,,,,,,,,0.7489,,,,,,,,,,,,,,,,,,,,,,61033da02b2a5bf215b3dc11,61036e47404f7c59f50f2f07,2021-07-29_23h13.42.308,Simcolourproject_2stim_asymm_v5,2020.2.10,MacIntel,60,61025ae37ef11b136ea224fe,,,,,,,,,467,29.48675537,-65.38842773,1,0,0,response3disk,,4,2.684387207,-5.40637207,1,0,0,rectangle,2.684387207,-5.40637207,1,0,0,,,,,,,2.684387207,-5.40637207,1,0,0,,0,144,144,100,1,
,,,,,,,,,,,,,FF,,,,,,,,0.9833,,,,,,,,,,,,,,,,,,,,,,61033da02b2a5bf215b3dc11,61036e47404f7c59f50f2f07,2021-07-29_23h13.42.308,Simcolourproject_2stim_asymm_v5,2020.2.10,MacIntel,60,61025ae37ef11b136ea224fe,,,,,,,,,3671,-71.0166626,19.35275269,1,0,0,response7disk,,1,-4.518310547,-7.542175293,1,0,0,rectangle,-4.518310547,-7.542175293,1,0,0,,,,,,,-4.518310547,-7.542175293,1,0,0,,0,145,145,144,1,
,,,,,,,,,,,,,FF,,,,,,,,1.0661,,,,,,,,,,,,,,,,,,,,,,61033da02b2a5bf215b3dc11,61036e47404f7c59f50f2f07,2021-07-29_23h13.42.308,Simcolourproject_2stim_asymm_v5,2020.2.10,MacIntel,60,61025ae37ef11b136ea224fe,,,,,,,,,2888,-58.15209961,23.28710938,1,0,0,response7disk,,1,-2.29510498,4.611022949,1,0,0,rectangle,-2.29510498,4.611022949,1,0,0,,,,,,,-2.29510498,4.611022949,1,0,0,,0,146,146,101,1,
,,,,,,,,,,,,,FF,,,,,,,,0.7671,,,,,,,,,,,,,,,,,,,,,,61033da02b2a5bf215b3dc11,61036e47404f7c59f50f2f07,2021-07-29_23h13.42.308,Simcolourproject_2stim_asymm_v5,2020.2.10,MacIntel,60,61025ae37ef11b136ea224fe,,,,,,,,,1545,55.24401855,26.03155518,1,0,0,response1disk,,6,5.586120605,16.11578369,1,0,0,rectangle,5.586120605,16.11578369,1,0,0,,,,,,,5.586120605,16.11578369,1,0,0,,0,147,147,153,1,
,,,,,,,,,,,,,FF,,,,,,,,1.1334,,,,,,,,,,,,,,,,,,,,,,61033da02b2a5bf215b3dc11,61036e47404f7c59f50f2f07,2021-07-29_23h13.42.308,Simcolourproject_2stim_asymm_v5,2020.2.10,MacIntel,60,61025ae37ef11b136ea224fe,,,,,,,,,286,-57.24377441,-66.61755371,1,0,0,response5disk,,3,-24.29998779,0.724121094,1,0,0,rectangle,-24.29998779,0.724121094,1,0,0,,,,,,,-24.29998779,0.724121094,1,0,0,,0,148,148,23,1,
,,,,,,,,,,,,,FF,,,,,,,,0.7667,,,,,,,,,,,,,,,,,,,,,,61033da02b2a5bf215b3dc11,61036e47404f7c59f50f2f07,2021-07-29_23h13.42.308,Simcolourproject_2stim_asymm_v5,2020.2.10,MacIntel,60,61025ae37ef11b136ea224fe,,,,,,,,,3582,60.89093018,-47.57766724,1,0,0,response3disk,,5,13.80718994,-10.56115723,1,0,0,rectangle,13.80718994,-10.56115723,1,0,0,,,,,,,13.80718994,-10.56115723,1,0,0,,0,149,149,19,1,
,,,,,,,,,,,,,FF,,,,,,,,0.8494,,,,,,,,,,,,,,,,,,,,,,61033da02b2a5bf215b3dc11,61036e47404f7c59f50f2f07,2021-07-29_23h13.42.308,Simcolourproject_2stim_asymm_v5,2020.2.10,MacIntel,60,61025ae37ef11b136ea224fe,,,,,,,,,3249,-76.36358643,-44.48455811,1,0,0,response5disk,,2,-15.39862061,9.49130249,1,0,0,rectangle,-15.39862061,9.49130249,1,0,0,,,,,,,-15.39862061,9.49130249,1,0,0,,0,150,150,48,1,
,,,,,,,,,,,,,FF,,,,,,,,0.883,,,,,,,,,,,,,,,,,,,,,,61033da02b2a5bf215b3dc11,61036e47404f7c59f50f2f07,2021-07-29_23h13.42.308,Simcolourproject_2stim_asymm_v5,2020.2.10,MacIntel,60,61025ae37ef11b136ea224fe,,,,,,,,,881,73.56237793,-37.11752319,1,0,0,response3disk,,5,8.566223145,14.96984863,1,0,0,rectangle,8.566223145,14.96984863,1,0,0,,,,,,,8.566223145,14.96984863,1,0,0,,0,151,151,76,1,
,,,,,,,,,,,,,FF,,,,,,,,0.9994,,,,,,,,,,,,,,,,,,,,,,61033da02b2a5bf215b3dc11,61036e47404f7c59f50f2f07,2021-07-29_23h13.42.308,Simcolourproject_2stim_asymm_v5,2020.2.10,MacIntel,60,61025ae37ef11b136ea224fe,,,,,,,,,2469,39.15325928,53.42718506,1,0,0,response1disk,,7,8.863769531,-11.40731812,1,0,0,rectangle,8.863769531,-11.40731812,1,0,0,,,,,,,8.863769531,-11.40731812,1,0,0,,0,152,152,141,1,
,,,,,,,,,,,,,FF,,,,,,,,1.0338,,,,,,,,,,,,,,,,,,,,,,61033da02b2a5bf215b3dc11,61036e47404f7c59f50f2f07,2021-07-29_23h13.42.308,Simcolourproject_2stim_asymm_v5,2020.2.10,MacIntel,60,61025ae37ef11b136ea224fe,,,,,,,,,4006,-22.87127686,-70.13183594,1,0,0,response5disk,,3,-17.60101318,1.16506958,1,0,0,rectangle,-17.60101318,1.16506958,1,0,0,,,,,,,-17.60101318,1.16506958,1,0,0,,0,153,153,51,1,
,,,,,,,,,,,,,FF,,,,,,,,2.4992,,,,,,,,,,,,,,,,,,,,,,61033da02b2a5bf215b3dc11,61036e47404f7c59f50f2f07,2021-07-29_23h13.42.308,Simcolourproject_2stim_asymm_v5,2020.2.10,MacIntel,60,61025ae37ef11b136ea224fe,,,,,,,,,334,-43.37994385,-62.60089111,1,0,0,response5disk,,3,-13.25592041,4.195098877,1,0,0,rectangle,-13.25592041,4.195098877,1,0,0,,,,,,,-13.25592041,4.195098877,1,0,0,,0,154,154,2,1,
,,,,,,,,,,,,,FF,,,,,,,,1.634,,,,,,,,,,,,,,,,,,,,,,61033da02b2a5bf215b3dc11,61036e47404f7c59f50f2f07,2021-07-29_23h13.42.308,Simcolourproject_2stim_asymm_v5,2020.2.10,MacIntel,60,61025ae37ef11b136ea224fe,,,,,,,,,2434,28.82489014,-109.2647095,1,0,0,response3disk,,4,-6.469238281,-8.727172852,1,0,0,rectangle,-6.469238281,-8.727172852,1,0,0,,,,,,,-6.469238281,-8.727172852,1,0,0,,0,155,155,112,1,
,,,,,,,,,,,,,FF,,,,,,,,1.1838,,,,,,,,,,,,,,,,,,,,,,61033da02b2a5bf215b3dc11,61036e47404f7c59f50f2f07,2021-07-29_23h13.42.308,Simcolourproject_2stim_asymm_v5,2020.2.10,MacIntel,60,61025ae37ef11b136ea224fe,,,,,,,,,3984,47.44000244,65.46078491,1,0,0,response1disk,,7,24.04852295,11.11096191,1,0,0,rectangle,24.04852295,11.11096191,1,0,0,,,,,,,24.04852295,11.11096191,1,0,0,,0,156,156,131,1,
,,,,,,,,,,,,,FF,,,,,,,,1.3677,,,,,,,,,,,,,,,,,,,,,,61033da02b2a5bf215b3dc11,61036e47404f7c59f50f2f07,2021-07-29_23h13.42.308,Simcolourproject_2stim_asymm_v5,2020.2.10,MacIntel,60,61025ae37ef11b136ea224fe,,,,,,,,,2886,-33.55352783,64.4354248,1,0,0,response7disk,,0,-3.62677002,4.354248047,1,0,0,rectangle,-3.62677002,4.354248047,1,0,0,,,,,,,-3.62677002,4.354248047,1,0,0,,0,157,157,140,1,
,,,,,,,,,,,,,FF,,,,,,,,1.0506,,,,,,,,,,,,,,,,,,,,,,61033da02b2a5bf215b3dc11,61036e47404f7c59f50f2f07,2021-07-29_23h13.42.308,Simcolourproject_2stim_asymm_v5,2020.2.10,MacIntel,60,61025ae37ef11b136ea224fe,,,,,,,,,2454,26.39459229,-73.8182373,1,0,0,response3disk,,4,-0.967346191,-17.6723938,1,0,0,rectangle,-0.967346191,-17.6723938,1,0,0,,,,,,,-0.967346191,-17.6723938,1,0,0,,0,158,158,73,1,
,,,,,,,,,,,,,FF,,,,,,,,0.867,,,,,,,,,,,,,,,,,,,,,,61033da02b2a5bf215b3dc11,61036e47404f7c59f50f2f07,2021-07-29_23h13.42.308,Simcolourproject_2stim_asymm_v5,2020.2.10,MacIntel,60,61025ae37ef11b136ea224fe,,,,,,,,,833,69.23815918,-33.48028564,1,0,0,response3disk,,5,9.684143066,1.066711426,1,0,0,rectangle,9.684143066,1.066711426,1,0,0,,,,,,,9.684143066,1.066711426,1,0,0,,0,159,159,3,1,
,,,,,,,,,,,,,FF,,,,,,,,1.1163,,,,,,,,,,,,,,,,,,,,,,61033da02b2a5bf215b3dc11,61036e47404f7c59f50f2f07,2021-07-29_23h13.42.308,Simcolourproject_2stim_asymm_v5,2020.2.10,MacIntel,60,61025ae37ef11b136ea224fe,,,,,,,,,1152,-70.85168457,-56.3079834,1,0,0,response5disk,,2,-20.78930664,-17.75967407,1,0,0,rectangle,-20.78930664,-17.75967407,1,0,0,,,,,,,-20.78930664,-17.75967407,1,0,0,,1,0,160,22,1,
,,,,,,,,,,,,,FF,,,,,,,,0.8158,,,,,,,,,,,,,,,,,,,,,,61033da02b2a5bf215b3dc11,61036e47404f7c59f50f2f07,2021-07-29_23h13.42.308,Simcolourproject_2stim_asymm_v5,2020.2.10,MacIntel,60,61025ae37ef11b136ea224fe,,,,,,,,,3680,25.34924316,-68.6776123,1,0,0,response3disk,,4,15.55029297,15.7616272,1,0,0,rectangle,15.55029297,15.7616272,1,0,0,,,,,,,15.55029297,15.7616272,1,0,0,,1,1,161,126,1,
,,,,,,,,,,,,,FF,,,,,,,,0.9502,,,,,,,,,,,,,,,,,,,,,,61033da02b2a5bf215b3dc11,61036e47404f7c59f50f2f07,2021-07-29_23h13.42.308,Simcolourproject_2stim_asymm_v5,2020.2.10,MacIntel,60,61025ae37ef11b136ea224fe,,,,,,,,,2699,58.23101807,21.77008057,1,0,0,response1disk,,6,18.16650391,15.48284912,1,0,0,rectangle,18.16650391,15.48284912,1,0,0,,,,,,,18.16650391,15.48284912,1,0,0,,1,2,162,2,1,
,,,,,,,,,,,,,FF,,,,,,,,1.0834,,,,,,,,,,,,,,,,,,,,,,61033da02b2a5bf215b3dc11,61036e47404f7c59f50f2f07,2021-07-29_23h13.42.308,Simcolourproject_2stim_asymm_v5,2020.2.10,MacIntel,60,61025ae37ef11b136ea224fe,,,,,,,,,3328,-61.12310791,-78.66345215,1,0,0,response5disk,,3,-15.97912598,-8.275878906,1,0,0,rectangle,-15.97912598,-8.275878906,1,0,0,,,,,,,-15.97912598,-8.275878906,1,0,0,,1,3,163,81,1,
,,,,,,,,,,,,,FF,,,,,,,,0.9667,,,,,,,,,,,,,,,,,,,,,,61033da02b2a5bf215b3dc11,61036e47404f7c59f50f2f07,2021-07-29_23h13.42.308,Simcolourproject_2stim_asymm_v5,2020.2.10,MacIntel,60,61025ae37ef11b136ea224fe,,,,,,,,,3205,-40.80725098,-59.86508179,1,0,0,response5disk,,3,-8.982788086,-7.953552246,1,0,0,rectangle,-8.982788086,-7.953552246,1,0,0,,,,,,,-8.982788086,-7.953552246,1,0,0,,1,4,164,112,1,
,,,,,,,,,,,,,FF,,,,,,,,0.818,,,,,,,,,,,,,,,,,,,,,,61033da02b2a5bf215b3dc11,61036e47404f7c59f50f2f07,2021-07-29_23h13.42.308,Simcolourproject_2stim_asymm_v5,2020.2.10,MacIntel,60,61025ae37ef11b136ea224fe,,,,,,,,,1261,52.48370361,-30.79272461,1,0,0,response3disk,,5,0.983581543,3.401397705,1,0,0,rectangle,0.983581543,3.401397705,1,0,0,,,,,,,0.983581543,3.401397705,1,0,0,,1,5,165,24,1,
,,,,,,,,,,,,,FF,,,,,,,,1.9996,,,,,,,,,,,,,,,,,,,,,,61033da02b2a5bf215b3dc11,61036e47404f7c59f50f2f07,2021-07-29_23h13.42.308,Simcolourproject_2stim_asymm_v5,2020.2.10,MacIntel,60,61025ae37ef11b136ea224fe,,,,,,,,,4065,-16.22137451,-80.76312256,1,0,0,response5disk,,3,-0.199829102,-0.675476074,1,0,0,rectangle,-0.199829102,-0.675476074,1,0,0,,,,,,,-0.199829102,-0.675476074,1,0,0,,1,6,166,136,1,
,,,,,,,,,,,,,FF,,,,,,,,0.8502,,,,,,,,,,,,,,,,,,,,,,61033da02b2a5bf215b3dc11,61036e47404f7c59f50f2f07,2021-07-29_23h13.42.308,Simcolourproject_2stim_asymm_v5,2020.2.10,MacIntel,60,61025ae37ef11b136ea224fe,,,,,,,,,549,-64.24121094,17.45489502,1,0,0,response7disk,,1,3.977233887,-4.679870605,1,0,0,rectangle,3.977233887,-4.679870605,1,0,0,,,,,,,3.977233887,-4.679870605,1,0,0,,1,7,167,9,1,
,,,,,,,,,,,,,FF,,,,,,,,0.8831,,,,,,,,,,,,,,,,,,,,,,61033da02b2a5bf215b3dc11,61036e47404f7c59f50f2f07,2021-07-29_23h13.42.308,Simcolourproject_2stim_asymm_v5,2020.2.10,MacIntel,60,61025ae37ef11b136ea224fe,,,,,,,,,799,56.7456665,-29.49328613,1,0,0,response3disk,,5,28.73760986,16.80941772,1,0,0,rectangle,39.59515381,-119.9422607,1,0,0,response3disk_3,TRUE,4,4,"[95,184,237,93,126,293,120,65,213,112,195,81,294,235,1,251,115,246,57,169]",1.8501,-9.729980469,-8.824707031,1,0,0,rectangle,1,8,168,121,1,
,,,,,,,,,,,,,FF,,,,,,,,1,,,,,,,,,,,,,,,,,,,,,,61033da02b2a5bf215b3dc11,61036e47404f7c59f50f2f07,2021-07-29_23h13.42.308,Simcolourproject_2stim_asymm_v5,2020.2.10,MacIntel,60,61025ae37ef11b136ea224fe,,,,,,,,,2981,-91.9453125,-43.26086426,1,0,0,response5disk,,2,4.402832031,-7.57598877,1,0,0,rectangle,4.402832031,-7.57598877,1,0,0,,,,,,,4.402832031,-7.57598877,1,0,0,,1,9,169,82,1,
,,,,,,,,,,,,,FF,,,,,,,,1.1339,,,,,,,,,,,,,,,,,,,,,,61033da02b2a5bf215b3dc11,61036e47404f7c59f50f2f07,2021-07-29_23h13.42.308,Simcolourproject_2stim_asymm_v5,2020.2.10,MacIntel,60,61025ae37ef11b136ea224fe,,,,,,,,,2132,68.21514893,-18.04083252,1,0,0,response3disk,,5,18.7177124,-3.556213379,1,0,0,rectangle,18.7177124,-3.556213379,1,0,0,,,,,,,18.7177124,-3.556213379,1,0,0,,1,10,170,15,1,
,,,,,,,,,,,,,FF,,,,,,,,1.0845,,,,,,,,,,,,,,,,,,,,,,61033da02b2a5bf215b3dc11,61036e47404f7c59f50f2f07,2021-07-29_23h13.42.308,Simcolourproject_2stim_asymm_v5,2020.2.10,MacIntel,60,61025ae37ef11b136ea224fe,,,,,,,,,2249,-111.1151733,-55.03286743,1,0,0,response5disk,,2,-1.158447266,-10.77636719,1,0,0,rectangle,-1.158447266,-10.77636719,1,0,0,,,,,,,-1.158447266,-10.77636719,1,0,0,,1,11,171,125,1,
,,,,,,,,,,,,,FF,,,,,,,,0.8999,,,,,,,,,,,,,,,,,,,,,,61033da02b2a5bf215b3dc11,61036e47404f7c59f50f2f07,2021-07-29_23h13.42.308,Simcolourproject_2stim_asymm_v5,2020.2.10,MacIntel,60,61025ae37ef11b136ea224fe,,,,,,,,,396,43.42785645,-85.33538818,1,0,0,response3disk,,4,0.690551758,-13.62588501,1,0,0,rectangle,0.690551758,-13.62588501,1,0,0,,,,,,,0.690551758,-13.62588501,1,0,0,,1,12,172,146,1,
,,,,,,,,,,,,,FF,,,,,,,,1.0672,,,,,,,,,,,,,,,,,,,,,,61033da02b2a5bf215b3dc11,61036e47404f7c59f50f2f07,2021-07-29_23h13.42.308,Simcolourproject_2stim_asymm_v5,2020.2.10,MacIntel,60,61025ae37ef11b136ea224fe,,,,,,,,,1391,66.99591064,-43.24194336,1,0,0,response3disk,,5,-12.96191406,-9.125244141,1,0,0,rectangle,-12.96191406,-9.125244141,1,0,0,,,,,,,-12.96191406,-9.125244141,1,0,0,,1,13,173,94,1,
,,,,,,,,,,,,,FF,,,,,,,,1.4994,,,,,,,,,,,,,,,,,,,,,,61033da02b2a5bf215b3dc11,61036e47404f7c59f50f2f07,2021-07-29_23h13.42.308,Simcolourproject_2stim_asymm_v5,2020.2.10,MacIntel,60,61025ae37ef11b136ea224fe,,,,,,,,,3407,57.9666748,17.05038452,1,0,0,response1disk,,6,2.869689941,-2.090454102,1,0,0,rectangle,2.869689941,-2.090454102,1,0,0,,,,,,,2.869689941,-2.090454102,1,0,0,,1,14,174,21,1,
,,,,,,,,,,,,,FF,,,,,,,,1.3501,,,,,,,,,,,,,,,,,,,,,,61033da02b2a5bf215b3dc11,61036e47404f7c59f50f2f07,2021-07-29_23h13.42.308,Simcolourproject_2stim_asymm_v5,2020.2.10,MacIntel,60,61025ae37ef11b136ea224fe,,,,,,,,,3861,-70.97692871,-41.46118164,1,0,0,response5disk,,2,-7.15246582,-7.667205811,1,0,0,rectangle,-7.15246582,-7.667205811,1,0,0,,,,,,,-7.15246582,-7.667205811,1,0,0,,1,15,175,45,1,
,,,,,,,,,,,,,FF,,,,,,,,0.9999,,,,,,,,,,,,,,,,,,,,,,61033da02b2a5bf215b3dc11,61036e47404f7c59f50f2f07,2021-07-29_23h13.42.308,Simcolourproject_2stim_asymm_v5,2020.2.10,MacIntel,60,61025ae37ef11b136ea224fe,,,,,,,,,2398,63.04602051,31.5007019,1,0,0,response1disk,,6,-9.364746094,-9.598571777,1,0,0,rectangle,-9.364746094,-9.598571777,1,0,0,,,,,,,-9.364746094,-9.598571777,1,0,0,,1,16,176,68,1,
,,,,,,,,,,,,,FF,,,,,,,,1.033,,,,,,,,,,,,,,,,,,,,,,61033da02b2a5bf215b3dc11,61036e47404f7c59f50f2f07,2021-07-29_23h13.42.308,Simcolourproject_2stim_asymm_v5,2020.2.10,MacIntel,60,61025ae37ef11b136ea224fe,,,,,,,,,2439,60.33905029,-29.76678467,1,0,0,response3disk,,5,19.52301025,-3.414001465,1,0,0,rectangle,19.52301025,-3.414001465,1,0,0,,,,,,,19.52301025,-3.414001465,1,0,0,,1,17,177,143,1,
,,,,,,,,,,,,,FF,,,,,,,,0.7836,,,,,,,,,,,,,,,,,,,,,,61033da02b2a5bf215b3dc11,61036e47404f7c59f50f2f07,2021-07-29_23h13.42.308,Simcolourproject_2stim_asymm_v5,2020.2.10,MacIntel,60,61025ae37ef11b136ea224fe,,,,,,,,,359,43.63690186,-72.04101563,1,0,0,response3disk,,4,20.51446533,-3.729248047,1,0,0,rectangle,20.51446533,-3.729248047,1,0,0,,,,,,,20.51446533,-3.729248047,1,0,0,,1,18,178,116,1,
,,,,,,,,,,,,,FF,,,,,,,,1.2833,,,,,,,,,,,,,,,,,,,,,,61033da02b2a5bf215b3dc11,61036e47404f7c59f50f2f07,2021-07-29_23h13.42.308,Simcolourproject_2stim_asymm_v5,2020.2.10,MacIntel,60,61025ae37ef11b136ea224fe,,,,,,,,,3518,-55.19647217,-37.02478027,1,0,0,response5disk,,2,-12.96520996,-9.964935303,1,0,0,rectangle,-12.96520996,-9.964935303,1,0,0,,,,,,,-12.96520996,-9.964935303,1,0,0,,1,19,179,95,1,
,,,,,,,,,,,,,FF,,,,,,,,0.9334,,,,,,,,,,,,,,,,,,,,,,61033da02b2a5bf215b3dc11,61036e47404f7c59f50f2f07,2021-07-29_23h13.42.308,Simcolourproject_2stim_asymm_v5,2020.2.10,MacIntel,60,61025ae37ef11b136ea224fe,,,,,,,,,302,54.09674072,-26.31317139,1,0,0,response3disk,,5,13.73059082,8.251434326,1,0,0,rectangle,13.73059082,8.251434326,1,0,0,,,,,,,13.73059082,8.251434326,1,0,0,,1,20,180,159,1,
,,,,,,,,,,,,,FF,,,,,,,,1.0496,,,,,,,,,,,,,,,,,,,,,,61033da02b2a5bf215b3dc11,61036e47404f7c59f50f2f07,2021-07-29_23h13.42.308,Simcolourproject_2stim_asymm_v5,2020.2.10,MacIntel,60,61025ae37ef11b136ea224fe,,,,,,,,,691,36.94946289,-50.92037964,1,0,0,response3disk,,4,15.75872803,-8.622192383,1,0,0,rectangle,15.75872803,-8.622192383,1,0,0,,,,,,,15.75872803,-8.622192383,1,0,0,,1,21,181,89,1,
,,,,,,,,,,,,,FF,,,,,,,,1.1161,,,,,,,,,,,,,,,,,,,,,,61033da02b2a5bf215b3dc11,61036e47404f7c59f50f2f07,2021-07-29_23h13.42.308,Simcolourproject_2stim_asymm_v5,2020.2.10,MacIntel,60,61025ae37ef11b136ea224fe,,,,,,,,,316,86.69055176,27.51928711,1,0,0,response1disk,,6,13.75152588,-4.429321289,1,0,0,rectangle,13.75152588,-4.429321289,1,0,0,,,,,,,13.75152588,-4.429321289,1,0,0,,1,22,182,141,1,
,,,,,,,,,,,,,FF,,,,,,,,0.9157,,,,,,,,,,,,,,,,,,,,,,61033da02b2a5bf215b3dc11,61036e47404f7c59f50f2f07,2021-07-29_23h13.42.308,Simcolourproject_2stim_asymm_v5,2020.2.10,MacIntel,60,61025ae37ef11b136ea224fe,,,,,,,,,376,41.3895874,-65.31304932,1,0,0,response3disk,,4,2.320983887,-9.993408203,1,0,0,rectangle,-92.99420166,47.29754639,1,0,0,response7disk_3,TRUE,1,1,"[95,184,237,93,126,293,120,65,213,112,195,81,294,235,1,251,115,246,57,169]",1.1671,-18.3651123,8.670166016,1,0,0,rectangle,1,23,183,48,1,
,,,,,,,,,,,,,FF,,,,,,,,1.0006,,,,,,,,,,,,,,,,,,,,,,61033da02b2a5bf215b3dc11,61036e47404f7c59f50f2f07,2021-07-29_23h13.42.308,Simcolourproject_2stim_asymm_v5,2020.2.10,MacIntel,60,61025ae37ef11b136ea224fe,,,,,,,,,1796,77.16046143,-22.63635254,1,0,0,response3disk,,5,7.711608887,-6.449645996,1,0,0,rectangle,7.711608887,-6.449645996,1,0,0,,,,,,,7.711608887,-6.449645996,1,0,0,,1,24,184,28,1,
,,,,,,,,,,,,,FF,,,,,,,,1.1494,,,,,,,,,,,,,,,,,,,,,,61033da02b2a5bf215b3dc11,61036e47404f7c59f50f2f07,2021-07-29_23h13.42.308,Simcolourproject_2stim_asymm_v5,2020.2.10,MacIntel,60,61025ae37ef11b136ea224fe,,,,,,,,,3870,-48.57556152,-63.29681396,1,0,0,response5disk,,3,-10.70098877,3.057403564,1,0,0,rectangle,-10.70098877,3.057403564,1,0,0,,,,,,,-10.70098877,3.057403564,1,0,0,,1,25,185,135,1,
,,,,,,,,,,,,,FF,,,,,,,,0.8668,,,,,,,,,,,,,,,,,,,,,,61033da02b2a5bf215b3dc11,61036e47404f7c59f50f2f07,2021-07-29_23h13.42.308,Simcolourproject_2stim_asymm_v5,2020.2.10,MacIntel,60,61025ae37ef11b136ea224fe,,,,,,,,,2139,74.47460938,57.22747803,1,0,0,response1disk,,6,22.3404541,16.68585205,1,0,0,rectangle,22.3404541,16.68585205,1,0,0,,,,,,,22.3404541,16.68585205,1,0,0,,1,26,186,130,1,
,,,,,,,,,,,,,FF,,,,,,,,1.1665,,,,,,,,,,,,,,,,,,,,,,61033da02b2a5bf215b3dc11,61036e47404f7c59f50f2f07,2021-07-29_23h13.42.308,Simcolourproject_2stim_asymm_v5,2020.2.10,MacIntel,60,61025ae37ef11b136ea224fe,,,,,,,,,3185,70.41333008,42.2355957,1,0,0,response1disk,,6,-2.294616699,-16.62957764,1,0,0,rectangle,-2.294616699,-16.62957764,1,0,0,,,,,,,-2.294616699,-16.62957764,1,0,0,,1,27,187,65,1,
,,,,,,,,,,,,,FF,,,,,,,,1.0487,,,,,,,,,,,,,,,,,,,,,,61033da02b2a5bf215b3dc11,61036e47404f7c59f50f2f07,2021-07-29_23h13.42.308,Simcolourproject_2stim_asymm_v5,2020.2.10,MacIntel,60,61025ae37ef11b136ea224fe,,,,,,,,,2257,45.62341309,-54.28222656,1,0,0,response3disk,,4,0.960083008,3.695983887,1,0,0,rectangle,0.960083008,3.695983887,1,0,0,,,,,,,0.960083008,3.695983887,1,0,0,,1,28,188,32,1,
,,,,,,,,,,,,,FF,,,,,,,,0.7506,,,,,,,,,,,,,,,,,,,,,,61033da02b2a5bf215b3dc11,61036e47404f7c59f50f2f07,2021-07-29_23h13.42.308,Simcolourproject_2stim_asymm_v5,2020.2.10,MacIntel,60,61025ae37ef11b136ea224fe,,,,,,,,,2546,-62.13458252,-34.03231812,1,0,0,response5disk,,2,-31.07958984,-5.891143799,1,0,0,rectangle,-31.07958984,-5.891143799,1,0,0,,,,,,,-31.07958984,-5.891143799,1,0,0,,1,29,189,0,1,
,,,,,,,,,,,,,FF,,,,,,,,1.333,,,,,,,,,,,,,,,,,,,,,,61033da02b2a5bf215b3dc11,61036e47404f7c59f50f2f07,2021-07-29_23h13.42.308,Simcolourproject_2stim_asymm_v5,2020.2.10,MacIntel,60,61025ae37ef11b136ea224fe,,,,,,,,,3719,-25.77636719,-76.53491211,1,0,0,response5disk,,3,-3.658935547,15.76657104,1,0,0,rectangle,-3.658935547,15.76657104,1,0,0,,,,,,,-3.658935547,15.76657104,1,0,0,,1,30,190,140,1,
,,,,,,,,,,,,,FF,,,,,,,,0.8834,,,,,,,,,,,,,,,,,,,,,,61033da02b2a5bf215b3dc11,61036e47404f7c59f50f2f07,2021-07-29_23h13.42.308,Simcolourproject_2stim_asymm_v5,2020.2.10,MacIntel,60,61025ae37ef11b136ea224fe,,,,,,,,,1622,74.8404541,40.26580811,1,0,0,response1disk,,6,6.876464844,4.784484863,1,0,0,rectangle,6.876464844,4.784484863,1,0,0,,,,,,,6.876464844,4.784484863,1,0,0,,1,31,191,17,1,
,,,,,,,,,,,,,FF,,,,,,,,0.884,,,,,,,,,,,,,,,,,,,,,,61033da02b2a5bf215b3dc11,61036e47404f7c59f50f2f07,2021-07-29_23h13.42.308,Simcolourproject_2stim_asymm_v5,2020.2.10,MacIntel,60,61025ae37ef11b136ea224fe,,,,,,,,,318,55.8782959,21.87670898,1,0,0,response1disk,,6,22.04498291,-2.053527832,1,0,0,rectangle,22.04498291,-2.053527832,1,0,0,,,,,,,22.04498291,-2.053527832,1,0,0,,1,32,192,85,1,
,,,,,,,,,,,,,FF,,,,,,,,0.967,,,,,,,,,,,,,,,,,,,,,,61033da02b2a5bf215b3dc11,61036e47404f7c59f50f2f07,2021-07-29_23h13.42.308,Simcolourproject_2stim_asymm_v5,2020.2.10,MacIntel,60,61025ae37ef11b136ea224fe,,,,,,,,,3563,25.46685791,-68.66516113,1,0,0,response3disk,,4,-12.74890137,-8.450561523,1,0,0,rectangle,-12.74890137,-8.450561523,1,0,0,,,,,,,-12.74890137,-8.450561523,1,0,0,,1,33,193,96,1,
,,,,,,,,,,,,,FF,,,,,,,,0.8341,,,,,,,,,,,,,,,,,,,,,,61033da02b2a5bf215b3dc11,61036e47404f7c59f50f2f07,2021-07-29_23h13.42.308,Simcolourproject_2stim_asymm_v5,2020.2.10,MacIntel,60,61025ae37ef11b136ea224fe,,,,,,,,,2995,-49.16662598,-31.1842041,1,0,0,response5disk,,2,-6.953552246,-5.474243164,1,0,0,rectangle,-83.25811768,-39.2119751,1,0,0,response5disk_3,TRUE,2,2,"[95,184,237,93,126,293,120,65,213,112,195,81,294,235,1,251,115,246,57,169]",1.3002,-24.96875,-5.706329346,1,0,0,rectangle,1,34,194,38,1,
,,,,,,,,,,,,,FF,,,,,,,,0.7167,,,,,,,,,,,,,,,,,,,,,,61033da02b2a5bf215b3dc11,61036e47404f7c59f50f2f07,2021-07-29_23h13.42.308,Simcolourproject_2stim_asymm_v5,2020.2.10,MacIntel,60,61025ae37ef11b136ea224fe,,,,,,,,,3189,-57.92614746,-23.33312988,1,0,0,response5disk,,2,-25.62927246,-1.39276123,1,0,0,rectangle,-25.62927246,-1.39276123,1,0,0,,,,,,,-25.62927246,-1.39276123,1,0,0,,1,35,195,150,1,
,,,,,,,,,,,,,FF,,,,,,,,0.6837,,,,,,,,,,,,,,,,,,,,,,61033da02b2a5bf215b3dc11,61036e47404f7c59f50f2f07,2021-07-29_23h13.42.308,Simcolourproject_2stim_asymm_v5,2020.2.10,MacIntel,60,61025ae37ef11b136ea224fe,,,,,,,,,841,86.65570068,-30.30712891,1,0,0,response3disk,,5,-21.61566162,-17.31799316,1,0,0,rectangle,-21.61566162,-17.31799316,1,0,0,,,,,,,-21.61566162,-17.31799316,1,0,0,,1,36,196,43,1,
,,,,,,,,,,,,,FF,,,,,,,,0.9669,,,,,,,,,,,,,,,,,,,,,,61033da02b2a5bf215b3dc11,61036e47404f7c59f50f2f07,2021-07-29_23h13.42.308,Simcolourproject_2stim_asymm_v5,2020.2.10,MacIntel,60,61025ae37ef11b136ea224fe,,,,,,,,,791,-43.13214111,-97.64074707,1,0,0,response5disk,,3,14.11791992,13.12536621,1,0,0,rectangle,14.11791992,13.12536621,1,0,0,,,,,,,14.11791992,13.12536621,1,0,0,,1,37,197,19,1,
,,,,,,,,,,,,,FF,,,,,,,,0.6832,,,,,,,,,,,,,,,,,,,,,,61033da02b2a5bf215b3dc11,61036e47404f7c59f50f2f07,2021-07-29_23h13.42.308,Simcolourproject_2stim_asymm_v5,2020.2.10,MacIntel,60,61025ae37ef11b136ea224fe,,,,,,,,,572,83.45782471,-30.27770996,1,0,0,response3disk,,5,14.50085449,-3.506500244,1,0,0,rectangle,14.50085449,-3.506500244,1,0,0,,,,,,,14.50085449,-3.506500244,1,0,0,,1,38,198,53,1,
,,,,,,,,,,,,,FF,,,,,,,,1.1994,,,,,,,,,,,,,,,,,,,,,,61033da02b2a5bf215b3dc11,61036e47404f7c59f50f2f07,2021-07-29_23h13.42.308,Simcolourproject_2stim_asymm_v5,2020.2.10,MacIntel,60,61025ae37ef11b136ea224fe,,,,,,,,,935,36.65081787,-53.07995605,1,0,0,response3disk,,4,-2.560974121,-0.669494629,1,0,0,rectangle,-2.560974121,-0.669494629,1,0,0,,,,,,,-2.560974121,-0.669494629,1,0,0,,1,39,199,92,1,
,,,,,,,,,,,,,FF,,,,,,,,0.734,,,,,,,,,,,,,,,,,,,,,,61033da02b2a5bf215b3dc11,61036e47404f7c59f50f2f07,2021-07-29_23h13.42.308,Simcolourproject_2stim_asymm_v5,2020.2.10,MacIntel,60,61025ae37ef11b136ea224fe,,,,,,,,,4007,71.86895752,28.60375977,1,0,0,response1disk,,6,17.68084717,-9.358947754,1,0,0,rectangle,17.68084717,-9.358947754,1,0,0,,,,,,,17.68084717,-9.358947754,1,0,0,,1,40,200,90,1,
,,,,,,,,,,,,,FF,,,,,,,,0.8669,,,,,,,,,,,,,,,,,,,,,,61033da02b2a5bf215b3dc11,61036e47404f7c59f50f2f07,2021-07-29_23h13.42.308,Simcolourproject_2stim_asymm_v5,2020.2.10,MacIntel,60,61025ae37ef11b136ea224fe,,,,,,,,,1276,-26.5635376,-69.70129395,1,0,0,response5disk,,3,-16.33135986,-14.7557373,1,0,0,rectangle,-16.33135986,-14.7557373,1,0,0,,,,,,,-16.33135986,-14.7557373,1,0,0,,1,41,201,44,1,
,,,,,,,,,,,,,FF,,,,,,,,0.7837,,,,,,,,,,,,,,,,,,,,,,61033da02b2a5bf215b3dc11,61036e47404f7c59f50f2f07,2021-07-29_23h13.42.308,Simcolourproject_2stim_asymm_v5,2020.2.10,MacIntel,60,61025ae37ef11b136ea224fe,,,,,,,,,312,50.61010742,-30.28240967,1,0,0,response3disk,,5,-4.735229492,-11.33618164,1,0,0,rectangle,-4.735229492,-11.33618164,1,0,0,,,,,,,-4.735229492,-11.33618164,1,0,0,,1,42,202,20,1,
,,,,,,,,,,,,,FF,,,,,,,,0.9339,,,,,,,,,,,,,,,,,,,,,,61033da02b2a5bf215b3dc11,61036e47404f7c59f50f2f07,2021-07-29_23h13.42.308,Simcolourproject_2stim_asymm_v5,2020.2.10,MacIntel,60,61025ae37ef11b136ea224fe,,,,,,,,,464,51.13928223,-75.20050049,1,0,0,response3disk,,4,0.640563965,-12.41781616,1,0,0,rectangle,0.640563965,-12.41781616,1,0,0,,,,,,,0.640563965,-12.41781616,1,0,0,,1,43,203,157,1,
,,,,,,,,,,,,,FF,,,,,,,,0.8334,,,,,,,,,,,,,,,,,,,,,,61033da02b2a5bf215b3dc11,61036e47404f7c59f50f2f07,2021-07-29_23h13.42.308,Simcolourproject_2stim_asymm_v5,2020.2.10,MacIntel,60,61025ae37ef11b136ea224fe,,,,,,,,,155,-39.97229004,-93.90942383,1,0,0,response5disk,,3,-10.5491333,1.317260742,1,0,0,rectangle,-10.5491333,1.317260742,1,0,0,,,,,,,-10.5491333,1.317260742,1,0,0,,1,44,204,62,1,
,,,,,,,,,,,,,FF,,,,,,,,0.7998,,,,,,,,,,,,,,,,,,,,,,61033da02b2a5bf215b3dc11,61036e47404f7c59f50f2f07,2021-07-29_23h13.42.308,Simcolourproject_2stim_asymm_v5,2020.2.10,MacIntel,60,61025ae37ef11b136ea224fe,,,,,,,,,4015,69.96697998,-36.33352661,1,0,0,response3disk,,5,0.232788086,6.15637207,1,0,0,rectangle,0.232788086,6.15637207,1,0,0,,,,,,,0.232788086,6.15637207,1,0,0,,1,45,205,119,1,
,,,,,,,,,,,,,FF,,,,,,,,2.3837,,,,,,,,,,,,,,,,,,,,,,61033da02b2a5bf215b3dc11,61036e47404f7c59f50f2f07,2021-07-29_23h13.42.308,Simcolourproject_2stim_asymm_v5,2020.2.10,MacIntel,60,61025ae37ef11b136ea224fe,,,,,,,,,2314,38.11071777,-69.67706299,1,0,0,response3disk,,4,16.88189697,-12.83496094,1,0,0,rectangle,16.88189697,-12.83496094,1,0,0,,,,,,,16.88189697,-12.83496094,1,0,0,,1,46,206,134,1,
,,,,,,,,,,,,,FF,,,,,,,,0.7677,,,,,,,,,,,,,,,,,,,,,,61033da02b2a5bf215b3dc11,61036e47404f7c59f50f2f07,2021-07-29_23h13.42.308,Simcolourproject_2stim_asymm_v5,2020.2.10,MacIntel,60,61025ae37ef11b136ea224fe,,,,,,,,,7,-64.03973389,-43.78814697,1,0,0,response5disk,,2,-27.24993896,-8.651397705,1,0,0,rectangle,-27.24993896,-8.651397705,1,0,0,,,,,,,-27.24993896,-8.651397705,1,0,0,,1,47,207,107,1,
,,,,,,,,,,,,,FF,,,,,,,,0.7169,,,,,,,,,,,,,,,,,,,,,,61033da02b2a5bf215b3dc11,61036e47404f7c59f50f2f07,2021-07-29_23h13.42.308,Simcolourproject_2stim_asymm_v5,2020.2.10,MacIntel,60,61025ae37ef11b136ea224fe,,,,,,,,,1003,60.35430908,-37.54208374,1,0,0,response3disk,,5,10.63983154,-6.975708008,1,0,0,rectangle,10.63983154,-6.975708008,1,0,0,,,,,,,10.63983154,-6.975708008,1,0,0,,1,48,208,103,1,
,,,,,,,,,,,,,FF,,,,,,,,0.8828,,,,,,,,,,,,,,,,,,,,,,61033da02b2a5bf215b3dc11,61036e47404f7c59f50f2f07,2021-07-29_23h13.42.308,Simcolourproject_2stim_asymm_v5,2020.2.10,MacIntel,60,61025ae37ef11b136ea224fe,,,,,,,,,3420,28.69329834,-83.82904053,1,0,0,response3disk,,4,9.378723145,-14.61035156,1,0,0,rectangle,9.378723145,-14.61035156,1,0,0,,,,,,,9.378723145,-14.61035156,1,0,0,,1,49,209,41,1,
,,,,,,,,,,,,,FF,,,,,,,,0.7835,,,,,,,,,,,,,,,,,,,,,,61033da02b2a5bf215b3dc11,61036e47404f7c59f50f2f07,2021-07-29_23h13.42.308,Simcolourproject_2stim_asymm_v5,2020.2.10,MacIntel,60,61025ae37ef11b136ea224fe,,,,,,,,,2763,74.36004639,-28.50411987,1,0,0,response3disk,,5,16.00878906,-2.974975586,1,0,0,rectangle,16.00878906,-2.974975586,1,0,0,,,,,,,16.00878906,-2.974975586,1,0,0,,1,50,210,138,1,
,,,,,,,,,,,,,FF,,,,,,,,1.3175,,,,,,,,,,,,,,,,,,,,,,61033da02b2a5bf215b3dc11,61036e47404f7c59f50f2f07,2021-07-29_23h13.42.308,Simcolourproject_2stim_asymm_v5,2020.2.10,MacIntel,60,61025ae37ef11b136ea224fe,,,,,,,,,1960,-34.64459229,-71.12768555,1,0,0,response5disk,,3,-26.29400635,-0.174377441,1,0,0,rectangle,-26.29400635,-0.174377441,1,0,0,,,,,,,-26.29400635,-0.174377441,1,0,0,,1,51,211,147,1,
,,,,,,,,,,,,,FF,,,,,,,,0.6491,,,,,,,,,,,,,,,,,,,,,,61033da02b2a5bf215b3dc11,61036e47404f7c59f50f2f07,2021-07-29_23h13.42.308,Simcolourproject_2stim_asymm_v5,2020.2.10,MacIntel,60,61025ae37ef11b136ea224fe,,,,,,,,,3474,-55.12615967,-33.64321899,1,0,0,response5disk,,2,7.814819336,-5.263336182,1,0,0,rectangle,-79.0098877,-43.84912109,1,0,0,response5disk_3,TRUE,2,2,"[95,184,237,93,126,293,120,65,213,112,195,81,294,235,1,251,115,246,57,169]",1.2664,-32.5012207,-6.53704834,1,0,0,rectangle,1,52,212,30,1,
,,,,,,,,,,,,,FF,,,,,,,,1.2173,,,,,,,,,,,,,,,,,,,,,,61033da02b2a5bf215b3dc11,61036e47404f7c59f50f2f07,2021-07-29_23h13.42.308,Simcolourproject_2stim_asymm_v5,2020.2.10,MacIntel,60,61025ae37ef11b136ea224fe,,,,,,,,,1421,31.54931641,-49.62585449,1,0,0,response3disk,,4,1.981689453,-12.14205933,1,0,0,rectangle,1.981689453,-12.14205933,1,0,0,,,,,,,1.981689453,-12.14205933,1,0,0,,1,53,213,110,1,
,,,,,,,,,,,,,FF,,,,,,,,0.7668,,,,,,,,,,,,,,,,,,,,,,61033da02b2a5bf215b3dc11,61036e47404f7c59f50f2f07,2021-07-29_23h13.42.308,Simcolourproject_2stim_asymm_v5,2020.2.10,MacIntel,60,61025ae37ef11b136ea224fe,,,,,,,,,59,62.68585205,-22.70465088,1,0,0,response3disk,,5,17.64648438,-14.41967773,1,0,0,rectangle,17.64648438,-14.41967773,1,0,0,,,,,,,17.64648438,-14.41967773,1,0,0,,1,54,214,5,1,
,,,,,,,,,,,,,FF,,,,,,,,1.0495,,,,,,,,,,,,,,,,,,,,,,61033da02b2a5bf215b3dc11,61036e47404f7c59f50f2f07,2021-07-29_23h13.42.308,Simcolourproject_2stim_asymm_v5,2020.2.10,MacIntel,60,61025ae37ef11b136ea224fe,,,,,,,,,4289,59.77142334,34.74533081,1,0,0,response1disk,,6,15.56616211,2.122619629,1,0,0,rectangle,15.56616211,2.122619629,1,0,0,,,,,,,15.56616211,2.122619629,1,0,0,,1,55,215,137,1,
,,,,,,,,,,,,,FF,,,,,,,,1.0002,,,,,,,,,,,,,,,,,,,,,,61033da02b2a5bf215b3dc11,61036e47404f7c59f50f2f07,2021-07-29_23h13.42.308,Simcolourproject_2stim_asymm_v5,2020.2.10,MacIntel,60,61025ae37ef11b136ea224fe,,,,,,,,,1726,-54.70477295,-75.83361816,1,0,0,response5disk,,3,-20.70819092,-13.08514404,1,0,0,rectangle,-20.70819092,-13.08514404,1,0,0,,,,,,,-20.70819092,-13.08514404,1,0,0,,1,56,216,18,1,
,,,,,,,,,,,,,FF,,,,,,,,0.8997,,,,,,,,,,,,,,,,,,,,,,61033da02b2a5bf215b3dc11,61036e47404f7c59f50f2f07,2021-07-29_23h13.42.308,Simcolourproject_2stim_asymm_v5,2020.2.10,MacIntel,60,61025ae37ef11b136ea224fe,,,,,,,,,561,41.17297363,-69.84130859,1,0,0,response3disk,,4,7.532165527,-3.904510498,1,0,0,rectangle,7.532165527,-3.904510498,1,0,0,,,,,,,7.532165527,-3.904510498,1,0,0,,1,57,217,80,1,
,,,,,,,,,,,,,FF,,,,,,,,1.1673,,,,,,,,,,,,,,,,,,,,,,61033da02b2a5bf215b3dc11,61036e47404f7c59f50f2f07,2021-07-29_23h13.42.308,Simcolourproject_2stim_asymm_v5,2020.2.10,MacIntel,60,61025ae37ef11b136ea224fe,,,,,,,,,2567,61.68243408,32.44372559,1,0,0,response1disk,,6,8.79083252,4.920288086,1,0,0,rectangle,8.79083252,4.920288086,1,0,0,,,,,,,8.79083252,4.920288086,1,0,0,,1,58,218,128,1,
,,,,,,,,,,,,,FF,,,,,,,,0.9493,,,,,,,,,,,,,,,,,,,,,,61033da02b2a5bf215b3dc11,61036e47404f7c59f50f2f07,2021-07-29_23h13.42.308,Simcolourproject_2stim_asymm_v5,2020.2.10,MacIntel,60,61025ae37ef11b136ea224fe,,,,,,,,,1385,-22.45928955,-104.3395996,1,0,0,response5disk,,3,-9.059326172,11.4630127,1,0,0,rectangle,-9.059326172,11.4630127,1,0,0,,,,,,,-9.059326172,11.4630127,1,0,0,,1,59,219,16,1,
,,,,,,,,,,,,,FF,,,,,,,,0.8163,,,,,,,,,,,,,,,,,,,,,,61033da02b2a5bf215b3dc11,61036e47404f7c59f50f2f07,2021-07-29_23h13.42.308,Simcolourproject_2stim_asymm_v5,2020.2.10,MacIntel,60,61025ae37ef11b136ea224fe,,,,,,,,,3503,-58.9510498,-30.56262207,1,0,0,response5disk,,2,-20.53265381,-11.03735352,1,0,0,rectangle,-20.53265381,-11.03735352,1,0,0,,,,,,,-20.53265381,-11.03735352,1,0,0,,1,60,220,101,1,
,,,,,,,,,,,,,FF,,,,,,,,0.7664,,,,,,,,,,,,,,,,,,,,,,61033da02b2a5bf215b3dc11,61036e47404f7c59f50f2f07,2021-07-29_23h13.42.308,Simcolourproject_2stim_asymm_v5,2020.2.10,MacIntel,60,61025ae37ef11b136ea224fe,,,,,,,,,1577,42.27832031,-39.21484375,1,0,0,response3disk,,5,-2.033325195,-2.316467285,1,0,0,rectangle,-2.033325195,-2.316467285,1,0,0,,,,,,,-2.033325195,-2.316467285,1,0,0,,1,61,221,77,1,
,,,,,,,,,,,,,FF,,,,,,,,1.0683,,,,,,,,,,,,,,,,,,,,,,61033da02b2a5bf215b3dc11,61036e47404f7c59f50f2f07,2021-07-29_23h13.42.308,Simcolourproject_2stim_asymm_v5,2020.2.10,MacIntel,60,61025ae37ef11b136ea224fe,,,,,,,,,3848,36.27819824,-69.3458252,1,0,0,response3disk,,4,-2.882873535,-5.954772949,1,0,0,rectangle,-2.882873535,-5.954772949,1,0,0,,,,,,,-2.882873535,-5.954772949,1,0,0,,1,62,222,69,1,
,,,,,,,,,,,,,FF,,,,,,,,0.7167,,,,,,,,,,,,,,,,,,,,,,61033da02b2a5bf215b3dc11,61036e47404f7c59f50f2f07,2021-07-29_23h13.42.308,Simcolourproject_2stim_asymm_v5,2020.2.10,MacIntel,60,61025ae37ef11b136ea224fe,,,,,,,,,196,75.13897705,-19.75701904,1,0,0,response3disk,,5,17.54620361,-8.774108887,1,0,0,rectangle,17.54620361,-8.774108887,1,0,0,,,,,,,17.54620361,-8.774108887,1,0,0,,1,63,223,7,1,
,,,,,,,,,,,,,FF,,,,,,,,1.0336,,,,,,,,,,,,,,,,,,,,,,61033da02b2a5bf215b3dc11,61036e47404f7c59f50f2f07,2021-07-29_23h13.42.308,Simcolourproject_2stim_asymm_v5,2020.2.10,MacIntel,60,61025ae37ef11b136ea224fe,,,,,,,,,598,59.12719727,-23.68395996,1,0,0,response3disk,,5,-4.203125,-15.5954895,1,0,0,rectangle,-4.203125,-15.5954895,1,0,0,,,,,,,-4.203125,-15.5954895,1,0,0,,1,64,224,102,1,
,,,,,,,,,,,,,FF,,,,,,,,0.9176,,,,,,,,,,,,,,,,,,,,,,61033da02b2a5bf215b3dc11,61036e47404f7c59f50f2f07,2021-07-29_23h13.42.308,Simcolourproject_2stim_asymm_v5,2020.2.10,MacIntel,60,61025ae37ef11b136ea224fe,,,,,,,,,3331,-43.66638184,-77.45928955,1,0,0,response5disk,,3,-28.12615967,-10.46975708,1,0,0,rectangle,-28.12615967,-10.46975708,1,0,0,,,,,,,-28.12615967,-10.46975708,1,0,0,,1,65,225,84,1,
,,,,,,,,,,,,,FF,,,,,,,,1.2346,,,,,,,,,,,,,,,,,,,,,,61033da02b2a5bf215b3dc11,61036e47404f7c59f50f2f07,2021-07-29_23h13.42.308,Simcolourproject_2stim_asymm_v5,2020.2.10,MacIntel,60,61025ae37ef11b136ea224fe,,,,,,,,,191,33.93103027,-78.94714355,1,0,0,response3disk,,4,4.666748047,-0.987365723,1,0,0,rectangle,4.666748047,-0.987365723,1,0,0,,,,,,,4.666748047,-0.987365723,1,0,0,,1,66,226,39,1,
,,,,,,,,,,,,,FF,,,,,,,,2.0671,,,,,,,,,,,,,,,,,,,,,,61033da02b2a5bf215b3dc11,61036e47404f7c59f50f2f07,2021-07-29_23h13.42.308,Simcolourproject_2stim_asymm_v5,2020.2.10,MacIntel,60,61025ae37ef11b136ea224fe,,,,,,,,,3692,71.99981689,93.75616455,1,0,0,response1disk,,7,10.48083496,-0.221862793,1,0,0,rectangle,10.48083496,-0.221862793,1,0,0,,,,,,,10.48083496,-0.221862793,1,0,0,,1,67,227,109,1,
,,,,,,,,,,,,,FF,,,,,,,,3.2336,,,,,,,,,,,,,,,,,,,,,,61033da02b2a5bf215b3dc11,61036e47404f7c59f50f2f07,2021-07-29_23h13.42.308,Simcolourproject_2stim_asymm_v5,2020.2.10,MacIntel,60,61025ae37ef11b136ea224fe,,,,,,,,,2638,53.51611328,-37.87768555,1,0,0,response3disk,,5,-6.844177246,-10.54614258,1,0,0,rectangle,-6.844177246,-10.54614258,1,0,0,,,,,,,-6.844177246,-10.54614258,1,0,0,,1,68,228,132,1,
,,,,,,,,,,,,,FF,,,,,,,,1.1497,,,,,,,,,,,,,,,,,,,,,,61033da02b2a5bf215b3dc11,61036e47404f7c59f50f2f07,2021-07-29_23h13.42.308,Simcolourproject_2stim_asymm_v5,2020.2.10,MacIntel,60,61025ae37ef11b136ea224fe,,,,,,,,,3722,26.47607422,-74.26831055,1,0,0,response3disk,,4,18.24267578,-0.238647461,1,0,0,rectangle,18.24267578,-0.238647461,1,0,0,,,,,,,18.24267578,-0.238647461,1,0,0,,1,69,229,87,1,
,,,,,,,,,,,,,FF,,,,,,,,0.75,,,,,,,,,,,,,,,,,,,,,,61033da02b2a5bf215b3dc11,61036e47404f7c59f50f2f07,2021-07-29_23h13.42.308,Simcolourproject_2stim_asymm_v5,2020.2.10,MacIntel,60,61025ae37ef11b136ea224fe,,,,,,,,,3150,-27.30151367,-72.28790283,1,0,0,response5disk,,3,-16.76098633,-9.049316406,1,0,0,rectangle,-16.76098633,-9.049316406,1,0,0,,,,,,,-16.76098633,-9.049316406,1,0,0,,1,70,230,100,1,
,,,,,,,,,,,,,FF,,,,,,,,0.9666,,,,,,,,,,,,,,,,,,,,,,61033da02b2a5bf215b3dc11,61036e47404f7c59f50f2f07,2021-07-29_23h13.42.308,Simcolourproject_2stim_asymm_v5,2020.2.10,MacIntel,60,61025ae37ef11b136ea224fe,,,,,,,,,2105,-27.04803467,-82.2230835,1,0,0,response5disk,,3,-11.32165527,2.540863037,1,0,0,rectangle,-11.32165527,2.540863037,1,0,0,,,,,,,-11.32165527,2.540863037,1,0,0,,1,71,231,152,1,
,,,,,,,,,,,,,FF,,,,,,,,0.8344,,,,,,,,,,,,,,,,,,,,,,61033da02b2a5bf215b3dc11,61036e47404f7c59f50f2f07,2021-07-29_23h13.42.308,Simcolourproject_2stim_asymm_v5,2020.2.10,MacIntel,60,61025ae37ef11b136ea224fe,,,,,,,,,2120,64.35180664,-43.00335693,1,0,0,response3disk,,5,33.5145874,9.502471924,1,0,0,rectangle,33.5145874,9.502471924,1,0,0,,,,,,,33.5145874,9.502471924,1,0,0,,1,72,232,56,1,
,,,,,,,,,,,,,FF,,,,,,,,0.9341,,,,,,,,,,,,,,,,,,,,,,61033da02b2a5bf215b3dc11,61036e47404f7c59f50f2f07,2021-07-29_23h13.42.308,Simcolourproject_2stim_asymm_v5,2020.2.10,MacIntel,60,61025ae37ef11b136ea224fe,,,,,,,,,2331,66.53656006,34.04751587,1,0,0,response1disk,,6,-3.699890137,0.140136719,1,0,0,rectangle,-3.699890137,0.140136719,1,0,0,,,,,,,-3.699890137,0.140136719,1,0,0,,1,73,233,76,1,
,,,,,,,,,,,,,FF,,,,,,,,0.8989,,,,,,,,,,,,,,,,,,,,,,61033da02b2a5bf215b3dc11,61036e47404f7c59f50f2f07,2021-07-29_23h13.42.308,Simcolourproject_2stim_asymm_v5,2020.2.10,MacIntel,60,61025ae37ef11b136ea224fe,,,,,,,,,516,60.67236328,31.48428345,1,0,0,response1disk,,6,-2.913757324,0.001831055,1,0,0,rectangle,-100.1809692,38.27914429,1,0,0,response7disk_3,TRUE,1,1,"[95,184,237,93,126,293,120,65,213,112,195,81,294,235,1,251,115,246,57,169]",1.1164,-12.37689209,4.996307373,1,0,0,rectangle,1,74,234,133,1,
,,,,,,,,,,,,,FF,,,,,,,,1.9004,,,,,,,,,,,,,,,,,,,,,,61033da02b2a5bf215b3dc11,61036e47404f7c59f50f2f07,2021-07-29_23h13.42.308,Simcolourproject_2stim_asymm_v5,2020.2.10,MacIntel,60,61025ae37ef11b136ea224fe,,,,,,,,,4259,29.58343506,-15.73968506,1,0,0,response3disk,,5,-1.207824707,-3.896636963,1,0,0,rectangle,-1.207824707,-3.896636963,1,0,0,,,,,,,-1.207824707,-3.896636963,1,0,0,,1,75,235,59,1,
,,,,,,,,,,,,,FF,,,,,,,,4.1835,,,,,,,,,,,,,,,,,,,,,,61033da02b2a5bf215b3dc11,61036e47404f7c59f50f2f07,2021-07-29_23h13.42.308,Simcolourproject_2stim_asymm_v5,2020.2.10,MacIntel,60,61025ae37ef11b136ea224fe,,,,,,,,,2788,40.76525879,-79.86242676,1,0,0,response3disk,,4,3.448669434,-16.1550293,1,0,0,rectangle,-40.8293457,-88.78979492,1,0,0,response5disk_3,TRUE,3,3,"[95,184,237,93,126,293,120,65,213,112,195,81,294,235,1,251,115,246,57,169]",1.933,-18.80334473,1.093505859,1,0,0,rectangle,1,76,236,35,1,
,,,,,,,,,,,,,FF,,,,,,,,3.9331,,,,,,,,,,,,,,,,,,,,,,61033da02b2a5bf215b3dc11,61036e47404f7c59f50f2f07,2021-07-29_23h13.42.308,Simcolourproject_2stim_asymm_v5,2020.2.10,MacIntel,60,61025ae37ef11b136ea224fe,,,,,,,,,2088,-39.97607422,-97.40460205,1,0,0,response5disk,,3,0.88079834,0.909759521,1,0,0,rectangle,0.88079834,0.909759521,1,0,0,,,,,,,0.88079834,0.909759521,1,0,0,,1,77,237,26,1,
,,,,,,,,,,,,,FF,,,,,,,,2.2157,,,,,,,,,,,,,,,,,,,,,,61033da02b2a5bf215b3dc11,61036e47404f7c59f50f2f07,2021-07-29_23h13.42.308,Simcolourproject_2stim_asymm_v5,2020.2.10,MacIntel,60,61025ae37ef11b136ea224fe,,,,,,,,,838,43.32879639,-21.77557373,1,0,0,response3disk,,5,18.668396,-3.206268311,1,0,0,rectangle,18.668396,-3.206268311,1,0,0,,,,,,,18.668396,-3.206268311,1,0,0,,1,78,238,93,1,
,,,,,,,,,,,,,FF,,,,,,,,3.5499,,,,,,,,,,,,,,,,,,,,,,61033da02b2a5bf215b3dc11,61036e47404f7c59f50f2f07,2021-07-29_23h13.42.308,Simcolourproject_2stim_asymm_v5,2020.2.10,MacIntel,60,61025ae37ef11b136ea224fe,,,,,,,,,1188,35.75323486,-83.86889648,1,0,0,response3disk,,4,14.67565918,-10.30834961,1,0,0,rectangle,14.67565918,-10.30834961,1,0,0,,,,,,,14.67565918,-10.30834961,1,0,0,,1,79,239,123,1,
,,,,,,,,,,,,,FF,,,,,,,,1.0828,,,,,,,,,,,,,,,,,,,,,,61033da02b2a5bf215b3dc11,61036e47404f7c59f50f2f07,2021-07-29_23h13.42.308,Simcolourproject_2stim_asymm_v5,2020.2.10,MacIntel,60,61025ae37ef11b136ea224fe,,,,,,,,,4118,-59.93878174,34.40649414,1,0,0,response7disk,,1,-5.427368164,9.864257813,1,0,0,rectangle,-5.427368164,9.864257813,1,0,0,,,,,,,-5.427368164,9.864257813,1,0,0,,1,80,240,86,1,
