key_resp.keys,key_resp.rt,key_resp_14.keys,key_resp_14.rt,key_resp_15.keys,key_resp_15.rt,key_resp_17.keys,key_resp_17.rt,key_resp_9.keys,key_resp_9.rt,key_resp_10.keys,key_resp_10.rt,practice_comparison,Ecc,mouse_5.x,mouse_5.y,mouse_5.leftButton,mouse_5.midButton,mouse_5.rightButton,mouse_5.clicked_name,pracsimilarity,response_time,mouse_10.x,mouse_10.y,mouse_10.leftButton,mouse_10.midButton,mouse_10.rightButton,mouse_10.clicked_name,mouse_7.x,mouse_7.y,mouse_7.leftButton,mouse_7.midButton,mouse_7.rightButton,mouse_6.x,mouse_6.y,mouse_6.leftButton,mouse_6.midButton,mouse_6.rightButton,duringprac.thisRepN,duringprac.thisTrialN,duringprac.thisN,duringprac.thisIndex,duringprac.ran,participant,session,date,expName,psychopyVersion,OS,frameRate,study_id,mouse_7.clicked_name,catchpracsimilarity,catch_response_time,catchnumberprac,catchtrialorderprac,mouse_6.clicked_name,key_resp_22.keys,key_resp_22.rt,realcomparison,mouse.x,mouse.y,mouse.leftButton,mouse.midButton,mouse.rightButton,mouse.clicked_name,Colour2,similarity,mouse_2.x,mouse_2.y,mouse_2.leftButton,mouse_2.midButton,mouse_2.rightButton,mouse_2.clicked_name,mouse_3.x,mouse_3.y,mouse_3.leftButton,mouse_3.midButton,mouse_3.rightButton,mouse_11.x,mouse_11.y,mouse_11.leftButton,mouse_11.midButton,mouse_11.rightButton,trials_2.thisRepN,trials_2.thisTrialN,trials_2.thisN,trials_2.thisIndex,trials_2.ran,Colour1,mouse_3.clicked_name,catchornah,catchsimilarity,catchnumber,catchtrialorder,catchRT,mouse_11.clicked_name
space,10.491,space,10.741,space,19.899,space,9.541,space,19.166,space,4.812,4,PF,-31,-74,1,0,0,response5disk_5,3,11.965,-2,-1,1,0,0,rectangle_8,-2,-1,1,0,0,-2,-1,1,0,0,0,0,0,2,1,610368de825c5dfea8a60321,61036deed1e815722ce9f197,2021-07-29_23h14.05.213,Simcolourproject_2stim_asymm_v5,2020.2.10,MacIntel,60,61025ae37ef11b136ea224fe,,,,,,,,,,,,,,,,,,,,,,,,,,,,,,,,,,,,,,,,,,,,,,
,,,,,,,,,,,,99,FF,26,70,1,0,0,response1disk_5,7,2.682,-1,2,1,0,0,rectangle_8,-31,80,1,0,0,-3,2,1,0,0,0,1,1,5,1,610368de825c5dfea8a60321,61036deed1e815722ce9f197,2021-07-29_23h14.05.213,Simcolourproject_2stim_asymm_v5,2020.2.10,MacIntel,60,61025ae37ef11b136ea224fe,response7disk_7,0,4.433,0,"[2,5]",rectangle_4,,,,,,,,,,,,,,,,,,,,,,,,,,,,,,,,,,,,,,,,
,,,,,,,,,,,,29,FF,85,34,1,0,0,response1disk_5,6,9.1,-5,-2,1,0,0,rectangle_8,-5,-2,1,0,0,-5,-2,1,0,0,0,2,2,0,1,610368de825c5dfea8a60321,61036deed1e815722ce9f197,2021-07-29_23h14.05.213,Simcolourproject_2stim_asymm_v5,2020.2.10,MacIntel,60,61025ae37ef11b136ea224fe,,,,,,,,,,,,,,,,,,,,,,,,,,,,,,,,,,,,,,,,,,,,,,
,,,,,,,,,,,,37,PF,68,-37,1,0,0,response3disk_5,5,3.05,3,6,1,0,0,rectangle_8,3,6,1,0,0,3,6,1,0,0,0,3,3,4,1,610368de825c5dfea8a60321,61036deed1e815722ce9f197,2021-07-29_23h14.05.213,Simcolourproject_2stim_asymm_v5,2020.2.10,MacIntel,60,61025ae37ef11b136ea224fe,,,,,,,,,,,,,,,,,,,,,,,,,,,,,,,,,,,,,,,,,,,,,,
,,,,,,,,,,,,26,PF,-58,27,1,0,0,response7disk_5,1,3.117,2,-4,1,0,0,rectangle_8,-33,65,1,0,0,-3,-3,1,0,0,0,4,4,6,1,610368de825c5dfea8a60321,61036deed1e815722ce9f197,2021-07-29_23h14.05.213,Simcolourproject_2stim_asymm_v5,2020.2.10,MacIntel,60,61025ae37ef11b136ea224fe,response7disk_7,0,1.85,0,"[2,5]",rectangle_4,,,,,,,,,,,,,,,,,,,,,,,,,,,,,,,,,,,,,,,,
,,,,,,,,,,,,122,FF,73,-41,1,0,0,response3disk_5,5,5.132,6,9,1,0,0,rectangle_8,6,9,1,0,0,6,9,1,0,0,0,5,5,3,1,610368de825c5dfea8a60321,61036deed1e815722ce9f197,2021-07-29_23h14.05.213,Simcolourproject_2stim_asymm_v5,2020.2.10,MacIntel,60,61025ae37ef11b136ea224fe,,,,,,,,,,,,,,,,,,,,,,,,,,,,,,,,,,,,,,,,,,,,,,
,,,,,,,,,,,,111,PF,-64,-30,1,0,0,response5disk_5,2,5.034,2,2,1,0,0,rectangle_8,2,2,1,0,0,2,2,1,0,0,0,6,6,1,1,610368de825c5dfea8a60321,61036deed1e815722ce9f197,2021-07-29_23h14.05.213,Simcolourproject_2stim_asymm_v5,2020.2.10,MacIntel,60,61025ae37ef11b136ea224fe,,,,,,,,,,,,,,,,,,,,,,,,,,,,,,,,,,,,,,,,,,,,,,
,,,,,,,,,,,,,FF,,,,,,,,2.317,,,,,,,,,,,,,,,,,,,,,,610368de825c5dfea8a60321,61036deed1e815722ce9f197,2021-07-29_23h14.05.213,Simcolourproject_2stim_asymm_v5,2020.2.10,MacIntel,60,61025ae37ef11b136ea224fe,,,,,,,space,2.945,2377,-44,-84,1,0,0,response5disk,,3,-15,0,1,0,0,rectangle,-15,0,1,0,0,-15,0,1,0,0,0,0,0,157,1,,,,,,,,
,,,,,,,,,,,,,FF,,,,,,,,2.703,,,,,,,,,,,,,,,,,,,,,,610368de825c5dfea8a60321,61036deed1e815722ce9f197,2021-07-29_23h14.05.213,Simcolourproject_2stim_asymm_v5,2020.2.10,MacIntel,60,61025ae37ef11b136ea224fe,,,,,,,,,4219,-39,-79,1,0,0,response5disk,,3,6,4,1,0,0,rectangle,6,4,1,0,0,6,4,1,0,0,0,1,1,72,1,,,,,,,,
,,,,,,,,,,,,,FF,,,,,,,,1.601,,,,,,,,,,,,,,,,,,,,,,610368de825c5dfea8a60321,61036deed1e815722ce9f197,2021-07-29_23h14.05.213,Simcolourproject_2stim_asymm_v5,2020.2.10,MacIntel,60,61025ae37ef11b136ea224fe,,,,,,,,,2034,-69,44,1,0,0,response7disk,,1,4,2,1,0,0,rectangle,4,2,1,0,0,4,2,1,0,0,0,2,2,43,1,,,,,,,,
,,,,,,,,,,,,,FF,,,,,,,,7.416,,,,,,,,,,,,,,,,,,,,,,610368de825c5dfea8a60321,61036deed1e815722ce9f197,2021-07-29_23h14.05.213,Simcolourproject_2stim_asymm_v5,2020.2.10,MacIntel,60,61025ae37ef11b136ea224fe,,,,,,,,,4179,20,-53,1,0,0,response3disk,,4,-3,9,1,0,0,rectangle,-3,9,1,0,0,-3,9,1,0,0,0,3,3,116,1,,,,,,,,
,,,,,,,,,,,,,FF,,,,,,,,2.566,,,,,,,,,,,,,,,,,,,,,,610368de825c5dfea8a60321,61036deed1e815722ce9f197,2021-07-29_23h14.05.213,Simcolourproject_2stim_asymm_v5,2020.2.10,MacIntel,60,61025ae37ef11b136ea224fe,,,,,,,,,2307,-54,-28,1,0,0,response5disk,,2,15,-2,1,0,0,rectangle,15,-2,1,0,0,15,-2,1,0,0,0,4,4,26,1,,,,,,,,
,,,,,,,,,,,,,FF,,,,,,,,1.383,,,,,,,,,,,,,,,,,,,,,,610368de825c5dfea8a60321,61036deed1e815722ce9f197,2021-07-29_23h14.05.213,Simcolourproject_2stim_asymm_v5,2020.2.10,MacIntel,60,61025ae37ef11b136ea224fe,,,,,,,,,2282,75,-33,1,0,0,response3disk,,5,0,10,1,0,0,rectangle,0,10,1,0,0,0,10,1,0,0,0,5,5,130,1,,,,,,,,
,,,,,,,,,,,,,FF,,,,,,,,2.183,,,,,,,,,,,,,,,,,,,,,,610368de825c5dfea8a60321,61036deed1e815722ce9f197,2021-07-29_23h14.05.213,Simcolourproject_2stim_asymm_v5,2020.2.10,MacIntel,60,61025ae37ef11b136ea224fe,,,,,,,,,243,43,76,1,0,0,response1disk,,7,-11,7,1,0,0,rectangle,-11,7,1,0,0,-11,7,1,0,0,0,6,6,110,1,,,,,,,,
,,,,,,,,,,,,,FF,,,,,,,,1.432,,,,,,,,,,,,,,,,,,,,,,610368de825c5dfea8a60321,61036deed1e815722ce9f197,2021-07-29_23h14.05.213,Simcolourproject_2stim_asymm_v5,2020.2.10,MacIntel,60,61025ae37ef11b136ea224fe,,,,,,,,,1614,-25,72,1,0,0,response7disk,,0,-14,0,1,0,0,rectangle,-14,0,1,0,0,-14,0,1,0,0,0,7,7,141,1,,,,,,,,
,,,,,,,,,,,,,FF,,,,,,,,1.282,,,,,,,,,,,,,,,,,,,,,,610368de825c5dfea8a60321,61036deed1e815722ce9f197,2021-07-29_23h14.05.213,Simcolourproject_2stim_asymm_v5,2020.2.10,MacIntel,60,61025ae37ef11b136ea224fe,,,,,,,,,1589,-32,-86,1,0,0,response5disk,,3,-8,7,1,0,0,rectangle,-8,7,1,0,0,-8,7,1,0,0,0,8,8,49,1,,,,,,,,
,,,,,,,,,,,,,FF,,,,,,,,1.733,,,,,,,,,,,,,,,,,,,,,,610368de825c5dfea8a60321,61036deed1e815722ce9f197,2021-07-29_23h14.05.213,Simcolourproject_2stim_asymm_v5,2020.2.10,MacIntel,60,61025ae37ef11b136ea224fe,,,,,,,,,3718,73,42,1,0,0,response1disk,,6,-3,-4,1,0,0,rectangle,-3,-4,1,0,0,-3,-4,1,0,0,0,9,9,144,1,,,,,,,,
,,,,,,,,,,,,,FF,,,,,,,,1.016,,,,,,,,,,,,,,,,,,,,,,610368de825c5dfea8a60321,61036deed1e815722ce9f197,2021-07-29_23h14.05.213,Simcolourproject_2stim_asymm_v5,2020.2.10,MacIntel,60,61025ae37ef11b136ea224fe,,,,,,,,,1095,58,96,1,0,0,response1disk,,7,1,2,1,0,0,rectangle,-88,38,1,0,0,-10,2,1,0,0,0,10,10,93,1,,response7disk_3,TRUE,1,1,"[147,91,14,194,227,215,155,217,292,11,88,322,27,214,105,229,14,162,303,86]",2.182,rectangle
,,,,,,,,,,,,,FF,,,,,,,,2.55,,,,,,,,,,,,,,,,,,,,,,610368de825c5dfea8a60321,61036deed1e815722ce9f197,2021-07-29_23h14.05.213,Simcolourproject_2stim_asymm_v5,2020.2.10,MacIntel,60,61025ae37ef11b136ea224fe,,,,,,,,,1422,40,-72,1,0,0,response3disk,,4,8,4,1,0,0,rectangle,8,4,1,0,0,8,4,1,0,0,0,11,11,6,1,,,,,,,,
,,,,,,,,,,,,,FF,,,,,,,,3.083,,,,,,,,,,,,,,,,,,,,,,610368de825c5dfea8a60321,61036deed1e815722ce9f197,2021-07-29_23h14.05.213,Simcolourproject_2stim_asymm_v5,2020.2.10,MacIntel,60,61025ae37ef11b136ea224fe,,,,,,,,,4078,-52,-102,1,0,0,response5disk,,3,-6,3,1,0,0,rectangle,-6,3,1,0,0,-6,3,1,0,0,0,12,12,7,1,,,,,,,,
,,,,,,,,,,,,,FF,,,,,,,,1.501,,,,,,,,,,,,,,,,,,,,,,610368de825c5dfea8a60321,61036deed1e815722ce9f197,2021-07-29_23h14.05.213,Simcolourproject_2stim_asymm_v5,2020.2.10,MacIntel,60,61025ae37ef11b136ea224fe,,,,,,,,,3127,69,49,1,0,0,response1disk,,6,4,-2,1,0,0,rectangle,-79,-25,1,0,0,6,-1,1,0,0,0,13,13,10,1,,response5disk_3,TRUE,2,2,"[147,91,14,194,227,215,155,217,292,11,88,322,27,214,105,229,14,162,303,86]",2.483,rectangle
,,,,,,,,,,,,,FF,,,,,,,,1.717,,,,,,,,,,,,,,,,,,,,,,610368de825c5dfea8a60321,61036deed1e815722ce9f197,2021-07-29_23h14.05.213,Simcolourproject_2stim_asymm_v5,2020.2.10,MacIntel,60,61025ae37ef11b136ea224fe,,,,,,,,,3692,78,-35,1,0,0,response3disk,,5,-2,1,1,0,0,rectangle,-2,1,1,0,0,-2,1,1,0,0,0,14,14,86,1,,,,,,,,
,,,,,,,,,,,,,FF,,,,,,,,1.6,,,,,,,,,,,,,,,,,,,,,,610368de825c5dfea8a60321,61036deed1e815722ce9f197,2021-07-29_23h14.05.213,Simcolourproject_2stim_asymm_v5,2020.2.10,MacIntel,60,61025ae37ef11b136ea224fe,,,,,,,,,3908,-32,79,1,0,0,response7disk,,0,-8,-6,1,0,0,rectangle,-8,-6,1,0,0,-8,-6,1,0,0,0,15,15,0,1,,,,,,,,
,,,,,,,,,,,,,FF,,,,,,,,1.018,,,,,,,,,,,,,,,,,,,,,,610368de825c5dfea8a60321,61036deed1e815722ce9f197,2021-07-29_23h14.05.213,Simcolourproject_2stim_asymm_v5,2020.2.10,MacIntel,60,61025ae37ef11b136ea224fe,,,,,,,,,802,-41,83,1,0,0,response7disk,,0,-23,6,1,0,0,rectangle,-23,6,1,0,0,-23,6,1,0,0,0,16,16,148,1,,,,,,,,
,,,,,,,,,,,,,FF,,,,,,,,2.651,,,,,,,,,,,,,,,,,,,,,,610368de825c5dfea8a60321,61036deed1e815722ce9f197,2021-07-29_23h14.05.213,Simcolourproject_2stim_asymm_v5,2020.2.10,MacIntel,60,61025ae37ef11b136ea224fe,,,,,,,,,304,24,-73,1,0,0,response3disk,,4,9,-5,1,0,0,rectangle,9,-5,1,0,0,9,-5,1,0,0,0,17,17,118,1,,,,,,,,
,,,,,,,,,,,,,FF,,,,,,,,3.1,,,,,,,,,,,,,,,,,,,,,,610368de825c5dfea8a60321,61036deed1e815722ce9f197,2021-07-29_23h14.05.213,Simcolourproject_2stim_asymm_v5,2020.2.10,MacIntel,60,61025ae37ef11b136ea224fe,,,,,,,,,113,66,-44,1,0,0,response3disk,,5,8,2,1,0,0,rectangle,8,2,1,0,0,8,2,1,0,0,0,18,18,128,1,,,,,,,,
,,,,,,,,,,,,,FF,,,,,,,,1.2,,,,,,,,,,,,,,,,,,,,,,610368de825c5dfea8a60321,61036deed1e815722ce9f197,2021-07-29_23h14.05.213,Simcolourproject_2stim_asymm_v5,2020.2.10,MacIntel,60,61025ae37ef11b136ea224fe,,,,,,,,,3250,-70,36,1,0,0,response7disk,,1,-7,-11,1,0,0,rectangle,-7,-11,1,0,0,-7,-11,1,0,0,0,19,19,137,1,,,,,,,,
,,,,,,,,,,,,,FF,,,,,,,,1.1,,,,,,,,,,,,,,,,,,,,,,610368de825c5dfea8a60321,61036deed1e815722ce9f197,2021-07-29_23h14.05.213,Simcolourproject_2stim_asymm_v5,2020.2.10,MacIntel,60,61025ae37ef11b136ea224fe,,,,,,,,,3448,50,73,1,0,0,response1disk,,7,0,-10,1,0,0,rectangle,0,-10,1,0,0,0,-10,1,0,0,0,20,20,156,1,,,,,,,,
,,,,,,,,,,,,,FF,,,,,,,,2.283,,,,,,,,,,,,,,,,,,,,,,610368de825c5dfea8a60321,61036deed1e815722ce9f197,2021-07-29_23h14.05.213,Simcolourproject_2stim_asymm_v5,2020.2.10,MacIntel,60,61025ae37ef11b136ea224fe,,,,,,,,,715,44,79,1,0,0,response1disk,,7,1,7,1,0,0,rectangle,1,7,1,0,0,1,7,1,0,0,0,21,21,11,1,,,,,,,,
,,,,,,,,,,,,,FF,,,,,,,,1.984,,,,,,,,,,,,,,,,,,,,,,610368de825c5dfea8a60321,61036deed1e815722ce9f197,2021-07-29_23h14.05.213,Simcolourproject_2stim_asymm_v5,2020.2.10,MacIntel,60,61025ae37ef11b136ea224fe,,,,,,,,,2474,-40,-83,1,0,0,response5disk,,3,13,5,1,0,0,rectangle,13,5,1,0,0,13,5,1,0,0,0,22,22,158,1,,,,,,,,
,,,,,,,,,,,,,FF,,,,,,,,3.016,,,,,,,,,,,,,,,,,,,,,,610368de825c5dfea8a60321,61036deed1e815722ce9f197,2021-07-29_23h14.05.213,Simcolourproject_2stim_asymm_v5,2020.2.10,MacIntel,60,61025ae37ef11b136ea224fe,,,,,,,,,3627,66,-44,1,0,0,response3disk,,5,-12,7,1,0,0,rectangle,-12,7,1,0,0,-12,7,1,0,0,0,23,23,109,1,,,,,,,,
,,,,,,,,,,,,,FF,,,,,,,,4.05,,,,,,,,,,,,,,,,,,,,,,610368de825c5dfea8a60321,61036deed1e815722ce9f197,2021-07-29_23h14.05.213,Simcolourproject_2stim_asymm_v5,2020.2.10,MacIntel,60,61025ae37ef11b136ea224fe,,,,,,,,,358,24,-81,1,0,0,response3disk,,4,-3,-9,1,0,0,rectangle,-3,-9,1,0,0,-3,-9,1,0,0,0,24,24,34,1,,,,,,,,
,,,,,,,,,,,,,FF,,,,,,,,1.567,,,,,,,,,,,,,,,,,,,,,,610368de825c5dfea8a60321,61036deed1e815722ce9f197,2021-07-29_23h14.05.213,Simcolourproject_2stim_asymm_v5,2020.2.10,MacIntel,60,61025ae37ef11b136ea224fe,,,,,,,,,3544,-81,41,1,0,0,response7disk,,1,-19,-1,1,0,0,rectangle,-19,-1,1,0,0,-19,-1,1,0,0,0,25,25,64,1,,,,,,,,
,,,,,,,,,,,,,FF,,,,,,,,2.119,,,,,,,,,,,,,,,,,,,,,,610368de825c5dfea8a60321,61036deed1e815722ce9f197,2021-07-29_23h14.05.213,Simcolourproject_2stim_asymm_v5,2020.2.10,MacIntel,60,61025ae37ef11b136ea224fe,,,,,,,,,2943,-80,43,1,0,0,response7disk,,1,-3,-1,1,0,0,rectangle,-87,41,1,0,0,-14,-1,1,0,0,0,26,26,73,1,,response7disk_3,TRUE,1,1,"[147,91,14,194,227,215,155,217,292,11,88,322,27,214,105,229,14,162,303,86]",1.566,rectangle
,,,,,,,,,,,,,FF,,,,,,,,1.616,,,,,,,,,,,,,,,,,,,,,,610368de825c5dfea8a60321,61036deed1e815722ce9f197,2021-07-29_23h14.05.213,Simcolourproject_2stim_asymm_v5,2020.2.10,MacIntel,60,61025ae37ef11b136ea224fe,,,,,,,,,2627,-77,-37,1,0,0,response5disk,,2,6,-1,1,0,0,rectangle,6,-1,1,0,0,6,-1,1,0,0,0,27,27,119,1,,,,,,,,
,,,,,,,,,,,,,FF,,,,,,,,1.1,,,,,,,,,,,,,,,,,,,,,,610368de825c5dfea8a60321,61036deed1e815722ce9f197,2021-07-29_23h14.05.213,Simcolourproject_2stim_asymm_v5,2020.2.10,MacIntel,60,61025ae37ef11b136ea224fe,,,,,,,,,3988,-69,-45,1,0,0,response5disk,,2,23,15,1,0,0,rectangle,23,15,1,0,0,23,15,1,0,0,0,28,28,83,1,,,,,,,,
,,,,,,,,,,,,,FF,,,,,,,,1.883,,,,,,,,,,,,,,,,,,,,,,610368de825c5dfea8a60321,61036deed1e815722ce9f197,2021-07-29_23h14.05.213,Simcolourproject_2stim_asymm_v5,2020.2.10,MacIntel,60,61025ae37ef11b136ea224fe,,,,,,,,,659,76,-28,1,0,0,response3disk,,5,-1,-1,1,0,0,rectangle,-1,-1,1,0,0,-1,-1,1,0,0,0,29,29,127,1,,,,,,,,
,,,,,,,,,,,,,FF,,,,,,,,1.251,,,,,,,,,,,,,,,,,,,,,,610368de825c5dfea8a60321,61036deed1e815722ce9f197,2021-07-29_23h14.05.213,Simcolourproject_2stim_asymm_v5,2020.2.10,MacIntel,60,61025ae37ef11b136ea224fe,,,,,,,,,3987,36,-81,1,0,0,response3disk,,4,8,-2,1,0,0,rectangle,8,-2,1,0,0,8,-2,1,0,0,0,30,30,99,1,,,,,,,,
,,,,,,,,,,,,,FF,,,,,,,,1.382,,,,,,,,,,,,,,,,,,,,,,610368de825c5dfea8a60321,61036deed1e815722ce9f197,2021-07-29_23h14.05.213,Simcolourproject_2stim_asymm_v5,2020.2.10,MacIntel,60,61025ae37ef11b136ea224fe,,,,,,,,,1648,26,75,1,0,0,response1disk,,7,-24,6,1,0,0,rectangle,-24,6,1,0,0,-24,6,1,0,0,0,31,31,149,1,,,,,,,,
,,,,,,,,,,,,,FF,,,,,,,,0.983,,,,,,,,,,,,,,,,,,,,,,610368de825c5dfea8a60321,61036deed1e815722ce9f197,2021-07-29_23h14.05.213,Simcolourproject_2stim_asymm_v5,2020.2.10,MacIntel,60,61025ae37ef11b136ea224fe,,,,,,,,,3147,-75,31,1,0,0,response7disk,,1,-12,-14,1,0,0,rectangle,-12,-14,1,0,0,-12,-14,1,0,0,0,32,32,68,1,,,,,,,,
,,,,,,,,,,,,,FF,,,,,,,,21.449,,,,,,,,,,,,,,,,,,,,,,610368de825c5dfea8a60321,61036deed1e815722ce9f197,2021-07-29_23h14.05.213,Simcolourproject_2stim_asymm_v5,2020.2.10,MacIntel,60,61025ae37ef11b136ea224fe,,,,,,,,,3446,48,-84,1,0,0,response3disk,,4,11,-2,1,0,0,rectangle,11,-2,1,0,0,11,-2,1,0,0,0,33,33,44,1,,,,,,,,
,,,,,,,,,,,,,FF,,,,,,,,1.834,,,,,,,,,,,,,,,,,,,,,,610368de825c5dfea8a60321,61036deed1e815722ce9f197,2021-07-29_23h14.05.213,Simcolourproject_2stim_asymm_v5,2020.2.10,MacIntel,60,61025ae37ef11b136ea224fe,,,,,,,,,411,73,28,1,0,0,response1disk,,6,8,7,1,0,0,rectangle,8,7,1,0,0,8,7,1,0,0,0,34,34,55,1,,,,,,,,
,,,,,,,,,,,,,FF,,,,,,,,1.833,,,,,,,,,,,,,,,,,,,,,,610368de825c5dfea8a60321,61036deed1e815722ce9f197,2021-07-29_23h14.05.213,Simcolourproject_2stim_asymm_v5,2020.2.10,MacIntel,60,61025ae37ef11b136ea224fe,,,,,,,,,2069,61,25,1,0,0,response1disk,,6,6,-7,1,0,0,rectangle,6,-7,1,0,0,6,-7,1,0,0,0,35,35,27,1,,,,,,,,
,,,,,,,,,,,,,FF,,,,,,,,1.65,,,,,,,,,,,,,,,,,,,,,,610368de825c5dfea8a60321,61036deed1e815722ce9f197,2021-07-29_23h14.05.213,Simcolourproject_2stim_asymm_v5,2020.2.10,MacIntel,60,61025ae37ef11b136ea224fe,,,,,,,,,3253,-36,-92,1,0,0,response5disk,,3,1,4,1,0,0,rectangle,1,4,1,0,0,1,4,1,0,0,0,36,36,61,1,,,,,,,,
,,,,,,,,,,,,,FF,,,,,,,,1.551,,,,,,,,,,,,,,,,,,,,,,610368de825c5dfea8a60321,61036deed1e815722ce9f197,2021-07-29_23h14.05.213,Simcolourproject_2stim_asymm_v5,2020.2.10,MacIntel,60,61025ae37ef11b136ea224fe,,,,,,,,,2581,45,-93,1,0,0,response3disk,,4,-13,17,1,0,0,rectangle,-13,17,1,0,0,-13,17,1,0,0,0,37,37,20,1,,,,,,,,
,,,,,,,,,,,,,FF,,,,,,,,2.833,,,,,,,,,,,,,,,,,,,,,,610368de825c5dfea8a60321,61036deed1e815722ce9f197,2021-07-29_23h14.05.213,Simcolourproject_2stim_asymm_v5,2020.2.10,MacIntel,60,61025ae37ef11b136ea224fe,,,,,,,,,1278,95,-37,1,0,0,response3disk,,5,2,-5,1,0,0,rectangle,2,-5,1,0,0,2,-5,1,0,0,0,38,38,115,1,,,,,,,,
,,,,,,,,,,,,,FF,,,,,,,,1.65,,,,,,,,,,,,,,,,,,,,,,610368de825c5dfea8a60321,61036deed1e815722ce9f197,2021-07-29_23h14.05.213,Simcolourproject_2stim_asymm_v5,2020.2.10,MacIntel,60,61025ae37ef11b136ea224fe,,,,,,,,,1512,22,81,1,0,0,response1disk,,7,12,4,1,0,0,rectangle,12,4,1,0,0,12,4,1,0,0,0,39,39,146,1,,,,,,,,
,,,,,,,,,,,,,FF,,,,,,,,1.783,,,,,,,,,,,,,,,,,,,,,,610368de825c5dfea8a60321,61036deed1e815722ce9f197,2021-07-29_23h14.05.213,Simcolourproject_2stim_asymm_v5,2020.2.10,MacIntel,60,61025ae37ef11b136ea224fe,,,,,,,,,2147,39,-77,1,0,0,response3disk,,4,-3,2,1,0,0,rectangle,-3,2,1,0,0,-3,2,1,0,0,0,40,40,143,1,,,,,,,,
,,,,,,,,,,,,,FF,,,,,,,,1.217,,,,,,,,,,,,,,,,,,,,,,610368de825c5dfea8a60321,61036deed1e815722ce9f197,2021-07-29_23h14.05.213,Simcolourproject_2stim_asymm_v5,2020.2.10,MacIntel,60,61025ae37ef11b136ea224fe,,,,,,,,,543,-32,87,1,0,0,response7disk,,0,-15,-7,1,0,0,rectangle,-15,-7,1,0,0,-15,-7,1,0,0,0,41,41,153,1,,,,,,,,
,,,,,,,,,,,,,FF,,,,,,,,2.982,,,,,,,,,,,,,,,,,,,,,,610368de825c5dfea8a60321,61036deed1e815722ce9f197,2021-07-29_23h14.05.213,Simcolourproject_2stim_asymm_v5,2020.2.10,MacIntel,60,61025ae37ef11b136ea224fe,,,,,,,,,340,-45,-68,1,0,0,response5disk,,3,-3,7,1,0,0,rectangle,-3,7,1,0,0,-3,7,1,0,0,0,42,42,136,1,,,,,,,,
,,,,,,,,,,,,,FF,,,,,,,,5.302,,,,,,,,,,,,,,,,,,,,,,610368de825c5dfea8a60321,61036deed1e815722ce9f197,2021-07-29_23h14.05.213,Simcolourproject_2stim_asymm_v5,2020.2.10,MacIntel,60,61025ae37ef11b136ea224fe,,,,,,,,,1683,19,-60,1,0,0,response3disk,,4,-11,5,1,0,0,rectangle,-11,5,1,0,0,-11,5,1,0,0,0,43,43,134,1,,,,,,,,
,,,,,,,,,,,,,FF,,,,,,,,1.05,,,,,,,,,,,,,,,,,,,,,,610368de825c5dfea8a60321,61036deed1e815722ce9f197,2021-07-29_23h14.05.213,Simcolourproject_2stim_asymm_v5,2020.2.10,MacIntel,60,61025ae37ef11b136ea224fe,,,,,,,,,268,-39,-60,1,0,0,response5disk,,3,10,-9,1,0,0,rectangle,10,-9,1,0,0,10,-9,1,0,0,0,44,44,135,1,,,,,,,,
,,,,,,,,,,,,,FF,,,,,,,,2.217,,,,,,,,,,,,,,,,,,,,,,610368de825c5dfea8a60321,61036deed1e815722ce9f197,2021-07-29_23h14.05.213,Simcolourproject_2stim_asymm_v5,2020.2.10,MacIntel,60,61025ae37ef11b136ea224fe,,,,,,,,,359,61,-39,1,0,0,response3disk,,5,11,16,1,0,0,rectangle,11,16,1,0,0,11,16,1,0,0,0,45,45,54,1,,,,,,,,
,,,,,,,,,,,,,FF,,,,,,,,1.25,,,,,,,,,,,,,,,,,,,,,,610368de825c5dfea8a60321,61036deed1e815722ce9f197,2021-07-29_23h14.05.213,Simcolourproject_2stim_asymm_v5,2020.2.10,MacIntel,60,61025ae37ef11b136ea224fe,,,,,,,,,3583,-78,28,1,0,0,response7disk,,1,7,-11,1,0,0,rectangle,7,-11,1,0,0,7,-11,1,0,0,0,46,46,31,1,,,,,,,,
,,,,,,,,,,,,,FF,,,,,,,,1.001,,,,,,,,,,,,,,,,,,,,,,610368de825c5dfea8a60321,61036deed1e815722ce9f197,2021-07-29_23h14.05.213,Simcolourproject_2stim_asymm_v5,2020.2.10,MacIntel,60,61025ae37ef11b136ea224fe,,,,,,,,,4095,-48,82,1,0,0,response7disk,,0,6,-1,1,0,0,rectangle,6,-1,1,0,0,6,-1,1,0,0,0,47,47,74,1,,,,,,,,
,,,,,,,,,,,,,FF,,,,,,,,1.534,,,,,,,,,,,,,,,,,,,,,,610368de825c5dfea8a60321,61036deed1e815722ce9f197,2021-07-29_23h14.05.213,Simcolourproject_2stim_asymm_v5,2020.2.10,MacIntel,60,61025ae37ef11b136ea224fe,,,,,,,,,3597,-75,37,1,0,0,response7disk,,1,-15,0,1,0,0,rectangle,-15,0,1,0,0,-15,0,1,0,0,0,48,48,120,1,,,,,,,,
,,,,,,,,,,,,,FF,,,,,,,,1.1,,,,,,,,,,,,,,,,,,,,,,610368de825c5dfea8a60321,61036deed1e815722ce9f197,2021-07-29_23h14.05.213,Simcolourproject_2stim_asymm_v5,2020.2.10,MacIntel,60,61025ae37ef11b136ea224fe,,,,,,,,,4143,-67,-98,1,0,0,response5disk,,3,-1,2,1,0,0,rectangle,-1,2,1,0,0,-1,2,1,0,0,0,49,49,101,1,,,,,,,,
,,,,,,,,,,,,,FF,,,,,,,,1.516,,,,,,,,,,,,,,,,,,,,,,610368de825c5dfea8a60321,61036deed1e815722ce9f197,2021-07-29_23h14.05.213,Simcolourproject_2stim_asymm_v5,2020.2.10,MacIntel,60,61025ae37ef11b136ea224fe,,,,,,,,,2483,46,-80,1,0,0,response3disk,,4,3,7,1,0,0,rectangle,3,7,1,0,0,3,7,1,0,0,0,50,50,76,1,,,,,,,,
,,,,,,,,,,,,,FF,,,,,,,,1.318,,,,,,,,,,,,,,,,,,,,,,610368de825c5dfea8a60321,61036deed1e815722ce9f197,2021-07-29_23h14.05.213,Simcolourproject_2stim_asymm_v5,2020.2.10,MacIntel,60,61025ae37ef11b136ea224fe,,,,,,,,,947,81,42,1,0,0,response1disk,,6,-8,-2,1,0,0,rectangle,-8,-2,1,0,0,-8,-2,1,0,0,0,51,51,38,1,,,,,,,,
,,,,,,,,,,,,,FF,,,,,,,,0.932,,,,,,,,,,,,,,,,,,,,,,610368de825c5dfea8a60321,61036deed1e815722ce9f197,2021-07-29_23h14.05.213,Simcolourproject_2stim_asymm_v5,2020.2.10,MacIntel,60,61025ae37ef11b136ea224fe,,,,,,,,,889,-76,45,1,0,0,response7disk,,1,-16,-10,1,0,0,rectangle,-16,-10,1,0,0,-16,-10,1,0,0,0,52,52,123,1,,,,,,,,
,,,,,,,,,,,,,FF,,,,,,,,1.951,,,,,,,,,,,,,,,,,,,,,,610368de825c5dfea8a60321,61036deed1e815722ce9f197,2021-07-29_23h14.05.213,Simcolourproject_2stim_asymm_v5,2020.2.10,MacIntel,60,61025ae37ef11b136ea224fe,,,,,,,,,2596,73,46,1,0,0,response1disk,,6,1,-2,1,0,0,rectangle,1,-2,1,0,0,1,-2,1,0,0,0,53,53,15,1,,,,,,,,
,,,,,,,,,,,,,FF,,,,,,,,3.399,,,,,,,,,,,,,,,,,,,,,,610368de825c5dfea8a60321,61036deed1e815722ce9f197,2021-07-29_23h14.05.213,Simcolourproject_2stim_asymm_v5,2020.2.10,MacIntel,60,61025ae37ef11b136ea224fe,,,,,,,,,1276,-62,44,1,0,0,response7disk,,1,-9,-9,1,0,0,rectangle,-9,-9,1,0,0,-9,-9,1,0,0,0,54,54,1,1,,,,,,,,
,,,,,,,,,,,,,FF,,,,,,,,2.465,,,,,,,,,,,,,,,,,,,,,,610368de825c5dfea8a60321,61036deed1e815722ce9f197,2021-07-29_23h14.05.213,Simcolourproject_2stim_asymm_v5,2020.2.10,MacIntel,60,61025ae37ef11b136ea224fe,,,,,,,,,4157,92,-28,1,0,0,response3disk,,5,10,13,1,0,0,rectangle,10,13,1,0,0,10,13,1,0,0,0,55,55,58,1,,,,,,,,
,,,,,,,,,,,,,FF,,,,,,,,0.967,,,,,,,,,,,,,,,,,,,,,,610368de825c5dfea8a60321,61036deed1e815722ce9f197,2021-07-29_23h14.05.213,Simcolourproject_2stim_asymm_v5,2020.2.10,MacIntel,60,61025ae37ef11b136ea224fe,,,,,,,,,724,-68,38,1,0,0,response7disk,,1,-11,3,1,0,0,rectangle,-11,3,1,0,0,-11,3,1,0,0,0,56,56,65,1,,,,,,,,
,,,,,,,,,,,,,FF,,,,,,,,1.151,,,,,,,,,,,,,,,,,,,,,,610368de825c5dfea8a60321,61036deed1e815722ce9f197,2021-07-29_23h14.05.213,Simcolourproject_2stim_asymm_v5,2020.2.10,MacIntel,60,61025ae37ef11b136ea224fe,,,,,,,,,1552,98,-36,1,0,0,response3disk,,5,-1,-7,1,0,0,rectangle,-1,-7,1,0,0,-1,-7,1,0,0,0,57,57,92,1,,,,,,,,
,,,,,,,,,,,,,FF,,,,,,,,1.584,,,,,,,,,,,,,,,,,,,,,,610368de825c5dfea8a60321,61036deed1e815722ce9f197,2021-07-29_23h14.05.213,Simcolourproject_2stim_asymm_v5,2020.2.10,MacIntel,60,61025ae37ef11b136ea224fe,,,,,,,,,4199,43,89,1,0,0,response1disk,,7,8,8,1,0,0,rectangle,8,8,1,0,0,8,8,1,0,0,0,58,58,108,1,,,,,,,,
,,,,,,,,,,,,,FF,,,,,,,,1.184,,,,,,,,,,,,,,,,,,,,,,610368de825c5dfea8a60321,61036deed1e815722ce9f197,2021-07-29_23h14.05.213,Simcolourproject_2stim_asymm_v5,2020.2.10,MacIntel,60,61025ae37ef11b136ea224fe,,,,,,,,,3144,37,78,1,0,0,response1disk,,7,18,-2,1,0,0,rectangle,18,-2,1,0,0,18,-2,1,0,0,0,59,59,57,1,,,,,,,,
,,,,,,,,,,,,,FF,,,,,,,,1.666,,,,,,,,,,,,,,,,,,,,,,610368de825c5dfea8a60321,61036deed1e815722ce9f197,2021-07-29_23h14.05.213,Simcolourproject_2stim_asymm_v5,2020.2.10,MacIntel,60,61025ae37ef11b136ea224fe,,,,,,,,,3273,80,28,1,0,0,response1disk,,6,-9,-3,1,0,0,rectangle,-9,-3,1,0,0,-9,-3,1,0,0,0,60,60,30,1,,,,,,,,
,,,,,,,,,,,,,FF,,,,,,,,1.185,,,,,,,,,,,,,,,,,,,,,,610368de825c5dfea8a60321,61036deed1e815722ce9f197,2021-07-29_23h14.05.213,Simcolourproject_2stim_asymm_v5,2020.2.10,MacIntel,60,61025ae37ef11b136ea224fe,,,,,,,,,1579,30,76,1,0,0,response1disk,,7,13,0,1,0,0,rectangle,13,0,1,0,0,13,0,1,0,0,0,61,61,75,1,,,,,,,,
,,,,,,,,,,,,,FF,,,,,,,,2.083,,,,,,,,,,,,,,,,,,,,,,610368de825c5dfea8a60321,61036deed1e815722ce9f197,2021-07-29_23h14.05.213,Simcolourproject_2stim_asymm_v5,2020.2.10,MacIntel,60,61025ae37ef11b136ea224fe,,,,,,,,,2442,34,-80,1,0,0,response3disk,,4,-3,5,1,0,0,rectangle,-3,5,1,0,0,-3,5,1,0,0,0,62,62,98,1,,,,,,,,
,,,,,,,,,,,,,FF,,,,,,,,2.316,,,,,,,,,,,,,,,,,,,,,,610368de825c5dfea8a60321,61036deed1e815722ce9f197,2021-07-29_23h14.05.213,Simcolourproject_2stim_asymm_v5,2020.2.10,MacIntel,60,61025ae37ef11b136ea224fe,,,,,,,,,957,81,39,1,0,0,response1disk,,6,16,-8,1,0,0,rectangle,16,-8,1,0,0,16,-8,1,0,0,0,63,63,51,1,,,,,,,,
,,,,,,,,,,,,,FF,,,,,,,,1.033,,,,,,,,,,,,,,,,,,,,,,610368de825c5dfea8a60321,61036deed1e815722ce9f197,2021-07-29_23h14.05.213,Simcolourproject_2stim_asymm_v5,2020.2.10,MacIntel,60,61025ae37ef11b136ea224fe,,,,,,,,,2850,74,36,1,0,0,response1disk,,6,16,-4,1,0,0,rectangle,16,-4,1,0,0,16,-4,1,0,0,0,64,64,12,1,,,,,,,,
,,,,,,,,,,,,,FF,,,,,,,,7.584,,,,,,,,,,,,,,,,,,,,,,610368de825c5dfea8a60321,61036deed1e815722ce9f197,2021-07-29_23h14.05.213,Simcolourproject_2stim_asymm_v5,2020.2.10,MacIntel,60,61025ae37ef11b136ea224fe,,,,,,,,,149,21,-64,1,0,0,response3disk,,4,-5,1,1,0,0,rectangle,-5,1,1,0,0,-5,1,1,0,0,0,65,65,113,1,,,,,,,,
,,,,,,,,,,,,,FF,,,,,,,,1,,,,,,,,,,,,,,,,,,,,,,610368de825c5dfea8a60321,61036deed1e815722ce9f197,2021-07-29_23h14.05.213,Simcolourproject_2stim_asymm_v5,2020.2.10,MacIntel,60,61025ae37ef11b136ea224fe,,,,,,,,,4344,-53,76,1,0,0,response7disk,,0,-6,-5,1,0,0,rectangle,-6,-5,1,0,0,-6,-5,1,0,0,0,66,66,94,1,,,,,,,,
,,,,,,,,,,,,,FF,,,,,,,,0.933,,,,,,,,,,,,,,,,,,,,,,610368de825c5dfea8a60321,61036deed1e815722ce9f197,2021-07-29_23h14.05.213,Simcolourproject_2stim_asymm_v5,2020.2.10,MacIntel,60,61025ae37ef11b136ea224fe,,,,,,,,,2906,-61,-92,1,0,0,response5disk,,3,7,-2,1,0,0,rectangle,7,-2,1,0,0,7,-2,1,0,0,0,67,67,42,1,,,,,,,,
,,,,,,,,,,,,,FF,,,,,,,,1.133,,,,,,,,,,,,,,,,,,,,,,610368de825c5dfea8a60321,61036deed1e815722ce9f197,2021-07-29_23h14.05.213,Simcolourproject_2stim_asymm_v5,2020.2.10,MacIntel,60,61025ae37ef11b136ea224fe,,,,,,,,,1166,78,54,1,0,0,response1disk,,6,5,-6,1,0,0,rectangle,5,-6,1,0,0,5,-6,1,0,0,0,68,68,4,1,,,,,,,,
,,,,,,,,,,,,,FF,,,,,,,,1.1,,,,,,,,,,,,,,,,,,,,,,610368de825c5dfea8a60321,61036deed1e815722ce9f197,2021-07-29_23h14.05.213,Simcolourproject_2stim_asymm_v5,2020.2.10,MacIntel,60,61025ae37ef11b136ea224fe,,,,,,,,,81,-39,-81,1,0,0,response5disk,,3,3,-11,1,0,0,rectangle,3,-11,1,0,0,3,-11,1,0,0,0,69,69,24,1,,,,,,,,
,,,,,,,,,,,,,FF,,,,,,,,2.316,,,,,,,,,,,,,,,,,,,,,,610368de825c5dfea8a60321,61036deed1e815722ce9f197,2021-07-29_23h14.05.213,Simcolourproject_2stim_asymm_v5,2020.2.10,MacIntel,60,61025ae37ef11b136ea224fe,,,,,,,,,1480,56,-89,1,0,0,response3disk,,4,3,3,1,0,0,rectangle,3,3,1,0,0,3,3,1,0,0,0,70,70,124,1,,,,,,,,
,,,,,,,,,,,,,FF,,,,,,,,2.101,,,,,,,,,,,,,,,,,,,,,,610368de825c5dfea8a60321,61036deed1e815722ce9f197,2021-07-29_23h14.05.213,Simcolourproject_2stim_asymm_v5,2020.2.10,MacIntel,60,61025ae37ef11b136ea224fe,,,,,,,,,1857,98,45,1,0,0,response1disk,,6,-21,-2,1,0,0,rectangle,-21,-2,1,0,0,-21,-2,1,0,0,0,71,71,48,1,,,,,,,,
,,,,,,,,,,,,,FF,,,,,,,,1.05,,,,,,,,,,,,,,,,,,,,,,610368de825c5dfea8a60321,61036deed1e815722ce9f197,2021-07-29_23h14.05.213,Simcolourproject_2stim_asymm_v5,2020.2.10,MacIntel,60,61025ae37ef11b136ea224fe,,,,,,,,,1005,89,-36,1,0,0,response3disk,,5,-4,5,1,0,0,rectangle,-4,5,1,0,0,-4,5,1,0,0,0,72,72,50,1,,,,,,,,
,,,,,,,,,,,,,FF,,,,,,,,1.319,,,,,,,,,,,,,,,,,,,,,,610368de825c5dfea8a60321,61036deed1e815722ce9f197,2021-07-29_23h14.05.213,Simcolourproject_2stim_asymm_v5,2020.2.10,MacIntel,60,61025ae37ef11b136ea224fe,,,,,,,,,1155,27,-76,1,0,0,response3disk,,4,1,13,1,0,0,rectangle,1,13,1,0,0,1,13,1,0,0,0,73,73,89,1,,,,,,,,
,,,,,,,,,,,,,FF,,,,,,,,0.85,,,,,,,,,,,,,,,,,,,,,,610368de825c5dfea8a60321,61036deed1e815722ce9f197,2021-07-29_23h14.05.213,Simcolourproject_2stim_asymm_v5,2020.2.10,MacIntel,60,61025ae37ef11b136ea224fe,,,,,,,,,2789,-37,-79,1,0,0,response5disk,,3,10,-13,1,0,0,rectangle,10,-13,1,0,0,10,-13,1,0,0,0,74,74,33,1,,,,,,,,
,,,,,,,,,,,,,FF,,,,,,,,0.866,,,,,,,,,,,,,,,,,,,,,,610368de825c5dfea8a60321,61036deed1e815722ce9f197,2021-07-29_23h14.05.213,Simcolourproject_2stim_asymm_v5,2020.2.10,MacIntel,60,61025ae37ef11b136ea224fe,,,,,,,,,3362,47,85,1,0,0,response1disk,,7,22,7,1,0,0,rectangle,22,7,1,0,0,22,7,1,0,0,0,75,75,125,1,,,,,,,,
,,,,,,,,,,,,,FF,,,,,,,,1.15,,,,,,,,,,,,,,,,,,,,,,610368de825c5dfea8a60321,61036deed1e815722ce9f197,2021-07-29_23h14.05.213,Simcolourproject_2stim_asymm_v5,2020.2.10,MacIntel,60,61025ae37ef11b136ea224fe,,,,,,,,,1962,-85,-59,1,0,0,response5disk,,2,-13,13,1,0,0,rectangle,-13,13,1,0,0,-13,13,1,0,0,0,76,76,40,1,,,,,,,,
,,,,,,,,,,,,,FF,,,,,,,,1.569,,,,,,,,,,,,,,,,,,,,,,610368de825c5dfea8a60321,61036deed1e815722ce9f197,2021-07-29_23h14.05.213,Simcolourproject_2stim_asymm_v5,2020.2.10,MacIntel,60,61025ae37ef11b136ea224fe,,,,,,,,,3910,-68,-35,1,0,0,response5disk,,2,-14,13,1,0,0,rectangle,-14,13,1,0,0,-14,13,1,0,0,0,77,77,59,1,,,,,,,,
,,,,,,,,,,,,,FF,,,,,,,,1.466,,,,,,,,,,,,,,,,,,,,,,610368de825c5dfea8a60321,61036deed1e815722ce9f197,2021-07-29_23h14.05.213,Simcolourproject_2stim_asymm_v5,2020.2.10,MacIntel,60,61025ae37ef11b136ea224fe,,,,,,,,,3679,77,-28,1,0,0,response3disk,,5,15,1,1,0,0,rectangle,15,1,1,0,0,15,1,1,0,0,0,78,78,121,1,,,,,,,,
,,,,,,,,,,,,,FF,,,,,,,,2.016,,,,,,,,,,,,,,,,,,,,,,610368de825c5dfea8a60321,61036deed1e815722ce9f197,2021-07-29_23h14.05.213,Simcolourproject_2stim_asymm_v5,2020.2.10,MacIntel,60,61025ae37ef11b136ea224fe,,,,,,,,,815,84,-48,1,0,0,response3disk,,5,-3,6,1,0,0,rectangle,-3,6,1,0,0,-3,6,1,0,0,0,79,79,107,1,,,,,,,,
,,,,,,,,,,,,,FF,,,,,,,,1.684,,,,,,,,,,,,,,,,,,,,,,610368de825c5dfea8a60321,61036deed1e815722ce9f197,2021-07-29_23h14.05.213,Simcolourproject_2stim_asymm_v5,2020.2.10,MacIntel,60,61025ae37ef11b136ea224fe,,,,,,,,,4364,-105,-63,1,0,0,response5disk,,2,-11,3,1,0,0,rectangle,-11,3,1,0,0,-11,3,1,0,0,0,80,80,82,1,,,,,,,,
,,,,,,,,,,,,,FF,,,,,,,,1.315,,,,,,,,,,,,,,,,,,,,,,610368de825c5dfea8a60321,61036deed1e815722ce9f197,2021-07-29_23h14.05.213,Simcolourproject_2stim_asymm_v5,2020.2.10,MacIntel,60,61025ae37ef11b136ea224fe,,,,,,,,,4317,34,82,1,0,0,response1disk,,7,-2,4,1,0,0,rectangle,-2,4,1,0,0,-2,4,1,0,0,0,81,81,133,1,,,,,,,,
,,,,,,,,,,,,,FF,,,,,,,,2.233,,,,,,,,,,,,,,,,,,,,,,610368de825c5dfea8a60321,61036deed1e815722ce9f197,2021-07-29_23h14.05.213,Simcolourproject_2stim_asymm_v5,2020.2.10,MacIntel,60,61025ae37ef11b136ea224fe,,,,,,,,,3640,91,46,1,0,0,response1disk,,6,-6,-5,1,0,0,rectangle,-6,-5,1,0,0,-6,-5,1,0,0,0,82,82,102,1,,,,,,,,
,,,,,,,,,,,,,FF,,,,,,,,1.833,,,,,,,,,,,,,,,,,,,,,,610368de825c5dfea8a60321,61036deed1e815722ce9f197,2021-07-29_23h14.05.213,Simcolourproject_2stim_asymm_v5,2020.2.10,MacIntel,60,61025ae37ef11b136ea224fe,,,,,,,,,3957,32,-93,1,0,0,response3disk,,4,5,10,1,0,0,rectangle,5,10,1,0,0,5,10,1,0,0,0,83,83,152,1,,,,,,,,
,,,,,,,,,,,,,FF,,,,,,,,0.933,,,,,,,,,,,,,,,,,,,,,,610368de825c5dfea8a60321,61036deed1e815722ce9f197,2021-07-29_23h14.05.213,Simcolourproject_2stim_asymm_v5,2020.2.10,MacIntel,60,61025ae37ef11b136ea224fe,,,,,,,,,1775,93,42,1,0,0,response1disk,,6,-7,-2,1,0,0,rectangle,-7,-2,1,0,0,-7,-2,1,0,0,0,84,84,69,1,,,,,,,,
,,,,,,,,,,,,,FF,,,,,,,,63.901,,,,,,,,,,,,,,,,,,,,,,610368de825c5dfea8a60321,61036deed1e815722ce9f197,2021-07-29_23h14.05.213,Simcolourproject_2stim_asymm_v5,2020.2.10,MacIntel,60,61025ae37ef11b136ea224fe,,,,,,,,,763,-39,-92,1,0,0,response5disk,,3,8,5,1,0,0,rectangle,53,-88,1,0,0,-5,-4,1,0,0,0,85,85,41,1,,response3disk_3,TRUE,4,4,"[147,91,14,194,227,215,155,217,292,11,88,322,27,214,105,229,14,162,303,86]",2.166,rectangle
,,,,,,,,,,,,,FF,,,,,,,,3.382,,,,,,,,,,,,,,,,,,,,,,610368de825c5dfea8a60321,61036deed1e815722ce9f197,2021-07-29_23h14.05.213,Simcolourproject_2stim_asymm_v5,2020.2.10,MacIntel,60,61025ae37ef11b136ea224fe,,,,,,,,,3009,33,-74,1,0,0,response3disk,,4,-1,7,1,0,0,rectangle,-1,7,1,0,0,-1,7,1,0,0,0,86,86,8,1,,,,,,,,
,,,,,,,,,,,,,FF,,,,,,,,1.166,,,,,,,,,,,,,,,,,,,,,,610368de825c5dfea8a60321,61036deed1e815722ce9f197,2021-07-29_23h14.05.213,Simcolourproject_2stim_asymm_v5,2020.2.10,MacIntel,60,61025ae37ef11b136ea224fe,,,,,,,,,2362,-85,-27,1,0,0,response5disk,,2,6,8,1,0,0,rectangle,-80,47,1,0,0,-24,8,1,0,0,0,87,87,131,1,,response7disk_3,TRUE,1,1,"[147,91,14,194,227,215,155,217,292,11,88,322,27,214,105,229,14,162,303,86]",1.767,rectangle
,,,,,,,,,,,,,FF,,,,,,,,13.833,,,,,,,,,,,,,,,,,,,,,,610368de825c5dfea8a60321,61036deed1e815722ce9f197,2021-07-29_23h14.05.213,Simcolourproject_2stim_asymm_v5,2020.2.10,MacIntel,60,61025ae37ef11b136ea224fe,,,,,,,,,3192,28,-78,1,0,0,response3disk,,4,3,4,1,0,0,rectangle,3,4,1,0,0,3,4,1,0,0,0,88,88,103,1,,,,,,,,
,,,,,,,,,,,,,FF,,,,,,,,2.5,,,,,,,,,,,,,,,,,,,,,,610368de825c5dfea8a60321,61036deed1e815722ce9f197,2021-07-29_23h14.05.213,Simcolourproject_2stim_asymm_v5,2020.2.10,MacIntel,60,61025ae37ef11b136ea224fe,,,,,,,,,2083,71,-46,1,0,0,response3disk,,5,7,11,1,0,0,rectangle,7,11,1,0,0,7,11,1,0,0,0,89,89,18,1,,,,,,,,
,,,,,,,,,,,,,FF,,,,,,,,2.132,,,,,,,,,,,,,,,,,,,,,,610368de825c5dfea8a60321,61036deed1e815722ce9f197,2021-07-29_23h14.05.213,Simcolourproject_2stim_asymm_v5,2020.2.10,MacIntel,60,61025ae37ef11b136ea224fe,,,,,,,,,936,100,38,1,0,0,response1disk,,6,2,-5,1,0,0,rectangle,-93,-27,1,0,0,-3,-6,1,0,0,0,90,90,16,1,,response5disk_3,TRUE,2,2,"[147,91,14,194,227,215,155,217,292,11,88,322,27,214,105,229,14,162,303,86]",3.897,rectangle
,,,,,,,,,,,,,FF,,,,,,,,1.683,,,,,,,,,,,,,,,,,,,,,,610368de825c5dfea8a60321,61036deed1e815722ce9f197,2021-07-29_23h14.05.213,Simcolourproject_2stim_asymm_v5,2020.2.10,MacIntel,60,61025ae37ef11b136ea224fe,,,,,,,,,1532,42,-90,1,0,0,response3disk,,4,11,-11,1,0,0,rectangle,11,-11,1,0,0,11,-11,1,0,0,0,91,91,155,1,,,,,,,,
,,,,,,,,,,,,,FF,,,,,,,,1.117,,,,,,,,,,,,,,,,,,,,,,610368de825c5dfea8a60321,61036deed1e815722ce9f197,2021-07-29_23h14.05.213,Simcolourproject_2stim_asymm_v5,2020.2.10,MacIntel,60,61025ae37ef11b136ea224fe,,,,,,,,,4304,84,57,1,0,0,response1disk,,6,-3,-1,1,0,0,rectangle,-3,-1,1,0,0,-3,-1,1,0,0,0,92,92,19,1,,,,,,,,
,,,,,,,,,,,,,FF,,,,,,,,1.783,,,,,,,,,,,,,,,,,,,,,,610368de825c5dfea8a60321,61036deed1e815722ce9f197,2021-07-29_23h14.05.213,Simcolourproject_2stim_asymm_v5,2020.2.10,MacIntel,60,61025ae37ef11b136ea224fe,,,,,,,,,2804,38,80,1,0,0,response1disk,,7,-2,1,1,0,0,rectangle,-2,1,1,0,0,-2,1,1,0,0,0,93,93,23,1,,,,,,,,
,,,,,,,,,,,,,FF,,,,,,,,1.099,,,,,,,,,,,,,,,,,,,,,,610368de825c5dfea8a60321,61036deed1e815722ce9f197,2021-07-29_23h14.05.213,Simcolourproject_2stim_asymm_v5,2020.2.10,MacIntel,60,61025ae37ef11b136ea224fe,,,,,,,,,2669,-73,-56,1,0,0,response5disk,,2,2,8,1,0,0,rectangle,2,8,1,0,0,2,8,1,0,0,0,94,94,151,1,,,,,,,,
,,,,,,,,,,,,,FF,,,,,,,,1.566,,,,,,,,,,,,,,,,,,,,,,610368de825c5dfea8a60321,61036deed1e815722ce9f197,2021-07-29_23h14.05.213,Simcolourproject_2stim_asymm_v5,2020.2.10,MacIntel,60,61025ae37ef11b136ea224fe,,,,,,,,,4081,49,80,1,0,0,response1disk,,7,-1,-2,1,0,0,rectangle,-1,-2,1,0,0,-1,-2,1,0,0,0,95,95,3,1,,,,,,,,
,,,,,,,,,,,,,FF,,,,,,,,1.049,,,,,,,,,,,,,,,,,,,,,,610368de825c5dfea8a60321,61036deed1e815722ce9f197,2021-07-29_23h14.05.213,Simcolourproject_2stim_asymm_v5,2020.2.10,MacIntel,60,61025ae37ef11b136ea224fe,,,,,,,,,2521,41,89,1,0,0,response1disk,,7,-4,7,1,0,0,rectangle,-4,7,1,0,0,-4,7,1,0,0,0,96,96,90,1,,,,,,,,
,,,,,,,,,,,,,FF,,,,,,,,2.117,,,,,,,,,,,,,,,,,,,,,,610368de825c5dfea8a60321,61036deed1e815722ce9f197,2021-07-29_23h14.05.213,Simcolourproject_2stim_asymm_v5,2020.2.10,MacIntel,60,61025ae37ef11b136ea224fe,,,,,,,,,2506,81,37,1,0,0,response1disk,,6,-6,-7,1,0,0,rectangle,-6,-7,1,0,0,-6,-7,1,0,0,0,97,97,66,1,,,,,,,,
,,,,,,,,,,,,,FF,,,,,,,,4.4,,,,,,,,,,,,,,,,,,,,,,610368de825c5dfea8a60321,61036deed1e815722ce9f197,2021-07-29_23h14.05.213,Simcolourproject_2stim_asymm_v5,2020.2.10,MacIntel,60,61025ae37ef11b136ea224fe,,,,,,,,,2197,-36,-92,1,0,0,response5disk,,3,9,-6,1,0,0,rectangle,9,-6,1,0,0,9,-6,1,0,0,0,98,98,142,1,,,,,,,,
,,,,,,,,,,,,,FF,,,,,,,,0.932,,,,,,,,,,,,,,,,,,,,,,610368de825c5dfea8a60321,61036deed1e815722ce9f197,2021-07-29_23h14.05.213,Simcolourproject_2stim_asymm_v5,2020.2.10,MacIntel,60,61025ae37ef11b136ea224fe,,,,,,,,,3928,76,-39,1,0,0,response3disk,,5,14,7,1,0,0,rectangle,14,7,1,0,0,14,7,1,0,0,0,99,99,97,1,,,,,,,,
,,,,,,,,,,,,,FF,,,,,,,,1.166,,,,,,,,,,,,,,,,,,,,,,610368de825c5dfea8a60321,61036deed1e815722ce9f197,2021-07-29_23h14.05.213,Simcolourproject_2stim_asymm_v5,2020.2.10,MacIntel,60,61025ae37ef11b136ea224fe,,,,,,,,,886,-52,60,1,0,0,response7disk,,0,-10,-2,1,0,0,rectangle,-10,-2,1,0,0,-10,-2,1,0,0,0,100,100,84,1,,,,,,,,
,,,,,,,,,,,,,FF,,,,,,,,1.365,,,,,,,,,,,,,,,,,,,,,,610368de825c5dfea8a60321,61036deed1e815722ce9f197,2021-07-29_23h14.05.213,Simcolourproject_2stim_asymm_v5,2020.2.10,MacIntel,60,61025ae37ef11b136ea224fe,,,,,,,,,2896,-78,39,1,0,0,response7disk,,1,-15,-6,1,0,0,rectangle,-15,-6,1,0,0,-15,-6,1,0,0,0,101,101,85,1,,,,,,,,
,,,,,,,,,,,,,FF,,,,,,,,1.016,,,,,,,,,,,,,,,,,,,,,,610368de825c5dfea8a60321,61036deed1e815722ce9f197,2021-07-29_23h14.05.213,Simcolourproject_2stim_asymm_v5,2020.2.10,MacIntel,60,61025ae37ef11b136ea224fe,,,,,,,,,2123,95,58,1,0,0,response1disk,,6,23,4,1,0,0,rectangle,23,4,1,0,0,23,4,1,0,0,0,102,102,95,1,,,,,,,,
,,,,,,,,,,,,,FF,,,,,,,,1.35,,,,,,,,,,,,,,,,,,,,,,610368de825c5dfea8a60321,61036deed1e815722ce9f197,2021-07-29_23h14.05.213,Simcolourproject_2stim_asymm_v5,2020.2.10,MacIntel,60,61025ae37ef11b136ea224fe,,,,,,,,,2656,-49,-85,1,0,0,response5disk,,3,11,-2,1,0,0,rectangle,11,-2,1,0,0,11,-2,1,0,0,0,103,103,147,1,,,,,,,,
,,,,,,,,,,,,,FF,,,,,,,,1.399,,,,,,,,,,,,,,,,,,,,,,610368de825c5dfea8a60321,61036deed1e815722ce9f197,2021-07-29_23h14.05.213,Simcolourproject_2stim_asymm_v5,2020.2.10,MacIntel,60,61025ae37ef11b136ea224fe,,,,,,,,,2149,77,-37,1,0,0,response3disk,,5,0,6,1,0,0,rectangle,-45,72,1,0,0,-24,9,1,0,0,0,104,104,53,1,,response7disk_3,TRUE,0,0,"[147,91,14,194,227,215,155,217,292,11,88,322,27,214,105,229,14,162,303,86]",1.732,rectangle
,,,,,,,,,,,,,FF,,,,,,,,4.417,,,,,,,,,,,,,,,,,,,,,,610368de825c5dfea8a60321,61036deed1e815722ce9f197,2021-07-29_23h14.05.213,Simcolourproject_2stim_asymm_v5,2020.2.10,MacIntel,60,61025ae37ef11b136ea224fe,,,,,,,,,83,38,-58,1,0,0,response3disk,,4,2,-11,1,0,0,rectangle,2,-11,1,0,0,2,-11,1,0,0,0,105,105,25,1,,,,,,,,
,,,,,,,,,,,,,FF,,,,,,,,0.883,,,,,,,,,,,,,,,,,,,,,,610368de825c5dfea8a60321,61036deed1e815722ce9f197,2021-07-29_23h14.05.213,Simcolourproject_2stim_asymm_v5,2020.2.10,MacIntel,60,61025ae37ef11b136ea224fe,,,,,,,,,2615,-46,-85,1,0,0,response5disk,,3,-17,3,1,0,0,rectangle,-17,3,1,0,0,-17,3,1,0,0,0,106,106,77,1,,,,,,,,
,,,,,,,,,,,,,FF,,,,,,,,1.968,,,,,,,,,,,,,,,,,,,,,,610368de825c5dfea8a60321,61036deed1e815722ce9f197,2021-07-29_23h14.05.213,Simcolourproject_2stim_asymm_v5,2020.2.10,MacIntel,60,61025ae37ef11b136ea224fe,,,,,,,,,2334,91,31,1,0,0,response1disk,,6,20,-6,1,0,0,rectangle,20,-6,1,0,0,20,-6,1,0,0,0,107,107,80,1,,,,,,,,
,,,,,,,,,,,,,FF,,,,,,,,1.15,,,,,,,,,,,,,,,,,,,,,,610368de825c5dfea8a60321,61036deed1e815722ce9f197,2021-07-29_23h14.05.213,Simcolourproject_2stim_asymm_v5,2020.2.10,MacIntel,60,61025ae37ef11b136ea224fe,,,,,,,,,3346,-63,-30,1,0,0,response5disk,,2,-13,3,1,0,0,rectangle,-13,3,1,0,0,-13,3,1,0,0,0,108,108,105,1,,,,,,,,
,,,,,,,,,,,,,FF,,,,,,,,0.966,,,,,,,,,,,,,,,,,,,,,,610368de825c5dfea8a60321,61036deed1e815722ce9f197,2021-07-29_23h14.05.213,Simcolourproject_2stim_asymm_v5,2020.2.10,MacIntel,60,61025ae37ef11b136ea224fe,,,,,,,,,1909,-43,-84,1,0,0,response5disk,,3,6,7,1,0,0,rectangle,6,7,1,0,0,6,7,1,0,0,0,109,109,104,1,,,,,,,,
,,,,,,,,,,,,,FF,,,,,,,,1.033,,,,,,,,,,,,,,,,,,,,,,610368de825c5dfea8a60321,61036deed1e815722ce9f197,2021-07-29_23h14.05.213,Simcolourproject_2stim_asymm_v5,2020.2.10,MacIntel,60,61025ae37ef11b136ea224fe,,,,,,,,,1143,61,-39,1,0,0,response3disk,,5,-8,11,1,0,0,rectangle,-8,11,1,0,0,-8,11,1,0,0,0,110,110,88,1,,,,,,,,
,,,,,,,,,,,,,FF,,,,,,,,1.135,,,,,,,,,,,,,,,,,,,,,,610368de825c5dfea8a60321,61036deed1e815722ce9f197,2021-07-29_23h14.05.213,Simcolourproject_2stim_asymm_v5,2020.2.10,MacIntel,60,61025ae37ef11b136ea224fe,,,,,,,,,2714,-70,-36,1,0,0,response5disk,,2,23,13,1,0,0,rectangle,23,13,1,0,0,23,13,1,0,0,0,111,111,112,1,,,,,,,,
,,,,,,,,,,,,,FF,,,,,,,,0.985,,,,,,,,,,,,,,,,,,,,,,610368de825c5dfea8a60321,61036deed1e815722ce9f197,2021-07-29_23h14.05.213,Simcolourproject_2stim_asymm_v5,2020.2.10,MacIntel,60,61025ae37ef11b136ea224fe,,,,,,,,,1609,-34,95,1,0,0,response7disk,,0,-4,-8,1,0,0,rectangle,-4,-8,1,0,0,-4,-8,1,0,0,0,112,112,14,1,,,,,,,,
,,,,,,,,,,,,,FF,,,,,,,,1.549,,,,,,,,,,,,,,,,,,,,,,610368de825c5dfea8a60321,61036deed1e815722ce9f197,2021-07-29_23h14.05.213,Simcolourproject_2stim_asymm_v5,2020.2.10,MacIntel,60,61025ae37ef11b136ea224fe,,,,,,,,,365,71,58,1,0,0,response1disk,,6,-8,7,1,0,0,rectangle,-8,7,1,0,0,-8,7,1,0,0,0,113,113,154,1,,,,,,,,
,,,,,,,,,,,,,FF,,,,,,,,1.399,,,,,,,,,,,,,,,,,,,,,,610368de825c5dfea8a60321,61036deed1e815722ce9f197,2021-07-29_23h14.05.213,Simcolourproject_2stim_asymm_v5,2020.2.10,MacIntel,60,61025ae37ef11b136ea224fe,,,,,,,,,3370,54,78,1,0,0,response1disk,,7,15,2,1,0,0,rectangle,15,2,1,0,0,15,2,1,0,0,0,114,114,106,1,,,,,,,,
,,,,,,,,,,,,,FF,,,,,,,,1.517,,,,,,,,,,,,,,,,,,,,,,610368de825c5dfea8a60321,61036deed1e815722ce9f197,2021-07-29_23h14.05.213,Simcolourproject_2stim_asymm_v5,2020.2.10,MacIntel,60,61025ae37ef11b136ea224fe,,,,,,,,,2044,-44,-97,1,0,0,response5disk,,3,5,7,1,0,0,rectangle,5,7,1,0,0,5,7,1,0,0,0,115,115,36,1,,,,,,,,
,,,,,,,,,,,,,FF,,,,,,,,1.8,,,,,,,,,,,,,,,,,,,,,,610368de825c5dfea8a60321,61036deed1e815722ce9f197,2021-07-29_23h14.05.213,Simcolourproject_2stim_asymm_v5,2020.2.10,MacIntel,60,61025ae37ef11b136ea224fe,,,,,,,,,2864,55,89,1,0,0,response1disk,,7,17,3,1,0,0,rectangle,17,3,1,0,0,17,3,1,0,0,0,116,116,114,1,,,,,,,,
,,,,,,,,,,,,,FF,,,,,,,,2.817,,,,,,,,,,,,,,,,,,,,,,610368de825c5dfea8a60321,61036deed1e815722ce9f197,2021-07-29_23h14.05.213,Simcolourproject_2stim_asymm_v5,2020.2.10,MacIntel,60,61025ae37ef11b136ea224fe,,,,,,,,,360,43,-71,1,0,0,response3disk,,4,11,12,1,0,0,rectangle,11,12,1,0,0,11,12,1,0,0,0,117,117,32,1,,,,,,,,
,,,,,,,,,,,,,FF,,,,,,,,2.032,,,,,,,,,,,,,,,,,,,,,,610368de825c5dfea8a60321,61036deed1e815722ce9f197,2021-07-29_23h14.05.213,Simcolourproject_2stim_asymm_v5,2020.2.10,MacIntel,60,61025ae37ef11b136ea224fe,,,,,,,,,3848,95,-38,1,0,0,response3disk,,5,-4,-2,1,0,0,rectangle,-4,-2,1,0,0,-4,-2,1,0,0,0,118,118,117,1,,,,,,,,
,,,,,,,,,,,,,FF,,,,,,,,1,,,,,,,,,,,,,,,,,,,,,,610368de825c5dfea8a60321,61036deed1e815722ce9f197,2021-07-29_23h14.05.213,Simcolourproject_2stim_asymm_v5,2020.2.10,MacIntel,60,61025ae37ef11b136ea224fe,,,,,,,,,455,-51,69,1,0,0,response7disk,,0,-14,8,1,0,0,rectangle,-14,8,1,0,0,-14,8,1,0,0,0,119,119,21,1,,,,,,,,
,,,,,,,,,,,,,FF,,,,,,,,0.817,,,,,,,,,,,,,,,,,,,,,,610368de825c5dfea8a60321,61036deed1e815722ce9f197,2021-07-29_23h14.05.213,Simcolourproject_2stim_asymm_v5,2020.2.10,MacIntel,60,61025ae37ef11b136ea224fe,,,,,,,,,3850,-59,-35,1,0,0,response5disk,,2,-14,-6,1,0,0,rectangle,-14,-6,1,0,0,-14,-6,1,0,0,0,120,120,129,1,,,,,,,,
,,,,,,,,,,,,,FF,,,,,,,,1.584,,,,,,,,,,,,,,,,,,,,,,610368de825c5dfea8a60321,61036deed1e815722ce9f197,2021-07-29_23h14.05.213,Simcolourproject_2stim_asymm_v5,2020.2.10,MacIntel,60,61025ae37ef11b136ea224fe,,,,,,,,,3862,73,-47,1,0,0,response3disk,,5,-5,11,1,0,0,rectangle,-5,11,1,0,0,-5,11,1,0,0,0,121,121,159,1,,,,,,,,
,,,,,,,,,,,,,FF,,,,,,,,1.449,,,,,,,,,,,,,,,,,,,,,,610368de825c5dfea8a60321,61036deed1e815722ce9f197,2021-07-29_23h14.05.213,Simcolourproject_2stim_asymm_v5,2020.2.10,MacIntel,60,61025ae37ef11b136ea224fe,,,,,,,,,4174,31,63,1,0,0,response1disk,,7,8,7,1,0,0,rectangle,8,7,1,0,0,8,7,1,0,0,0,122,122,2,1,,,,,,,,
,,,,,,,,,,,,,FF,,,,,,,,0.965,,,,,,,,,,,,,,,,,,,,,,610368de825c5dfea8a60321,61036deed1e815722ce9f197,2021-07-29_23h14.05.213,Simcolourproject_2stim_asymm_v5,2020.2.10,MacIntel,60,61025ae37ef11b136ea224fe,,,,,,,,,2745,26,-81,1,0,0,response3disk,,4,-10,0,1,0,0,rectangle,-10,0,1,0,0,-10,0,1,0,0,0,123,123,46,1,,,,,,,,
,,,,,,,,,,,,,FF,,,,,,,,0.999,,,,,,,,,,,,,,,,,,,,,,610368de825c5dfea8a60321,61036deed1e815722ce9f197,2021-07-29_23h14.05.213,Simcolourproject_2stim_asymm_v5,2020.2.10,MacIntel,60,61025ae37ef11b136ea224fe,,,,,,,,,3864,86,41,1,0,0,response1disk,,6,-5,-12,1,0,0,rectangle,-5,-12,1,0,0,-5,-12,1,0,0,0,124,124,139,1,,,,,,,,
,,,,,,,,,,,,,FF,,,,,,,,1.517,,,,,,,,,,,,,,,,,,,,,,610368de825c5dfea8a60321,61036deed1e815722ce9f197,2021-07-29_23h14.05.213,Simcolourproject_2stim_asymm_v5,2020.2.10,MacIntel,60,61025ae37ef11b136ea224fe,,,,,,,,,3271,74,-32,1,0,0,response3disk,,5,-11,-13,1,0,0,rectangle,-11,-13,1,0,0,-11,-13,1,0,0,0,125,125,150,1,,,,,,,,
,,,,,,,,,,,,,FF,,,,,,,,2.533,,,,,,,,,,,,,,,,,,,,,,610368de825c5dfea8a60321,61036deed1e815722ce9f197,2021-07-29_23h14.05.213,Simcolourproject_2stim_asymm_v5,2020.2.10,MacIntel,60,61025ae37ef11b136ea224fe,,,,,,,,,2736,-48,-71,1,0,0,response5disk,,3,8,-2,1,0,0,rectangle,8,-2,1,0,0,8,-2,1,0,0,0,126,126,60,1,,,,,,,,
,,,,,,,,,,,,,FF,,,,,,,,1.633,,,,,,,,,,,,,,,,,,,,,,610368de825c5dfea8a60321,61036deed1e815722ce9f197,2021-07-29_23h14.05.213,Simcolourproject_2stim_asymm_v5,2020.2.10,MacIntel,60,61025ae37ef11b136ea224fe,,,,,,,,,718,30,-68,1,0,0,response3disk,,4,-2,0,1,0,0,rectangle,-2,0,1,0,0,-2,0,1,0,0,0,127,127,17,1,,,,,,,,
,,,,,,,,,,,,,FF,,,,,,,,1.434,,,,,,,,,,,,,,,,,,,,,,610368de825c5dfea8a60321,61036deed1e815722ce9f197,2021-07-29_23h14.05.213,Simcolourproject_2stim_asymm_v5,2020.2.10,MacIntel,60,61025ae37ef11b136ea224fe,,,,,,,,,2688,72,-38,1,0,0,response3disk,,5,-14,8,1,0,0,rectangle,-14,8,1,0,0,-14,8,1,0,0,0,128,128,52,1,,,,,,,,
,,,,,,,,,,,,,FF,,,,,,,,1.315,,,,,,,,,,,,,,,,,,,,,,610368de825c5dfea8a60321,61036deed1e815722ce9f197,2021-07-29_23h14.05.213,Simcolourproject_2stim_asymm_v5,2020.2.10,MacIntel,60,61025ae37ef11b136ea224fe,,,,,,,,,2555,-46,-67,1,0,0,response5disk,,3,-16,0,1,0,0,rectangle,-16,0,1,0,0,-16,0,1,0,0,0,129,129,126,1,,,,,,,,
,,,,,,,,,,,,,FF,,,,,,,,2.068,,,,,,,,,,,,,,,,,,,,,,610368de825c5dfea8a60321,61036deed1e815722ce9f197,2021-07-29_23h14.05.213,Simcolourproject_2stim_asymm_v5,2020.2.10,MacIntel,60,61025ae37ef11b136ea224fe,,,,,,,,,3018,86,40,1,0,0,response1disk,,6,1,-18,1,0,0,rectangle,1,-18,1,0,0,1,-18,1,0,0,0,130,130,35,1,,,,,,,,
,,,,,,,,,,,,,FF,,,,,,,,1.95,,,,,,,,,,,,,,,,,,,,,,610368de825c5dfea8a60321,61036deed1e815722ce9f197,2021-07-29_23h14.05.213,Simcolourproject_2stim_asymm_v5,2020.2.10,MacIntel,60,61025ae37ef11b136ea224fe,,,,,,,,,4208,-63,-31,1,0,0,response5disk,,2,-23,0,1,0,0,rectangle,-23,0,1,0,0,-23,0,1,0,0,0,131,131,63,1,,,,,,,,
,,,,,,,,,,,,,FF,,,,,,,,1.751,,,,,,,,,,,,,,,,,,,,,,610368de825c5dfea8a60321,61036deed1e815722ce9f197,2021-07-29_23h14.05.213,Simcolourproject_2stim_asymm_v5,2020.2.10,MacIntel,60,61025ae37ef11b136ea224fe,,,,,,,,,2081,92,-31,1,0,0,response3disk,,5,-12,14,1,0,0,rectangle,-12,14,1,0,0,-12,14,1,0,0,0,132,132,56,1,,,,,,,,
,,,,,,,,,,,,,FF,,,,,,,,0.933,,,,,,,,,,,,,,,,,,,,,,610368de825c5dfea8a60321,61036deed1e815722ce9f197,2021-07-29_23h14.05.213,Simcolourproject_2stim_asymm_v5,2020.2.10,MacIntel,60,61025ae37ef11b136ea224fe,,,,,,,,,1524,-71,38,1,0,0,response7disk,,1,-6,-9,1,0,0,rectangle,-6,-9,1,0,0,-6,-9,1,0,0,0,133,133,100,1,,,,,,,,
,,,,,,,,,,,,,FF,,,,,,,,1.117,,,,,,,,,,,,,,,,,,,,,,610368de825c5dfea8a60321,61036deed1e815722ce9f197,2021-07-29_23h14.05.213,Simcolourproject_2stim_asymm_v5,2020.2.10,MacIntel,60,61025ae37ef11b136ea224fe,,,,,,,,,4132,91,32,1,0,0,response1disk,,6,-7,-7,1,0,0,rectangle,-7,-7,1,0,0,-7,-7,1,0,0,0,134,134,9,1,,,,,,,,
,,,,,,,,,,,,,FF,,,,,,,,1.533,,,,,,,,,,,,,,,,,,,,,,610368de825c5dfea8a60321,61036deed1e815722ce9f197,2021-07-29_23h14.05.213,Simcolourproject_2stim_asymm_v5,2020.2.10,MacIntel,60,61025ae37ef11b136ea224fe,,,,,,,,,2208,41,101,1,0,0,response1disk,,7,6,13,1,0,0,rectangle,6,13,1,0,0,6,13,1,0,0,0,135,135,78,1,,,,,,,,
,,,,,,,,,,,,,FF,,,,,,,,2.766,,,,,,,,,,,,,,,,,,,,,,610368de825c5dfea8a60321,61036deed1e815722ce9f197,2021-07-29_23h14.05.213,Simcolourproject_2stim_asymm_v5,2020.2.10,MacIntel,60,61025ae37ef11b136ea224fe,,,,,,,,,566,-31,-80,1,0,0,response5disk,,3,11,6,1,0,0,rectangle,11,6,1,0,0,11,6,1,0,0,0,136,136,37,1,,,,,,,,
,,,,,,,,,,,,,FF,,,,,,,,3.067,,,,,,,,,,,,,,,,,,,,,,610368de825c5dfea8a60321,61036deed1e815722ce9f197,2021-07-29_23h14.05.213,Simcolourproject_2stim_asymm_v5,2020.2.10,MacIntel,60,61025ae37ef11b136ea224fe,,,,,,,,,829,44,-66,1,0,0,response3disk,,4,-6,-8,1,0,0,rectangle,-6,-8,1,0,0,-6,-8,1,0,0,0,137,137,22,1,,,,,,,,
,,,,,,,,,,,,,FF,,,,,,,,2.451,,,,,,,,,,,,,,,,,,,,,,610368de825c5dfea8a60321,61036deed1e815722ce9f197,2021-07-29_23h14.05.213,Simcolourproject_2stim_asymm_v5,2020.2.10,MacIntel,60,61025ae37ef11b136ea224fe,,,,,,,,,297,-41,-70,1,0,0,response5disk,,3,3,3,1,0,0,rectangle,3,3,1,0,0,3,3,1,0,0,0,138,138,67,1,,,,,,,,
,,,,,,,,,,,,,FF,,,,,,,,0.717,,,,,,,,,,,,,,,,,,,,,,610368de825c5dfea8a60321,61036deed1e815722ce9f197,2021-07-29_23h14.05.213,Simcolourproject_2stim_asymm_v5,2020.2.10,MacIntel,60,61025ae37ef11b136ea224fe,,,,,,,,,808,-77,35,1,0,0,response7disk,,1,-11,0,1,0,0,rectangle,-11,0,1,0,0,-11,0,1,0,0,0,139,139,79,1,,,,,,,,
,,,,,,,,,,,,,FF,,,,,,,,1.267,,,,,,,,,,,,,,,,,,,,,,610368de825c5dfea8a60321,61036deed1e815722ce9f197,2021-07-29_23h14.05.213,Simcolourproject_2stim_asymm_v5,2020.2.10,MacIntel,60,61025ae37ef11b136ea224fe,,,,,,,,,953,-41,-84,1,0,0,response5disk,,3,-12,-10,1,0,0,rectangle,-12,-10,1,0,0,-12,-10,1,0,0,0,140,140,29,1,,,,,,,,
,,,,,,,,,,,,,FF,,,,,,,,0.917,,,,,,,,,,,,,,,,,,,,,,610368de825c5dfea8a60321,61036deed1e815722ce9f197,2021-07-29_23h14.05.213,Simcolourproject_2stim_asymm_v5,2020.2.10,MacIntel,60,61025ae37ef11b136ea224fe,,,,,,,,,2253,24,-75,1,0,0,response3disk,,4,0,0,1,0,0,rectangle,0,0,1,0,0,0,0,1,0,0,0,141,141,96,1,,,,,,,,
,,,,,,,,,,,,,FF,,,,,,,,0.867,,,,,,,,,,,,,,,,,,,,,,610368de825c5dfea8a60321,61036deed1e815722ce9f197,2021-07-29_23h14.05.213,Simcolourproject_2stim_asymm_v5,2020.2.10,MacIntel,60,61025ae37ef11b136ea224fe,,,,,,,,,3582,34,75,1,0,0,response1disk,,7,3,-9,1,0,0,rectangle,3,-9,1,0,0,3,-9,1,0,0,0,142,142,45,1,,,,,,,,
,,,,,,,,,,,,,FF,,,,,,,,1.817,,,,,,,,,,,,,,,,,,,,,,610368de825c5dfea8a60321,61036deed1e815722ce9f197,2021-07-29_23h14.05.213,Simcolourproject_2stim_asymm_v5,2020.2.10,MacIntel,60,61025ae37ef11b136ea224fe,,,,,,,,,3010,46,-92,1,0,0,response3disk,,4,-3,-6,1,0,0,rectangle,-3,-6,1,0,0,-3,-6,1,0,0,0,143,143,91,1,,,,,,,,
,,,,,,,,,,,,,FF,,,,,,,,1.416,,,,,,,,,,,,,,,,,,,,,,610368de825c5dfea8a60321,61036deed1e815722ce9f197,2021-07-29_23h14.05.213,Simcolourproject_2stim_asymm_v5,2020.2.10,MacIntel,60,61025ae37ef11b136ea224fe,,,,,,,,,910,91,44,1,0,0,response1disk,,6,23,1,1,0,0,rectangle,23,1,1,0,0,23,1,1,0,0,0,144,144,132,1,,,,,,,,
,,,,,,,,,,,,,FF,,,,,,,,1.284,,,,,,,,,,,,,,,,,,,,,,610368de825c5dfea8a60321,61036deed1e815722ce9f197,2021-07-29_23h14.05.213,Simcolourproject_2stim_asymm_v5,2020.2.10,MacIntel,60,61025ae37ef11b136ea224fe,,,,,,,,,1920,-25,-63,1,0,0,response5disk,,3,5,5,1,0,0,rectangle,5,5,1,0,0,5,5,1,0,0,0,145,145,140,1,,,,,,,,
,,,,,,,,,,,,,FF,,,,,,,,1.033,,,,,,,,,,,,,,,,,,,,,,610368de825c5dfea8a60321,61036deed1e815722ce9f197,2021-07-29_23h14.05.213,Simcolourproject_2stim_asymm_v5,2020.2.10,MacIntel,60,61025ae37ef11b136ea224fe,,,,,,,,,639,-46,-97,1,0,0,response5disk,,3,-3,3,1,0,0,rectangle,-54,-91,1,0,0,0,4,1,0,0,0,146,146,62,1,,response5disk_3,TRUE,3,3,"[147,91,14,194,227,215,155,217,292,11,88,322,27,214,105,229,14,162,303,86]",2.415,rectangle
,,,,,,,,,,,,,FF,,,,,,,,0.882,,,,,,,,,,,,,,,,,,,,,,610368de825c5dfea8a60321,61036deed1e815722ce9f197,2021-07-29_23h14.05.213,Simcolourproject_2stim_asymm_v5,2020.2.10,MacIntel,60,61025ae37ef11b136ea224fe,,,,,,,,,2582,41,-90,1,0,0,response3disk,,4,-9,-1,1,0,0,rectangle,-9,-1,1,0,0,-9,-1,1,0,0,0,147,147,39,1,,,,,,,,
,,,,,,,,,,,,,FF,,,,,,,,1.051,,,,,,,,,,,,,,,,,,,,,,610368de825c5dfea8a60321,61036deed1e815722ce9f197,2021-07-29_23h14.05.213,Simcolourproject_2stim_asymm_v5,2020.2.10,MacIntel,60,61025ae37ef11b136ea224fe,,,,,,,,,1949,98,-43,1,0,0,response3disk,,5,-12,-1,1,0,0,rectangle,-12,-1,1,0,0,-12,-1,1,0,0,0,148,148,138,1,,,,,,,,
,,,,,,,,,,,,,FF,,,,,,,,1.683,,,,,,,,,,,,,,,,,,,,,,610368de825c5dfea8a60321,61036deed1e815722ce9f197,2021-07-29_23h14.05.213,Simcolourproject_2stim_asymm_v5,2020.2.10,MacIntel,60,61025ae37ef11b136ea224fe,,,,,,,,,1191,54,109,1,0,0,response1disk,,7,-9,0,1,0,0,rectangle,-9,0,1,0,0,-9,0,1,0,0,0,149,149,111,1,,,,,,,,
,,,,,,,,,,,,,FF,,,,,,,,2.549,,,,,,,,,,,,,,,,,,,,,,610368de825c5dfea8a60321,61036deed1e815722ce9f197,2021-07-29_23h14.05.213,Simcolourproject_2stim_asymm_v5,2020.2.10,MacIntel,60,61025ae37ef11b136ea224fe,,,,,,,,,2852,22,-59,1,0,0,response3disk,,4,-2,-4,1,0,0,rectangle,-2,-4,1,0,0,-2,-4,1,0,0,0,150,150,122,1,,,,,,,,
,,,,,,,,,,,,,FF,,,,,,,,2.149,,,,,,,,,,,,,,,,,,,,,,610368de825c5dfea8a60321,61036deed1e815722ce9f197,2021-07-29_23h14.05.213,Simcolourproject_2stim_asymm_v5,2020.2.10,MacIntel,60,61025ae37ef11b136ea224fe,,,,,,,,,864,78,-23,1,0,0,response3disk,,5,27,-5,1,0,0,rectangle,27,-5,1,0,0,27,-5,1,0,0,0,151,151,71,1,,,,,,,,
,,,,,,,,,,,,,FF,,,,,,,,1.099,,,,,,,,,,,,,,,,,,,,,,610368de825c5dfea8a60321,61036deed1e815722ce9f197,2021-07-29_23h14.05.213,Simcolourproject_2stim_asymm_v5,2020.2.10,MacIntel,60,61025ae37ef11b136ea224fe,,,,,,,,,1096,38,-103,1,0,0,response3disk,,4,1,-10,1,0,0,rectangle,1,-10,1,0,0,1,-10,1,0,0,0,152,152,47,1,,,,,,,,
,,,,,,,,,,,,,FF,,,,,,,,0.833,,,,,,,,,,,,,,,,,,,,,,610368de825c5dfea8a60321,61036deed1e815722ce9f197,2021-07-29_23h14.05.213,Simcolourproject_2stim_asymm_v5,2020.2.10,MacIntel,60,61025ae37ef11b136ea224fe,,,,,,,,,2801,32,-82,1,0,0,response3disk,,4,-6,4,1,0,0,rectangle,-6,4,1,0,0,-6,4,1,0,0,0,153,153,28,1,,,,,,,,
,,,,,,,,,,,,,FF,,,,,,,,1.516,,,,,,,,,,,,,,,,,,,,,,610368de825c5dfea8a60321,61036deed1e815722ce9f197,2021-07-29_23h14.05.213,Simcolourproject_2stim_asymm_v5,2020.2.10,MacIntel,60,61025ae37ef11b136ea224fe,,,,,,,,,876,30,-86,1,0,0,response3disk,,4,2,0,1,0,0,rectangle,-34,83,1,0,0,5,-6,1,0,0,0,154,154,13,1,,response7disk_3,TRUE,0,0,"[147,91,14,194,227,215,155,217,292,11,88,322,27,214,105,229,14,162,303,86]",1.732,rectangle
,,,,,,,,,,,,,FF,,,,,,,,1.267,,,,,,,,,,,,,,,,,,,,,,610368de825c5dfea8a60321,61036deed1e815722ce9f197,2021-07-29_23h14.05.213,Simcolourproject_2stim_asymm_v5,2020.2.10,MacIntel,60,61025ae37ef11b136ea224fe,,,,,,,,,222,65,-34,1,0,0,response3disk,,5,9,5,1,0,0,rectangle,9,5,1,0,0,9,5,1,0,0,0,155,155,87,1,,,,,,,,
,,,,,,,,,,,,,FF,,,,,,,,2.133,,,,,,,,,,,,,,,,,,,,,,610368de825c5dfea8a60321,61036deed1e815722ce9f197,2021-07-29_23h14.05.213,Simcolourproject_2stim_asymm_v5,2020.2.10,MacIntel,60,61025ae37ef11b136ea224fe,,,,,,,,,3417,-85,21,1,0,0,response7disk,,1,17,-2,1,0,0,rectangle,17,-2,1,0,0,17,-2,1,0,0,0,156,156,81,1,,,,,,,,
,,,,,,,,,,,,,FF,,,,,,,,1.415,,,,,,,,,,,,,,,,,,,,,,610368de825c5dfea8a60321,61036deed1e815722ce9f197,2021-07-29_23h14.05.213,Simcolourproject_2stim_asymm_v5,2020.2.10,MacIntel,60,61025ae37ef11b136ea224fe,,,,,,,,,1585,41,-59,1,0,0,response3disk,,4,16,-2,1,0,0,rectangle,16,-2,1,0,0,16,-2,1,0,0,0,157,157,70,1,,,,,,,,
,,,,,,,,,,,,,FF,,,,,,,,1.001,,,,,,,,,,,,,,,,,,,,,,610368de825c5dfea8a60321,61036deed1e815722ce9f197,2021-07-29_23h14.05.213,Simcolourproject_2stim_asymm_v5,2020.2.10,MacIntel,60,61025ae37ef11b136ea224fe,,,,,,,,,2239,-46,-77,1,0,0,response5disk,,3,-11,-6,1,0,0,rectangle,-11,-6,1,0,0,-11,-6,1,0,0,0,158,158,5,1,,,,,,,,
,,,,,,,,,,,,,FF,,,,,,,,1.1,,,,,,,,,,,,,,,,,,,,,,610368de825c5dfea8a60321,61036deed1e815722ce9f197,2021-07-29_23h14.05.213,Simcolourproject_2stim_asymm_v5,2020.2.10,MacIntel,60,61025ae37ef11b136ea224fe,,,,,,,,,4183,-72,37,1,0,0,response7disk,,1,-15,9,1,0,0,rectangle,-15,9,1,0,0,-15,9,1,0,0,0,159,159,145,1,,,,,,,,
,,,,,,,,,,,,,FF,,,,,,,,1.433,,,,,,,,,,,,,,,,,,,,,,610368de825c5dfea8a60321,61036deed1e815722ce9f197,2021-07-29_23h14.05.213,Simcolourproject_2stim_asymm_v5,2020.2.10,MacIntel,60,61025ae37ef11b136ea224fe,,,,,,,,,2377,25,-88,1,0,0,response3disk,,4,-3,-9,1,0,0,rectangle,-3,-9,1,0,0,-3,-9,1,0,0,1,0,160,78,1,,,,,,,,
,,,,,,,,,,,,,FF,,,,,,,,0.95,,,,,,,,,,,,,,,,,,,,,,610368de825c5dfea8a60321,61036deed1e815722ce9f197,2021-07-29_23h14.05.213,Simcolourproject_2stim_asymm_v5,2020.2.10,MacIntel,60,61025ae37ef11b136ea224fe,,,,,,,,,4219,81,28,1,0,0,response1disk,,6,-1,4,1,0,0,rectangle,-28,73,1,0,0,-8,1,1,0,0,1,1,161,60,1,,response7disk_3,TRUE,0,0,"[147,91,14,194,227,215,155,217,292,11,88,322,27,214,105,229,14,162,303,86]",1.583,rectangle
,,,,,,,,,,,,,FF,,,,,,,,2.65,,,,,,,,,,,,,,,,,,,,,,610368de825c5dfea8a60321,61036deed1e815722ce9f197,2021-07-29_23h14.05.213,Simcolourproject_2stim_asymm_v5,2020.2.10,MacIntel,60,61025ae37ef11b136ea224fe,,,,,,,,,2034,-40,-90,1,0,0,response5disk,,3,2,2,1,0,0,rectangle,2,2,1,0,0,2,2,1,0,0,1,2,162,157,1,,,,,,,,
,,,,,,,,,,,,,FF,,,,,,,,0.833,,,,,,,,,,,,,,,,,,,,,,610368de825c5dfea8a60321,61036deed1e815722ce9f197,2021-07-29_23h14.05.213,Simcolourproject_2stim_asymm_v5,2020.2.10,MacIntel,60,61025ae37ef11b136ea224fe,,,,,,,,,4179,25,69,1,0,0,response1disk,,7,-3,15,1,0,0,rectangle,-3,15,1,0,0,-3,15,1,0,0,1,3,163,81,1,,,,,,,,
,,,,,,,,,,,,,FF,,,,,,,,0.748,,,,,,,,,,,,,,,,,,,,,,610368de825c5dfea8a60321,61036deed1e815722ce9f197,2021-07-29_23h14.05.213,Simcolourproject_2stim_asymm_v5,2020.2.10,MacIntel,60,61025ae37ef11b136ea224fe,,,,,,,,,2307,-51,-82,1,0,0,response5disk,,3,0,-1,1,0,0,rectangle,0,-1,1,0,0,0,-1,1,0,0,1,4,164,112,1,,,,,,,,
,,,,,,,,,,,,,FF,,,,,,,,0.982,,,,,,,,,,,,,,,,,,,,,,610368de825c5dfea8a60321,61036deed1e815722ce9f197,2021-07-29_23h14.05.213,Simcolourproject_2stim_asymm_v5,2020.2.10,MacIntel,60,61025ae37ef11b136ea224fe,,,,,,,,,2282,26,64,1,0,0,response1disk,,7,-5,-2,1,0,0,rectangle,-5,-2,1,0,0,-5,-2,1,0,0,1,5,165,51,1,,,,,,,,
,,,,,,,,,,,,,FF,,,,,,,,0.982,,,,,,,,,,,,,,,,,,,,,,610368de825c5dfea8a60321,61036deed1e815722ce9f197,2021-07-29_23h14.05.213,Simcolourproject_2stim_asymm_v5,2020.2.10,MacIntel,60,61025ae37ef11b136ea224fe,,,,,,,,,243,36,-88,1,0,0,response3disk,,4,2,-8,1,0,0,rectangle,2,-8,1,0,0,2,-8,1,0,0,1,6,166,146,1,,,,,,,,
,,,,,,,,,,,,,FF,,,,,,,,1.249,,,,,,,,,,,,,,,,,,,,,,610368de825c5dfea8a60321,61036deed1e815722ce9f197,2021-07-29_23h14.05.213,Simcolourproject_2stim_asymm_v5,2020.2.10,MacIntel,60,61025ae37ef11b136ea224fe,,,,,,,,,1614,-46,-91,1,0,0,response5disk,,3,12,-3,1,0,0,rectangle,12,-3,1,0,0,12,-3,1,0,0,1,7,167,97,1,,,,,,,,
,,,,,,,,,,,,,FF,,,,,,,,0.733,,,,,,,,,,,,,,,,,,,,,,610368de825c5dfea8a60321,61036deed1e815722ce9f197,2021-07-29_23h14.05.213,Simcolourproject_2stim_asymm_v5,2020.2.10,MacIntel,60,61025ae37ef11b136ea224fe,,,,,,,,,1589,78,-28,1,0,0,response3disk,,5,23,5,1,0,0,rectangle,23,5,1,0,0,23,5,1,0,0,1,8,168,70,1,,,,,,,,
,,,,,,,,,,,,,FF,,,,,,,,0.784,,,,,,,,,,,,,,,,,,,,,,610368de825c5dfea8a60321,61036deed1e815722ce9f197,2021-07-29_23h14.05.213,Simcolourproject_2stim_asymm_v5,2020.2.10,MacIntel,60,61025ae37ef11b136ea224fe,,,,,,,,,3718,84,41,1,0,0,response1disk,,6,0,2,1,0,0,rectangle,0,2,1,0,0,0,2,1,0,0,1,9,169,59,1,,,,,,,,
,,,,,,,,,,,,,FF,,,,,,,,1.067,,,,,,,,,,,,,,,,,,,,,,610368de825c5dfea8a60321,61036deed1e815722ce9f197,2021-07-29_23h14.05.213,Simcolourproject_2stim_asymm_v5,2020.2.10,MacIntel,60,61025ae37ef11b136ea224fe,,,,,,,,,1095,48,86,1,0,0,response1disk,,7,15,0,1,0,0,rectangle,15,0,1,0,0,15,0,1,0,0,1,10,170,10,1,,,,,,,,
,,,,,,,,,,,,,FF,,,,,,,,1.665,,,,,,,,,,,,,,,,,,,,,,610368de825c5dfea8a60321,61036deed1e815722ce9f197,2021-07-29_23h14.05.213,Simcolourproject_2stim_asymm_v5,2020.2.10,MacIntel,60,61025ae37ef11b136ea224fe,,,,,,,,,1422,-44,-77,1,0,0,response5disk,,3,-6,8,1,0,0,rectangle,-6,8,1,0,0,-6,8,1,0,0,1,11,171,16,1,,,,,,,,
,,,,,,,,,,,,,FF,,,,,,,,2.216,,,,,,,,,,,,,,,,,,,,,,610368de825c5dfea8a60321,61036deed1e815722ce9f197,2021-07-29_23h14.05.213,Simcolourproject_2stim_asymm_v5,2020.2.10,MacIntel,60,61025ae37ef11b136ea224fe,,,,,,,,,4078,-80,-36,1,0,0,response5disk,,2,-11,1,1,0,0,rectangle,-11,1,1,0,0,-11,1,1,0,0,1,12,172,113,1,,,,,,,,
,,,,,,,,,,,,,FF,,,,,,,,1.101,,,,,,,,,,,,,,,,,,,,,,610368de825c5dfea8a60321,61036deed1e815722ce9f197,2021-07-29_23h14.05.213,Simcolourproject_2stim_asymm_v5,2020.2.10,MacIntel,60,61025ae37ef11b136ea224fe,,,,,,,,,3127,68,50,1,0,0,response1disk,,6,-23,6,1,0,0,rectangle,-23,6,1,0,0,-23,6,1,0,0,1,13,173,159,1,,,,,,,,
,,,,,,,,,,,,,FF,,,,,,,,1.648,,,,,,,,,,,,,,,,,,,,,,610368de825c5dfea8a60321,61036deed1e815722ce9f197,2021-07-29_23h14.05.213,Simcolourproject_2stim_asymm_v5,2020.2.10,MacIntel,60,61025ae37ef11b136ea224fe,,,,,,,,,3692,77,-64,1,0,0,response3disk,,5,7,8,1,0,0,rectangle,7,8,1,0,0,7,8,1,0,0,1,14,174,150,1,,,,,,,,
,,,,,,,,,,,,,FF,,,,,,,,1.583,,,,,,,,,,,,,,,,,,,,,,610368de825c5dfea8a60321,61036deed1e815722ce9f197,2021-07-29_23h14.05.213,Simcolourproject_2stim_asymm_v5,2020.2.10,MacIntel,60,61025ae37ef11b136ea224fe,,,,,,,,,3908,-42,52,1,0,0,response7disk,,0,-5,2,1,0,0,rectangle,-5,2,1,0,0,-5,2,1,0,0,1,15,175,93,1,,,,,,,,
,,,,,,,,,,,,,FF,,,,,,,,1.148,,,,,,,,,,,,,,,,,,,,,,610368de825c5dfea8a60321,61036deed1e815722ce9f197,2021-07-29_23h14.05.213,Simcolourproject_2stim_asymm_v5,2020.2.10,MacIntel,60,61025ae37ef11b136ea224fe,,,,,,,,,802,-33,51,1,0,0,response7disk,,0,-19,-9,1,0,0,rectangle,-19,-9,1,0,0,-19,-9,1,0,0,1,16,176,61,1,,,,,,,,
,,,,,,,,,,,,,FF,,,,,,,,2.348,,,,,,,,,,,,,,,,,,,,,,610368de825c5dfea8a60321,61036deed1e815722ce9f197,2021-07-29_23h14.05.213,Simcolourproject_2stim_asymm_v5,2020.2.10,MacIntel,60,61025ae37ef11b136ea224fe,,,,,,,,,304,27,-86,1,0,0,response3disk,,4,-16,-9,1,0,0,rectangle,-16,-9,1,0,0,-16,-9,1,0,0,1,17,177,76,1,,,,,,,,
,,,,,,,,,,,,,FF,,,,,,,,0.867,,,,,,,,,,,,,,,,,,,,,,610368de825c5dfea8a60321,61036deed1e815722ce9f197,2021-07-29_23h14.05.213,Simcolourproject_2stim_asymm_v5,2020.2.10,MacIntel,60,61025ae37ef11b136ea224fe,,,,,,,,,113,-52,-74,1,0,0,response5disk,,3,-10,13,1,0,0,rectangle,-10,13,1,0,0,-10,13,1,0,0,1,18,178,136,1,,,,,,,,
,,,,,,,,,,,,,FF,,,,,,,,1.899,,,,,,,,,,,,,,,,,,,,,,610368de825c5dfea8a60321,61036deed1e815722ce9f197,2021-07-29_23h14.05.213,Simcolourproject_2stim_asymm_v5,2020.2.10,MacIntel,60,61025ae37ef11b136ea224fe,,,,,,,,,3250,-33,-77,1,0,0,response5disk,,3,-5,0,1,0,0,rectangle,-5,0,1,0,0,-5,0,1,0,0,1,19,179,3,1,,,,,,,,
,,,,,,,,,,,,,FF,,,,,,,,0.982,,,,,,,,,,,,,,,,,,,,,,610368de825c5dfea8a60321,61036deed1e815722ce9f197,2021-07-29_23h14.05.213,Simcolourproject_2stim_asymm_v5,2020.2.10,MacIntel,60,61025ae37ef11b136ea224fe,,,,,,,,,3448,78,38,1,0,0,response1disk,,6,-3,6,1,0,0,rectangle,-3,6,1,0,0,-3,6,1,0,0,1,20,180,117,1,,,,,,,,
,,,,,,,,,,,,,FF,,,,,,,,0.967,,,,,,,,,,,,,,,,,,,,,,610368de825c5dfea8a60321,61036deed1e815722ce9f197,2021-07-29_23h14.05.213,Simcolourproject_2stim_asymm_v5,2020.2.10,MacIntel,60,61025ae37ef11b136ea224fe,,,,,,,,,715,-28,-69,1,0,0,response5disk,,3,13,9,1,0,0,rectangle,13,9,1,0,0,13,9,1,0,0,1,21,181,106,1,,,,,,,,
,,,,,,,,,,,,,FF,,,,,,,,1.083,,,,,,,,,,,,,,,,,,,,,,610368de825c5dfea8a60321,61036deed1e815722ce9f197,2021-07-29_23h14.05.213,Simcolourproject_2stim_asymm_v5,2020.2.10,MacIntel,60,61025ae37ef11b136ea224fe,,,,,,,,,2474,79,-51,1,0,0,response3disk,,5,1,11,1,0,0,rectangle,1,11,1,0,0,1,11,1,0,0,1,22,182,75,1,,,,,,,,
,,,,,,,,,,,,,FF,,,,,,,,1.031,,,,,,,,,,,,,,,,,,,,,,610368de825c5dfea8a60321,61036deed1e815722ce9f197,2021-07-29_23h14.05.213,Simcolourproject_2stim_asymm_v5,2020.2.10,MacIntel,60,61025ae37ef11b136ea224fe,,,,,,,,,3627,-34,-66,1,0,0,response5disk,,3,-17,-3,1,0,0,rectangle,-17,-3,1,0,0,-17,-3,1,0,0,1,23,183,86,1,,,,,,,,
,,,,,,,,,,,,,FF,,,,,,,,1.365,,,,,,,,,,,,,,,,,,,,,,610368de825c5dfea8a60321,61036deed1e815722ce9f197,2021-07-29_23h14.05.213,Simcolourproject_2stim_asymm_v5,2020.2.10,MacIntel,60,61025ae37ef11b136ea224fe,,,,,,,,,358,78,-29,1,0,0,response3disk,,5,3,5,1,0,0,rectangle,3,5,1,0,0,3,5,1,0,0,1,24,184,0,1,,,,,,,,
,,,,,,,,,,,,,FF,,,,,,,,1.482,,,,,,,,,,,,,,,,,,,,,,610368de825c5dfea8a60321,61036deed1e815722ce9f197,2021-07-29_23h14.05.213,Simcolourproject_2stim_asymm_v5,2020.2.10,MacIntel,60,61025ae37ef11b136ea224fe,,,,,,,,,3544,-82,-26,1,0,0,response5disk,,2,13,-9,1,0,0,rectangle,13,-9,1,0,0,13,-9,1,0,0,1,25,185,110,1,,,,,,,,
,,,,,,,,,,,,,FF,,,,,,,,1.117,,,,,,,,,,,,,,,,,,,,,,610368de825c5dfea8a60321,61036deed1e815722ce9f197,2021-07-29_23h14.05.213,Simcolourproject_2stim_asymm_v5,2020.2.10,MacIntel,60,61025ae37ef11b136ea224fe,,,,,,,,,2943,-78,-27,1,0,0,response5disk,,2,5,8,1,0,0,rectangle,5,8,1,0,0,5,8,1,0,0,1,26,186,13,1,,,,,,,,
,,,,,,,,,,,,,FF,,,,,,,,1.065,,,,,,,,,,,,,,,,,,,,,,610368de825c5dfea8a60321,61036deed1e815722ce9f197,2021-07-29_23h14.05.213,Simcolourproject_2stim_asymm_v5,2020.2.10,MacIntel,60,61025ae37ef11b136ea224fe,,,,,,,,,2627,28,-78,1,0,0,response3disk,,4,4,1,1,0,0,rectangle,4,1,1,0,0,4,1,1,0,0,1,27,187,82,1,,,,,,,,
,,,,,,,,,,,,,FF,,,,,,,,2.667,,,,,,,,,,,,,,,,,,,,,,610368de825c5dfea8a60321,61036deed1e815722ce9f197,2021-07-29_23h14.05.213,Simcolourproject_2stim_asymm_v5,2020.2.10,MacIntel,60,61025ae37ef11b136ea224fe,,,,,,,,,3988,35,-68,1,0,0,response3disk,,4,10,-13,1,0,0,rectangle,10,-13,1,0,0,10,-13,1,0,0,1,28,188,107,1,,,,,,,,
,,,,,,,,,,,,,FF,,,,,,,,0.983,,,,,,,,,,,,,,,,,,,,,,610368de825c5dfea8a60321,61036deed1e815722ce9f197,2021-07-29_23h14.05.213,Simcolourproject_2stim_asymm_v5,2020.2.10,MacIntel,60,61025ae37ef11b136ea224fe,,,,,,,,,659,35,-83,1,0,0,response3disk,,4,-8,9,1,0,0,rectangle,-8,9,1,0,0,-8,9,1,0,0,1,29,189,84,1,,,,,,,,
,,,,,,,,,,,,,FF,,,,,,,,0.85,,,,,,,,,,,,,,,,,,,,,,610368de825c5dfea8a60321,61036deed1e815722ce9f197,2021-07-29_23h14.05.213,Simcolourproject_2stim_asymm_v5,2020.2.10,MacIntel,60,61025ae37ef11b136ea224fe,,,,,,,,,3987,62,-39,1,0,0,response3disk,,5,14,6,1,0,0,rectangle,14,6,1,0,0,14,6,1,0,0,1,30,190,139,1,,,,,,,,
,,,,,,,,,,,,,FF,,,,,,,,1.117,,,,,,,,,,,,,,,,,,,,,,610368de825c5dfea8a60321,61036deed1e815722ce9f197,2021-07-29_23h14.05.213,Simcolourproject_2stim_asymm_v5,2020.2.10,MacIntel,60,61025ae37ef11b136ea224fe,,,,,,,,,1648,76,25,1,0,0,response1disk,,6,-8,-9,1,0,0,rectangle,-8,-9,1,0,0,-8,-9,1,0,0,1,31,191,89,1,,,,,,,,
,,,,,,,,,,,,,FF,,,,,,,,0.966,,,,,,,,,,,,,,,,,,,,,,610368de825c5dfea8a60321,61036deed1e815722ce9f197,2021-07-29_23h14.05.213,Simcolourproject_2stim_asymm_v5,2020.2.10,MacIntel,60,61025ae37ef11b136ea224fe,,,,,,,,,3147,-59,34,1,0,0,response7disk,,1,-9,-3,1,0,0,rectangle,-9,-3,1,0,0,-9,-3,1,0,0,1,32,192,53,1,,,,,,,,
,,,,,,,,,,,,,FF,,,,,,,,1.501,,,,,,,,,,,,,,,,,,,,,,610368de825c5dfea8a60321,61036deed1e815722ce9f197,2021-07-29_23h14.05.213,Simcolourproject_2stim_asymm_v5,2020.2.10,MacIntel,60,61025ae37ef11b136ea224fe,,,,,,,,,3446,35,-54,1,0,0,response3disk,,4,8,5,1,0,0,rectangle,38,86,1,0,0,-6,-12,1,0,0,1,33,193,119,1,,response1disk_3,TRUE,7,7,"[147,91,14,194,227,215,155,217,292,11,88,322,27,214,105,229,14,162,303,86]",1.816,rectangle
,,,,,,,,,,,,,FF,,,,,,,,1.332,,,,,,,,,,,,,,,,,,,,,,610368de825c5dfea8a60321,61036deed1e815722ce9f197,2021-07-29_23h14.05.213,Simcolourproject_2stim_asymm_v5,2020.2.10,MacIntel,60,61025ae37ef11b136ea224fe,,,,,,,,,411,69,-49,1,0,0,response3disk,,5,2,-1,1,0,0,rectangle,2,-1,1,0,0,2,-1,1,0,0,1,34,194,144,1,,,,,,,,
,,,,,,,,,,,,,FF,,,,,,,,4.815,,,,,,,,,,,,,,,,,,,,,,610368de825c5dfea8a60321,61036deed1e815722ce9f197,2021-07-29_23h14.05.213,Simcolourproject_2stim_asymm_v5,2020.2.10,MacIntel,60,61025ae37ef11b136ea224fe,,,,,,,,,2069,30,-70,1,0,0,response3disk,,4,-6,-1,1,0,0,rectangle,-6,-1,1,0,0,-6,-1,1,0,0,1,35,195,30,1,,,,,,,,
,,,,,,,,,,,,,FF,,,,,,,,1.85,,,,,,,,,,,,,,,,,,,,,,610368de825c5dfea8a60321,61036deed1e815722ce9f197,2021-07-29_23h14.05.213,Simcolourproject_2stim_asymm_v5,2020.2.10,MacIntel,60,61025ae37ef11b136ea224fe,,,,,,,,,3253,80,-45,1,0,0,response3disk,,5,-11,15,1,0,0,rectangle,-11,15,1,0,0,-11,15,1,0,0,1,36,196,41,1,,,,,,,,
,,,,,,,,,,,,,FF,,,,,,,,1.05,,,,,,,,,,,,,,,,,,,,,,610368de825c5dfea8a60321,61036deed1e815722ce9f197,2021-07-29_23h14.05.213,Simcolourproject_2stim_asymm_v5,2020.2.10,MacIntel,60,61025ae37ef11b136ea224fe,,,,,,,,,2581,26,90,1,0,0,response1disk,,7,-7,5,1,0,0,rectangle,-7,5,1,0,0,-7,5,1,0,0,1,37,197,118,1,,,,,,,,
,,,,,,,,,,,,,FF,,,,,,,,0.75,,,,,,,,,,,,,,,,,,,,,,610368de825c5dfea8a60321,61036deed1e815722ce9f197,2021-07-29_23h14.05.213,Simcolourproject_2stim_asymm_v5,2020.2.10,MacIntel,60,61025ae37ef11b136ea224fe,,,,,,,,,1278,-38,-59,1,0,0,response5disk,,3,-5,-5,1,0,0,rectangle,-5,-5,1,0,0,-5,-5,1,0,0,1,38,198,152,1,,,,,,,,
,,,,,,,,,,,,,FF,,,,,,,,2.165,,,,,,,,,,,,,,,,,,,,,,610368de825c5dfea8a60321,61036deed1e815722ce9f197,2021-07-29_23h14.05.213,Simcolourproject_2stim_asymm_v5,2020.2.10,MacIntel,60,61025ae37ef11b136ea224fe,,,,,,,,,1512,76,38,1,0,0,response1disk,,6,10,9,1,0,0,rectangle,10,9,1,0,0,10,9,1,0,0,1,39,199,104,1,,,,,,,,
,,,,,,,,,,,,,FF,,,,,,,,1.25,,,,,,,,,,,,,,,,,,,,,,610368de825c5dfea8a60321,61036deed1e815722ce9f197,2021-07-29_23h14.05.213,Simcolourproject_2stim_asymm_v5,2020.2.10,MacIntel,60,61025ae37ef11b136ea224fe,,,,,,,,,2147,48,86,1,0,0,response1disk,,7,18,5,1,0,0,rectangle,18,5,1,0,0,18,5,1,0,0,1,40,200,33,1,,,,,,,,
,,,,,,,,,,,,,FF,,,,,,,,0.982,,,,,,,,,,,,,,,,,,,,,,610368de825c5dfea8a60321,61036deed1e815722ce9f197,2021-07-29_23h14.05.213,Simcolourproject_2stim_asymm_v5,2020.2.10,MacIntel,60,61025ae37ef11b136ea224fe,,,,,,,,,543,-40,84,1,0,0,response7disk,,0,-19,9,1,0,0,rectangle,-19,9,1,0,0,-19,9,1,0,0,1,41,201,38,1,,,,,,,,
,,,,,,,,,,,,,FF,,,,,,,,1.199,,,,,,,,,,,,,,,,,,,,,,610368de825c5dfea8a60321,61036deed1e815722ce9f197,2021-07-29_23h14.05.213,Simcolourproject_2stim_asymm_v5,2020.2.10,MacIntel,60,61025ae37ef11b136ea224fe,,,,,,,,,340,39,-62,1,0,0,response3disk,,4,-21,17,1,0,0,rectangle,-21,17,1,0,0,-21,17,1,0,0,1,42,202,131,1,,,,,,,,
,,,,,,,,,,,,,FF,,,,,,,,1.182,,,,,,,,,,,,,,,,,,,,,,610368de825c5dfea8a60321,61036deed1e815722ce9f197,2021-07-29_23h14.05.213,Simcolourproject_2stim_asymm_v5,2020.2.10,MacIntel,60,61025ae37ef11b136ea224fe,,,,,,,,,1683,-85,-43,1,0,0,response5disk,,2,-8,4,1,0,0,rectangle,-8,4,1,0,0,-8,4,1,0,0,1,43,203,63,1,,,,,,,,
,,,,,,,,,,,,,FF,,,,,,,,0.766,,,,,,,,,,,,,,,,,,,,,,610368de825c5dfea8a60321,61036deed1e815722ce9f197,2021-07-29_23h14.05.213,Simcolourproject_2stim_asymm_v5,2020.2.10,MacIntel,60,61025ae37ef11b136ea224fe,,,,,,,,,268,38,-67,1,0,0,response3disk,,4,-8,4,1,0,0,rectangle,-8,4,1,0,0,-8,4,1,0,0,1,44,204,79,1,,,,,,,,
,,,,,,,,,,,,,FF,,,,,,,,0.87,,,,,,,,,,,,,,,,,,,,,,610368de825c5dfea8a60321,61036deed1e815722ce9f197,2021-07-29_23h14.05.213,Simcolourproject_2stim_asymm_v5,2020.2.10,MacIntel,60,61025ae37ef11b136ea224fe,,,,,,,,,359,69,-37,1,0,0,response3disk,,5,2,-11,1,0,0,rectangle,2,-11,1,0,0,2,-11,1,0,0,1,45,205,29,1,,,,,,,,
,,,,,,,,,,,,,FF,,,,,,,,0.999,,,,,,,,,,,,,,,,,,,,,,610368de825c5dfea8a60321,61036deed1e815722ce9f197,2021-07-29_23h14.05.213,Simcolourproject_2stim_asymm_v5,2020.2.10,MacIntel,60,61025ae37ef11b136ea224fe,,,,,,,,,3583,-94,-53,1,0,0,response5disk,,2,6,8,1,0,0,rectangle,6,8,1,0,0,6,8,1,0,0,1,46,206,149,1,,,,,,,,
,,,,,,,,,,,,,FF,,,,,,,,0.883,,,,,,,,,,,,,,,,,,,,,,610368de825c5dfea8a60321,61036deed1e815722ce9f197,2021-07-29_23h14.05.213,Simcolourproject_2stim_asymm_v5,2020.2.10,MacIntel,60,61025ae37ef11b136ea224fe,,,,,,,,,4095,-39,75,1,0,0,response7disk,,0,-13,2,1,0,0,rectangle,-13,2,1,0,0,-13,2,1,0,0,1,47,207,92,1,,,,,,,,
,,,,,,,,,,,,,FF,,,,,,,,0.983,,,,,,,,,,,,,,,,,,,,,,610368de825c5dfea8a60321,61036deed1e815722ce9f197,2021-07-29_23h14.05.213,Simcolourproject_2stim_asymm_v5,2020.2.10,MacIntel,60,61025ae37ef11b136ea224fe,,,,,,,,,3597,-84,-29,1,0,0,response5disk,,2,-8,-2,1,0,0,rectangle,-8,-2,1,0,0,-8,-2,1,0,0,1,48,208,18,1,,,,,,,,
,,,,,,,,,,,,,FF,,,,,,,,1.549,,,,,,,,,,,,,,,,,,,,,,610368de825c5dfea8a60321,61036deed1e815722ce9f197,2021-07-29_23h14.05.213,Simcolourproject_2stim_asymm_v5,2020.2.10,MacIntel,60,61025ae37ef11b136ea224fe,,,,,,,,,4143,51,-91,1,0,0,response3disk,,4,5,-6,1,0,0,rectangle,5,-6,1,0,0,5,-6,1,0,0,1,49,209,154,1,,,,,,,,
,,,,,,,,,,,,,FF,,,,,,,,1.416,,,,,,,,,,,,,,,,,,,,,,610368de825c5dfea8a60321,61036deed1e815722ce9f197,2021-07-29_23h14.05.213,Simcolourproject_2stim_asymm_v5,2020.2.10,MacIntel,60,61025ae37ef11b136ea224fe,,,,,,,,,2483,104,-54,1,0,0,response3disk,,5,-2,3,1,0,0,rectangle,-2,3,1,0,0,-2,3,1,0,0,1,50,210,109,1,,,,,,,,
,,,,,,,,,,,,,FF,,,,,,,,3.6,,,,,,,,,,,,,,,,,,,,,,610368de825c5dfea8a60321,61036deed1e815722ce9f197,2021-07-29_23h14.05.213,Simcolourproject_2stim_asymm_v5,2020.2.10,MacIntel,60,61025ae37ef11b136ea224fe,,,,,,,,,947,32,-66,1,0,0,response3disk,,4,-12,-5,1,0,0,rectangle,-12,-5,1,0,0,-12,-5,1,0,0,1,51,211,130,1,,,,,,,,
,,,,,,,,,,,,,FF,,,,,,,,0.683,,,,,,,,,,,,,,,,,,,,,,610368de825c5dfea8a60321,61036deed1e815722ce9f197,2021-07-29_23h14.05.213,Simcolourproject_2stim_asymm_v5,2020.2.10,MacIntel,60,61025ae37ef11b136ea224fe,,,,,,,,,889,-48,-80,1,0,0,response5disk,,3,-20,-4,1,0,0,rectangle,-20,-4,1,0,0,-20,-4,1,0,0,1,52,212,138,1,,,,,,,,
,,,,,,,,,,,,,FF,,,,,,,,2.134,,,,,,,,,,,,,,,,,,,,,,610368de825c5dfea8a60321,61036deed1e815722ce9f197,2021-07-29_23h14.05.213,Simcolourproject_2stim_asymm_v5,2020.2.10,MacIntel,60,61025ae37ef11b136ea224fe,,,,,,,,,2596,-39,-76,1,0,0,response5disk,,3,8,-11,1,0,0,rectangle,76,32,1,0,0,3,-6,1,0,0,1,53,213,23,1,,response1disk_3,TRUE,6,6,"[147,91,14,194,227,215,155,217,292,11,88,322,27,214,105,229,14,162,303,86]",1.666,rectangle
,,,,,,,,,,,,,FF,,,,,,,,1.5,,,,,,,,,,,,,,,,,,,,,,610368de825c5dfea8a60321,61036deed1e815722ce9f197,2021-07-29_23h14.05.213,Simcolourproject_2stim_asymm_v5,2020.2.10,MacIntel,60,61025ae37ef11b136ea224fe,,,,,,,,,1276,-24,-47,1,0,0,response5disk,,3,11,4,1,0,0,rectangle,84,-44,1,0,0,1,-3,1,0,0,1,54,214,9,1,,response3disk_3,TRUE,5,5,"[147,91,14,194,227,215,155,217,292,11,88,322,27,214,105,229,14,162,303,86]",2.248,rectangle
,,,,,,,,,,,,,FF,,,,,,,,0.8,,,,,,,,,,,,,,,,,,,,,,610368de825c5dfea8a60321,61036deed1e815722ce9f197,2021-07-29_23h14.05.213,Simcolourproject_2stim_asymm_v5,2020.2.10,MacIntel,60,61025ae37ef11b136ea224fe,,,,,,,,,4157,-32,-72,1,0,0,response5disk,,3,6,0,1,0,0,rectangle,6,0,1,0,0,6,0,1,0,0,1,55,215,129,1,,,,,,,,
,,,,,,,,,,,,,FF,,,,,,,,0.999,,,,,,,,,,,,,,,,,,,,,,610368de825c5dfea8a60321,61036deed1e815722ce9f197,2021-07-29_23h14.05.213,Simcolourproject_2stim_asymm_v5,2020.2.10,MacIntel,60,61025ae37ef11b136ea224fe,,,,,,,,,724,-90,28,1,0,0,response7disk,,1,6,6,1,0,0,rectangle,89,-53,1,0,0,11,-3,1,0,0,1,56,216,37,1,,response3disk_3,TRUE,5,5,"[147,91,14,194,227,215,155,217,292,11,88,322,27,214,105,229,14,162,303,86]",1.699,rectangle
,,,,,,,,,,,,,FF,,,,,,,,0.966,,,,,,,,,,,,,,,,,,,,,,610368de825c5dfea8a60321,61036deed1e815722ce9f197,2021-07-29_23h14.05.213,Simcolourproject_2stim_asymm_v5,2020.2.10,MacIntel,60,61025ae37ef11b136ea224fe,,,,,,,,,1552,61,-35,1,0,0,response3disk,,5,14,-7,1,0,0,rectangle,14,-7,1,0,0,14,-7,1,0,0,1,57,217,32,1,,,,,,,,
,,,,,,,,,,,,,FF,,,,,,,,0.983,,,,,,,,,,,,,,,,,,,,,,610368de825c5dfea8a60321,61036deed1e815722ce9f197,2021-07-29_23h14.05.213,Simcolourproject_2stim_asymm_v5,2020.2.10,MacIntel,60,61025ae37ef11b136ea224fe,,,,,,,,,4199,84,61,1,0,0,response1disk,,6,2,1,1,0,0,rectangle,2,1,1,0,0,2,1,1,0,0,1,58,218,132,1,,,,,,,,
,,,,,,,,,,,,,FF,,,,,,,,1.618,,,,,,,,,,,,,,,,,,,,,,610368de825c5dfea8a60321,61036deed1e815722ce9f197,2021-07-29_23h14.05.213,Simcolourproject_2stim_asymm_v5,2020.2.10,MacIntel,60,61025ae37ef11b136ea224fe,,,,,,,,,3144,81,28,1,0,0,response1disk,,6,16,-4,1,0,0,rectangle,16,-4,1,0,0,16,-4,1,0,0,1,59,219,65,1,,,,,,,,
,,,,,,,,,,,,,FF,,,,,,,,0.866,,,,,,,,,,,,,,,,,,,,,,610368de825c5dfea8a60321,61036deed1e815722ce9f197,2021-07-29_23h14.05.213,Simcolourproject_2stim_asymm_v5,2020.2.10,MacIntel,60,61025ae37ef11b136ea224fe,,,,,,,,,3273,35,86,1,0,0,response1disk,,7,5,5,1,0,0,rectangle,5,5,1,0,0,5,5,1,0,0,1,60,220,108,1,,,,,,,,
,,,,,,,,,,,,,FF,,,,,,,,0.817,,,,,,,,,,,,,,,,,,,,,,610368de825c5dfea8a60321,61036deed1e815722ce9f197,2021-07-29_23h14.05.213,Simcolourproject_2stim_asymm_v5,2020.2.10,MacIntel,60,61025ae37ef11b136ea224fe,,,,,,,,,1579,43,87,1,0,0,response1disk,,7,16,3,1,0,0,rectangle,16,3,1,0,0,16,3,1,0,0,1,61,221,19,1,,,,,,,,
,,,,,,,,,,,,,FF,,,,,,,,1.033,,,,,,,,,,,,,,,,,,,,,,610368de825c5dfea8a60321,61036deed1e815722ce9f197,2021-07-29_23h14.05.213,Simcolourproject_2stim_asymm_v5,2020.2.10,MacIntel,60,61025ae37ef11b136ea224fe,,,,,,,,,2442,-31,-72,1,0,0,response5disk,,3,1,-2,1,0,0,rectangle,1,-2,1,0,0,1,-2,1,0,0,1,62,222,141,1,,,,,,,,
,,,,,,,,,,,,,FF,,,,,,,,0.883,,,,,,,,,,,,,,,,,,,,,,610368de825c5dfea8a60321,61036deed1e815722ce9f197,2021-07-29_23h14.05.213,Simcolourproject_2stim_asymm_v5,2020.2.10,MacIntel,60,61025ae37ef11b136ea224fe,,,,,,,,,957,29,-63,1,0,0,response3disk,,4,2,-10,1,0,0,rectangle,2,-10,1,0,0,2,-10,1,0,0,1,63,223,54,1,,,,,,,,
,,,,,,,,,,,,,FF,,,,,,,,1.982,,,,,,,,,,,,,,,,,,,,,,610368de825c5dfea8a60321,61036deed1e815722ce9f197,2021-07-29_23h14.05.213,Simcolourproject_2stim_asymm_v5,2020.2.10,MacIntel,60,61025ae37ef11b136ea224fe,,,,,,,,,2850,48,-33,1,0,0,response3disk,,5,9,-15,1,0,0,rectangle,9,-15,1,0,0,9,-15,1,0,0,1,64,224,6,1,,,,,,,,
,,,,,,,,,,,,,FF,,,,,,,,0.799,,,,,,,,,,,,,,,,,,,,,,610368de825c5dfea8a60321,61036deed1e815722ce9f197,2021-07-29_23h14.05.213,Simcolourproject_2stim_asymm_v5,2020.2.10,MacIntel,60,61025ae37ef11b136ea224fe,,,,,,,,,149,72,-32,1,0,0,response3disk,,5,1,1,1,0,0,rectangle,1,1,1,0,0,1,1,1,0,0,1,65,225,96,1,,,,,,,,
,,,,,,,,,,,,,FF,,,,,,,,0.932,,,,,,,,,,,,,,,,,,,,,,610368de825c5dfea8a60321,61036deed1e815722ce9f197,2021-07-29_23h14.05.213,Simcolourproject_2stim_asymm_v5,2020.2.10,MacIntel,60,61025ae37ef11b136ea224fe,,,,,,,,,4344,-56,72,1,0,0,response7disk,,0,-24,1,1,0,0,rectangle,-36,90,1,0,0,-4,-7,1,0,0,1,66,226,58,1,,response7disk_3,TRUE,0,0,"[147,91,14,194,227,215,155,217,292,11,88,322,27,214,105,229,14,162,303,86]",1.348,rectangle
,,,,,,,,,,,,,FF,,,,,,,,0.85,,,,,,,,,,,,,,,,,,,,,,610368de825c5dfea8a60321,61036deed1e815722ce9f197,2021-07-29_23h14.05.213,Simcolourproject_2stim_asymm_v5,2020.2.10,MacIntel,60,61025ae37ef11b136ea224fe,,,,,,,,,2906,-69,-45,1,0,0,response5disk,,2,16,-6,1,0,0,rectangle,16,-6,1,0,0,16,-6,1,0,0,1,67,227,35,1,,,,,,,,
,,,,,,,,,,,,,FF,,,,,,,,0.866,,,,,,,,,,,,,,,,,,,,,,610368de825c5dfea8a60321,61036deed1e815722ce9f197,2021-07-29_23h14.05.213,Simcolourproject_2stim_asymm_v5,2020.2.10,MacIntel,60,61025ae37ef11b136ea224fe,,,,,,,,,1166,-48,-90,1,0,0,response5disk,,3,5,6,1,0,0,rectangle,-88,-46,1,0,0,-3,3,1,0,0,1,68,228,31,1,,response5disk_3,TRUE,2,2,"[147,91,14,194,227,215,155,217,292,11,88,322,27,214,105,229,14,162,303,86]",2.182,rectangle
,,,,,,,,,,,,,FF,,,,,,,,1.433,,,,,,,,,,,,,,,,,,,,,,610368de825c5dfea8a60321,61036deed1e815722ce9f197,2021-07-29_23h14.05.213,Simcolourproject_2stim_asymm_v5,2020.2.10,MacIntel,60,61025ae37ef11b136ea224fe,,,,,,,,,81,-79,-50,1,0,0,response5disk,,2,4,-5,1,0,0,rectangle,4,-5,1,0,0,4,-5,1,0,0,1,69,229,57,1,,,,,,,,
,,,,,,,,,,,,,FF,,,,,,,,0.716,,,,,,,,,,,,,,,,,,,,,,610368de825c5dfea8a60321,61036deed1e815722ce9f197,2021-07-29_23h14.05.213,Simcolourproject_2stim_asymm_v5,2020.2.10,MacIntel,60,61025ae37ef11b136ea224fe,,,,,,,,,1480,-23,-82,1,0,0,response5disk,,3,1,-8,1,0,0,rectangle,1,-8,1,0,0,1,-8,1,0,0,1,70,230,90,1,,,,,,,,
,,,,,,,,,,,,,FF,,,,,,,,1.117,,,,,,,,,,,,,,,,,,,,,,610368de825c5dfea8a60321,61036deed1e815722ce9f197,2021-07-29_23h14.05.213,Simcolourproject_2stim_asymm_v5,2020.2.10,MacIntel,60,61025ae37ef11b136ea224fe,,,,,,,,,1857,86,-48,1,0,0,response3disk,,5,-1,4,1,0,0,rectangle,-1,4,1,0,0,-1,4,1,0,0,1,71,231,98,1,,,,,,,,
,,,,,,,,,,,,,FF,,,,,,,,0.833,,,,,,,,,,,,,,,,,,,,,,610368de825c5dfea8a60321,61036deed1e815722ce9f197,2021-07-29_23h14.05.213,Simcolourproject_2stim_asymm_v5,2020.2.10,MacIntel,60,61025ae37ef11b136ea224fe,,,,,,,,,1005,75,-41,1,0,0,response3disk,,5,10,-6,1,0,0,rectangle,10,-6,1,0,0,10,-6,1,0,0,1,72,232,115,1,,,,,,,,
,,,,,,,,,,,,,FF,,,,,,,,0.684,,,,,,,,,,,,,,,,,,,,,,610368de825c5dfea8a60321,61036deed1e815722ce9f197,2021-07-29_23h14.05.213,Simcolourproject_2stim_asymm_v5,2020.2.10,MacIntel,60,61025ae37ef11b136ea224fe,,,,,,,,,1155,69,24,1,0,0,response1disk,,6,-13,-13,1,0,0,rectangle,-13,-13,1,0,0,-13,-13,1,0,0,1,73,233,153,1,,,,,,,,
,,,,,,,,,,,,,FF,,,,,,,,0.883,,,,,,,,,,,,,,,,,,,,,,610368de825c5dfea8a60321,61036deed1e815722ce9f197,2021-07-29_23h14.05.213,Simcolourproject_2stim_asymm_v5,2020.2.10,MacIntel,60,61025ae37ef11b136ea224fe,,,,,,,,,2789,-64,40,1,0,0,response7disk,,1,2,7,1,0,0,rectangle,2,7,1,0,0,2,7,1,0,0,1,74,234,135,1,,,,,,,,
,,,,,,,,,,,,,FF,,,,,,,,0.667,,,,,,,,,,,,,,,,,,,,,,610368de825c5dfea8a60321,61036deed1e815722ce9f197,2021-07-29_23h14.05.213,Simcolourproject_2stim_asymm_v5,2020.2.10,MacIntel,60,61025ae37ef11b136ea224fe,,,,,,,,,3362,-51,-78,1,0,0,response5disk,,3,-8,-1,1,0,0,rectangle,-8,-1,1,0,0,-8,-1,1,0,0,1,75,235,43,1,,,,,,,,
,,,,,,,,,,,,,FF,,,,,,,,0.9,,,,,,,,,,,,,,,,,,,,,,610368de825c5dfea8a60321,61036deed1e815722ce9f197,2021-07-29_23h14.05.213,Simcolourproject_2stim_asymm_v5,2020.2.10,MacIntel,60,61025ae37ef11b136ea224fe,,,,,,,,,1962,-67,-33,1,0,0,response5disk,,2,12,-2,1,0,0,rectangle,12,-2,1,0,0,12,-2,1,0,0,1,76,236,44,1,,,,,,,,
,,,,,,,,,,,,,FF,,,,,,,,0.9,,,,,,,,,,,,,,,,,,,,,,610368de825c5dfea8a60321,61036deed1e815722ce9f197,2021-07-29_23h14.05.213,Simcolourproject_2stim_asymm_v5,2020.2.10,MacIntel,60,61025ae37ef11b136ea224fe,,,,,,,,,3910,-56,29,1,0,0,response7disk,,1,25,-3,1,0,0,rectangle,25,-3,1,0,0,25,-3,1,0,0,1,77,237,145,1,,,,,,,,
,,,,,,,,,,,,,FF,,,,,,,,1.483,,,,,,,,,,,,,,,,,,,,,,610368de825c5dfea8a60321,61036deed1e815722ce9f197,2021-07-29_23h14.05.213,Simcolourproject_2stim_asymm_v5,2020.2.10,MacIntel,60,61025ae37ef11b136ea224fe,,,,,,,,,3679,36,-85,1,0,0,response3disk,,4,4,2,1,0,0,rectangle,4,2,1,0,0,4,2,1,0,0,1,78,238,83,1,,,,,,,,
,,,,,,,,,,,,,FF,,,,,,,,0.899,,,,,,,,,,,,,,,,,,,,,,610368de825c5dfea8a60321,61036deed1e815722ce9f197,2021-07-29_23h14.05.213,Simcolourproject_2stim_asymm_v5,2020.2.10,MacIntel,60,61025ae37ef11b136ea224fe,,,,,,,,,815,-56,-29,1,0,0,response5disk,,2,2,-1,1,0,0,rectangle,2,-1,1,0,0,2,-1,1,0,0,1,79,239,142,1,,,,,,,,
,,,,,,,,,,,,,FF,,,,,,,,1.434,,,,,,,,,,,,,,,,,,,,,,610368de825c5dfea8a60321,61036deed1e815722ce9f197,2021-07-29_23h14.05.213,Simcolourproject_2stim_asymm_v5,2020.2.10,MacIntel,60,61025ae37ef11b136ea224fe,,,,,,,,,4364,-70,-39,1,0,0,response5disk,,2,-3,4,1,0,0,rectangle,-3,4,1,0,0,-3,4,1,0,0,1,80,240,28,1,,,,,,,,
,,,,,,,,,,,,,FF,,,,,,,,2.701,,,,,,,,,,,,,,,,,,,,,,610368de825c5dfea8a60321,61036deed1e815722ce9f197,2021-07-29_23h14.05.213,Simcolourproject_2stim_asymm_v5,2020.2.10,MacIntel,60,61025ae37ef11b136ea224fe,,,,,,,,,4317,50,-71,1,0,0,response3disk,,4,-11,-2,1,0,0,rectangle,-11,-2,1,0,0,-11,-2,1,0,0,1,81,241,102,1,,,,,,,,
,,,,,,,,,,,,,FF,,,,,,,,1.682,,,,,,,,,,,,,,,,,,,,,,610368de825c5dfea8a60321,61036deed1e815722ce9f197,2021-07-29_23h14.05.213,Simcolourproject_2stim_asymm_v5,2020.2.10,MacIntel,60,61025ae37ef11b136ea224fe,,,,,,,,,3640,94,27,1,0,0,response1disk,,6,19,-13,1,0,0,rectangle,19,-13,1,0,0,19,-13,1,0,0,1,82,242,91,1,,,,,,,,
,,,,,,,,,,,,,FF,,,,,,,,1.299,,,,,,,,,,,,,,,,,,,,,,610368de825c5dfea8a60321,61036deed1e815722ce9f197,2021-07-29_23h14.05.213,Simcolourproject_2stim_asymm_v5,2020.2.10,MacIntel,60,61025ae37ef11b136ea224fe,,,,,,,,,3957,33,-64,1,0,0,response3disk,,4,-2,-6,1,0,0,rectangle,-2,-6,1,0,0,-2,-6,1,0,0,1,83,243,25,1,,,,,,,,
,,,,,,,,,,,,,FF,,,,,,,,2.334,,,,,,,,,,,,,,,,,,,,,,610368de825c5dfea8a60321,61036deed1e815722ce9f197,2021-07-29_23h14.05.213,Simcolourproject_2stim_asymm_v5,2020.2.10,MacIntel,60,61025ae37ef11b136ea224fe,,,,,,,,,1775,-52,-80,1,0,0,response5disk,,3,-11,-1,1,0,0,rectangle,-11,-1,1,0,0,-11,-1,1,0,0,1,84,244,68,1,,,,,,,,
,,,,,,,,,,,,,FF,,,,,,,,1.032,,,,,,,,,,,,,,,,,,,,,,610368de825c5dfea8a60321,61036deed1e815722ce9f197,2021-07-29_23h14.05.213,Simcolourproject_2stim_asymm_v5,2020.2.10,MacIntel,60,61025ae37ef11b136ea224fe,,,,,,,,,763,-43,-106,1,0,0,response5disk,,3,-3,-1,1,0,0,rectangle,-3,-1,1,0,0,-3,-1,1,0,0,1,85,245,72,1,,,,,,,,
,,,,,,,,,,,,,FF,,,,,,,,0.615,,,,,,,,,,,,,,,,,,,,,,610368de825c5dfea8a60321,61036deed1e815722ce9f197,2021-07-29_23h14.05.213,Simcolourproject_2stim_asymm_v5,2020.2.10,MacIntel,60,61025ae37ef11b136ea224fe,,,,,,,,,3009,-67,-100,1,0,0,response5disk,,3,8,6,1,0,0,rectangle,8,6,1,0,0,8,6,1,0,0,1,86,246,14,1,,,,,,,,
,,,,,,,,,,,,,FF,,,,,,,,1.266,,,,,,,,,,,,,,,,,,,,,,610368de825c5dfea8a60321,61036deed1e815722ce9f197,2021-07-29_23h14.05.213,Simcolourproject_2stim_asymm_v5,2020.2.10,MacIntel,60,61025ae37ef11b136ea224fe,,,,,,,,,2362,-79,-30,1,0,0,response5disk,,2,-12,7,1,0,0,rectangle,-12,7,1,0,0,-12,7,1,0,0,1,87,247,114,1,,,,,,,,
,,,,,,,,,,,,,FF,,,,,,,,1.033,,,,,,,,,,,,,,,,,,,,,,610368de825c5dfea8a60321,61036deed1e815722ce9f197,2021-07-29_23h14.05.213,Simcolourproject_2stim_asymm_v5,2020.2.10,MacIntel,60,61025ae37ef11b136ea224fe,,,,,,,,,3192,28,-65,1,0,0,response3disk,,4,0,-1,1,0,0,rectangle,0,-1,1,0,0,0,-1,1,0,0,1,88,248,40,1,,,,,,,,
,,,,,,,,,,,,,FF,,,,,,,,0.783,,,,,,,,,,,,,,,,,,,,,,610368de825c5dfea8a60321,61036deed1e815722ce9f197,2021-07-29_23h14.05.213,Simcolourproject_2stim_asymm_v5,2020.2.10,MacIntel,60,61025ae37ef11b136ea224fe,,,,,,,,,2083,78,-32,1,0,0,response3disk,,5,13,0,1,0,0,rectangle,13,0,1,0,0,13,0,1,0,0,1,89,249,105,1,,,,,,,,
,,,,,,,,,,,,,FF,,,,,,,,0.799,,,,,,,,,,,,,,,,,,,,,,610368de825c5dfea8a60321,61036deed1e815722ce9f197,2021-07-29_23h14.05.213,Simcolourproject_2stim_asymm_v5,2020.2.10,MacIntel,60,61025ae37ef11b136ea224fe,,,,,,,,,936,100,31,1,0,0,response1disk,,6,-16,1,1,0,0,rectangle,-16,1,1,0,0,-16,1,1,0,0,1,90,250,143,1,,,,,,,,
,,,,,,,,,,,,,FF,,,,,,,,1.1,,,,,,,,,,,,,,,,,,,,,,610368de825c5dfea8a60321,61036deed1e815722ce9f197,2021-07-29_23h14.05.213,Simcolourproject_2stim_asymm_v5,2020.2.10,MacIntel,60,61025ae37ef11b136ea224fe,,,,,,,,,1532,-44,-70,1,0,0,response5disk,,3,2,-8,1,0,0,rectangle,2,-8,1,0,0,2,-8,1,0,0,1,91,251,125,1,,,,,,,,
,,,,,,,,,,,,,FF,,,,,,,,1.017,,,,,,,,,,,,,,,,,,,,,,610368de825c5dfea8a60321,61036deed1e815722ce9f197,2021-07-29_23h14.05.213,Simcolourproject_2stim_asymm_v5,2020.2.10,MacIntel,60,61025ae37ef11b136ea224fe,,,,,,,,,4304,35,-74,1,0,0,response3disk,,4,3,-11,1,0,0,rectangle,3,-11,1,0,0,3,-11,1,0,0,1,92,252,47,1,,,,,,,,
,,,,,,,,,,,,,FF,,,,,,,,1.663,,,,,,,,,,,,,,,,,,,,,,610368de825c5dfea8a60321,61036deed1e815722ce9f197,2021-07-29_23h14.05.213,Simcolourproject_2stim_asymm_v5,2020.2.10,MacIntel,60,61025ae37ef11b136ea224fe,,,,,,,,,2804,61,-34,1,0,0,response3disk,,5,-1,13,1,0,0,rectangle,-1,13,1,0,0,-1,13,1,0,0,1,93,253,7,1,,,,,,,,
,,,,,,,,,,,,,FF,,,,,,,,1.099,,,,,,,,,,,,,,,,,,,,,,610368de825c5dfea8a60321,61036deed1e815722ce9f197,2021-07-29_23h14.05.213,Simcolourproject_2stim_asymm_v5,2020.2.10,MacIntel,60,61025ae37ef11b136ea224fe,,,,,,,,,2669,-88,-28,1,0,0,response5disk,,2,5,11,1,0,0,rectangle,5,11,1,0,0,5,11,1,0,0,1,94,254,42,1,,,,,,,,
,,,,,,,,,,,,,FF,,,,,,,,2.381,,,,,,,,,,,,,,,,,,,,,,610368de825c5dfea8a60321,61036deed1e815722ce9f197,2021-07-29_23h14.05.213,Simcolourproject_2stim_asymm_v5,2020.2.10,MacIntel,60,61025ae37ef11b136ea224fe,,,,,,,,,4081,-55,-83,1,0,0,response5disk,,3,-3,-7,1,0,0,rectangle,-3,-7,1,0,0,-3,-7,1,0,0,1,95,255,27,1,,,,,,,,
,,,,,,,,,,,,,FF,,,,,,,,1.016,,,,,,,,,,,,,,,,,,,,,,610368de825c5dfea8a60321,61036deed1e815722ce9f197,2021-07-29_23h14.05.213,Simcolourproject_2stim_asymm_v5,2020.2.10,MacIntel,60,61025ae37ef11b136ea224fe,,,,,,,,,2521,89,60,1,0,0,response1disk,,6,-23,6,1,0,0,rectangle,-23,6,1,0,0,-23,6,1,0,0,1,96,256,140,1,,,,,,,,
,,,,,,,,,,,,,FF,,,,,,,,1.517,,,,,,,,,,,,,,,,,,,,,,610368de825c5dfea8a60321,61036deed1e815722ce9f197,2021-07-29_23h14.05.213,Simcolourproject_2stim_asymm_v5,2020.2.10,MacIntel,60,61025ae37ef11b136ea224fe,,,,,,,,,2506,57,27,1,0,0,response1disk,,6,-3,-1,1,0,0,rectangle,-3,-1,1,0,0,-3,-1,1,0,0,1,97,257,5,1,,,,,,,,
,,,,,,,,,,,,,FF,,,,,,,,0.816,,,,,,,,,,,,,,,,,,,,,,610368de825c5dfea8a60321,61036deed1e815722ce9f197,2021-07-29_23h14.05.213,Simcolourproject_2stim_asymm_v5,2020.2.10,MacIntel,60,61025ae37ef11b136ea224fe,,,,,,,,,2197,78,37,1,0,0,response1disk,,6,19,0,1,0,0,rectangle,19,0,1,0,0,19,0,1,0,0,1,98,258,20,1,,,,,,,,
,,,,,,,,,,,,,FF,,,,,,,,1.767,,,,,,,,,,,,,,,,,,,,,,610368de825c5dfea8a60321,61036deed1e815722ce9f197,2021-07-29_23h14.05.213,Simcolourproject_2stim_asymm_v5,2020.2.10,MacIntel,60,61025ae37ef11b136ea224fe,,,,,,,,,3928,69,-44,1,0,0,response3disk,,5,3,8,1,0,0,rectangle,3,8,1,0,0,3,8,1,0,0,1,99,259,15,1,,,,,,,,
,,,,,,,,,,,,,FF,,,,,,,,0.683,,,,,,,,,,,,,,,,,,,,,,610368de825c5dfea8a60321,61036deed1e815722ce9f197,2021-07-29_23h14.05.213,Simcolourproject_2stim_asymm_v5,2020.2.10,MacIntel,60,61025ae37ef11b136ea224fe,,,,,,,,,886,-67,33,1,0,0,response7disk,,1,14,2,1,0,0,rectangle,14,2,1,0,0,14,2,1,0,0,1,100,260,74,1,,,,,,,,
,,,,,,,,,,,,,FF,,,,,,,,1.399,,,,,,,,,,,,,,,,,,,,,,610368de825c5dfea8a60321,61036deed1e815722ce9f197,2021-07-29_23h14.05.213,Simcolourproject_2stim_asymm_v5,2020.2.10,MacIntel,60,61025ae37ef11b136ea224fe,,,,,,,,,2896,-70,-50,1,0,0,response5disk,,2,5,1,1,0,0,rectangle,5,1,1,0,0,5,1,1,0,0,1,101,261,64,1,,,,,,,,
,,,,,,,,,,,,,FF,,,,,,,,1.366,,,,,,,,,,,,,,,,,,,,,,610368de825c5dfea8a60321,61036deed1e815722ce9f197,2021-07-29_23h14.05.213,Simcolourproject_2stim_asymm_v5,2020.2.10,MacIntel,60,61025ae37ef11b136ea224fe,,,,,,,,,2123,79,-38,1,0,0,response3disk,,5,-28,-3,1,0,0,rectangle,-28,-3,1,0,0,-28,-3,1,0,0,1,102,262,2,1,,,,,,,,
,,,,,,,,,,,,,FF,,,,,,,,1.632,,,,,,,,,,,,,,,,,,,,,,610368de825c5dfea8a60321,61036deed1e815722ce9f197,2021-07-29_23h14.05.213,Simcolourproject_2stim_asymm_v5,2020.2.10,MacIntel,60,61025ae37ef11b136ea224fe,,,,,,,,,2656,81,-49,1,0,0,response3disk,,5,8,-1,1,0,0,rectangle,8,-1,1,0,0,8,-1,1,0,0,1,103,263,126,1,,,,,,,,
,,,,,,,,,,,,,FF,,,,,,,,0.934,,,,,,,,,,,,,,,,,,,,,,610368de825c5dfea8a60321,61036deed1e815722ce9f197,2021-07-29_23h14.05.213,Simcolourproject_2stim_asymm_v5,2020.2.10,MacIntel,60,61025ae37ef11b136ea224fe,,,,,,,,,2149,56,87,1,0,0,response1disk,,7,-7,-4,1,0,0,rectangle,-7,-4,1,0,0,-7,-4,1,0,0,1,104,264,4,1,,,,,,,,
,,,,,,,,,,,,,FF,,,,,,,,1.816,,,,,,,,,,,,,,,,,,,,,,610368de825c5dfea8a60321,61036deed1e815722ce9f197,2021-07-29_23h14.05.213,Simcolourproject_2stim_asymm_v5,2020.2.10,MacIntel,60,61025ae37ef11b136ea224fe,,,,,,,,,83,41,-82,1,0,0,response3disk,,4,-2,6,1,0,0,rectangle,-2,6,1,0,0,-2,6,1,0,0,1,105,265,11,1,,,,,,,,
,,,,,,,,,,,,,FF,,,,,,,,1.266,,,,,,,,,,,,,,,,,,,,,,610368de825c5dfea8a60321,61036deed1e815722ce9f197,2021-07-29_23h14.05.213,Simcolourproject_2stim_asymm_v5,2020.2.10,MacIntel,60,61025ae37ef11b136ea224fe,,,,,,,,,2615,-61,-91,1,0,0,response5disk,,3,-2,5,1,0,0,rectangle,-2,5,1,0,0,-2,5,1,0,0,1,106,266,56,1,,,,,,,,
,,,,,,,,,,,,,FF,,,,,,,,0.801,,,,,,,,,,,,,,,,,,,,,,610368de825c5dfea8a60321,61036deed1e815722ce9f197,2021-07-29_23h14.05.213,Simcolourproject_2stim_asymm_v5,2020.2.10,MacIntel,60,61025ae37ef11b136ea224fe,,,,,,,,,2334,36,-93,1,0,0,response3disk,,4,-3,-1,1,0,0,rectangle,-3,-1,1,0,0,-3,-1,1,0,0,1,107,267,50,1,,,,,,,,
,,,,,,,,,,,,,FF,,,,,,,,0.684,,,,,,,,,,,,,,,,,,,,,,610368de825c5dfea8a60321,61036deed1e815722ce9f197,2021-07-29_23h14.05.213,Simcolourproject_2stim_asymm_v5,2020.2.10,MacIntel,60,61025ae37ef11b136ea224fe,,,,,,,,,3346,-41,-74,1,0,0,response5disk,,3,-11,-4,1,0,0,rectangle,-11,-4,1,0,0,-11,-4,1,0,0,1,108,268,52,1,,,,,,,,
,,,,,,,,,,,,,FF,,,,,,,,1.633,,,,,,,,,,,,,,,,,,,,,,610368de825c5dfea8a60321,61036deed1e815722ce9f197,2021-07-29_23h14.05.213,Simcolourproject_2stim_asymm_v5,2020.2.10,MacIntel,60,61025ae37ef11b136ea224fe,,,,,,,,,1909,-45,-78,1,0,0,response5disk,,3,-5,-6,1,0,0,rectangle,-5,-6,1,0,0,-5,-6,1,0,0,1,109,269,22,1,,,,,,,,
,,,,,,,,,,,,,FF,,,,,,,,0.8,,,,,,,,,,,,,,,,,,,,,,610368de825c5dfea8a60321,61036deed1e815722ce9f197,2021-07-29_23h14.05.213,Simcolourproject_2stim_asymm_v5,2020.2.10,MacIntel,60,61025ae37ef11b136ea224fe,,,,,,,,,1143,39,-70,1,0,0,response3disk,,4,1,-1,1,0,0,rectangle,1,-1,1,0,0,1,-1,1,0,0,1,110,270,24,1,,,,,,,,
,,,,,,,,,,,,,FF,,,,,,,,1.434,,,,,,,,,,,,,,,,,,,,,,610368de825c5dfea8a60321,61036deed1e815722ce9f197,2021-07-29_23h14.05.213,Simcolourproject_2stim_asymm_v5,2020.2.10,MacIntel,60,61025ae37ef11b136ea224fe,,,,,,,,,2714,-41,-83,1,0,0,response5disk,,3,-13,-2,1,0,0,rectangle,-13,-2,1,0,0,-13,-2,1,0,0,1,111,271,103,1,,,,,,,,
,,,,,,,,,,,,,FF,,,,,,,,1.25,,,,,,,,,,,,,,,,,,,,,,610368de825c5dfea8a60321,61036deed1e815722ce9f197,2021-07-29_23h14.05.213,Simcolourproject_2stim_asymm_v5,2020.2.10,MacIntel,60,61025ae37ef11b136ea224fe,,,,,,,,,1609,-92,39,1,0,0,response7disk,,1,2,7,1,0,0,rectangle,2,7,1,0,0,2,7,1,0,0,1,112,272,67,1,,,,,,,,
,,,,,,,,,,,,,FF,,,,,,,,1.283,,,,,,,,,,,,,,,,,,,,,,610368de825c5dfea8a60321,61036deed1e815722ce9f197,2021-07-29_23h14.05.213,Simcolourproject_2stim_asymm_v5,2020.2.10,MacIntel,60,61025ae37ef11b136ea224fe,,,,,,,,,365,86,56,1,0,0,response1disk,,6,16,6,1,0,0,rectangle,16,6,1,0,0,16,6,1,0,0,1,113,273,12,1,,,,,,,,
,,,,,,,,,,,,,FF,,,,,,,,0.767,,,,,,,,,,,,,,,,,,,,,,610368de825c5dfea8a60321,61036deed1e815722ce9f197,2021-07-29_23h14.05.213,Simcolourproject_2stim_asymm_v5,2020.2.10,MacIntel,60,61025ae37ef11b136ea224fe,,,,,,,,,3370,35,87,1,0,0,response1disk,,7,-15,15,1,0,0,rectangle,-15,15,1,0,0,-15,15,1,0,0,1,114,274,8,1,,,,,,,,
,,,,,,,,,,,,,FF,,,,,,,,1.683,,,,,,,,,,,,,,,,,,,,,,610368de825c5dfea8a60321,61036deed1e815722ce9f197,2021-07-29_23h14.05.213,Simcolourproject_2stim_asymm_v5,2020.2.10,MacIntel,60,61025ae37ef11b136ea224fe,,,,,,,,,2044,-42,-72,1,0,0,response5disk,,3,10,7,1,0,0,rectangle,10,7,1,0,0,10,7,1,0,0,1,115,275,62,1,,,,,,,,
,,,,,,,,,,,,,FF,,,,,,,,1.016,,,,,,,,,,,,,,,,,,,,,,610368de825c5dfea8a60321,61036deed1e815722ce9f197,2021-07-29_23h14.05.213,Simcolourproject_2stim_asymm_v5,2020.2.10,MacIntel,60,61025ae37ef11b136ea224fe,,,,,,,,,2864,90,-43,1,0,0,response3disk,,5,2,-1,1,0,0,rectangle,2,-1,1,0,0,2,-1,1,0,0,1,116,276,88,1,,,,,,,,
,,,,,,,,,,,,,FF,,,,,,,,2.385,,,,,,,,,,,,,,,,,,,,,,610368de825c5dfea8a60321,61036deed1e815722ce9f197,2021-07-29_23h14.05.213,Simcolourproject_2stim_asymm_v5,2020.2.10,MacIntel,60,61025ae37ef11b136ea224fe,,,,,,,,,360,86,30,1,0,0,response1disk,,6,3,-2,1,0,0,rectangle,3,-2,1,0,0,3,-2,1,0,0,1,117,277,48,1,,,,,,,,
,,,,,,,,,,,,,FF,,,,,,,,1.699,,,,,,,,,,,,,,,,,,,,,,610368de825c5dfea8a60321,61036deed1e815722ce9f197,2021-07-29_23h14.05.213,Simcolourproject_2stim_asymm_v5,2020.2.10,MacIntel,60,61025ae37ef11b136ea224fe,,,,,,,,,3848,26,-88,1,0,0,response3disk,,4,-19,-1,1,0,0,rectangle,-19,-1,1,0,0,-19,-1,1,0,0,1,118,278,151,1,,,,,,,,
,,,,,,,,,,,,,FF,,,,,,,,1.433,,,,,,,,,,,,,,,,,,,,,,610368de825c5dfea8a60321,61036deed1e815722ce9f197,2021-07-29_23h14.05.213,Simcolourproject_2stim_asymm_v5,2020.2.10,MacIntel,60,61025ae37ef11b136ea224fe,,,,,,,,,455,-25,90,1,0,0,response7disk,,0,-18,4,1,0,0,rectangle,-18,4,1,0,0,-18,4,1,0,0,1,119,279,111,1,,,,,,,,
,,,,,,,,,,,,,FF,,,,,,,,1.917,,,,,,,,,,,,,,,,,,,,,,610368de825c5dfea8a60321,61036deed1e815722ce9f197,2021-07-29_23h14.05.213,Simcolourproject_2stim_asymm_v5,2020.2.10,MacIntel,60,61025ae37ef11b136ea224fe,,,,,,,,,3850,-84,-30,1,0,0,response5disk,,2,14,9,1,0,0,rectangle,14,9,1,0,0,14,9,1,0,0,1,120,280,66,1,,,,,,,,
,,,,,,,,,,,,,FF,,,,,,,,1.849,,,,,,,,,,,,,,,,,,,,,,610368de825c5dfea8a60321,61036deed1e815722ce9f197,2021-07-29_23h14.05.213,Simcolourproject_2stim_asymm_v5,2020.2.10,MacIntel,60,61025ae37ef11b136ea224fe,,,,,,,,,3862,72,28,1,0,0,response1disk,,6,3,-8,1,0,0,rectangle,3,-8,1,0,0,3,-8,1,0,0,1,121,281,100,1,,,,,,,,
,,,,,,,,,,,,,FF,,,,,,,,1.399,,,,,,,,,,,,,,,,,,,,,,610368de825c5dfea8a60321,61036deed1e815722ce9f197,2021-07-29_23h14.05.213,Simcolourproject_2stim_asymm_v5,2020.2.10,MacIntel,60,61025ae37ef11b136ea224fe,,,,,,,,,4174,35,71,1,0,0,response1disk,,7,14,11,1,0,0,rectangle,14,11,1,0,0,14,11,1,0,0,1,122,282,49,1,,,,,,,,
,,,,,,,,,,,,,FF,,,,,,,,3.416,,,,,,,,,,,,,,,,,,,,,,610368de825c5dfea8a60321,61036deed1e815722ce9f197,2021-07-29_23h14.05.213,Simcolourproject_2stim_asymm_v5,2020.2.10,MacIntel,60,61025ae37ef11b136ea224fe,,,,,,,,,2745,43,-81,1,0,0,response3disk,,4,-16,11,1,0,0,rectangle,-16,11,1,0,0,-16,11,1,0,0,1,123,283,147,1,,,,,,,,
,,,,,,,,,,,,,FF,,,,,,,,1.167,,,,,,,,,,,,,,,,,,,,,,610368de825c5dfea8a60321,61036deed1e815722ce9f197,2021-07-29_23h14.05.213,Simcolourproject_2stim_asymm_v5,2020.2.10,MacIntel,60,61025ae37ef11b136ea224fe,,,,,,,,,3864,48,-86,1,0,0,response3disk,,4,-8,-12,1,0,0,rectangle,-8,-12,1,0,0,-8,-12,1,0,0,1,124,284,26,1,,,,,,,,
,,,,,,,,,,,,,FF,,,,,,,,0.716,,,,,,,,,,,,,,,,,,,,,,610368de825c5dfea8a60321,61036deed1e815722ce9f197,2021-07-29_23h14.05.213,Simcolourproject_2stim_asymm_v5,2020.2.10,MacIntel,60,61025ae37ef11b136ea224fe,,,,,,,,,3271,-54,-85,1,0,0,response5disk,,3,1,10,1,0,0,rectangle,1,10,1,0,0,1,10,1,0,0,1,125,285,77,1,,,,,,,,
,,,,,,,,,,,,,FF,,,,,,,,1.699,,,,,,,,,,,,,,,,,,,,,,610368de825c5dfea8a60321,61036deed1e815722ce9f197,2021-07-29_23h14.05.213,Simcolourproject_2stim_asymm_v5,2020.2.10,MacIntel,60,61025ae37ef11b136ea224fe,,,,,,,,,2736,-82,-28,1,0,0,response5disk,,2,-5,3,1,0,0,rectangle,-5,3,1,0,0,-5,3,1,0,0,1,126,286,116,1,,,,,,,,
,,,,,,,,,,,,,FF,,,,,,,,0.8,,,,,,,,,,,,,,,,,,,,,,610368de825c5dfea8a60321,61036deed1e815722ce9f197,2021-07-29_23h14.05.213,Simcolourproject_2stim_asymm_v5,2020.2.10,MacIntel,60,61025ae37ef11b136ea224fe,,,,,,,,,718,-64,33,1,0,0,response7disk,,1,14,-7,1,0,0,rectangle,14,-7,1,0,0,14,-7,1,0,0,1,127,287,71,1,,,,,,,,
,,,,,,,,,,,,,FF,,,,,,,,1.584,,,,,,,,,,,,,,,,,,,,,,610368de825c5dfea8a60321,61036deed1e815722ce9f197,2021-07-29_23h14.05.213,Simcolourproject_2stim_asymm_v5,2020.2.10,MacIntel,60,61025ae37ef11b136ea224fe,,,,,,,,,2688,42,-69,1,0,0,response3disk,,4,5,0,1,0,0,rectangle,5,0,1,0,0,5,0,1,0,0,1,128,288,73,1,,,,,,,,
,,,,,,,,,,,,,FF,,,,,,,,2.485,,,,,,,,,,,,,,,,,,,,,,610368de825c5dfea8a60321,61036deed1e815722ce9f197,2021-07-29_23h14.05.213,Simcolourproject_2stim_asymm_v5,2020.2.10,MacIntel,60,61025ae37ef11b136ea224fe,,,,,,,,,2555,-18,-75,1,0,0,response5disk,,3,-3,-16,1,0,0,rectangle,-3,-16,1,0,0,-3,-16,1,0,0,1,129,289,99,1,,,,,,,,
,,,,,,,,,,,,,FF,,,,,,,,0.817,,,,,,,,,,,,,,,,,,,,,,610368de825c5dfea8a60321,61036deed1e815722ce9f197,2021-07-29_23h14.05.213,Simcolourproject_2stim_asymm_v5,2020.2.10,MacIntel,60,61025ae37ef11b136ea224fe,,,,,,,,,3018,74,-52,1,0,0,response3disk,,5,-1,-8,1,0,0,rectangle,-1,-8,1,0,0,-1,-8,1,0,0,1,130,290,94,1,,,,,,,,
,,,,,,,,,,,,,FF,,,,,,,,1.767,,,,,,,,,,,,,,,,,,,,,,610368de825c5dfea8a60321,61036deed1e815722ce9f197,2021-07-29_23h14.05.213,Simcolourproject_2stim_asymm_v5,2020.2.10,MacIntel,60,61025ae37ef11b136ea224fe,,,,,,,,,4208,-83,27,1,0,0,response7disk,,1,12,3,1,0,0,rectangle,-41,85,1,0,0,5,3,1,0,0,1,131,291,124,1,,response7disk_3,TRUE,0,0,"[147,91,14,194,227,215,155,217,292,11,88,322,27,214,105,229,14,162,303,86]",1.684,rectangle
,,,,,,,,,,,,,FF,,,,,,,,0.884,,,,,,,,,,,,,,,,,,,,,,610368de825c5dfea8a60321,61036deed1e815722ce9f197,2021-07-29_23h14.05.213,Simcolourproject_2stim_asymm_v5,2020.2.10,MacIntel,60,61025ae37ef11b136ea224fe,,,,,,,,,2081,38,-65,1,0,0,response3disk,,4,5,9,1,0,0,rectangle,5,9,1,0,0,5,9,1,0,0,1,132,292,80,1,,,,,,,,
,,,,,,,,,,,,,FF,,,,,,,,0.868,,,,,,,,,,,,,,,,,,,,,,610368de825c5dfea8a60321,61036deed1e815722ce9f197,2021-07-29_23h14.05.213,Simcolourproject_2stim_asymm_v5,2020.2.10,MacIntel,60,61025ae37ef11b136ea224fe,,,,,,,,,1524,-40,-69,1,0,0,response5disk,,3,-9,5,1,0,0,rectangle,-9,5,1,0,0,-9,5,1,0,0,1,133,293,45,1,,,,,,,,
,,,,,,,,,,,,,FF,,,,,,,,2.749,,,,,,,,,,,,,,,,,,,,,,610368de825c5dfea8a60321,61036deed1e815722ce9f197,2021-07-29_23h14.05.213,Simcolourproject_2stim_asymm_v5,2020.2.10,MacIntel,60,61025ae37ef11b136ea224fe,,,,,,,,,4132,-49,-91,1,0,0,response5disk,,3,1,1,1,0,0,rectangle,1,1,1,0,0,1,1,1,0,0,1,134,294,85,1,,,,,,,,
,,,,,,,,,,,,,FF,,,,,,,,1.017,,,,,,,,,,,,,,,,,,,,,,610368de825c5dfea8a60321,61036deed1e815722ce9f197,2021-07-29_23h14.05.213,Simcolourproject_2stim_asymm_v5,2020.2.10,MacIntel,60,61025ae37ef11b136ea224fe,,,,,,,,,2208,40,85,1,0,0,response1disk,,7,-10,3,1,0,0,rectangle,-10,3,1,0,0,-10,3,1,0,0,1,135,295,134,1,,,,,,,,
,,,,,,,,,,,,,FF,,,,,,,,1.301,,,,,,,,,,,,,,,,,,,,,,610368de825c5dfea8a60321,61036deed1e815722ce9f197,2021-07-29_23h14.05.213,Simcolourproject_2stim_asymm_v5,2020.2.10,MacIntel,60,61025ae37ef11b136ea224fe,,,,,,,,,566,77,22,1,0,0,response1disk,,6,7,5,1,0,0,rectangle,7,5,1,0,0,7,5,1,0,0,1,136,296,69,1,,,,,,,,
,,,,,,,,,,,,,FF,,,,,,,,0.766,,,,,,,,,,,,,,,,,,,,,,610368de825c5dfea8a60321,61036deed1e815722ce9f197,2021-07-29_23h14.05.213,Simcolourproject_2stim_asymm_v5,2020.2.10,MacIntel,60,61025ae37ef11b136ea224fe,,,,,,,,,829,-58,-30,1,0,0,response5disk,,2,0,-14,1,0,0,rectangle,0,-14,1,0,0,0,-14,1,0,0,1,137,297,95,1,,,,,,,,
,,,,,,,,,,,,,FF,,,,,,,,1.117,,,,,,,,,,,,,,,,,,,,,,610368de825c5dfea8a60321,61036deed1e815722ce9f197,2021-07-29_23h14.05.213,Simcolourproject_2stim_asymm_v5,2020.2.10,MacIntel,60,61025ae37ef11b136ea224fe,,,,,,,,,297,54,-84,1,0,0,response3disk,,4,-6,8,1,0,0,rectangle,-6,8,1,0,0,-6,8,1,0,0,1,138,298,21,1,,,,,,,,
,,,,,,,,,,,,,FF,,,,,,,,0.916,,,,,,,,,,,,,,,,,,,,,,610368de825c5dfea8a60321,61036deed1e815722ce9f197,2021-07-29_23h14.05.213,Simcolourproject_2stim_asymm_v5,2020.2.10,MacIntel,60,61025ae37ef11b136ea224fe,,,,,,,,,808,-77,-29,1,0,0,response5disk,,2,-2,-3,1,0,0,rectangle,-2,-3,1,0,0,-2,-3,1,0,0,1,139,299,123,1,,,,,,,,
,,,,,,,,,,,,,FF,,,,,,,,1.301,,,,,,,,,,,,,,,,,,,,,,610368de825c5dfea8a60321,61036deed1e815722ce9f197,2021-07-29_23h14.05.213,Simcolourproject_2stim_asymm_v5,2020.2.10,MacIntel,60,61025ae37ef11b136ea224fe,,,,,,,,,953,51,-78,1,0,0,response3disk,,4,-12,6,1,0,0,rectangle,-12,6,1,0,0,-12,6,1,0,0,1,140,300,39,1,,,,,,,,
