key_resp.keys,key_resp.rt,key_resp_14.keys,key_resp_14.rt,key_resp_15.keys,key_resp_15.rt,key_resp_17.keys,key_resp_17.rt,key_resp_9.keys,key_resp_9.rt,key_resp_10.keys,key_resp_10.rt,practice_comparison,Ecc,mouse_5.x,mouse_5.y,mouse_5.leftButton,mouse_5.midButton,mouse_5.rightButton,mouse_5.clicked_name,pracsimilarity,response_time,mouse_10.x,mouse_10.y,mouse_10.leftButton,mouse_10.midButton,mouse_10.rightButton,mouse_10.clicked_name,mouse_7.x,mouse_7.y,mouse_7.leftButton,mouse_7.midButton,mouse_7.rightButton,mouse_6.x,mouse_6.y,mouse_6.leftButton,mouse_6.midButton,mouse_6.rightButton,duringprac.thisRepN,duringprac.thisTrialN,duringprac.thisN,duringprac.thisIndex,duringprac.ran,participant,session,date,expName,psychopyVersion,OS,frameRate,study_id,mouse_7.clicked_name,catchpracsimilarity,catch_response_time,catchnumberprac,catchtrialorderprac,mouse_6.clicked_name,key_resp_22.keys,key_resp_22.rt,realcomparison,mouse.x,mouse.y,mouse.leftButton,mouse.midButton,mouse.rightButton,mouse.clicked_name,Colour2,similarity,mouse_2.x,mouse_2.y,mouse_2.leftButton,mouse_2.midButton,mouse_2.rightButton,mouse_2.clicked_name,mouse_3.x,mouse_3.y,mouse_3.leftButton,mouse_3.midButton,mouse_3.rightButton,mouse_11.x,mouse_11.y,mouse_11.leftButton,mouse_11.midButton,mouse_11.rightButton,trials_2.thisRepN,trials_2.thisTrialN,trials_2.thisN,trials_2.thisIndex,trials_2.ran,Colour1,mouse_3.clicked_name,catchornah,catchsimilarity,catchnumber,catchtrialorder,catchRT,mouse_11.clicked_name
space,16.397,space,4.44,space,20.664,space,9.596,space,4.135,space,3.705,30,PF,71,56,1,0,0,response1disk_5,6,10.418,11,-4,1,0,0,rectangle_8,11,-4,1,0,0,11,-4,1,0,0,0,0,0,6,1,61036562aa01ea6f1560a8da,610368215121e23ecbd6c367,2021-07-29_22h48.27.349,Simcolourproject_2stim_asymm_v5,2020.2.10,MacIntel,60,61025ae37ef11b136ea224fe,,,,,,,,,,,,,,,,,,,,,,,,,,,,,,,,,,,,,,,,,,,,,,
,,,,,,,,,,,,81,PF,78,-53,1,0,0,response3disk_5,5,10.733,9,-7,1,0,0,rectangle_8,-54,-66,1,0,0,-8,-3,1,0,0,0,1,1,2,1,61036562aa01ea6f1560a8da,610368215121e23ecbd6c367,2021-07-29_22h48.27.349,Simcolourproject_2stim_asymm_v5,2020.2.10,MacIntel,60,61025ae37ef11b136ea224fe,response5disk_7,3,3.666,1,"[2,5]",rectangle_4,,,,,,,,,,,,,,,,,,,,,,,,,,,,,,,,,,,,,,,,
,,,,,,,,,,,,150,PF,59,-74,1,0,0,response3disk_5,4,8.133,8,0,1,0,0,rectangle_8,8,0,1,0,0,8,0,1,0,0,0,2,2,4,1,61036562aa01ea6f1560a8da,610368215121e23ecbd6c367,2021-07-29_22h48.27.349,Simcolourproject_2stim_asymm_v5,2020.2.10,MacIntel,60,61025ae37ef11b136ea224fe,,,,,,,,,,,,,,,,,,,,,,,,,,,,,,,,,,,,,,,,,,,,,,
,,,,,,,,,,,,16,FF,-36,-70,1,0,0,response5disk_5,3,3.199,-4,-9,1,0,0,rectangle_8,-4,-9,1,0,0,-4,-9,1,0,0,0,3,3,3,1,61036562aa01ea6f1560a8da,610368215121e23ecbd6c367,2021-07-29_22h48.27.349,Simcolourproject_2stim_asymm_v5,2020.2.10,MacIntel,60,61025ae37ef11b136ea224fe,,,,,,,,,,,,,,,,,,,,,,,,,,,,,,,,,,,,,,,,,,,,,,
,,,,,,,,,,,,113,FF,60,-53,1,0,0,response3disk_5,5,1.567,10,2,1,0,0,rectangle_8,33,45,1,0,0,27,0,1,0,0,0,4,4,5,1,61036562aa01ea6f1560a8da,610368215121e23ecbd6c367,2021-07-29_22h48.27.349,Simcolourproject_2stim_asymm_v5,2020.2.10,MacIntel,60,61025ae37ef11b136ea224fe,response1disk_7,7,1.2,1,"[2,5]",rectangle_4,,,,,,,,,,,,,,,,,,,,,,,,,,,,,,,,,,,,,,,,
,,,,,,,,,,,,64,FF,47,27,1,0,0,response1disk_5,6,5.967,8,1,1,0,0,rectangle_8,8,1,1,0,0,8,1,1,0,0,0,5,5,0,1,61036562aa01ea6f1560a8da,610368215121e23ecbd6c367,2021-07-29_22h48.27.349,Simcolourproject_2stim_asymm_v5,2020.2.10,MacIntel,60,61025ae37ef11b136ea224fe,,,,,,,,,,,,,,,,,,,,,,,,,,,,,,,,,,,,,,,,,,,,,,
,,,,,,,,,,,,114,PF,41,-33,1,0,0,response3disk_5,5,1.751,18,-8,1,0,0,rectangle_8,18,-8,1,0,0,18,-8,1,0,0,0,6,6,1,1,61036562aa01ea6f1560a8da,610368215121e23ecbd6c367,2021-07-29_22h48.27.349,Simcolourproject_2stim_asymm_v5,2020.2.10,MacIntel,60,61025ae37ef11b136ea224fe,,,,,,,,,,,,,,,,,,,,,,,,,,,,,,,,,,,,,,,,,,,,,,
,,,,,,,,,,,,,FF,,,,,,,,1.834,,,,,,,,,,,,,,,,,,,,,,61036562aa01ea6f1560a8da,610368215121e23ecbd6c367,2021-07-29_22h48.27.349,Simcolourproject_2stim_asymm_v5,2020.2.10,MacIntel,60,61025ae37ef11b136ea224fe,,,,,,,space,18.658,1365,71,-38,1,0,0,response3disk,,5,-12,4,1,0,0,rectangle,-12,4,1,0,0,-12,4,1,0,0,0,0,0,151,1,,,,,,,,
,,,,,,,,,,,,,FF,,,,,,,,1.083,,,,,,,,,,,,,,,,,,,,,,61036562aa01ea6f1560a8da,610368215121e23ecbd6c367,2021-07-29_22h48.27.349,Simcolourproject_2stim_asymm_v5,2020.2.10,MacIntel,60,61025ae37ef11b136ea224fe,,,,,,,,,3012,-40,-38,1,0,0,response5disk,,2,-10,-4,1,0,0,rectangle,-10,-4,1,0,0,-10,-4,1,0,0,0,1,1,23,1,,,,,,,,
,,,,,,,,,,,,,FF,,,,,,,,0.851,,,,,,,,,,,,,,,,,,,,,,61036562aa01ea6f1560a8da,610368215121e23ecbd6c367,2021-07-29_22h48.27.349,Simcolourproject_2stim_asymm_v5,2020.2.10,MacIntel,60,61025ae37ef11b136ea224fe,,,,,,,,,2105,-36,46,1,0,0,response7disk,,0,-17,-7,1,0,0,rectangle,-17,-7,1,0,0,-17,-7,1,0,0,0,2,2,84,1,,,,,,,,
,,,,,,,,,,,,,FF,,,,,,,,2.634,,,,,,,,,,,,,,,,,,,,,,61036562aa01ea6f1560a8da,610368215121e23ecbd6c367,2021-07-29_22h48.27.349,Simcolourproject_2stim_asymm_v5,2020.2.10,MacIntel,60,61025ae37ef11b136ea224fe,,,,,,,,,2427,-45,31,1,0,0,response7disk,,1,-26,-1,1,0,0,rectangle,-26,-1,1,0,0,-26,-1,1,0,0,0,3,3,141,1,,,,,,,,
,,,,,,,,,,,,,FF,,,,,,,,0.766,,,,,,,,,,,,,,,,,,,,,,61036562aa01ea6f1560a8da,610368215121e23ecbd6c367,2021-07-29_22h48.27.349,Simcolourproject_2stim_asymm_v5,2020.2.10,MacIntel,60,61025ae37ef11b136ea224fe,,,,,,,,,3047,-53,46,1,0,0,response7disk,,1,-4,7,1,0,0,rectangle,-4,7,1,0,0,-4,7,1,0,0,0,4,4,129,1,,,,,,,,
,,,,,,,,,,,,,FF,,,,,,,,2.101,,,,,,,,,,,,,,,,,,,,,,61036562aa01ea6f1560a8da,610368215121e23ecbd6c367,2021-07-29_22h48.27.349,Simcolourproject_2stim_asymm_v5,2020.2.10,MacIntel,60,61025ae37ef11b136ea224fe,,,,,,,,,2472,65,-41,1,0,0,response3disk,,5,23,16,1,0,0,rectangle,23,16,1,0,0,23,16,1,0,0,0,5,5,77,1,,,,,,,,
,,,,,,,,,,,,,FF,,,,,,,,0.85,,,,,,,,,,,,,,,,,,,,,,61036562aa01ea6f1560a8da,610368215121e23ecbd6c367,2021-07-29_22h48.27.349,Simcolourproject_2stim_asymm_v5,2020.2.10,MacIntel,60,61025ae37ef11b136ea224fe,,,,,,,,,4011,72,73,1,0,0,response1disk,,7,10,-1,1,0,0,rectangle,10,-1,1,0,0,10,-1,1,0,0,0,6,6,48,1,,,,,,,,
,,,,,,,,,,,,,FF,,,,,,,,0.917,,,,,,,,,,,,,,,,,,,,,,61036562aa01ea6f1560a8da,610368215121e23ecbd6c367,2021-07-29_22h48.27.349,Simcolourproject_2stim_asymm_v5,2020.2.10,MacIntel,60,61025ae37ef11b136ea224fe,,,,,,,,,140,48,72,1,0,0,response1disk,,7,4,7,1,0,0,rectangle,4,7,1,0,0,4,7,1,0,0,0,7,7,53,1,,,,,,,,
,,,,,,,,,,,,,FF,,,,,,,,5.2,,,,,,,,,,,,,,,,,,,,,,61036562aa01ea6f1560a8da,610368215121e23ecbd6c367,2021-07-29_22h48.27.349,Simcolourproject_2stim_asymm_v5,2020.2.10,MacIntel,60,61025ae37ef11b136ea224fe,,,,,,,,,4040,48,-42,1,0,0,response3disk,,5,25,-10,1,0,0,rectangle,25,-10,1,0,0,25,-10,1,0,0,0,8,8,104,1,,,,,,,,
,,,,,,,,,,,,,FF,,,,,,,,3.851,,,,,,,,,,,,,,,,,,,,,,61036562aa01ea6f1560a8da,610368215121e23ecbd6c367,2021-07-29_22h48.27.349,Simcolourproject_2stim_asymm_v5,2020.2.10,MacIntel,60,61025ae37ef11b136ea224fe,,,,,,,,,4102,-55,-33,1,0,0,response5disk,,2,-11,-8,1,0,0,rectangle,-11,-8,1,0,0,-11,-8,1,0,0,0,9,9,134,1,,,,,,,,
,,,,,,,,,,,,,FF,,,,,,,,1.435,,,,,,,,,,,,,,,,,,,,,,61036562aa01ea6f1560a8da,610368215121e23ecbd6c367,2021-07-29_22h48.27.349,Simcolourproject_2stim_asymm_v5,2020.2.10,MacIntel,60,61025ae37ef11b136ea224fe,,,,,,,,,1008,65,43,1,0,0,response1disk,,6,8,7,1,0,0,rectangle,8,7,1,0,0,8,7,1,0,0,0,10,10,99,1,,,,,,,,
,,,,,,,,,,,,,FF,,,,,,,,0.867,,,,,,,,,,,,,,,,,,,,,,61036562aa01ea6f1560a8da,610368215121e23ecbd6c367,2021-07-29_22h48.27.349,Simcolourproject_2stim_asymm_v5,2020.2.10,MacIntel,60,61025ae37ef11b136ea224fe,,,,,,,,,1715,48,57,1,0,0,response1disk,,7,13,8,1,0,0,rectangle,13,8,1,0,0,13,8,1,0,0,0,11,11,39,1,,,,,,,,
,,,,,,,,,,,,,FF,,,,,,,,0.899,,,,,,,,,,,,,,,,,,,,,,61036562aa01ea6f1560a8da,610368215121e23ecbd6c367,2021-07-29_22h48.27.349,Simcolourproject_2stim_asymm_v5,2020.2.10,MacIntel,60,61025ae37ef11b136ea224fe,,,,,,,,,4254,-33,-57,1,0,0,response5disk,,3,1,9,1,0,0,rectangle,67,-58,1,0,0,30,-6,1,0,0,0,12,12,130,1,,response3disk_3,TRUE,5,7,"[45,299,96,244,56,154,241,155,168,201,68,235,302,189,282,13,259,24,184,291]",0.867,rectangle
,,,,,,,,,,,,,FF,,,,,,,,0.733,,,,,,,,,,,,,,,,,,,,,,61036562aa01ea6f1560a8da,610368215121e23ecbd6c367,2021-07-29_22h48.27.349,Simcolourproject_2stim_asymm_v5,2020.2.10,MacIntel,60,61025ae37ef11b136ea224fe,,,,,,,,,3429,-53,56,1,0,0,response7disk,,0,-14,13,1,0,0,rectangle,-14,13,1,0,0,-14,13,1,0,0,0,13,13,11,1,,,,,,,,
,,,,,,,,,,,,,FF,,,,,,,,1.149,,,,,,,,,,,,,,,,,,,,,,61036562aa01ea6f1560a8da,610368215121e23ecbd6c367,2021-07-29_22h48.27.349,Simcolourproject_2stim_asymm_v5,2020.2.10,MacIntel,60,61025ae37ef11b136ea224fe,,,,,,,,,2558,56,25,1,0,0,response1disk,,6,16,0,1,0,0,rectangle,16,0,1,0,0,16,0,1,0,0,0,14,14,137,1,,,,,,,,
,,,,,,,,,,,,,FF,,,,,,,,0.884,,,,,,,,,,,,,,,,,,,,,,61036562aa01ea6f1560a8da,610368215121e23ecbd6c367,2021-07-29_22h48.27.349,Simcolourproject_2stim_asymm_v5,2020.2.10,MacIntel,60,61025ae37ef11b136ea224fe,,,,,,,,,1428,68,62,1,0,0,response1disk,,6,25,15,1,0,0,rectangle,25,15,1,0,0,25,15,1,0,0,0,15,15,117,1,,,,,,,,
,,,,,,,,,,,,,FF,,,,,,,,0.749,,,,,,,,,,,,,,,,,,,,,,61036562aa01ea6f1560a8da,610368215121e23ecbd6c367,2021-07-29_22h48.27.349,Simcolourproject_2stim_asymm_v5,2020.2.10,MacIntel,60,61025ae37ef11b136ea224fe,,,,,,,,,3734,49,27,1,0,0,response1disk,,6,19,13,1,0,0,rectangle,19,13,1,0,0,19,13,1,0,0,0,16,16,112,1,,,,,,,,
,,,,,,,,,,,,,FF,,,,,,,,0.667,,,,,,,,,,,,,,,,,,,,,,61036562aa01ea6f1560a8da,610368215121e23ecbd6c367,2021-07-29_22h48.27.349,Simcolourproject_2stim_asymm_v5,2020.2.10,MacIntel,60,61025ae37ef11b136ea224fe,,,,,,,,,2873,54,26,1,0,0,response1disk,,6,19,6,1,0,0,rectangle,19,6,1,0,0,19,6,1,0,0,0,17,17,68,1,,,,,,,,
,,,,,,,,,,,,,FF,,,,,,,,0.8,,,,,,,,,,,,,,,,,,,,,,61036562aa01ea6f1560a8da,610368215121e23ecbd6c367,2021-07-29_22h48.27.349,Simcolourproject_2stim_asymm_v5,2020.2.10,MacIntel,60,61025ae37ef11b136ea224fe,,,,,,,,,635,-54,48,1,0,0,response7disk,,1,-16,-12,1,0,0,rectangle,-16,-12,1,0,0,-16,-12,1,0,0,0,18,18,63,1,,,,,,,,
,,,,,,,,,,,,,FF,,,,,,,,1.167,,,,,,,,,,,,,,,,,,,,,,61036562aa01ea6f1560a8da,610368215121e23ecbd6c367,2021-07-29_22h48.27.349,Simcolourproject_2stim_asymm_v5,2020.2.10,MacIntel,60,61025ae37ef11b136ea224fe,,,,,,,,,2732,61,-37,1,0,0,response3disk,,5,26,-7,1,0,0,rectangle,26,-7,1,0,0,26,-7,1,0,0,0,19,19,148,1,,,,,,,,
,,,,,,,,,,,,,FF,,,,,,,,1.651,,,,,,,,,,,,,,,,,,,,,,61036562aa01ea6f1560a8da,610368215121e23ecbd6c367,2021-07-29_22h48.27.349,Simcolourproject_2stim_asymm_v5,2020.2.10,MacIntel,60,61025ae37ef11b136ea224fe,,,,,,,,,3422,55,40,1,0,0,response1disk,,6,27,6,1,0,0,rectangle,27,6,1,0,0,27,6,1,0,0,0,20,20,83,1,,,,,,,,
,,,,,,,,,,,,,FF,,,,,,,,2.417,,,,,,,,,,,,,,,,,,,,,,61036562aa01ea6f1560a8da,610368215121e23ecbd6c367,2021-07-29_22h48.27.349,Simcolourproject_2stim_asymm_v5,2020.2.10,MacIntel,60,61025ae37ef11b136ea224fe,,,,,,,,,740,54,-79,1,0,0,response3disk,,4,12,-5,1,0,0,rectangle,12,-5,1,0,0,12,-5,1,0,0,0,21,21,73,1,,,,,,,,
,,,,,,,,,,,,,FF,,,,,,,,0.751,,,,,,,,,,,,,,,,,,,,,,61036562aa01ea6f1560a8da,610368215121e23ecbd6c367,2021-07-29_22h48.27.349,Simcolourproject_2stim_asymm_v5,2020.2.10,MacIntel,60,61025ae37ef11b136ea224fe,,,,,,,,,4179,44,36,1,0,0,response1disk,,6,21,13,1,0,0,rectangle,21,13,1,0,0,21,13,1,0,0,0,22,22,145,1,,,,,,,,
,,,,,,,,,,,,,FF,,,,,,,,1.283,,,,,,,,,,,,,,,,,,,,,,61036562aa01ea6f1560a8da,610368215121e23ecbd6c367,2021-07-29_22h48.27.349,Simcolourproject_2stim_asymm_v5,2020.2.10,MacIntel,60,61025ae37ef11b136ea224fe,,,,,,,,,1406,80,-97,1,0,0,response3disk,,4,22,-9,1,0,0,rectangle,-87,-62,1,0,0,-28,-9,1,0,0,0,23,23,154,1,,response5disk_3,TRUE,2,5,"[45,299,96,244,56,154,241,155,168,201,68,235,302,189,282,13,259,24,184,291]",0.9,rectangle
,,,,,,,,,,,,,FF,,,,,,,,1.382,,,,,,,,,,,,,,,,,,,,,,61036562aa01ea6f1560a8da,610368215121e23ecbd6c367,2021-07-29_22h48.27.349,Simcolourproject_2stim_asymm_v5,2020.2.10,MacIntel,60,61025ae37ef11b136ea224fe,,,,,,,,,3073,45,42,1,0,0,response1disk,,6,22,8,1,0,0,rectangle,22,8,1,0,0,22,8,1,0,0,0,24,24,67,1,,,,,,,,
,,,,,,,,,,,,,FF,,,,,,,,1.084,,,,,,,,,,,,,,,,,,,,,,61036562aa01ea6f1560a8da,610368215121e23ecbd6c367,2021-07-29_22h48.27.349,Simcolourproject_2stim_asymm_v5,2020.2.10,MacIntel,60,61025ae37ef11b136ea224fe,,,,,,,,,1052,-36,46,1,0,0,response7disk,,0,-32,-1,1,0,0,rectangle,-32,-1,1,0,0,-32,-1,1,0,0,0,25,25,69,1,,,,,,,,
,,,,,,,,,,,,,FF,,,,,,,,0.731,,,,,,,,,,,,,,,,,,,,,,61036562aa01ea6f1560a8da,610368215121e23ecbd6c367,2021-07-29_22h48.27.349,Simcolourproject_2stim_asymm_v5,2020.2.10,MacIntel,60,61025ae37ef11b136ea224fe,,,,,,,,,260,-37,28,1,0,0,response7disk,,1,-9,-4,1,0,0,rectangle,-9,-4,1,0,0,-9,-4,1,0,0,0,26,26,133,1,,,,,,,,
,,,,,,,,,,,,,FF,,,,,,,,0.816,,,,,,,,,,,,,,,,,,,,,,61036562aa01ea6f1560a8da,610368215121e23ecbd6c367,2021-07-29_22h48.27.349,Simcolourproject_2stim_asymm_v5,2020.2.10,MacIntel,60,61025ae37ef11b136ea224fe,,,,,,,,,3106,-36,29,1,0,0,response7disk,,1,-11,5,1,0,0,rectangle,-11,5,1,0,0,-11,5,1,0,0,0,27,27,114,1,,,,,,,,
,,,,,,,,,,,,,FF,,,,,,,,0.951,,,,,,,,,,,,,,,,,,,,,,61036562aa01ea6f1560a8da,610368215121e23ecbd6c367,2021-07-29_22h48.27.349,Simcolourproject_2stim_asymm_v5,2020.2.10,MacIntel,60,61025ae37ef11b136ea224fe,,,,,,,,,1758,60,-56,1,0,0,response3disk,,5,23,-8,1,0,0,rectangle,23,-8,1,0,0,23,-8,1,0,0,0,28,28,93,1,,,,,,,,
,,,,,,,,,,,,,FF,,,,,,,,0.734,,,,,,,,,,,,,,,,,,,,,,61036562aa01ea6f1560a8da,610368215121e23ecbd6c367,2021-07-29_22h48.27.349,Simcolourproject_2stim_asymm_v5,2020.2.10,MacIntel,60,61025ae37ef11b136ea224fe,,,,,,,,,3275,44,47,1,0,0,response1disk,,7,23,7,1,0,0,rectangle,23,7,1,0,0,23,7,1,0,0,0,29,29,85,1,,,,,,,,
,,,,,,,,,,,,,FF,,,,,,,,1.001,,,,,,,,,,,,,,,,,,,,,,61036562aa01ea6f1560a8da,610368215121e23ecbd6c367,2021-07-29_22h48.27.349,Simcolourproject_2stim_asymm_v5,2020.2.10,MacIntel,60,61025ae37ef11b136ea224fe,,,,,,,,,1235,52,36,1,0,0,response1disk,,6,21,-1,1,0,0,rectangle,21,-1,1,0,0,21,-1,1,0,0,0,30,30,30,1,,,,,,,,
,,,,,,,,,,,,,FF,,,,,,,,0.75,,,,,,,,,,,,,,,,,,,,,,61036562aa01ea6f1560a8da,610368215121e23ecbd6c367,2021-07-29_22h48.27.349,Simcolourproject_2stim_asymm_v5,2020.2.10,MacIntel,60,61025ae37ef11b136ea224fe,,,,,,,,,3795,33,47,1,0,0,response1disk,,7,27,8,1,0,0,rectangle,27,8,1,0,0,27,8,1,0,0,0,31,31,153,1,,,,,,,,
,,,,,,,,,,,,,FF,,,,,,,,1.167,,,,,,,,,,,,,,,,,,,,,,61036562aa01ea6f1560a8da,610368215121e23ecbd6c367,2021-07-29_22h48.27.349,Simcolourproject_2stim_asymm_v5,2020.2.10,MacIntel,60,61025ae37ef11b136ea224fe,,,,,,,,,2161,-45,-43,1,0,0,response5disk,,2,1,-1,1,0,0,rectangle,1,-1,1,0,0,1,-1,1,0,0,0,32,32,34,1,,,,,,,,
,,,,,,,,,,,,,FF,,,,,,,,0.617,,,,,,,,,,,,,,,,,,,,,,61036562aa01ea6f1560a8da,610368215121e23ecbd6c367,2021-07-29_22h48.27.349,Simcolourproject_2stim_asymm_v5,2020.2.10,MacIntel,60,61025ae37ef11b136ea224fe,,,,,,,,,2383,51,37,1,0,0,response1disk,,6,27,4,1,0,0,rectangle,27,4,1,0,0,27,4,1,0,0,0,33,33,110,1,,,,,,,,
,,,,,,,,,,,,,FF,,,,,,,,0.868,,,,,,,,,,,,,,,,,,,,,,61036562aa01ea6f1560a8da,610368215121e23ecbd6c367,2021-07-29_22h48.27.349,Simcolourproject_2stim_asymm_v5,2020.2.10,MacIntel,60,61025ae37ef11b136ea224fe,,,,,,,,,3662,-46,29,1,0,0,response7disk,,1,-12,-6,1,0,0,rectangle,-12,-6,1,0,0,-12,-6,1,0,0,0,34,34,108,1,,,,,,,,
,,,,,,,,,,,,,FF,,,,,,,,1.051,,,,,,,,,,,,,,,,,,,,,,61036562aa01ea6f1560a8da,610368215121e23ecbd6c367,2021-07-29_22h48.27.349,Simcolourproject_2stim_asymm_v5,2020.2.10,MacIntel,60,61025ae37ef11b136ea224fe,,,,,,,,,850,34,-87,1,0,0,response3disk,,4,30,-4,1,0,0,rectangle,30,-4,1,0,0,30,-4,1,0,0,0,35,35,22,1,,,,,,,,
,,,,,,,,,,,,,FF,,,,,,,,0.999,,,,,,,,,,,,,,,,,,,,,,61036562aa01ea6f1560a8da,610368215121e23ecbd6c367,2021-07-29_22h48.27.349,Simcolourproject_2stim_asymm_v5,2020.2.10,MacIntel,60,61025ae37ef11b136ea224fe,,,,,,,,,2900,-60,-66,1,0,0,response5disk,,3,-8,-18,1,0,0,rectangle,-8,-18,1,0,0,-8,-18,1,0,0,0,36,36,27,1,,,,,,,,
,,,,,,,,,,,,,FF,,,,,,,,2.3,,,,,,,,,,,,,,,,,,,,,,61036562aa01ea6f1560a8da,610368215121e23ecbd6c367,2021-07-29_22h48.27.349,Simcolourproject_2stim_asymm_v5,2020.2.10,MacIntel,60,61025ae37ef11b136ea224fe,,,,,,,,,3075,37,42,1,0,0,response1disk,,7,5,3,1,0,0,rectangle,5,3,1,0,0,5,3,1,0,0,0,37,37,64,1,,,,,,,,
,,,,,,,,,,,,,FF,,,,,,,,0.65,,,,,,,,,,,,,,,,,,,,,,61036562aa01ea6f1560a8da,610368215121e23ecbd6c367,2021-07-29_22h48.27.349,Simcolourproject_2stim_asymm_v5,2020.2.10,MacIntel,60,61025ae37ef11b136ea224fe,,,,,,,,,1572,36,52,1,0,0,response1disk,,7,18,16,1,0,0,rectangle,18,16,1,0,0,18,16,1,0,0,0,38,38,106,1,,,,,,,,
,,,,,,,,,,,,,FF,,,,,,,,0.666,,,,,,,,,,,,,,,,,,,,,,61036562aa01ea6f1560a8da,610368215121e23ecbd6c367,2021-07-29_22h48.27.349,Simcolourproject_2stim_asymm_v5,2020.2.10,MacIntel,60,61025ae37ef11b136ea224fe,,,,,,,,,2429,42,41,1,0,0,response1disk,,6,30,4,1,0,0,rectangle,30,4,1,0,0,30,4,1,0,0,0,39,39,115,1,,,,,,,,
,,,,,,,,,,,,,FF,,,,,,,,0.717,,,,,,,,,,,,,,,,,,,,,,61036562aa01ea6f1560a8da,610368215121e23ecbd6c367,2021-07-29_22h48.27.349,Simcolourproject_2stim_asymm_v5,2020.2.10,MacIntel,60,61025ae37ef11b136ea224fe,,,,,,,,,3515,-44,35,1,0,0,response7disk,,1,-29,0,1,0,0,rectangle,-29,0,1,0,0,-29,0,1,0,0,0,40,40,113,1,,,,,,,,
,,,,,,,,,,,,,FF,,,,,,,,1.466,,,,,,,,,,,,,,,,,,,,,,61036562aa01ea6f1560a8da,610368215121e23ecbd6c367,2021-07-29_22h48.27.349,Simcolourproject_2stim_asymm_v5,2020.2.10,MacIntel,60,61025ae37ef11b136ea224fe,,,,,,,,,624,68,52,1,0,0,response1disk,,6,14,8,1,0,0,rectangle,14,8,1,0,0,14,8,1,0,0,0,41,41,24,1,,,,,,,,
,,,,,,,,,,,,,FF,,,,,,,,0.801,,,,,,,,,,,,,,,,,,,,,,61036562aa01ea6f1560a8da,610368215121e23ecbd6c367,2021-07-29_22h48.27.349,Simcolourproject_2stim_asymm_v5,2020.2.10,MacIntel,60,61025ae37ef11b136ea224fe,,,,,,,,,1667,33,29,1,0,0,response1disk,,6,28,6,1,0,0,rectangle,28,6,1,0,0,28,6,1,0,0,0,42,42,159,1,,,,,,,,
,,,,,,,,,,,,,FF,,,,,,,,0.567,,,,,,,,,,,,,,,,,,,,,,61036562aa01ea6f1560a8da,610368215121e23ecbd6c367,2021-07-29_22h48.27.349,Simcolourproject_2stim_asymm_v5,2020.2.10,MacIntel,60,61025ae37ef11b136ea224fe,,,,,,,,,3209,33,56,1,0,0,response1disk,,7,18,10,1,0,0,rectangle,18,10,1,0,0,18,10,1,0,0,0,43,43,98,1,,,,,,,,
,,,,,,,,,,,,,FF,,,,,,,,1.229,,,,,,,,,,,,,,,,,,,,,,61036562aa01ea6f1560a8da,610368215121e23ecbd6c367,2021-07-29_22h48.27.349,Simcolourproject_2stim_asymm_v5,2020.2.10,MacIntel,60,61025ae37ef11b136ea224fe,,,,,,,,,1818,-49,-35,1,0,0,response5disk,,2,-12,-7,1,0,0,rectangle,34,71,1,0,0,28,4,1,0,0,0,44,44,125,1,,response1disk_3,TRUE,7,7,"[45,299,96,244,56,154,241,155,168,201,68,235,302,189,282,13,259,24,184,291]",4.333,rectangle
,,,,,,,,,,,,,FF,,,,,,,,6.566,,,,,,,,,,,,,,,,,,,,,,61036562aa01ea6f1560a8da,610368215121e23ecbd6c367,2021-07-29_22h48.27.349,Simcolourproject_2stim_asymm_v5,2020.2.10,MacIntel,60,61025ae37ef11b136ea224fe,,,,,,,,,2945,48,-77,1,0,0,response3disk,,4,18,3,1,0,0,rectangle,18,3,1,0,0,18,3,1,0,0,0,45,45,60,1,,,,,,,,
,,,,,,,,,,,,,FF,,,,,,,,0.783,,,,,,,,,,,,,,,,,,,,,,61036562aa01ea6f1560a8da,610368215121e23ecbd6c367,2021-07-29_22h48.27.349,Simcolourproject_2stim_asymm_v5,2020.2.10,MacIntel,60,61025ae37ef11b136ea224fe,,,,,,,,,3381,-77,59,1,0,0,response7disk,,1,-8,8,1,0,0,rectangle,-8,8,1,0,0,-8,8,1,0,0,0,46,46,7,1,,,,,,,,
,,,,,,,,,,,,,FF,,,,,,,,1.402,,,,,,,,,,,,,,,,,,,,,,61036562aa01ea6f1560a8da,610368215121e23ecbd6c367,2021-07-29_22h48.27.349,Simcolourproject_2stim_asymm_v5,2020.2.10,MacIntel,60,61025ae37ef11b136ea224fe,,,,,,,,,1451,-44,74,1,0,0,response7disk,,0,-13,5,1,0,0,rectangle,-13,5,1,0,0,-13,5,1,0,0,0,47,47,155,1,,,,,,,,
,,,,,,,,,,,,,FF,,,,,,,,1.667,,,,,,,,,,,,,,,,,,,,,,61036562aa01ea6f1560a8da,610368215121e23ecbd6c367,2021-07-29_22h48.27.349,Simcolourproject_2stim_asymm_v5,2020.2.10,MacIntel,60,61025ae37ef11b136ea224fe,,,,,,,,,1059,54,34,1,0,0,response1disk,,6,16,3,1,0,0,rectangle,16,3,1,0,0,16,3,1,0,0,0,48,48,32,1,,,,,,,,
,,,,,,,,,,,,,FF,,,,,,,,2.25,,,,,,,,,,,,,,,,,,,,,,61036562aa01ea6f1560a8da,610368215121e23ecbd6c367,2021-07-29_22h48.27.349,Simcolourproject_2stim_asymm_v5,2020.2.10,MacIntel,60,61025ae37ef11b136ea224fe,,,,,,,,,2824,70,-50,1,0,0,response3disk,,5,32,-8,1,0,0,rectangle,32,-8,1,0,0,32,-8,1,0,0,0,49,49,66,1,,,,,,,,
,,,,,,,,,,,,,FF,,,,,,,,1.717,,,,,,,,,,,,,,,,,,,,,,61036562aa01ea6f1560a8da,610368215121e23ecbd6c367,2021-07-29_22h48.27.349,Simcolourproject_2stim_asymm_v5,2020.2.10,MacIntel,60,61025ae37ef11b136ea224fe,,,,,,,,,819,74,-52,1,0,0,response3disk,,5,33,-3,1,0,0,rectangle,33,-3,1,0,0,33,-3,1,0,0,0,50,50,79,1,,,,,,,,
,,,,,,,,,,,,,FF,,,,,,,,1.051,,,,,,,,,,,,,,,,,,,,,,61036562aa01ea6f1560a8da,610368215121e23ecbd6c367,2021-07-29_22h48.27.349,Simcolourproject_2stim_asymm_v5,2020.2.10,MacIntel,60,61025ae37ef11b136ea224fe,,,,,,,,,1567,44,37,1,0,0,response1disk,,6,18,12,1,0,0,rectangle,18,12,1,0,0,18,12,1,0,0,0,51,51,123,1,,,,,,,,
,,,,,,,,,,,,,FF,,,,,,,,1.034,,,,,,,,,,,,,,,,,,,,,,61036562aa01ea6f1560a8da,610368215121e23ecbd6c367,2021-07-29_22h48.27.349,Simcolourproject_2stim_asymm_v5,2020.2.10,MacIntel,60,61025ae37ef11b136ea224fe,,,,,,,,,4241,34,72,1,0,0,response1disk,,7,22,0,1,0,0,rectangle,22,0,1,0,0,22,0,1,0,0,0,52,52,149,1,,,,,,,,
,,,,,,,,,,,,,FF,,,,,,,,0.65,,,,,,,,,,,,,,,,,,,,,,61036562aa01ea6f1560a8da,610368215121e23ecbd6c367,2021-07-29_22h48.27.349,Simcolourproject_2stim_asymm_v5,2020.2.10,MacIntel,60,61025ae37ef11b136ea224fe,,,,,,,,,589,35,51,1,0,0,response1disk,,7,28,1,1,0,0,rectangle,28,1,1,0,0,28,1,1,0,0,0,53,53,3,1,,,,,,,,
,,,,,,,,,,,,,FF,,,,,,,,0.85,,,,,,,,,,,,,,,,,,,,,,61036562aa01ea6f1560a8da,610368215121e23ecbd6c367,2021-07-29_22h48.27.349,Simcolourproject_2stim_asymm_v5,2020.2.10,MacIntel,60,61025ae37ef11b136ea224fe,,,,,,,,,3976,33,64,1,0,0,response1disk,,7,27,16,1,0,0,rectangle,27,16,1,0,0,27,16,1,0,0,0,54,54,61,1,,,,,,,,
,,,,,,,,,,,,,FF,,,,,,,,0.583,,,,,,,,,,,,,,,,,,,,,,61036562aa01ea6f1560a8da,610368215121e23ecbd6c367,2021-07-29_22h48.27.349,Simcolourproject_2stim_asymm_v5,2020.2.10,MacIntel,60,61025ae37ef11b136ea224fe,,,,,,,,,2903,30,73,1,0,0,response1disk,,7,23,10,1,0,0,rectangle,36,66,1,0,0,27,2,1,0,0,0,55,55,139,1,,response1disk_3,TRUE,7,7,"[45,299,96,244,56,154,241,155,168,201,68,235,302,189,282,13,259,24,184,291]",1.284,rectangle
,,,,,,,,,,,,,FF,,,,,,,,2.07,,,,,,,,,,,,,,,,,,,,,,61036562aa01ea6f1560a8da,610368215121e23ecbd6c367,2021-07-29_22h48.27.349,Simcolourproject_2stim_asymm_v5,2020.2.10,MacIntel,60,61025ae37ef11b136ea224fe,,,,,,,,,3620,57,37,1,0,0,response1disk,,6,32,12,1,0,0,rectangle,32,12,1,0,0,32,12,1,0,0,0,56,56,46,1,,,,,,,,
,,,,,,,,,,,,,FF,,,,,,,,1.266,,,,,,,,,,,,,,,,,,,,,,61036562aa01ea6f1560a8da,610368215121e23ecbd6c367,2021-07-29_22h48.27.349,Simcolourproject_2stim_asymm_v5,2020.2.10,MacIntel,60,61025ae37ef11b136ea224fe,,,,,,,,,3240,45,35,1,0,0,response1disk,,6,25,1,1,0,0,rectangle,25,1,1,0,0,25,1,1,0,0,0,57,57,156,1,,,,,,,,
,,,,,,,,,,,,,FF,,,,,,,,0.633,,,,,,,,,,,,,,,,,,,,,,61036562aa01ea6f1560a8da,610368215121e23ecbd6c367,2021-07-29_22h48.27.349,Simcolourproject_2stim_asymm_v5,2020.2.10,MacIntel,60,61025ae37ef11b136ea224fe,,,,,,,,,1241,43,29,1,0,0,response1disk,,6,25,0,1,0,0,rectangle,25,0,1,0,0,25,0,1,0,0,0,58,58,44,1,,,,,,,,
,,,,,,,,,,,,,FF,,,,,,,,0.5,,,,,,,,,,,,,,,,,,,,,,61036562aa01ea6f1560a8da,610368215121e23ecbd6c367,2021-07-29_22h48.27.349,Simcolourproject_2stim_asymm_v5,2020.2.10,MacIntel,60,61025ae37ef11b136ea224fe,,,,,,,,,930,59,35,1,0,0,response1disk,,6,26,6,1,0,0,rectangle,26,6,1,0,0,26,6,1,0,0,0,59,59,121,1,,,,,,,,
,,,,,,,,,,,,,FF,,,,,,,,1.35,,,,,,,,,,,,,,,,,,,,,,61036562aa01ea6f1560a8da,610368215121e23ecbd6c367,2021-07-29_22h48.27.349,Simcolourproject_2stim_asymm_v5,2020.2.10,MacIntel,60,61025ae37ef11b136ea224fe,,,,,,,,,1532,-31,-45,1,0,0,response5disk,,3,-28,-16,1,0,0,rectangle,-28,-16,1,0,0,-28,-16,1,0,0,0,60,60,29,1,,,,,,,,
,,,,,,,,,,,,,FF,,,,,,,,2.934,,,,,,,,,,,,,,,,,,,,,,61036562aa01ea6f1560a8da,610368215121e23ecbd6c367,2021-07-29_22h48.27.349,Simcolourproject_2stim_asymm_v5,2020.2.10,MacIntel,60,61025ae37ef11b136ea224fe,,,,,,,,,439,52,-39,1,0,0,response3disk,,5,13,-3,1,0,0,rectangle,13,-3,1,0,0,13,-3,1,0,0,0,61,61,144,1,,,,,,,,
,,,,,,,,,,,,,FF,,,,,,,,1.032,,,,,,,,,,,,,,,,,,,,,,61036562aa01ea6f1560a8da,610368215121e23ecbd6c367,2021-07-29_22h48.27.349,Simcolourproject_2stim_asymm_v5,2020.2.10,MacIntel,60,61025ae37ef11b136ea224fe,,,,,,,,,2984,46,76,1,0,0,response1disk,,7,17,-4,1,0,0,rectangle,17,-4,1,0,0,17,-4,1,0,0,0,62,62,116,1,,,,,,,,
,,,,,,,,,,,,,FF,,,,,,,,0.966,,,,,,,,,,,,,,,,,,,,,,61036562aa01ea6f1560a8da,610368215121e23ecbd6c367,2021-07-29_22h48.27.349,Simcolourproject_2stim_asymm_v5,2020.2.10,MacIntel,60,61025ae37ef11b136ea224fe,,,,,,,,,3604,36,56,1,0,0,response1disk,,7,11,8,1,0,0,rectangle,11,8,1,0,0,11,8,1,0,0,0,63,63,62,1,,,,,,,,
,,,,,,,,,,,,,FF,,,,,,,,0.65,,,,,,,,,,,,,,,,,,,,,,61036562aa01ea6f1560a8da,610368215121e23ecbd6c367,2021-07-29_22h48.27.349,Simcolourproject_2stim_asymm_v5,2020.2.10,MacIntel,60,61025ae37ef11b136ea224fe,,,,,,,,,43,42,73,1,0,0,response1disk,,7,29,0,1,0,0,rectangle,29,0,1,0,0,29,0,1,0,0,0,64,64,124,1,,,,,,,,
,,,,,,,,,,,,,FF,,,,,,,,0.717,,,,,,,,,,,,,,,,,,,,,,61036562aa01ea6f1560a8da,610368215121e23ecbd6c367,2021-07-29_22h48.27.349,Simcolourproject_2stim_asymm_v5,2020.2.10,MacIntel,60,61025ae37ef11b136ea224fe,,,,,,,,,2578,45,49,1,0,0,response1disk,,7,20,8,1,0,0,rectangle,20,8,1,0,0,20,8,1,0,0,0,65,65,41,1,,,,,,,,
,,,,,,,,,,,,,FF,,,,,,,,0.635,,,,,,,,,,,,,,,,,,,,,,61036562aa01ea6f1560a8da,610368215121e23ecbd6c367,2021-07-29_22h48.27.349,Simcolourproject_2stim_asymm_v5,2020.2.10,MacIntel,60,61025ae37ef11b136ea224fe,,,,,,,,,2650,31,62,1,0,0,response1disk,,7,23,0,1,0,0,rectangle,23,0,1,0,0,23,0,1,0,0,0,66,66,37,1,,,,,,,,
,,,,,,,,,,,,,FF,,,,,,,,0.6,,,,,,,,,,,,,,,,,,,,,,61036562aa01ea6f1560a8da,610368215121e23ecbd6c367,2021-07-29_22h48.27.349,Simcolourproject_2stim_asymm_v5,2020.2.10,MacIntel,60,61025ae37ef11b136ea224fe,,,,,,,,,3888,40,48,1,0,0,response1disk,,7,23,-6,1,0,0,rectangle,-42,-86,1,0,0,3,7,1,0,0,0,67,67,91,1,,response5disk_3,TRUE,3,3,"[45,299,96,244,56,154,241,155,168,201,68,235,302,189,282,13,259,24,184,291]",2.45,rectangle
,,,,,,,,,,,,,FF,,,,,,,,3.25,,,,,,,,,,,,,,,,,,,,,,61036562aa01ea6f1560a8da,610368215121e23ecbd6c367,2021-07-29_22h48.27.349,Simcolourproject_2stim_asymm_v5,2020.2.10,MacIntel,60,61025ae37ef11b136ea224fe,,,,,,,,,507,52,74,1,0,0,response1disk,,7,9,-9,1,0,0,rectangle,9,-9,1,0,0,9,-9,1,0,0,0,68,68,43,1,,,,,,,,
,,,,,,,,,,,,,FF,,,,,,,,0.766,,,,,,,,,,,,,,,,,,,,,,61036562aa01ea6f1560a8da,610368215121e23ecbd6c367,2021-07-29_22h48.27.349,Simcolourproject_2stim_asymm_v5,2020.2.10,MacIntel,60,61025ae37ef11b136ea224fe,,,,,,,,,3658,35,59,1,0,0,response1disk,,7,1,-5,1,0,0,rectangle,1,-5,1,0,0,1,-5,1,0,0,0,69,69,150,1,,,,,,,,
,,,,,,,,,,,,,FF,,,,,,,,0.65,,,,,,,,,,,,,,,,,,,,,,61036562aa01ea6f1560a8da,610368215121e23ecbd6c367,2021-07-29_22h48.27.349,Simcolourproject_2stim_asymm_v5,2020.2.10,MacIntel,60,61025ae37ef11b136ea224fe,,,,,,,,,1935,54,66,1,0,0,response1disk,,7,15,7,1,0,0,rectangle,15,7,1,0,0,15,7,1,0,0,0,70,70,33,1,,,,,,,,
,,,,,,,,,,,,,FF,,,,,,,,0.501,,,,,,,,,,,,,,,,,,,,,,61036562aa01ea6f1560a8da,610368215121e23ecbd6c367,2021-07-29_22h48.27.349,Simcolourproject_2stim_asymm_v5,2020.2.10,MacIntel,60,61025ae37ef11b136ea224fe,,,,,,,,,3362,34,79,1,0,0,response1disk,,7,21,8,1,0,0,rectangle,21,8,1,0,0,21,8,1,0,0,0,71,71,38,1,,,,,,,,
,,,,,,,,,,,,,FF,,,,,,,,0.416,,,,,,,,,,,,,,,,,,,,,,61036562aa01ea6f1560a8da,610368215121e23ecbd6c367,2021-07-29_22h48.27.349,Simcolourproject_2stim_asymm_v5,2020.2.10,MacIntel,60,61025ae37ef11b136ea224fe,,,,,,,,,250,56,56,1,0,0,response1disk,,7,29,7,1,0,0,rectangle,29,7,1,0,0,29,7,1,0,0,0,72,72,36,1,,,,,,,,
,,,,,,,,,,,,,FF,,,,,,,,1.566,,,,,,,,,,,,,,,,,,,,,,61036562aa01ea6f1560a8da,610368215121e23ecbd6c367,2021-07-29_22h48.27.349,Simcolourproject_2stim_asymm_v5,2020.2.10,MacIntel,60,61025ae37ef11b136ea224fe,,,,,,,,,1897,-43,-72,1,0,0,response5disk,,3,-4,-5,1,0,0,rectangle,-4,-5,1,0,0,-4,-5,1,0,0,0,73,73,135,1,,,,,,,,
,,,,,,,,,,,,,FF,,,,,,,,0.983,,,,,,,,,,,,,,,,,,,,,,61036562aa01ea6f1560a8da,610368215121e23ecbd6c367,2021-07-29_22h48.27.349,Simcolourproject_2stim_asymm_v5,2020.2.10,MacIntel,60,61025ae37ef11b136ea224fe,,,,,,,,,2317,42,32,1,0,0,response1disk,,6,11,6,1,0,0,rectangle,11,6,1,0,0,11,6,1,0,0,0,74,74,54,1,,,,,,,,
,,,,,,,,,,,,,FF,,,,,,,,0.568,,,,,,,,,,,,,,,,,,,,,,61036562aa01ea6f1560a8da,610368215121e23ecbd6c367,2021-07-29_22h48.27.349,Simcolourproject_2stim_asymm_v5,2020.2.10,MacIntel,60,61025ae37ef11b136ea224fe,,,,,,,,,966,47,24,1,0,0,response1disk,,6,19,14,1,0,0,rectangle,19,14,1,0,0,19,14,1,0,0,0,75,75,74,1,,,,,,,,
,,,,,,,,,,,,,FF,,,,,,,,0.485,,,,,,,,,,,,,,,,,,,,,,61036562aa01ea6f1560a8da,610368215121e23ecbd6c367,2021-07-29_22h48.27.349,Simcolourproject_2stim_asymm_v5,2020.2.10,MacIntel,60,61025ae37ef11b136ea224fe,,,,,,,,,1631,50,42,1,0,0,response1disk,,6,25,8,1,0,0,rectangle,25,8,1,0,0,25,8,1,0,0,0,76,76,20,1,,,,,,,,
,,,,,,,,,,,,,FF,,,,,,,,0.535,,,,,,,,,,,,,,,,,,,,,,61036562aa01ea6f1560a8da,610368215121e23ecbd6c367,2021-07-29_22h48.27.349,Simcolourproject_2stim_asymm_v5,2020.2.10,MacIntel,60,61025ae37ef11b136ea224fe,,,,,,,,,2120,63,51,1,0,0,response1disk,,6,27,13,1,0,0,rectangle,27,13,1,0,0,27,13,1,0,0,0,77,77,17,1,,,,,,,,
,,,,,,,,,,,,,FF,,,,,,,,0.551,,,,,,,,,,,,,,,,,,,,,,61036562aa01ea6f1560a8da,610368215121e23ecbd6c367,2021-07-29_22h48.27.349,Simcolourproject_2stim_asymm_v5,2020.2.10,MacIntel,60,61025ae37ef11b136ea224fe,,,,,,,,,2510,40,28,1,0,0,response1disk,,6,11,16,1,0,0,rectangle,11,16,1,0,0,11,16,1,0,0,0,78,78,87,1,,,,,,,,
,,,,,,,,,,,,,FF,,,,,,,,0.65,,,,,,,,,,,,,,,,,,,,,,61036562aa01ea6f1560a8da,610368215121e23ecbd6c367,2021-07-29_22h48.27.349,Simcolourproject_2stim_asymm_v5,2020.2.10,MacIntel,60,61025ae37ef11b136ea224fe,,,,,,,,,2924,57,42,1,0,0,response1disk,,6,20,8,1,0,0,rectangle,20,8,1,0,0,20,8,1,0,0,0,79,79,109,1,,,,,,,,
,,,,,,,,,,,,,FF,,,,,,,,0.883,,,,,,,,,,,,,,,,,,,,,,61036562aa01ea6f1560a8da,610368215121e23ecbd6c367,2021-07-29_22h48.27.349,Simcolourproject_2stim_asymm_v5,2020.2.10,MacIntel,60,61025ae37ef11b136ea224fe,,,,,,,,,1707,69,47,1,0,0,response1disk,,6,24,9,1,0,0,rectangle,24,9,1,0,0,24,9,1,0,0,0,80,80,49,1,,,,,,,,
,,,,,,,,,,,,,FF,,,,,,,,0.883,,,,,,,,,,,,,,,,,,,,,,61036562aa01ea6f1560a8da,610368215121e23ecbd6c367,2021-07-29_22h48.27.349,Simcolourproject_2stim_asymm_v5,2020.2.10,MacIntel,60,61025ae37ef11b136ea224fe,,,,,,,,,2687,45,21,1,0,0,response1disk,,6,-8,-9,1,0,0,rectangle,-8,-9,1,0,0,-8,-9,1,0,0,0,81,81,55,1,,,,,,,,
,,,,,,,,,,,,,FF,,,,,,,,1.151,,,,,,,,,,,,,,,,,,,,,,61036562aa01ea6f1560a8da,610368215121e23ecbd6c367,2021-07-29_22h48.27.349,Simcolourproject_2stim_asymm_v5,2020.2.10,MacIntel,60,61025ae37ef11b136ea224fe,,,,,,,,,4045,79,50,1,0,0,response1disk,,6,8,7,1,0,0,rectangle,8,7,1,0,0,8,7,1,0,0,0,82,82,102,1,,,,,,,,
,,,,,,,,,,,,,FF,,,,,,,,3.35,,,,,,,,,,,,,,,,,,,,,,61036562aa01ea6f1560a8da,610368215121e23ecbd6c367,2021-07-29_22h48.27.349,Simcolourproject_2stim_asymm_v5,2020.2.10,MacIntel,60,61025ae37ef11b136ea224fe,,,,,,,,,2762,69,39,1,0,0,response1disk,,6,19,5,1,0,0,rectangle,19,5,1,0,0,19,5,1,0,0,0,83,83,42,1,,,,,,,,
,,,,,,,,,,,,,FF,,,,,,,,1.317,,,,,,,,,,,,,,,,,,,,,,61036562aa01ea6f1560a8da,610368215121e23ecbd6c367,2021-07-29_22h48.27.349,Simcolourproject_2stim_asymm_v5,2020.2.10,MacIntel,60,61025ae37ef11b136ea224fe,,,,,,,,,4120,-33,-54,1,0,0,response5disk,,3,-11,6,1,0,0,rectangle,-11,6,1,0,0,-11,6,1,0,0,0,84,84,88,1,,,,,,,,
,,,,,,,,,,,,,FF,,,,,,,,1.516,,,,,,,,,,,,,,,,,,,,,,61036562aa01ea6f1560a8da,610368215121e23ecbd6c367,2021-07-29_22h48.27.349,Simcolourproject_2stim_asymm_v5,2020.2.10,MacIntel,60,61025ae37ef11b136ea224fe,,,,,,,,,1118,39,72,1,0,0,response1disk,,7,19,5,1,0,0,rectangle,19,5,1,0,0,19,5,1,0,0,0,85,85,13,1,,,,,,,,
,,,,,,,,,,,,,FF,,,,,,,,1.267,,,,,,,,,,,,,,,,,,,,,,61036562aa01ea6f1560a8da,610368215121e23ecbd6c367,2021-07-29_22h48.27.349,Simcolourproject_2stim_asymm_v5,2020.2.10,MacIntel,60,61025ae37ef11b136ea224fe,,,,,,,,,2540,83,26,1,0,0,response1disk,,6,29,14,1,0,0,rectangle,29,14,1,0,0,29,14,1,0,0,0,86,86,6,1,,,,,,,,
,,,,,,,,,,,,,FF,,,,,,,,1.601,,,,,,,,,,,,,,,,,,,,,,61036562aa01ea6f1560a8da,610368215121e23ecbd6c367,2021-07-29_22h48.27.349,Simcolourproject_2stim_asymm_v5,2020.2.10,MacIntel,60,61025ae37ef11b136ea224fe,,,,,,,,,1079,31,56,1,0,0,response1disk,,7,21,-3,1,0,0,rectangle,21,-3,1,0,0,21,-3,1,0,0,0,87,87,82,1,,,,,,,,
,,,,,,,,,,,,,FF,,,,,,,,1.05,,,,,,,,,,,,,,,,,,,,,,61036562aa01ea6f1560a8da,610368215121e23ecbd6c367,2021-07-29_22h48.27.349,Simcolourproject_2stim_asymm_v5,2020.2.10,MacIntel,60,61025ae37ef11b136ea224fe,,,,,,,,,1863,41,68,1,0,0,response1disk,,7,21,0,1,0,0,rectangle,21,0,1,0,0,21,0,1,0,0,0,88,88,78,1,,,,,,,,
,,,,,,,,,,,,,FF,,,,,,,,2,,,,,,,,,,,,,,,,,,,,,,61036562aa01ea6f1560a8da,610368215121e23ecbd6c367,2021-07-29_22h48.27.349,Simcolourproject_2stim_asymm_v5,2020.2.10,MacIntel,60,61025ae37ef11b136ea224fe,,,,,,,,,2146,41,64,1,0,0,response1disk,,7,32,-14,1,0,0,rectangle,32,-14,1,0,0,32,-14,1,0,0,0,89,89,72,1,,,,,,,,
,,,,,,,,,,,,,FF,,,,,,,,0.751,,,,,,,,,,,,,,,,,,,,,,61036562aa01ea6f1560a8da,610368215121e23ecbd6c367,2021-07-29_22h48.27.349,Simcolourproject_2stim_asymm_v5,2020.2.10,MacIntel,60,61025ae37ef11b136ea224fe,,,,,,,,,1482,34,62,1,0,0,response1disk,,7,26,-10,1,0,0,rectangle,26,-10,1,0,0,26,-10,1,0,0,0,90,90,94,1,,,,,,,,
,,,,,,,,,,,,,FF,,,,,,,,1.266,,,,,,,,,,,,,,,,,,,,,,61036562aa01ea6f1560a8da,610368215121e23ecbd6c367,2021-07-29_22h48.27.349,Simcolourproject_2stim_asymm_v5,2020.2.10,MacIntel,60,61025ae37ef11b136ea224fe,,,,,,,,,468,37,62,1,0,0,response1disk,,7,22,-9,1,0,0,rectangle,22,-9,1,0,0,22,-9,1,0,0,0,91,91,119,1,,,,,,,,
,,,,,,,,,,,,,FF,,,,,,,,0.633,,,,,,,,,,,,,,,,,,,,,,61036562aa01ea6f1560a8da,610368215121e23ecbd6c367,2021-07-29_22h48.27.349,Simcolourproject_2stim_asymm_v5,2020.2.10,MacIntel,60,61025ae37ef11b136ea224fe,,,,,,,,,240,33,69,1,0,0,response1disk,,7,25,6,1,0,0,rectangle,25,6,1,0,0,25,6,1,0,0,0,92,92,143,1,,,,,,,,
,,,,,,,,,,,,,FF,,,,,,,,0.566,,,,,,,,,,,,,,,,,,,,,,61036562aa01ea6f1560a8da,610368215121e23ecbd6c367,2021-07-29_22h48.27.349,Simcolourproject_2stim_asymm_v5,2020.2.10,MacIntel,60,61025ae37ef11b136ea224fe,,,,,,,,,2283,37,63,1,0,0,response1disk,,7,33,9,1,0,0,rectangle,33,9,1,0,0,33,9,1,0,0,0,93,93,51,1,,,,,,,,
,,,,,,,,,,,,,FF,,,,,,,,0.85,,,,,,,,,,,,,,,,,,,,,,61036562aa01ea6f1560a8da,610368215121e23ecbd6c367,2021-07-29_22h48.27.349,Simcolourproject_2stim_asymm_v5,2020.2.10,MacIntel,60,61025ae37ef11b136ea224fe,,,,,,,,,15,52,58,1,0,0,response1disk,,7,35,-3,1,0,0,rectangle,35,-3,1,0,0,35,-3,1,0,0,0,94,94,2,1,,,,,,,,
,,,,,,,,,,,,,FF,,,,,,,,1.218,,,,,,,,,,,,,,,,,,,,,,61036562aa01ea6f1560a8da,610368215121e23ecbd6c367,2021-07-29_22h48.27.349,Simcolourproject_2stim_asymm_v5,2020.2.10,MacIntel,60,61025ae37ef11b136ea224fe,,,,,,,,,875,47,69,1,0,0,response1disk,,7,17,2,1,0,0,rectangle,76,39,1,0,0,17,3,1,0,0,0,95,95,120,1,,response1disk_3,TRUE,6,6,"[45,299,96,244,56,154,241,155,168,201,68,235,302,189,282,13,259,24,184,291]",1.717,rectangle
,,,,,,,,,,,,,FF,,,,,,,,1.133,,,,,,,,,,,,,,,,,,,,,,61036562aa01ea6f1560a8da,610368215121e23ecbd6c367,2021-07-29_22h48.27.349,Simcolourproject_2stim_asymm_v5,2020.2.10,MacIntel,60,61025ae37ef11b136ea224fe,,,,,,,,,3860,39,64,1,0,0,response1disk,,7,13,-12,1,0,0,rectangle,13,-12,1,0,0,13,-12,1,0,0,0,96,96,25,1,,,,,,,,
,,,,,,,,,,,,,FF,,,,,,,,1.616,,,,,,,,,,,,,,,,,,,,,,61036562aa01ea6f1560a8da,610368215121e23ecbd6c367,2021-07-29_22h48.27.349,Simcolourproject_2stim_asymm_v5,2020.2.10,MacIntel,60,61025ae37ef11b136ea224fe,,,,,,,,,1924,35,43,1,0,0,response1disk,,7,28,6,1,0,0,rectangle,28,6,1,0,0,28,6,1,0,0,0,97,97,21,1,,,,,,,,
,,,,,,,,,,,,,FF,,,,,,,,0.617,,,,,,,,,,,,,,,,,,,,,,61036562aa01ea6f1560a8da,610368215121e23ecbd6c367,2021-07-29_22h48.27.349,Simcolourproject_2stim_asymm_v5,2020.2.10,MacIntel,60,61025ae37ef11b136ea224fe,,,,,,,,,2214,41,48,1,0,0,response1disk,,7,34,-18,1,0,0,rectangle,34,-18,1,0,0,34,-18,1,0,0,0,98,98,16,1,,,,,,,,
,,,,,,,,,,,,,FF,,,,,,,,0.799,,,,,,,,,,,,,,,,,,,,,,61036562aa01ea6f1560a8da,610368215121e23ecbd6c367,2021-07-29_22h48.27.349,Simcolourproject_2stim_asymm_v5,2020.2.10,MacIntel,60,61025ae37ef11b136ea224fe,,,,,,,,,3533,41,58,1,0,0,response1disk,,7,22,-2,1,0,0,rectangle,22,-2,1,0,0,22,-2,1,0,0,0,99,99,58,1,,,,,,,,
,,,,,,,,,,,,,FF,,,,,,,,5.184,,,,,,,,,,,,,,,,,,,,,,61036562aa01ea6f1560a8da,610368215121e23ecbd6c367,2021-07-29_22h48.27.349,Simcolourproject_2stim_asymm_v5,2020.2.10,MacIntel,60,61025ae37ef11b136ea224fe,,,,,,,,,316,49,65,1,0,0,response1disk,,7,-3,-4,1,0,0,rectangle,-3,-4,1,0,0,-3,-4,1,0,0,0,100,100,96,1,,,,,,,,
,,,,,,,,,,,,,FF,,,,,,,,1.451,,,,,,,,,,,,,,,,,,,,,,61036562aa01ea6f1560a8da,610368215121e23ecbd6c367,2021-07-29_22h48.27.349,Simcolourproject_2stim_asymm_v5,2020.2.10,MacIntel,60,61025ae37ef11b136ea224fe,,,,,,,,,552,63,63,1,0,0,response1disk,,7,4,-1,1,0,0,rectangle,4,-1,1,0,0,4,-1,1,0,0,0,101,101,146,1,,,,,,,,
,,,,,,,,,,,,,FF,,,,,,,,0.65,,,,,,,,,,,,,,,,,,,,,,61036562aa01ea6f1560a8da,610368215121e23ecbd6c367,2021-07-29_22h48.27.349,Simcolourproject_2stim_asymm_v5,2020.2.10,MacIntel,60,61025ae37ef11b136ea224fe,,,,,,,,,3276,18,49,1,0,0,response1disk,,7,18,-15,1,0,0,rectangle,18,-15,1,0,0,18,-15,1,0,0,0,102,102,5,1,,,,,,,,
,,,,,,,,,,,,,FF,,,,,,,,0.634,,,,,,,,,,,,,,,,,,,,,,61036562aa01ea6f1560a8da,610368215121e23ecbd6c367,2021-07-29_22h48.27.349,Simcolourproject_2stim_asymm_v5,2020.2.10,MacIntel,60,61025ae37ef11b136ea224fe,,,,,,,,,153,51,30,1,0,0,response1disk,,6,15,5,1,0,0,rectangle,15,5,1,0,0,15,5,1,0,0,0,103,103,56,1,,,,,,,,
,,,,,,,,,,,,,FF,,,,,,,,1.783,,,,,,,,,,,,,,,,,,,,,,61036562aa01ea6f1560a8da,610368215121e23ecbd6c367,2021-07-29_22h48.27.349,Simcolourproject_2stim_asymm_v5,2020.2.10,MacIntel,60,61025ae37ef11b136ea224fe,,,,,,,,,3520,56,43,1,0,0,response1disk,,6,12,-3,1,0,0,rectangle,12,-3,1,0,0,12,-3,1,0,0,0,104,104,122,1,,,,,,,,
,,,,,,,,,,,,,FF,,,,,,,,4.351,,,,,,,,,,,,,,,,,,,,,,61036562aa01ea6f1560a8da,610368215121e23ecbd6c367,2021-07-29_22h48.27.349,Simcolourproject_2stim_asymm_v5,2020.2.10,MacIntel,60,61025ae37ef11b136ea224fe,,,,,,,,,2045,81,-25,1,0,0,response3disk,,5,13,-2,1,0,0,rectangle,13,-2,1,0,0,13,-2,1,0,0,0,105,105,105,1,,,,,,,,
,,,,,,,,,,,,,FF,,,,,,,,2.067,,,,,,,,,,,,,,,,,,,,,,61036562aa01ea6f1560a8da,610368215121e23ecbd6c367,2021-07-29_22h48.27.349,Simcolourproject_2stim_asymm_v5,2020.2.10,MacIntel,60,61025ae37ef11b136ea224fe,,,,,,,,,1434,47,65,1,0,0,response1disk,,7,13,12,1,0,0,rectangle,13,12,1,0,0,13,12,1,0,0,0,106,106,0,1,,,,,,,,
,,,,,,,,,,,,,FF,,,,,,,,1.051,,,,,,,,,,,,,,,,,,,,,,61036562aa01ea6f1560a8da,610368215121e23ecbd6c367,2021-07-29_22h48.27.349,Simcolourproject_2stim_asymm_v5,2020.2.10,MacIntel,60,61025ae37ef11b136ea224fe,,,,,,,,,4118,-45,59,1,0,0,response7disk,,0,-7,10,1,0,0,rectangle,-7,10,1,0,0,-7,10,1,0,0,0,107,107,75,1,,,,,,,,
,,,,,,,,,,,,,FF,,,,,,,,2.95,,,,,,,,,,,,,,,,,,,,,,61036562aa01ea6f1560a8da,610368215121e23ecbd6c367,2021-07-29_22h48.27.349,Simcolourproject_2stim_asymm_v5,2020.2.10,MacIntel,60,61025ae37ef11b136ea224fe,,,,,,,,,2188,58,48,1,0,0,response1disk,,6,14,4,1,0,0,rectangle,14,4,1,0,0,14,4,1,0,0,0,108,108,47,1,,,,,,,,
,,,,,,,,,,,,,FF,,,,,,,,6.551,,,,,,,,,,,,,,,,,,,,,,61036562aa01ea6f1560a8da,610368215121e23ecbd6c367,2021-07-29_22h48.27.349,Simcolourproject_2stim_asymm_v5,2020.2.10,MacIntel,60,61025ae37ef11b136ea224fe,,,,,,,,,1159,51,39,1,0,0,response1disk,,6,14,4,1,0,0,rectangle,14,4,1,0,0,14,4,1,0,0,0,109,109,147,1,,,,,,,,
,,,,,,,,,,,,,FF,,,,,,,,1.368,,,,,,,,,,,,,,,,,,,,,,61036562aa01ea6f1560a8da,610368215121e23ecbd6c367,2021-07-29_22h48.27.349,Simcolourproject_2stim_asymm_v5,2020.2.10,MacIntel,60,61025ae37ef11b136ea224fe,,,,,,,,,518,35,63,1,0,0,response1disk,,7,33,14,1,0,0,rectangle,33,14,1,0,0,33,14,1,0,0,0,110,110,19,1,,,,,,,,
,,,,,,,,,,,,,FF,,,,,,,,1.5,,,,,,,,,,,,,,,,,,,,,,61036562aa01ea6f1560a8da,610368215121e23ecbd6c367,2021-07-29_22h48.27.349,Simcolourproject_2stim_asymm_v5,2020.2.10,MacIntel,60,61025ae37ef11b136ea224fe,,,,,,,,,2836,-32,-87,1,0,0,response5disk,,3,-5,3,1,0,0,rectangle,-5,3,1,0,0,-5,3,1,0,0,0,111,111,100,1,,,,,,,,
,,,,,,,,,,,,,FF,,,,,,,,1.718,,,,,,,,,,,,,,,,,,,,,,61036562aa01ea6f1560a8da,610368215121e23ecbd6c367,2021-07-29_22h48.27.349,Simcolourproject_2stim_asymm_v5,2020.2.10,MacIntel,60,61025ae37ef11b136ea224fe,,,,,,,,,2300,-33,-56,1,0,0,response5disk,,3,11,-8,1,0,0,rectangle,11,-8,1,0,0,11,-8,1,0,0,0,112,112,111,1,,,,,,,,
,,,,,,,,,,,,,FF,,,,,,,,2.118,,,,,,,,,,,,,,,,,,,,,,61036562aa01ea6f1560a8da,610368215121e23ecbd6c367,2021-07-29_22h48.27.349,Simcolourproject_2stim_asymm_v5,2020.2.10,MacIntel,60,61025ae37ef11b136ea224fe,,,,,,,,,4186,41,32,1,0,0,response1disk,,6,23,-4,1,0,0,rectangle,23,-4,1,0,0,23,-4,1,0,0,0,113,113,107,1,,,,,,,,
,,,,,,,,,,,,,FF,,,,,,,,0.65,,,,,,,,,,,,,,,,,,,,,,61036562aa01ea6f1560a8da,610368215121e23ecbd6c367,2021-07-29_22h48.27.349,Simcolourproject_2stim_asymm_v5,2020.2.10,MacIntel,60,61025ae37ef11b136ea224fe,,,,,,,,,4185,40,25,1,0,0,response1disk,,6,22,1,1,0,0,rectangle,22,1,1,0,0,22,1,1,0,0,0,114,114,1,1,,,,,,,,
,,,,,,,,,,,,,FF,,,,,,,,0.9,,,,,,,,,,,,,,,,,,,,,,61036562aa01ea6f1560a8da,610368215121e23ecbd6c367,2021-07-29_22h48.27.349,Simcolourproject_2stim_asymm_v5,2020.2.10,MacIntel,60,61025ae37ef11b136ea224fe,,,,,,,,,669,43,27,1,0,0,response1disk,,6,25,9,1,0,0,rectangle,25,9,1,0,0,25,9,1,0,0,0,115,115,35,1,,,,,,,,
,,,,,,,,,,,,,FF,,,,,,,,0.634,,,,,,,,,,,,,,,,,,,,,,61036562aa01ea6f1560a8da,610368215121e23ecbd6c367,2021-07-29_22h48.27.349,Simcolourproject_2stim_asymm_v5,2020.2.10,MacIntel,60,61025ae37ef11b136ea224fe,,,,,,,,,598,41,33,1,0,0,response1disk,,6,16,1,1,0,0,rectangle,16,1,1,0,0,16,1,1,0,0,0,116,116,127,1,,,,,,,,
,,,,,,,,,,,,,FF,,,,,,,,0.949,,,,,,,,,,,,,,,,,,,,,,61036562aa01ea6f1560a8da,610368215121e23ecbd6c367,2021-07-29_22h48.27.349,Simcolourproject_2stim_asymm_v5,2020.2.10,MacIntel,60,61025ae37ef11b136ea224fe,,,,,,,,,951,56,26,1,0,0,response1disk,,6,28,12,1,0,0,rectangle,28,12,1,0,0,28,12,1,0,0,0,117,117,40,1,,,,,,,,
,,,,,,,,,,,,,FF,,,,,,,,1.134,,,,,,,,,,,,,,,,,,,,,,61036562aa01ea6f1560a8da,610368215121e23ecbd6c367,2021-07-29_22h48.27.349,Simcolourproject_2stim_asymm_v5,2020.2.10,MacIntel,60,61025ae37ef11b136ea224fe,,,,,,,,,4205,-51,-83,1,0,0,response5disk,,3,6,-9,1,0,0,rectangle,6,-9,1,0,0,6,-9,1,0,0,0,118,118,86,1,,,,,,,,
,,,,,,,,,,,,,FF,,,,,,,,1.018,,,,,,,,,,,,,,,,,,,,,,61036562aa01ea6f1560a8da,610368215121e23ecbd6c367,2021-07-29_22h48.27.349,Simcolourproject_2stim_asymm_v5,2020.2.10,MacIntel,60,61025ae37ef11b136ea224fe,,,,,,,,,2028,-33,-53,1,0,0,response5disk,,3,-2,-4,1,0,0,rectangle,-2,-4,1,0,0,-2,-4,1,0,0,0,119,119,95,1,,,,,,,,
,,,,,,,,,,,,,FF,,,,,,,,0.984,,,,,,,,,,,,,,,,,,,,,,61036562aa01ea6f1560a8da,610368215121e23ecbd6c367,2021-07-29_22h48.27.349,Simcolourproject_2stim_asymm_v5,2020.2.10,MacIntel,60,61025ae37ef11b136ea224fe,,,,,,,,,271,43,66,1,0,0,response1disk,,7,27,-6,1,0,0,rectangle,27,-6,1,0,0,27,-6,1,0,0,0,120,120,138,1,,,,,,,,
,,,,,,,,,,,,,FF,,,,,,,,1.233,,,,,,,,,,,,,,,,,,,,,,61036562aa01ea6f1560a8da,610368215121e23ecbd6c367,2021-07-29_22h48.27.349,Simcolourproject_2stim_asymm_v5,2020.2.10,MacIntel,60,61025ae37ef11b136ea224fe,,,,,,,,,1216,40,-67,1,0,0,response3disk,,4,13,-5,1,0,0,rectangle,13,-5,1,0,0,13,-5,1,0,0,0,121,121,152,1,,,,,,,,
,,,,,,,,,,,,,FF,,,,,,,,0.717,,,,,,,,,,,,,,,,,,,,,,61036562aa01ea6f1560a8da,610368215121e23ecbd6c367,2021-07-29_22h48.27.349,Simcolourproject_2stim_asymm_v5,2020.2.10,MacIntel,60,61025ae37ef11b136ea224fe,,,,,,,,,3859,23,49,1,0,0,response1disk,,7,23,-11,1,0,0,rectangle,23,-11,1,0,0,23,-11,1,0,0,0,122,122,140,1,,,,,,,,
,,,,,,,,,,,,,FF,,,,,,,,1.183,,,,,,,,,,,,,,,,,,,,,,61036562aa01ea6f1560a8da,610368215121e23ecbd6c367,2021-07-29_22h48.27.349,Simcolourproject_2stim_asymm_v5,2020.2.10,MacIntel,60,61025ae37ef11b136ea224fe,,,,,,,,,1691,34,-72,1,0,0,response3disk,,4,19,-2,1,0,0,rectangle,19,-2,1,0,0,19,-2,1,0,0,0,123,123,103,1,,,,,,,,
,,,,,,,,,,,,,FF,,,,,,,,0.8,,,,,,,,,,,,,,,,,,,,,,61036562aa01ea6f1560a8da,610368215121e23ecbd6c367,2021-07-29_22h48.27.349,Simcolourproject_2stim_asymm_v5,2020.2.10,MacIntel,60,61025ae37ef11b136ea224fe,,,,,,,,,1392,29,32,1,0,0,response1disk,,7,26,-14,1,0,0,rectangle,26,-14,1,0,0,26,-14,1,0,0,0,124,124,157,1,,,,,,,,
,,,,,,,,,,,,,FF,,,,,,,,0.948,,,,,,,,,,,,,,,,,,,,,,61036562aa01ea6f1560a8da,610368215121e23ecbd6c367,2021-07-29_22h48.27.349,Simcolourproject_2stim_asymm_v5,2020.2.10,MacIntel,60,61025ae37ef11b136ea224fe,,,,,,,,,226,38,56,1,0,0,response1disk,,7,26,0,1,0,0,rectangle,26,0,1,0,0,26,0,1,0,0,0,125,125,4,1,,,,,,,,
,,,,,,,,,,,,,FF,,,,,,,,0.583,,,,,,,,,,,,,,,,,,,,,,61036562aa01ea6f1560a8da,610368215121e23ecbd6c367,2021-07-29_22h48.27.349,Simcolourproject_2stim_asymm_v5,2020.2.10,MacIntel,60,61025ae37ef11b136ea224fe,,,,,,,,,1260,35,41,1,0,0,response1disk,,7,34,-14,1,0,0,rectangle,34,-14,1,0,0,34,-14,1,0,0,0,126,126,57,1,,,,,,,,
,,,,,,,,,,,,,FF,,,,,,,,1.266,,,,,,,,,,,,,,,,,,,,,,61036562aa01ea6f1560a8da,610368215121e23ecbd6c367,2021-07-29_22h48.27.349,Simcolourproject_2stim_asymm_v5,2020.2.10,MacIntel,60,61025ae37ef11b136ea224fe,,,,,,,,,806,-40,-61,1,0,0,response5disk,,3,-2,-8,1,0,0,rectangle,-2,-8,1,0,0,-2,-8,1,0,0,0,127,127,131,1,,,,,,,,
,,,,,,,,,,,,,FF,,,,,,,,0.734,,,,,,,,,,,,,,,,,,,,,,61036562aa01ea6f1560a8da,610368215121e23ecbd6c367,2021-07-29_22h48.27.349,Simcolourproject_2stim_asymm_v5,2020.2.10,MacIntel,60,61025ae37ef11b136ea224fe,,,,,,,,,3985,32,72,1,0,0,response1disk,,7,13,-3,1,0,0,rectangle,13,-3,1,0,0,13,-3,1,0,0,0,128,128,136,1,,,,,,,,
,,,,,,,,,,,,,FF,,,,,,,,0.566,,,,,,,,,,,,,,,,,,,,,,61036562aa01ea6f1560a8da,610368215121e23ecbd6c367,2021-07-29_22h48.27.349,Simcolourproject_2stim_asymm_v5,2020.2.10,MacIntel,60,61025ae37ef11b136ea224fe,,,,,,,,,645,38,45,1,0,0,response1disk,,7,30,-8,1,0,0,rectangle,30,-8,1,0,0,30,-8,1,0,0,0,129,129,45,1,,,,,,,,
,,,,,,,,,,,,,FF,,,,,,,,1.3,,,,,,,,,,,,,,,,,,,,,,61036562aa01ea6f1560a8da,610368215121e23ecbd6c367,2021-07-29_22h48.27.349,Simcolourproject_2stim_asymm_v5,2020.2.10,MacIntel,60,61025ae37ef11b136ea224fe,,,,,,,,,1605,-33,-82,1,0,0,response5disk,,3,-21,-9,1,0,0,rectangle,-21,-9,1,0,0,-21,-9,1,0,0,0,130,130,118,1,,,,,,,,
,,,,,,,,,,,,,FF,,,,,,,,0.666,,,,,,,,,,,,,,,,,,,,,,61036562aa01ea6f1560a8da,610368215121e23ecbd6c367,2021-07-29_22h48.27.349,Simcolourproject_2stim_asymm_v5,2020.2.10,MacIntel,60,61025ae37ef11b136ea224fe,,,,,,,,,2396,24,61,1,0,0,response1disk,,7,5,-6,1,0,0,rectangle,5,-6,1,0,0,5,-6,1,0,0,0,131,131,92,1,,,,,,,,
,,,,,,,,,,,,,FF,,,,,,,,0.651,,,,,,,,,,,,,,,,,,,,,,61036562aa01ea6f1560a8da,610368215121e23ecbd6c367,2021-07-29_22h48.27.349,Simcolourproject_2stim_asymm_v5,2020.2.10,MacIntel,60,61025ae37ef11b136ea224fe,,,,,,,,,1774,39,55,1,0,0,response1disk,,7,17,-1,1,0,0,rectangle,17,-1,1,0,0,17,-1,1,0,0,0,132,132,9,1,,,,,,,,
,,,,,,,,,,,,,FF,,,,,,,,0.568,,,,,,,,,,,,,,,,,,,,,,61036562aa01ea6f1560a8da,610368215121e23ecbd6c367,2021-07-29_22h48.27.349,Simcolourproject_2stim_asymm_v5,2020.2.10,MacIntel,60,61025ae37ef11b136ea224fe,,,,,,,,,1120,34,40,1,0,0,response1disk,,7,27,7,1,0,0,rectangle,27,7,1,0,0,27,7,1,0,0,0,133,133,126,1,,,,,,,,
,,,,,,,,,,,,,FF,,,,,,,,0.566,,,,,,,,,,,,,,,,,,,,,,61036562aa01ea6f1560a8da,610368215121e23ecbd6c367,2021-07-29_22h48.27.349,Simcolourproject_2stim_asymm_v5,2020.2.10,MacIntel,60,61025ae37ef11b136ea224fe,,,,,,,,,4291,38,57,1,0,0,response1disk,,7,28,7,1,0,0,rectangle,28,7,1,0,0,28,7,1,0,0,0,134,134,76,1,,,,,,,,
,,,,,,,,,,,,,FF,,,,,,,,0.9,,,,,,,,,,,,,,,,,,,,,,61036562aa01ea6f1560a8da,610368215121e23ecbd6c367,2021-07-29_22h48.27.349,Simcolourproject_2stim_asymm_v5,2020.2.10,MacIntel,60,61025ae37ef11b136ea224fe,,,,,,,,,2902,-48,-73,1,0,0,response5disk,,3,-4,0,1,0,0,rectangle,-4,0,1,0,0,-4,0,1,0,0,0,135,135,70,1,,,,,,,,
,,,,,,,,,,,,,FF,,,,,,,,1.016,,,,,,,,,,,,,,,,,,,,,,61036562aa01ea6f1560a8da,610368215121e23ecbd6c367,2021-07-29_22h48.27.349,Simcolourproject_2stim_asymm_v5,2020.2.10,MacIntel,60,61025ae37ef11b136ea224fe,,,,,,,,,3157,-54,-27,1,0,0,response5disk,,2,-9,1,1,0,0,rectangle,-9,1,1,0,0,-9,1,1,0,0,0,136,136,12,1,,,,,,,,
,,,,,,,,,,,,,FF,,,,,,,,0.9,,,,,,,,,,,,,,,,,,,,,,61036562aa01ea6f1560a8da,610368215121e23ecbd6c367,2021-07-29_22h48.27.349,Simcolourproject_2stim_asymm_v5,2020.2.10,MacIntel,60,61025ae37ef11b136ea224fe,,,,,,,,,52,28,35,1,0,0,response1disk,,7,14,-4,1,0,0,rectangle,14,-4,1,0,0,14,-4,1,0,0,0,137,137,101,1,,,,,,,,
,,,,,,,,,,,,,FF,,,,,,,,0.616,,,,,,,,,,,,,,,,,,,,,,61036562aa01ea6f1560a8da,610368215121e23ecbd6c367,2021-07-29_22h48.27.349,Simcolourproject_2stim_asymm_v5,2020.2.10,MacIntel,60,61025ae37ef11b136ea224fe,,,,,,,,,3608,33,54,1,0,0,response1disk,,7,12,5,1,0,0,rectangle,12,5,1,0,0,12,5,1,0,0,0,138,138,26,1,,,,,,,,
,,,,,,,,,,,,,FF,,,,,,,,0.668,,,,,,,,,,,,,,,,,,,,,,61036562aa01ea6f1560a8da,610368215121e23ecbd6c367,2021-07-29_22h48.27.349,Simcolourproject_2stim_asymm_v5,2020.2.10,MacIntel,60,61025ae37ef11b136ea224fe,,,,,,,,,697,29,56,1,0,0,response1disk,,7,16,13,1,0,0,rectangle,16,13,1,0,0,16,13,1,0,0,0,139,139,128,1,,,,,,,,
,,,,,,,,,,,,,FF,,,,,,,,2.516,,,,,,,,,,,,,,,,,,,,,,61036562aa01ea6f1560a8da,610368215121e23ecbd6c367,2021-07-29_22h48.27.349,Simcolourproject_2stim_asymm_v5,2020.2.10,MacIntel,60,61025ae37ef11b136ea224fe,,,,,,,,,1502,24,35,1,0,0,response1disk,,7,19,5,1,0,0,rectangle,19,5,1,0,0,19,5,1,0,0,0,140,140,71,1,,,,,,,,
,,,,,,,,,,,,,FF,,,,,,,,0.617,,,,,,,,,,,,,,,,,,,,,,61036562aa01ea6f1560a8da,610368215121e23ecbd6c367,2021-07-29_22h48.27.349,Simcolourproject_2stim_asymm_v5,2020.2.10,MacIntel,60,61025ae37ef11b136ea224fe,,,,,,,,,2734,33,55,1,0,0,response1disk,,7,22,15,1,0,0,rectangle,22,15,1,0,0,22,15,1,0,0,0,141,141,52,1,,,,,,,,
,,,,,,,,,,,,,FF,,,,,,,,0.517,,,,,,,,,,,,,,,,,,,,,,61036562aa01ea6f1560a8da,610368215121e23ecbd6c367,2021-07-29_22h48.27.349,Simcolourproject_2stim_asymm_v5,2020.2.10,MacIntel,60,61025ae37ef11b136ea224fe,,,,,,,,,3489,26,32,1,0,0,response1disk,,7,17,7,1,0,0,rectangle,17,7,1,0,0,17,7,1,0,0,0,142,142,18,1,,,,,,,,
,,,,,,,,,,,,,FF,,,,,,,,0.833,,,,,,,,,,,,,,,,,,,,,,61036562aa01ea6f1560a8da,610368215121e23ecbd6c367,2021-07-29_22h48.27.349,Simcolourproject_2stim_asymm_v5,2020.2.10,MacIntel,60,61025ae37ef11b136ea224fe,,,,,,,,,2780,-32,81,1,0,0,response7disk,,0,-14,-6,1,0,0,rectangle,-14,-6,1,0,0,-14,-6,1,0,0,0,143,143,14,1,,,,,,,,
,,,,,,,,,,,,,FF,,,,,,,,1.516,,,,,,,,,,,,,,,,,,,,,,61036562aa01ea6f1560a8da,610368215121e23ecbd6c367,2021-07-29_22h48.27.349,Simcolourproject_2stim_asymm_v5,2020.2.10,MacIntel,60,61025ae37ef11b136ea224fe,,,,,,,,,1772,32,57,1,0,0,response1disk,,7,18,-8,1,0,0,rectangle,18,-8,1,0,0,18,-8,1,0,0,0,144,144,158,1,,,,,,,,
,,,,,,,,,,,,,FF,,,,,,,,0.634,,,,,,,,,,,,,,,,,,,,,,61036562aa01ea6f1560a8da,610368215121e23ecbd6c367,2021-07-29_22h48.27.349,Simcolourproject_2stim_asymm_v5,2020.2.10,MacIntel,60,61025ae37ef11b136ea224fe,,,,,,,,,2970,39,63,1,0,0,response1disk,,7,26,-1,1,0,0,rectangle,26,-1,1,0,0,26,-1,1,0,0,0,145,145,81,1,,,,,,,,
,,,,,,,,,,,,,FF,,,,,,,,1.151,,,,,,,,,,,,,,,,,,,,,,61036562aa01ea6f1560a8da,610368215121e23ecbd6c367,2021-07-29_22h48.27.349,Simcolourproject_2stim_asymm_v5,2020.2.10,MacIntel,60,61025ae37ef11b136ea224fe,,,,,,,,,235,34,86,1,0,0,response1disk,,7,23,-5,1,0,0,rectangle,23,-5,1,0,0,23,-5,1,0,0,0,146,146,59,1,,,,,,,,
,,,,,,,,,,,,,FF,,,,,,,,1.183,,,,,,,,,,,,,,,,,,,,,,61036562aa01ea6f1560a8da,610368215121e23ecbd6c367,2021-07-29_22h48.27.349,Simcolourproject_2stim_asymm_v5,2020.2.10,MacIntel,60,61025ae37ef11b136ea224fe,,,,,,,,,1679,-39,-51,1,0,0,response5disk,,3,-16,-7,1,0,0,rectangle,-16,-7,1,0,0,-16,-7,1,0,0,0,147,147,80,1,,,,,,,,
,,,,,,,,,,,,,FF,,,,,,,,1.451,,,,,,,,,,,,,,,,,,,,,,61036562aa01ea6f1560a8da,610368215121e23ecbd6c367,2021-07-29_22h48.27.349,Simcolourproject_2stim_asymm_v5,2020.2.10,MacIntel,60,61025ae37ef11b136ea224fe,,,,,,,,,2501,35,52,1,0,0,response1disk,,7,20,3,1,0,0,rectangle,20,3,1,0,0,20,3,1,0,0,0,148,148,90,1,,,,,,,,
,,,,,,,,,,,,,FF,,,,,,,,0.984,,,,,,,,,,,,,,,,,,,,,,61036562aa01ea6f1560a8da,610368215121e23ecbd6c367,2021-07-29_22h48.27.349,Simcolourproject_2stim_asymm_v5,2020.2.10,MacIntel,60,61025ae37ef11b136ea224fe,,,,,,,,,2294,33,-48,1,0,0,response3disk,,4,18,-11,1,0,0,rectangle,18,-11,1,0,0,18,-11,1,0,0,0,149,149,89,1,,,,,,,,
,,,,,,,,,,,,,FF,,,,,,,,1.817,,,,,,,,,,,,,,,,,,,,,,61036562aa01ea6f1560a8da,610368215121e23ecbd6c367,2021-07-29_22h48.27.349,Simcolourproject_2stim_asymm_v5,2020.2.10,MacIntel,60,61025ae37ef11b136ea224fe,,,,,,,,,1242,34,43,1,0,0,response1disk,,7,34,-2,1,0,0,rectangle,34,-2,1,0,0,34,-2,1,0,0,0,150,150,65,1,,,,,,,,
,,,,,,,,,,,,,FF,,,,,,,,0.634,,,,,,,,,,,,,,,,,,,,,,61036562aa01ea6f1560a8da,610368215121e23ecbd6c367,2021-07-29_22h48.27.349,Simcolourproject_2stim_asymm_v5,2020.2.10,MacIntel,60,61025ae37ef11b136ea224fe,,,,,,,,,2400,28,64,1,0,0,response1disk,,7,28,-12,1,0,0,rectangle,28,-12,1,0,0,28,-12,1,0,0,0,151,151,142,1,,,,,,,,
,,,,,,,,,,,,,FF,,,,,,,,0.583,,,,,,,,,,,,,,,,,,,,,,61036562aa01ea6f1560a8da,610368215121e23ecbd6c367,2021-07-29_22h48.27.349,Simcolourproject_2stim_asymm_v5,2020.2.10,MacIntel,60,61025ae37ef11b136ea224fe,,,,,,,,,799,38,57,1,0,0,response1disk,,7,34,13,1,0,0,rectangle,34,13,1,0,0,34,13,1,0,0,0,152,152,15,1,,,,,,,,
,,,,,,,,,,,,,FF,,,,,,,,1.117,,,,,,,,,,,,,,,,,,,,,,61036562aa01ea6f1560a8da,610368215121e23ecbd6c367,2021-07-29_22h48.27.349,Simcolourproject_2stim_asymm_v5,2020.2.10,MacIntel,60,61025ae37ef11b136ea224fe,,,,,,,,,2834,34,-86,1,0,0,response3disk,,4,26,-2,1,0,0,rectangle,57,-39,1,0,0,2,-1,1,0,0,0,153,153,10,1,,response3disk_3,TRUE,5,5,"[45,299,96,244,56,154,241,155,168,201,68,235,302,189,282,13,259,24,184,291]",1.768,rectangle
,,,,,,,,,,,,,FF,,,,,,,,2.134,,,,,,,,,,,,,,,,,,,,,,61036562aa01ea6f1560a8da,610368215121e23ecbd6c367,2021-07-29_22h48.27.349,Simcolourproject_2stim_asymm_v5,2020.2.10,MacIntel,60,61025ae37ef11b136ea224fe,,,,,,,,,2898,34,-72,1,0,0,response3disk,,4,17,7,1,0,0,rectangle,37,-70,1,0,0,-1,9,1,0,0,0,154,154,8,1,,response3disk_3,TRUE,4,4,"[45,299,96,244,56,154,241,155,168,201,68,235,302,189,282,13,259,24,184,291]",1.683,rectangle
,,,,,,,,,,,,,FF,,,,,,,,1.567,,,,,,,,,,,,,,,,,,,,,,61036562aa01ea6f1560a8da,610368215121e23ecbd6c367,2021-07-29_22h48.27.349,Simcolourproject_2stim_asymm_v5,2020.2.10,MacIntel,60,61025ae37ef11b136ea224fe,,,,,,,,,4128,24,-80,1,0,0,response3disk,,4,9,12,1,0,0,rectangle,9,12,1,0,0,9,12,1,0,0,0,155,155,97,1,,,,,,,,
,,,,,,,,,,,,,FF,,,,,,,,0.801,,,,,,,,,,,,,,,,,,,,,,61036562aa01ea6f1560a8da,610368215121e23ecbd6c367,2021-07-29_22h48.27.349,Simcolourproject_2stim_asymm_v5,2020.2.10,MacIntel,60,61025ae37ef11b136ea224fe,,,,,,,,,1108,59,59,1,0,0,response1disk,,7,25,4,1,0,0,rectangle,25,4,1,0,0,25,4,1,0,0,0,156,156,31,1,,,,,,,,
,,,,,,,,,,,,,FF,,,,,,,,0.568,,,,,,,,,,,,,,,,,,,,,,61036562aa01ea6f1560a8da,610368215121e23ecbd6c367,2021-07-29_22h48.27.349,Simcolourproject_2stim_asymm_v5,2020.2.10,MacIntel,60,61025ae37ef11b136ea224fe,,,,,,,,,1950,46,42,1,0,0,response1disk,,6,14,-5,1,0,0,rectangle,14,-5,1,0,0,14,-5,1,0,0,0,157,157,132,1,,,,,,,,
,,,,,,,,,,,,,FF,,,,,,,,0.683,,,,,,,,,,,,,,,,,,,,,,61036562aa01ea6f1560a8da,610368215121e23ecbd6c367,2021-07-29_22h48.27.349,Simcolourproject_2stim_asymm_v5,2020.2.10,MacIntel,60,61025ae37ef11b136ea224fe,,,,,,,,,1650,42,41,1,0,0,response1disk,,6,17,-2,1,0,0,rectangle,17,-2,1,0,0,17,-2,1,0,0,0,158,158,50,1,,,,,,,,
,,,,,,,,,,,,,FF,,,,,,,,1.019,,,,,,,,,,,,,,,,,,,,,,61036562aa01ea6f1560a8da,610368215121e23ecbd6c367,2021-07-29_22h48.27.349,Simcolourproject_2stim_asymm_v5,2020.2.10,MacIntel,60,61025ae37ef11b136ea224fe,,,,,,,,,3067,39,33,1,0,0,response1disk,,6,16,-16,1,0,0,rectangle,16,-16,1,0,0,16,-16,1,0,0,0,159,159,28,1,,,,,,,,
,,,,,,,,,,,,,FF,,,,,,,,2,,,,,,,,,,,,,,,,,,,,,,61036562aa01ea6f1560a8da,610368215121e23ecbd6c367,2021-07-29_22h48.27.349,Simcolourproject_2stim_asymm_v5,2020.2.10,MacIntel,60,61025ae37ef11b136ea224fe,,,,,,,,,1365,30,35,1,0,0,response1disk,,7,-6,6,1,0,0,rectangle,-6,6,1,0,0,-6,6,1,0,0,1,0,160,102,1,,,,,,,,
,,,,,,,,,,,,,FF,,,,,,,,0.716,,,,,,,,,,,,,,,,,,,,,,61036562aa01ea6f1560a8da,610368215121e23ecbd6c367,2021-07-29_22h48.27.349,Simcolourproject_2stim_asymm_v5,2020.2.10,MacIntel,60,61025ae37ef11b136ea224fe,,,,,,,,,3012,37,51,1,0,0,response1disk,,7,14,6,1,0,0,rectangle,14,6,1,0,0,14,6,1,0,0,1,1,161,38,1,,,,,,,,
,,,,,,,,,,,,,FF,,,,,,,,1.217,,,,,,,,,,,,,,,,,,,,,,61036562aa01ea6f1560a8da,610368215121e23ecbd6c367,2021-07-29_22h48.27.349,Simcolourproject_2stim_asymm_v5,2020.2.10,MacIntel,60,61025ae37ef11b136ea224fe,,,,,,,,,2105,35,-62,1,0,0,response3disk,,4,15,-2,1,0,0,rectangle,15,-2,1,0,0,15,-2,1,0,0,1,2,162,159,1,,,,,,,,
,,,,,,,,,,,,,FF,,,,,,,,1.467,,,,,,,,,,,,,,,,,,,,,,61036562aa01ea6f1560a8da,610368215121e23ecbd6c367,2021-07-29_22h48.27.349,Simcolourproject_2stim_asymm_v5,2020.2.10,MacIntel,60,61025ae37ef11b136ea224fe,,,,,,,,,2427,55,16,1,0,0,response1disk,,6,12,-3,1,0,0,rectangle,12,-3,1,0,0,12,-3,1,0,0,1,3,163,107,1,,,,,,,,
,,,,,,,,,,,,,FF,,,,,,,,0.984,,,,,,,,,,,,,,,,,,,,,,61036562aa01ea6f1560a8da,610368215121e23ecbd6c367,2021-07-29_22h48.27.349,Simcolourproject_2stim_asymm_v5,2020.2.10,MacIntel,60,61025ae37ef11b136ea224fe,,,,,,,,,3047,-24,-77,1,0,0,response5disk,,3,-3,-1,1,0,0,rectangle,-3,-1,1,0,0,-3,-1,1,0,0,1,4,164,93,1,,,,,,,,
,,,,,,,,,,,,,FF,,,,,,,,1.466,,,,,,,,,,,,,,,,,,,,,,61036562aa01ea6f1560a8da,610368215121e23ecbd6c367,2021-07-29_22h48.27.349,Simcolourproject_2stim_asymm_v5,2020.2.10,MacIntel,60,61025ae37ef11b136ea224fe,,,,,,,,,2472,66,-33,1,0,0,response3disk,,5,21,2,1,0,0,rectangle,21,2,1,0,0,21,2,1,0,0,1,5,165,143,1,,,,,,,,
,,,,,,,,,,,,,FF,,,,,,,,0.767,,,,,,,,,,,,,,,,,,,,,,61036562aa01ea6f1560a8da,610368215121e23ecbd6c367,2021-07-29_22h48.27.349,Simcolourproject_2stim_asymm_v5,2020.2.10,MacIntel,60,61025ae37ef11b136ea224fe,,,,,,,,,4011,23,43,1,0,0,response1disk,,7,16,-11,1,0,0,rectangle,16,-11,1,0,0,16,-11,1,0,0,1,6,166,125,1,,,,,,,,
,,,,,,,,,,,,,FF,,,,,,,,0.7,,,,,,,,,,,,,,,,,,,,,,61036562aa01ea6f1560a8da,610368215121e23ecbd6c367,2021-07-29_22h48.27.349,Simcolourproject_2stim_asymm_v5,2020.2.10,MacIntel,60,61025ae37ef11b136ea224fe,,,,,,,,,140,33,30,1,0,0,response1disk,,6,18,3,1,0,0,rectangle,-28,-79,1,0,0,-9,-2,1,0,0,1,7,167,116,1,,response5disk_3,TRUE,3,3,"[45,299,96,244,56,154,241,155,168,201,68,235,302,189,282,13,259,24,184,291]",1.534,rectangle
,,,,,,,,,,,,,FF,,,,,,,,1.017,,,,,,,,,,,,,,,,,,,,,,61036562aa01ea6f1560a8da,610368215121e23ecbd6c367,2021-07-29_22h48.27.349,Simcolourproject_2stim_asymm_v5,2020.2.10,MacIntel,60,61025ae37ef11b136ea224fe,,,,,,,,,4040,52,66,1,0,0,response1disk,,7,20,4,1,0,0,rectangle,20,4,1,0,0,20,4,1,0,0,1,8,168,90,1,,,,,,,,
,,,,,,,,,,,,,FF,,,,,,,,1.082,,,,,,,,,,,,,,,,,,,,,,61036562aa01ea6f1560a8da,610368215121e23ecbd6c367,2021-07-29_22h48.27.349,Simcolourproject_2stim_asymm_v5,2020.2.10,MacIntel,60,61025ae37ef11b136ea224fe,,,,,,,,,4102,-22,-58,1,0,0,response5disk,,3,-12,9,1,0,0,rectangle,-12,9,1,0,0,-12,9,1,0,0,1,9,169,155,1,,,,,,,,
,,,,,,,,,,,,,FF,,,,,,,,1.65,,,,,,,,,,,,,,,,,,,,,,61036562aa01ea6f1560a8da,610368215121e23ecbd6c367,2021-07-29_22h48.27.349,Simcolourproject_2stim_asymm_v5,2020.2.10,MacIntel,60,61025ae37ef11b136ea224fe,,,,,,,,,1008,37,49,1,0,0,response1disk,,7,16,1,1,0,0,rectangle,16,1,1,0,0,16,1,1,0,0,1,10,170,137,1,,,,,,,,
,,,,,,,,,,,,,FF,,,,,,,,0.717,,,,,,,,,,,,,,,,,,,,,,61036562aa01ea6f1560a8da,610368215121e23ecbd6c367,2021-07-29_22h48.27.349,Simcolourproject_2stim_asymm_v5,2020.2.10,MacIntel,60,61025ae37ef11b136ea224fe,,,,,,,,,1715,25,38,1,0,0,response1disk,,7,25,7,1,0,0,rectangle,25,7,1,0,0,25,7,1,0,0,1,11,171,96,1,,,,,,,,
,,,,,,,,,,,,,FF,,,,,,,,0.699,,,,,,,,,,,,,,,,,,,,,,61036562aa01ea6f1560a8da,610368215121e23ecbd6c367,2021-07-29_22h48.27.349,Simcolourproject_2stim_asymm_v5,2020.2.10,MacIntel,60,61025ae37ef11b136ea224fe,,,,,,,,,4254,26,50,1,0,0,response1disk,,7,26,14,1,0,0,rectangle,26,14,1,0,0,26,14,1,0,0,1,12,172,9,1,,,,,,,,
,,,,,,,,,,,,,FF,,,,,,,,2,,,,,,,,,,,,,,,,,,,,,,61036562aa01ea6f1560a8da,610368215121e23ecbd6c367,2021-07-29_22h48.27.349,Simcolourproject_2stim_asymm_v5,2020.2.10,MacIntel,60,61025ae37ef11b136ea224fe,,,,,,,,,3429,39,-54,1,0,0,response3disk,,4,20,-13,1,0,0,rectangle,20,-13,1,0,0,20,-13,1,0,0,1,13,173,65,1,,,,,,,,
,,,,,,,,,,,,,FF,,,,,,,,0.883,,,,,,,,,,,,,,,,,,,,,,61036562aa01ea6f1560a8da,610368215121e23ecbd6c367,2021-07-29_22h48.27.349,Simcolourproject_2stim_asymm_v5,2020.2.10,MacIntel,60,61025ae37ef11b136ea224fe,,,,,,,,,2558,29,46,1,0,0,response1disk,,7,27,-13,1,0,0,rectangle,27,-13,1,0,0,27,-13,1,0,0,1,14,174,14,1,,,,,,,,
,,,,,,,,,,,,,FF,,,,,,,,0.749,,,,,,,,,,,,,,,,,,,,,,61036562aa01ea6f1560a8da,610368215121e23ecbd6c367,2021-07-29_22h48.27.349,Simcolourproject_2stim_asymm_v5,2020.2.10,MacIntel,60,61025ae37ef11b136ea224fe,,,,,,,,,1428,30,49,1,0,0,response1disk,,7,25,-10,1,0,0,rectangle,25,-10,1,0,0,25,-10,1,0,0,1,15,175,98,1,,,,,,,,
,,,,,,,,,,,,,FF,,,,,,,,0.9,,,,,,,,,,,,,,,,,,,,,,61036562aa01ea6f1560a8da,610368215121e23ecbd6c367,2021-07-29_22h48.27.349,Simcolourproject_2stim_asymm_v5,2020.2.10,MacIntel,60,61025ae37ef11b136ea224fe,,,,,,,,,3734,28,47,1,0,0,response1disk,,7,8,-5,1,0,0,rectangle,8,-5,1,0,0,8,-5,1,0,0,1,16,176,113,1,,,,,,,,
,,,,,,,,,,,,,FF,,,,,,,,0.699,,,,,,,,,,,,,,,,,,,,,,61036562aa01ea6f1560a8da,610368215121e23ecbd6c367,2021-07-29_22h48.27.349,Simcolourproject_2stim_asymm_v5,2020.2.10,MacIntel,60,61025ae37ef11b136ea224fe,,,,,,,,,2873,23,51,1,0,0,response1disk,,7,16,-4,1,0,0,rectangle,16,-4,1,0,0,16,-4,1,0,0,1,17,177,83,1,,,,,,,,
,,,,,,,,,,,,,FF,,,,,,,,1.4,,,,,,,,,,,,,,,,,,,,,,61036562aa01ea6f1560a8da,610368215121e23ecbd6c367,2021-07-29_22h48.27.349,Simcolourproject_2stim_asymm_v5,2020.2.10,MacIntel,60,61025ae37ef11b136ea224fe,,,,,,,,,635,57,-28,1,0,0,response3disk,,5,21,-15,1,0,0,rectangle,21,-15,1,0,0,21,-15,1,0,0,1,18,178,18,1,,,,,,,,
,,,,,,,,,,,,,FF,,,,,,,,0.816,,,,,,,,,,,,,,,,,,,,,,61036562aa01ea6f1560a8da,610368215121e23ecbd6c367,2021-07-29_22h48.27.349,Simcolourproject_2stim_asymm_v5,2020.2.10,MacIntel,60,61025ae37ef11b136ea224fe,,,,,,,,,2732,33,45,1,0,0,response1disk,,7,16,-5,1,0,0,rectangle,16,-5,1,0,0,16,-5,1,0,0,1,19,179,66,1,,,,,,,,
,,,,,,,,,,,,,FF,,,,,,,,0.667,,,,,,,,,,,,,,,,,,,,,,61036562aa01ea6f1560a8da,610368215121e23ecbd6c367,2021-07-29_22h48.27.349,Simcolourproject_2stim_asymm_v5,2020.2.10,MacIntel,60,61025ae37ef11b136ea224fe,,,,,,,,,3422,35,34,1,0,0,response1disk,,6,35,9,1,0,0,rectangle,35,9,1,0,0,35,9,1,0,0,1,20,180,44,1,,,,,,,,
,,,,,,,,,,,,,FF,,,,,,,,0.534,,,,,,,,,,,,,,,,,,,,,,61036562aa01ea6f1560a8da,610368215121e23ecbd6c367,2021-07-29_22h48.27.349,Simcolourproject_2stim_asymm_v5,2020.2.10,MacIntel,60,61025ae37ef11b136ea224fe,,,,,,,,,740,33,53,1,0,0,response1disk,,7,33,2,1,0,0,rectangle,33,2,1,0,0,33,2,1,0,0,1,21,181,100,1,,,,,,,,
,,,,,,,,,,,,,FF,,,,,,,,0.567,,,,,,,,,,,,,,,,,,,,,,61036562aa01ea6f1560a8da,610368215121e23ecbd6c367,2021-07-29_22h48.27.349,Simcolourproject_2stim_asymm_v5,2020.2.10,MacIntel,60,61025ae37ef11b136ea224fe,,,,,,,,,4179,34,52,1,0,0,response1disk,,7,32,10,1,0,0,rectangle,32,10,1,0,0,32,10,1,0,0,1,22,182,78,1,,,,,,,,
,,,,,,,,,,,,,FF,,,,,,,,1.166,,,,,,,,,,,,,,,,,,,,,,61036562aa01ea6f1560a8da,610368215121e23ecbd6c367,2021-07-29_22h48.27.349,Simcolourproject_2stim_asymm_v5,2020.2.10,MacIntel,60,61025ae37ef11b136ea224fe,,,,,,,,,1406,30,49,1,0,0,response1disk,,7,16,9,1,0,0,rectangle,64,-30,1,0,0,14,-15,1,0,0,1,23,183,13,1,,response3disk_3,TRUE,5,5,"[45,299,96,244,56,154,241,155,168,201,68,235,302,189,282,13,259,24,184,291]",1.35,rectangle
,,,,,,,,,,,,,FF,,,,,,,,2.601,,,,,,,,,,,,,,,,,,,,,,61036562aa01ea6f1560a8da,610368215121e23ecbd6c367,2021-07-29_22h48.27.349,Simcolourproject_2stim_asymm_v5,2020.2.10,MacIntel,60,61025ae37ef11b136ea224fe,,,,,,,,,3073,30,83,1,0,0,response1disk,,7,6,4,1,0,0,rectangle,6,4,1,0,0,6,4,1,0,0,1,24,184,73,1,,,,,,,,
,,,,,,,,,,,,,FF,,,,,,,,1.433,,,,,,,,,,,,,,,,,,,,,,61036562aa01ea6f1560a8da,610368215121e23ecbd6c367,2021-07-29_22h48.27.349,Simcolourproject_2stim_asymm_v5,2020.2.10,MacIntel,60,61025ae37ef11b136ea224fe,,,,,,,,,1052,-49,-67,1,0,0,response5disk,,3,-5,9,1,0,0,rectangle,-5,9,1,0,0,-5,9,1,0,0,1,25,185,147,1,,,,,,,,
,,,,,,,,,,,,,FF,,,,,,,,0.95,,,,,,,,,,,,,,,,,,,,,,61036562aa01ea6f1560a8da,610368215121e23ecbd6c367,2021-07-29_22h48.27.349,Simcolourproject_2stim_asymm_v5,2020.2.10,MacIntel,60,61025ae37ef11b136ea224fe,,,,,,,,,260,-29,-74,1,0,0,response5disk,,3,-17,3,1,0,0,rectangle,-17,3,1,0,0,-17,3,1,0,0,1,26,186,67,1,,,,,,,,
,,,,,,,,,,,,,FF,,,,,,,,0.749,,,,,,,,,,,,,,,,,,,,,,61036562aa01ea6f1560a8da,610368215121e23ecbd6c367,2021-07-29_22h48.27.349,Simcolourproject_2stim_asymm_v5,2020.2.10,MacIntel,60,61025ae37ef11b136ea224fe,,,,,,,,,3106,-25,-61,1,0,0,response5disk,,3,-15,8,1,0,0,rectangle,-15,8,1,0,0,-15,8,1,0,0,1,27,187,33,1,,,,,,,,
,,,,,,,,,,,,,FF,,,,,,,,1.067,,,,,,,,,,,,,,,,,,,,,,61036562aa01ea6f1560a8da,610368215121e23ecbd6c367,2021-07-29_22h48.27.349,Simcolourproject_2stim_asymm_v5,2020.2.10,MacIntel,60,61025ae37ef11b136ea224fe,,,,,,,,,1758,80,-58,1,0,0,response3disk,,5,20,-14,1,0,0,rectangle,-58,-25,1,0,0,-9,-6,1,0,0,1,28,188,127,1,,response5disk_3,TRUE,2,2,"[45,299,96,244,56,154,241,155,168,201,68,235,302,189,282,13,259,24,184,291]",1.267,rectangle
,,,,,,,,,,,,,FF,,,,,,,,2.133,,,,,,,,,,,,,,,,,,,,,,61036562aa01ea6f1560a8da,610368215121e23ecbd6c367,2021-07-29_22h48.27.349,Simcolourproject_2stim_asymm_v5,2020.2.10,MacIntel,60,61025ae37ef11b136ea224fe,,,,,,,,,3275,65,-41,1,0,0,response3disk,,5,28,-9,1,0,0,rectangle,28,-9,1,0,0,28,-9,1,0,0,1,29,189,77,1,,,,,,,,
,,,,,,,,,,,,,FF,,,,,,,,0.668,,,,,,,,,,,,,,,,,,,,,,61036562aa01ea6f1560a8da,610368215121e23ecbd6c367,2021-07-29_22h48.27.349,Simcolourproject_2stim_asymm_v5,2020.2.10,MacIntel,60,61025ae37ef11b136ea224fe,,,,,,,,,1235,24,70,1,0,0,response1disk,,7,5,9,1,0,0,rectangle,5,9,1,0,0,5,9,1,0,0,1,30,190,146,1,,,,,,,,
,,,,,,,,,,,,,FF,,,,,,,,0.618,,,,,,,,,,,,,,,,,,,,,,61036562aa01ea6f1560a8da,610368215121e23ecbd6c367,2021-07-29_22h48.27.349,Simcolourproject_2stim_asymm_v5,2020.2.10,MacIntel,60,61025ae37ef11b136ea224fe,,,,,,,,,3795,26,60,1,0,0,response1disk,,7,9,12,1,0,0,rectangle,9,12,1,0,0,9,12,1,0,0,1,31,191,112,1,,,,,,,,
,,,,,,,,,,,,,FF,,,,,,,,1.016,,,,,,,,,,,,,,,,,,,,,,61036562aa01ea6f1560a8da,610368215121e23ecbd6c367,2021-07-29_22h48.27.349,Simcolourproject_2stim_asymm_v5,2020.2.10,MacIntel,60,61025ae37ef11b136ea224fe,,,,,,,,,2161,49,-70,1,0,0,response3disk,,4,15,-12,1,0,0,rectangle,15,-12,1,0,0,15,-12,1,0,0,1,32,192,85,1,,,,,,,,
,,,,,,,,,,,,,FF,,,,,,,,0.683,,,,,,,,,,,,,,,,,,,,,,61036562aa01ea6f1560a8da,610368215121e23ecbd6c367,2021-07-29_22h48.27.349,Simcolourproject_2stim_asymm_v5,2020.2.10,MacIntel,60,61025ae37ef11b136ea224fe,,,,,,,,,2383,24,77,1,0,0,response1disk,,7,8,-4,1,0,0,rectangle,8,-4,1,0,0,8,-4,1,0,0,1,33,193,120,1,,,,,,,,
,,,,,,,,,,,,,FF,,,,,,,,1.166,,,,,,,,,,,,,,,,,,,,,,61036562aa01ea6f1560a8da,610368215121e23ecbd6c367,2021-07-29_22h48.27.349,Simcolourproject_2stim_asymm_v5,2020.2.10,MacIntel,60,61025ae37ef11b136ea224fe,,,,,,,,,3662,-63,-27,1,0,0,response5disk,,2,-25,4,1,0,0,rectangle,-25,4,1,0,0,-25,4,1,0,0,1,34,194,81,1,,,,,,,,
,,,,,,,,,,,,,FF,,,,,,,,0.699,,,,,,,,,,,,,,,,,,,,,,61036562aa01ea6f1560a8da,610368215121e23ecbd6c367,2021-07-29_22h48.27.349,Simcolourproject_2stim_asymm_v5,2020.2.10,MacIntel,60,61025ae37ef11b136ea224fe,,,,,,,,,850,39,98,1,0,0,response1disk,,7,-3,-3,1,0,0,rectangle,-3,-3,1,0,0,-3,-3,1,0,0,1,35,195,108,1,,,,,,,,
,,,,,,,,,,,,,FF,,,,,,,,1.184,,,,,,,,,,,,,,,,,,,,,,61036562aa01ea6f1560a8da,610368215121e23ecbd6c367,2021-07-29_22h48.27.349,Simcolourproject_2stim_asymm_v5,2020.2.10,MacIntel,60,61025ae37ef11b136ea224fe,,,,,,,,,2900,-47,-80,1,0,0,response5disk,,3,-6,4,1,0,0,rectangle,-6,4,1,0,0,-6,4,1,0,0,1,36,196,31,1,,,,,,,,
,,,,,,,,,,,,,FF,,,,,,,,1.199,,,,,,,,,,,,,,,,,,,,,,61036562aa01ea6f1560a8da,610368215121e23ecbd6c367,2021-07-29_22h48.27.349,Simcolourproject_2stim_asymm_v5,2020.2.10,MacIntel,60,61025ae37ef11b136ea224fe,,,,,,,,,3075,38,73,1,0,0,response1disk,,7,15,10,1,0,0,rectangle,15,10,1,0,0,15,10,1,0,0,1,37,197,132,1,,,,,,,,
,,,,,,,,,,,,,FF,,,,,,,,0.9,,,,,,,,,,,,,,,,,,,,,,61036562aa01ea6f1560a8da,610368215121e23ecbd6c367,2021-07-29_22h48.27.349,Simcolourproject_2stim_asymm_v5,2020.2.10,MacIntel,60,61025ae37ef11b136ea224fe,,,,,,,,,1572,26,39,1,0,0,response1disk,,7,14,1,1,0,0,rectangle,14,1,1,0,0,14,1,1,0,0,1,38,198,53,1,,,,,,,,
,,,,,,,,,,,,,FF,,,,,,,,0.768,,,,,,,,,,,,,,,,,,,,,,61036562aa01ea6f1560a8da,610368215121e23ecbd6c367,2021-07-29_22h48.27.349,Simcolourproject_2stim_asymm_v5,2020.2.10,MacIntel,60,61025ae37ef11b136ea224fe,,,,,,,,,2429,27,57,1,0,0,response1disk,,7,16,16,1,0,0,rectangle,16,16,1,0,0,16,16,1,0,0,1,39,199,21,1,,,,,,,,
,,,,,,,,,,,,,FF,,,,,,,,1.218,,,,,,,,,,,,,,,,,,,,,,61036562aa01ea6f1560a8da,610368215121e23ecbd6c367,2021-07-29_22h48.27.349,Simcolourproject_2stim_asymm_v5,2020.2.10,MacIntel,60,61025ae37ef11b136ea224fe,,,,,,,,,3515,-51,32,1,0,0,response7disk,,1,-1,-10,1,0,0,rectangle,56,82,1,0,0,26,2,1,0,0,1,40,200,105,1,,response1disk_3,TRUE,7,7,"[45,299,96,244,56,154,241,155,168,201,68,235,302,189,282,13,259,24,184,291]",1.283,rectangle
,,,,,,,,,,,,,FF,,,,,,,,1.116,,,,,,,,,,,,,,,,,,,,,,61036562aa01ea6f1560a8da,610368215121e23ecbd6c367,2021-07-29_22h48.27.349,Simcolourproject_2stim_asymm_v5,2020.2.10,MacIntel,60,61025ae37ef11b136ea224fe,,,,,,,,,624,32,51,1,0,0,response1disk,,7,7,0,1,0,0,rectangle,7,0,1,0,0,7,0,1,0,0,1,41,201,62,1,,,,,,,,
,,,,,,,,,,,,,FF,,,,,,,,0.85,,,,,,,,,,,,,,,,,,,,,,61036562aa01ea6f1560a8da,610368215121e23ecbd6c367,2021-07-29_22h48.27.349,Simcolourproject_2stim_asymm_v5,2020.2.10,MacIntel,60,61025ae37ef11b136ea224fe,,,,,,,,,1667,26,44,1,0,0,response1disk,,7,2,5,1,0,0,rectangle,2,5,1,0,0,2,5,1,0,0,1,42,202,39,1,,,,,,,,
,,,,,,,,,,,,,FF,,,,,,,,1.649,,,,,,,,,,,,,,,,,,,,,,61036562aa01ea6f1560a8da,610368215121e23ecbd6c367,2021-07-29_22h48.27.349,Simcolourproject_2stim_asymm_v5,2020.2.10,MacIntel,60,61025ae37ef11b136ea224fe,,,,,,,,,3209,28,48,1,0,0,response1disk,,7,12,5,1,0,0,rectangle,12,5,1,0,0,12,5,1,0,0,1,43,203,133,1,,,,,,,,
,,,,,,,,,,,,,FF,,,,,,,,1.501,,,,,,,,,,,,,,,,,,,,,,61036562aa01ea6f1560a8da,610368215121e23ecbd6c367,2021-07-29_22h48.27.349,Simcolourproject_2stim_asymm_v5,2020.2.10,MacIntel,60,61025ae37ef11b136ea224fe,,,,,,,,,1818,-56,-40,1,0,0,response5disk,,2,-10,-6,1,0,0,rectangle,-10,-6,1,0,0,-10,-6,1,0,0,1,44,204,74,1,,,,,,,,
,,,,,,,,,,,,,FF,,,,,,,,2.067,,,,,,,,,,,,,,,,,,,,,,61036562aa01ea6f1560a8da,610368215121e23ecbd6c367,2021-07-29_22h48.27.349,Simcolourproject_2stim_asymm_v5,2020.2.10,MacIntel,60,61025ae37ef11b136ea224fe,,,,,,,,,2945,-24,-73,1,0,0,response5disk,,3,-8,-7,1,0,0,rectangle,-8,-7,1,0,0,-8,-7,1,0,0,1,45,205,123,1,,,,,,,,
,,,,,,,,,,,,,FF,,,,,,,,0.849,,,,,,,,,,,,,,,,,,,,,,61036562aa01ea6f1560a8da,610368215121e23ecbd6c367,2021-07-29_22h48.27.349,Simcolourproject_2stim_asymm_v5,2020.2.10,MacIntel,60,61025ae37ef11b136ea224fe,,,,,,,,,3381,-39,92,1,0,0,response7disk,,0,-9,-1,1,0,0,rectangle,-9,-1,1,0,0,-9,-1,1,0,0,1,46,206,45,1,,,,,,,,
,,,,,,,,,,,,,FF,,,,,,,,1.632,,,,,,,,,,,,,,,,,,,,,,61036562aa01ea6f1560a8da,610368215121e23ecbd6c367,2021-07-29_22h48.27.349,Simcolourproject_2stim_asymm_v5,2020.2.10,MacIntel,60,61025ae37ef11b136ea224fe,,,,,,,,,1451,-36,-86,1,0,0,response5disk,,3,-2,-8,1,0,0,rectangle,-2,-8,1,0,0,-2,-8,1,0,0,1,47,207,139,1,,,,,,,,
,,,,,,,,,,,,,FF,,,,,,,,1.751,,,,,,,,,,,,,,,,,,,,,,61036562aa01ea6f1560a8da,610368215121e23ecbd6c367,2021-07-29_22h48.27.349,Simcolourproject_2stim_asymm_v5,2020.2.10,MacIntel,60,61025ae37ef11b136ea224fe,,,,,,,,,1059,35,50,1,0,0,response1disk,,7,21,-9,1,0,0,rectangle,21,-9,1,0,0,21,-9,1,0,0,1,48,208,135,1,,,,,,,,
,,,,,,,,,,,,,FF,,,,,,,,1.199,,,,,,,,,,,,,,,,,,,,,,61036562aa01ea6f1560a8da,610368215121e23ecbd6c367,2021-07-29_22h48.27.349,Simcolourproject_2stim_asymm_v5,2020.2.10,MacIntel,60,61025ae37ef11b136ea224fe,,,,,,,,,2824,49,74,1,0,0,response1disk,,7,32,4,1,0,0,rectangle,32,4,1,0,0,32,4,1,0,0,1,49,209,136,1,,,,,,,,
,,,,,,,,,,,,,FF,,,,,,,,0.816,,,,,,,,,,,,,,,,,,,,,,61036562aa01ea6f1560a8da,610368215121e23ecbd6c367,2021-07-29_22h48.27.349,Simcolourproject_2stim_asymm_v5,2020.2.10,MacIntel,60,61025ae37ef11b136ea224fe,,,,,,,,,819,31,46,1,0,0,response1disk,,7,19,-1,1,0,0,rectangle,19,-1,1,0,0,19,-1,1,0,0,1,50,210,80,1,,,,,,,,
,,,,,,,,,,,,,FF,,,,,,,,0.632,,,,,,,,,,,,,,,,,,,,,,61036562aa01ea6f1560a8da,610368215121e23ecbd6c367,2021-07-29_22h48.27.349,Simcolourproject_2stim_asymm_v5,2020.2.10,MacIntel,60,61025ae37ef11b136ea224fe,,,,,,,,,1567,28,42,1,0,0,response1disk,,7,12,-13,1,0,0,rectangle,12,-13,1,0,0,12,-13,1,0,0,1,51,211,27,1,,,,,,,,
,,,,,,,,,,,,,FF,,,,,,,,0.684,,,,,,,,,,,,,,,,,,,,,,61036562aa01ea6f1560a8da,610368215121e23ecbd6c367,2021-07-29_22h48.27.349,Simcolourproject_2stim_asymm_v5,2020.2.10,MacIntel,60,61025ae37ef11b136ea224fe,,,,,,,,,4241,38,49,1,0,0,response1disk,,7,19,1,1,0,0,rectangle,19,1,1,0,0,19,1,1,0,0,1,52,212,89,1,,,,,,,,
,,,,,,,,,,,,,FF,,,,,,,,1.983,,,,,,,,,,,,,,,,,,,,,,61036562aa01ea6f1560a8da,610368215121e23ecbd6c367,2021-07-29_22h48.27.349,Simcolourproject_2stim_asymm_v5,2020.2.10,MacIntel,60,61025ae37ef11b136ea224fe,,,,,,,,,589,27,56,1,0,0,response1disk,,7,24,12,1,0,0,rectangle,24,12,1,0,0,24,12,1,0,0,1,53,213,63,1,,,,,,,,
,,,,,,,,,,,,,FF,,,,,,,,0.568,,,,,,,,,,,,,,,,,,,,,,61036562aa01ea6f1560a8da,610368215121e23ecbd6c367,2021-07-29_22h48.27.349,Simcolourproject_2stim_asymm_v5,2020.2.10,MacIntel,60,61025ae37ef11b136ea224fe,,,,,,,,,3976,32,55,1,0,0,response1disk,,7,17,3,1,0,0,rectangle,17,3,1,0,0,17,3,1,0,0,1,54,214,57,1,,,,,,,,
,,,,,,,,,,,,,FF,,,,,,,,0.751,,,,,,,,,,,,,,,,,,,,,,61036562aa01ea6f1560a8da,610368215121e23ecbd6c367,2021-07-29_22h48.27.349,Simcolourproject_2stim_asymm_v5,2020.2.10,MacIntel,60,61025ae37ef11b136ea224fe,,,,,,,,,2903,29,39,1,0,0,response1disk,,7,15,-6,1,0,0,rectangle,15,-6,1,0,0,15,-6,1,0,0,1,55,215,19,1,,,,,,,,
,,,,,,,,,,,,,FF,,,,,,,,0.634,,,,,,,,,,,,,,,,,,,,,,61036562aa01ea6f1560a8da,610368215121e23ecbd6c367,2021-07-29_22h48.27.349,Simcolourproject_2stim_asymm_v5,2020.2.10,MacIntel,60,61025ae37ef11b136ea224fe,,,,,,,,,3620,23,34,1,0,0,response1disk,,7,7,-5,1,0,0,rectangle,7,-5,1,0,0,7,-5,1,0,0,1,56,216,56,1,,,,,,,,
,,,,,,,,,,,,,FF,,,,,,,,0.667,,,,,,,,,,,,,,,,,,,,,,61036562aa01ea6f1560a8da,610368215121e23ecbd6c367,2021-07-29_22h48.27.349,Simcolourproject_2stim_asymm_v5,2020.2.10,MacIntel,60,61025ae37ef11b136ea224fe,,,,,,,,,3240,30,21,1,0,0,response1disk,,6,20,11,1,0,0,rectangle,20,11,1,0,0,20,11,1,0,0,1,57,217,48,1,,,,,,,,
,,,,,,,,,,,,,FF,,,,,,,,1.283,,,,,,,,,,,,,,,,,,,,,,61036562aa01ea6f1560a8da,610368215121e23ecbd6c367,2021-07-29_22h48.27.349,Simcolourproject_2stim_asymm_v5,2020.2.10,MacIntel,60,61025ae37ef11b136ea224fe,,,,,,,,,1241,44,32,1,0,0,response1disk,,6,20,11,1,0,0,rectangle,20,11,1,0,0,20,11,1,0,0,1,58,218,97,1,,,,,,,,
,,,,,,,,,,,,,FF,,,,,,,,0.817,,,,,,,,,,,,,,,,,,,,,,61036562aa01ea6f1560a8da,610368215121e23ecbd6c367,2021-07-29_22h48.27.349,Simcolourproject_2stim_asymm_v5,2020.2.10,MacIntel,60,61025ae37ef11b136ea224fe,,,,,,,,,930,28,40,1,0,0,response1disk,,7,14,3,1,0,0,rectangle,14,3,1,0,0,14,3,1,0,0,1,59,219,140,1,,,,,,,,
,,,,,,,,,,,,,FF,,,,,,,,0.95,,,,,,,,,,,,,,,,,,,,,,61036562aa01ea6f1560a8da,610368215121e23ecbd6c367,2021-07-29_22h48.27.349,Simcolourproject_2stim_asymm_v5,2020.2.10,MacIntel,60,61025ae37ef11b136ea224fe,,,,,,,,,1532,34,-64,1,0,0,response3disk,,4,21,-1,1,0,0,rectangle,21,-1,1,0,0,21,-1,1,0,0,1,60,220,91,1,,,,,,,,
,,,,,,,,,,,,,FF,,,,,,,,0.984,,,,,,,,,,,,,,,,,,,,,,61036562aa01ea6f1560a8da,610368215121e23ecbd6c367,2021-07-29_22h48.27.349,Simcolourproject_2stim_asymm_v5,2020.2.10,MacIntel,60,61025ae37ef11b136ea224fe,,,,,,,,,439,34,-92,1,0,0,response3disk,,4,15,-9,1,0,0,rectangle,15,-9,1,0,0,15,-9,1,0,0,1,61,221,106,1,,,,,,,,
,,,,,,,,,,,,,FF,,,,,,,,1.284,,,,,,,,,,,,,,,,,,,,,,61036562aa01ea6f1560a8da,610368215121e23ecbd6c367,2021-07-29_22h48.27.349,Simcolourproject_2stim_asymm_v5,2020.2.10,MacIntel,60,61025ae37ef11b136ea224fe,,,,,,,,,2984,17,39,1,0,0,response1disk,,7,17,3,1,0,0,rectangle,17,3,1,0,0,17,3,1,0,0,1,62,222,126,1,,,,,,,,
,,,,,,,,,,,,,FF,,,,,,,,1.183,,,,,,,,,,,,,,,,,,,,,,61036562aa01ea6f1560a8da,610368215121e23ecbd6c367,2021-07-29_22h48.27.349,Simcolourproject_2stim_asymm_v5,2020.2.10,MacIntel,60,61025ae37ef11b136ea224fe,,,,,,,,,3604,29,36,1,0,0,response1disk,,7,23,4,1,0,0,rectangle,23,4,1,0,0,23,4,1,0,0,1,63,223,94,1,,,,,,,,
,,,,,,,,,,,,,FF,,,,,,,,0.884,,,,,,,,,,,,,,,,,,,,,,61036562aa01ea6f1560a8da,610368215121e23ecbd6c367,2021-07-29_22h48.27.349,Simcolourproject_2stim_asymm_v5,2020.2.10,MacIntel,60,61025ae37ef11b136ea224fe,,,,,,,,,43,33,22,1,0,0,response1disk,,6,5,-11,1,0,0,rectangle,5,-11,1,0,0,5,-11,1,0,0,1,64,224,124,1,,,,,,,,
,,,,,,,,,,,,,FF,,,,,,,,0.683,,,,,,,,,,,,,,,,,,,,,,61036562aa01ea6f1560a8da,610368215121e23ecbd6c367,2021-07-29_22h48.27.349,Simcolourproject_2stim_asymm_v5,2020.2.10,MacIntel,60,61025ae37ef11b136ea224fe,,,,,,,,,2578,33,41,1,0,0,response1disk,,7,23,-2,1,0,0,rectangle,23,-2,1,0,0,23,-2,1,0,0,1,65,225,141,1,,,,,,,,
,,,,,,,,,,,,,FF,,,,,,,,0.65,,,,,,,,,,,,,,,,,,,,,,61036562aa01ea6f1560a8da,610368215121e23ecbd6c367,2021-07-29_22h48.27.349,Simcolourproject_2stim_asymm_v5,2020.2.10,MacIntel,60,61025ae37ef11b136ea224fe,,,,,,,,,2650,34,38,1,0,0,response1disk,,7,27,2,1,0,0,rectangle,27,2,1,0,0,27,2,1,0,0,1,66,226,156,1,,,,,,,,
,,,,,,,,,,,,,FF,,,,,,,,0.483,,,,,,,,,,,,,,,,,,,,,,61036562aa01ea6f1560a8da,610368215121e23ecbd6c367,2021-07-29_22h48.27.349,Simcolourproject_2stim_asymm_v5,2020.2.10,MacIntel,60,61025ae37ef11b136ea224fe,,,,,,,,,3888,47,37,1,0,0,response1disk,,6,29,5,1,0,0,rectangle,29,5,1,0,0,29,5,1,0,0,1,67,227,95,1,,,,,,,,
,,,,,,,,,,,,,FF,,,,,,,,0.484,,,,,,,,,,,,,,,,,,,,,,61036562aa01ea6f1560a8da,610368215121e23ecbd6c367,2021-07-29_22h48.27.349,Simcolourproject_2stim_asymm_v5,2020.2.10,MacIntel,60,61025ae37ef11b136ea224fe,,,,,,,,,507,34,40,1,0,0,response1disk,,7,18,-7,1,0,0,rectangle,18,-7,1,0,0,18,-7,1,0,0,1,68,228,4,1,,,,,,,,
,,,,,,,,,,,,,FF,,,,,,,,0.401,,,,,,,,,,,,,,,,,,,,,,61036562aa01ea6f1560a8da,610368215121e23ecbd6c367,2021-07-29_22h48.27.349,Simcolourproject_2stim_asymm_v5,2020.2.10,MacIntel,60,61025ae37ef11b136ea224fe,,,,,,,,,3658,37,40,1,0,0,response1disk,,7,20,8,1,0,0,rectangle,20,8,1,0,0,20,8,1,0,0,1,69,229,148,1,,,,,,,,
,,,,,,,,,,,,,FF,,,,,,,,0.483,,,,,,,,,,,,,,,,,,,,,,61036562aa01ea6f1560a8da,610368215121e23ecbd6c367,2021-07-29_22h48.27.349,Simcolourproject_2stim_asymm_v5,2020.2.10,MacIntel,60,61025ae37ef11b136ea224fe,,,,,,,,,1935,40,42,1,0,0,response1disk,,7,28,-1,1,0,0,rectangle,28,-1,1,0,0,28,-1,1,0,0,1,70,230,131,1,,,,,,,,
,,,,,,,,,,,,,FF,,,,,,,,0.45,,,,,,,,,,,,,,,,,,,,,,61036562aa01ea6f1560a8da,610368215121e23ecbd6c367,2021-07-29_22h48.27.349,Simcolourproject_2stim_asymm_v5,2020.2.10,MacIntel,60,61025ae37ef11b136ea224fe,,,,,,,,,3362,41,38,1,0,0,response1disk,,6,29,-5,1,0,0,rectangle,29,-5,1,0,0,29,-5,1,0,0,1,71,231,103,1,,,,,,,,
,,,,,,,,,,,,,FF,,,,,,,,0.501,,,,,,,,,,,,,,,,,,,,,,61036562aa01ea6f1560a8da,610368215121e23ecbd6c367,2021-07-29_22h48.27.349,Simcolourproject_2stim_asymm_v5,2020.2.10,MacIntel,60,61025ae37ef11b136ea224fe,,,,,,,,,250,39,29,1,0,0,response1disk,,6,27,5,1,0,0,rectangle,27,5,1,0,0,27,5,1,0,0,1,72,232,11,1,,,,,,,,
,,,,,,,,,,,,,FF,,,,,,,,1.034,,,,,,,,,,,,,,,,,,,,,,61036562aa01ea6f1560a8da,610368215121e23ecbd6c367,2021-07-29_22h48.27.349,Simcolourproject_2stim_asymm_v5,2020.2.10,MacIntel,60,61025ae37ef11b136ea224fe,,,,,,,,,1897,59,-39,1,0,0,response3disk,,5,23,-5,1,0,0,rectangle,23,-5,1,0,0,23,-5,1,0,0,1,73,233,54,1,,,,,,,,
,,,,,,,,,,,,,FF,,,,,,,,1.333,,,,,,,,,,,,,,,,,,,,,,61036562aa01ea6f1560a8da,610368215121e23ecbd6c367,2021-07-29_22h48.27.349,Simcolourproject_2stim_asymm_v5,2020.2.10,MacIntel,60,61025ae37ef11b136ea224fe,,,,,,,,,2317,27,30,1,0,0,response1disk,,7,10,-4,1,0,0,rectangle,37,-84,1,0,0,25,8,1,0,0,1,74,234,68,1,,response3disk_3,TRUE,4,4,"[45,299,96,244,56,154,241,155,168,201,68,235,302,189,282,13,259,24,184,291]",1.282,rectangle
,,,,,,,,,,,,,FF,,,,,,,,2.584,,,,,,,,,,,,,,,,,,,,,,61036562aa01ea6f1560a8da,610368215121e23ecbd6c367,2021-07-29_22h48.27.349,Simcolourproject_2stim_asymm_v5,2020.2.10,MacIntel,60,61025ae37ef11b136ea224fe,,,,,,,,,966,32,34,1,0,0,response1disk,,7,13,-17,1,0,0,rectangle,13,-17,1,0,0,13,-17,1,0,0,1,75,235,128,1,,,,,,,,
,,,,,,,,,,,,,FF,,,,,,,,0.6,,,,,,,,,,,,,,,,,,,,,,61036562aa01ea6f1560a8da,610368215121e23ecbd6c367,2021-07-29_22h48.27.349,Simcolourproject_2stim_asymm_v5,2020.2.10,MacIntel,60,61025ae37ef11b136ea224fe,,,,,,,,,1631,31,34,1,0,0,response1disk,,7,19,-5,1,0,0,rectangle,19,-5,1,0,0,19,-5,1,0,0,1,76,236,51,1,,,,,,,,
,,,,,,,,,,,,,FF,,,,,,,,0.45,,,,,,,,,,,,,,,,,,,,,,61036562aa01ea6f1560a8da,610368215121e23ecbd6c367,2021-07-29_22h48.27.349,Simcolourproject_2stim_asymm_v5,2020.2.10,MacIntel,60,61025ae37ef11b136ea224fe,,,,,,,,,2120,31,32,1,0,0,response1disk,,7,24,-3,1,0,0,rectangle,24,-3,1,0,0,24,-3,1,0,0,1,77,237,6,1,,,,,,,,
,,,,,,,,,,,,,FF,,,,,,,,0.683,,,,,,,,,,,,,,,,,,,,,,61036562aa01ea6f1560a8da,610368215121e23ecbd6c367,2021-07-29_22h48.27.349,Simcolourproject_2stim_asymm_v5,2020.2.10,MacIntel,60,61025ae37ef11b136ea224fe,,,,,,,,,2510,33,37,1,0,0,response1disk,,7,29,-4,1,0,0,rectangle,29,-4,1,0,0,29,-4,1,0,0,1,78,238,122,1,,,,,,,,
,,,,,,,,,,,,,FF,,,,,,,,1.801,,,,,,,,,,,,,,,,,,,,,,61036562aa01ea6f1560a8da,610368215121e23ecbd6c367,2021-07-29_22h48.27.349,Simcolourproject_2stim_asymm_v5,2020.2.10,MacIntel,60,61025ae37ef11b136ea224fe,,,,,,,,,2924,38,27,1,0,0,response1disk,,6,30,15,1,0,0,rectangle,30,15,1,0,0,30,15,1,0,0,1,79,239,0,1,,,,,,,,
,,,,,,,,,,,,,FF,,,,,,,,1.783,,,,,,,,,,,,,,,,,,,,,,61036562aa01ea6f1560a8da,610368215121e23ecbd6c367,2021-07-29_22h48.27.349,Simcolourproject_2stim_asymm_v5,2020.2.10,MacIntel,60,61025ae37ef11b136ea224fe,,,,,,,,,1707,36,32,1,0,0,response1disk,,6,30,14,1,0,0,rectangle,-81,43,1,0,0,11,0,1,0,0,1,80,240,12,1,,response7disk_3,TRUE,1,1,"[45,299,96,244,56,154,241,155,168,201,68,235,302,189,282,13,259,24,184,291]",1.9,rectangle
,,,,,,,,,,,,,FF,,,,,,,,2.233,,,,,,,,,,,,,,,,,,,,,,61036562aa01ea6f1560a8da,610368215121e23ecbd6c367,2021-07-29_22h48.27.349,Simcolourproject_2stim_asymm_v5,2020.2.10,MacIntel,60,61025ae37ef11b136ea224fe,,,,,,,,,2687,26,41,1,0,0,response1disk,,7,3,-1,1,0,0,rectangle,3,-1,1,0,0,3,-1,1,0,0,1,81,241,109,1,,,,,,,,
,,,,,,,,,,,,,FF,,,,,,,,0.833,,,,,,,,,,,,,,,,,,,,,,61036562aa01ea6f1560a8da,610368215121e23ecbd6c367,2021-07-29_22h48.27.349,Simcolourproject_2stim_asymm_v5,2020.2.10,MacIntel,60,61025ae37ef11b136ea224fe,,,,,,,,,4045,22,22,1,0,0,response1disk,,7,12,3,1,0,0,rectangle,12,3,1,0,0,12,3,1,0,0,1,82,242,152,1,,,,,,,,
,,,,,,,,,,,,,FF,,,,,,,,0.483,,,,,,,,,,,,,,,,,,,,,,61036562aa01ea6f1560a8da,610368215121e23ecbd6c367,2021-07-29_22h48.27.349,Simcolourproject_2stim_asymm_v5,2020.2.10,MacIntel,60,61025ae37ef11b136ea224fe,,,,,,,,,2762,26,36,1,0,0,response1disk,,7,8,-9,1,0,0,rectangle,-70,-30,1,0,0,-14,-17,1,0,0,1,83,243,5,1,,response5disk_3,TRUE,2,2,"[45,299,96,244,56,154,241,155,168,201,68,235,302,189,282,13,259,24,184,291]",1.215,rectangle
,,,,,,,,,,,,,FF,,,,,,,,1.584,,,,,,,,,,,,,,,,,,,,,,61036562aa01ea6f1560a8da,610368215121e23ecbd6c367,2021-07-29_22h48.27.349,Simcolourproject_2stim_asymm_v5,2020.2.10,MacIntel,60,61025ae37ef11b136ea224fe,,,,,,,,,4120,43,-73,1,0,0,response3disk,,4,19,-13,1,0,0,rectangle,19,-13,1,0,0,19,-13,1,0,0,1,84,244,16,1,,,,,,,,
,,,,,,,,,,,,,FF,,,,,,,,0.751,,,,,,,,,,,,,,,,,,,,,,61036562aa01ea6f1560a8da,610368215121e23ecbd6c367,2021-07-29_22h48.27.349,Simcolourproject_2stim_asymm_v5,2020.2.10,MacIntel,60,61025ae37ef11b136ea224fe,,,,,,,,,1118,33,27,1,0,0,response1disk,,6,16,-4,1,0,0,rectangle,16,-4,1,0,0,16,-4,1,0,0,1,85,245,70,1,,,,,,,,
,,,,,,,,,,,,,FF,,,,,,,,0.75,,,,,,,,,,,,,,,,,,,,,,61036562aa01ea6f1560a8da,610368215121e23ecbd6c367,2021-07-29_22h48.27.349,Simcolourproject_2stim_asymm_v5,2020.2.10,MacIntel,60,61025ae37ef11b136ea224fe,,,,,,,,,2540,29,26,1,0,0,response1disk,,6,26,13,1,0,0,rectangle,26,13,1,0,0,26,13,1,0,0,1,86,246,88,1,,,,,,,,
,,,,,,,,,,,,,FF,,,,,,,,0.383,,,,,,,,,,,,,,,,,,,,,,61036562aa01ea6f1560a8da,610368215121e23ecbd6c367,2021-07-29_22h48.27.349,Simcolourproject_2stim_asymm_v5,2020.2.10,MacIntel,60,61025ae37ef11b136ea224fe,,,,,,,,,1079,39,42,1,0,0,response1disk,,7,21,6,1,0,0,rectangle,21,6,1,0,0,21,6,1,0,0,1,87,247,60,1,,,,,,,,
,,,,,,,,,,,,,FF,,,,,,,,0.45,,,,,,,,,,,,,,,,,,,,,,61036562aa01ea6f1560a8da,610368215121e23ecbd6c367,2021-07-29_22h48.27.349,Simcolourproject_2stim_asymm_v5,2020.2.10,MacIntel,60,61025ae37ef11b136ea224fe,,,,,,,,,1863,38,38,1,0,0,response1disk,,7,23,3,1,0,0,rectangle,23,3,1,0,0,23,3,1,0,0,1,88,248,17,1,,,,,,,,
,,,,,,,,,,,,,FF,,,,,,,,0.616,,,,,,,,,,,,,,,,,,,,,,61036562aa01ea6f1560a8da,610368215121e23ecbd6c367,2021-07-29_22h48.27.349,Simcolourproject_2stim_asymm_v5,2020.2.10,MacIntel,60,61025ae37ef11b136ea224fe,,,,,,,,,2146,36,38,1,0,0,response1disk,,7,32,2,1,0,0,rectangle,32,2,1,0,0,32,2,1,0,0,1,89,249,76,1,,,,,,,,
,,,,,,,,,,,,,FF,,,,,,,,2.868,,,,,,,,,,,,,,,,,,,,,,61036562aa01ea6f1560a8da,610368215121e23ecbd6c367,2021-07-29_22h48.27.349,Simcolourproject_2stim_asymm_v5,2020.2.10,MacIntel,60,61025ae37ef11b136ea224fe,,,,,,,,,1482,38,35,1,0,0,response1disk,,6,23,14,1,0,0,rectangle,23,14,1,0,0,23,14,1,0,0,1,90,250,84,1,,,,,,,,
,,,,,,,,,,,,,FF,,,,,,,,0.517,,,,,,,,,,,,,,,,,,,,,,61036562aa01ea6f1560a8da,610368215121e23ecbd6c367,2021-07-29_22h48.27.349,Simcolourproject_2stim_asymm_v5,2020.2.10,MacIntel,60,61025ae37ef11b136ea224fe,,,,,,,,,468,42,44,1,0,0,response1disk,,7,31,-10,1,0,0,rectangle,31,-10,1,0,0,31,-10,1,0,0,1,91,251,142,1,,,,,,,,
,,,,,,,,,,,,,FF,,,,,,,,0.45,,,,,,,,,,,,,,,,,,,,,,61036562aa01ea6f1560a8da,610368215121e23ecbd6c367,2021-07-29_22h48.27.349,Simcolourproject_2stim_asymm_v5,2020.2.10,MacIntel,60,61025ae37ef11b136ea224fe,,,,,,,,,240,42,26,1,0,0,response1disk,,6,31,5,1,0,0,rectangle,31,5,1,0,0,31,5,1,0,0,1,92,252,75,1,,,,,,,,
,,,,,,,,,,,,,FF,,,,,,,,0.416,,,,,,,,,,,,,,,,,,,,,,61036562aa01ea6f1560a8da,610368215121e23ecbd6c367,2021-07-29_22h48.27.349,Simcolourproject_2stim_asymm_v5,2020.2.10,MacIntel,60,61025ae37ef11b136ea224fe,,,,,,,,,2283,44,34,1,0,0,response1disk,,6,30,9,1,0,0,rectangle,30,9,1,0,0,30,9,1,0,0,1,93,253,153,1,,,,,,,,
,,,,,,,,,,,,,FF,,,,,,,,0.633,,,,,,,,,,,,,,,,,,,,,,61036562aa01ea6f1560a8da,610368215121e23ecbd6c367,2021-07-29_22h48.27.349,Simcolourproject_2stim_asymm_v5,2020.2.10,MacIntel,60,61025ae37ef11b136ea224fe,,,,,,,,,15,34,29,1,0,0,response1disk,,6,20,-1,1,0,0,rectangle,20,-1,1,0,0,20,-1,1,0,0,1,94,254,7,1,,,,,,,,
,,,,,,,,,,,,,FF,,,,,,,,0.466,,,,,,,,,,,,,,,,,,,,,,61036562aa01ea6f1560a8da,610368215121e23ecbd6c367,2021-07-29_22h48.27.349,Simcolourproject_2stim_asymm_v5,2020.2.10,MacIntel,60,61025ae37ef11b136ea224fe,,,,,,,,,875,37,33,1,0,0,response1disk,,6,31,6,1,0,0,rectangle,31,6,1,0,0,31,6,1,0,0,1,95,255,111,1,,,,,,,,
,,,,,,,,,,,,,FF,,,,,,,,0.433,,,,,,,,,,,,,,,,,,,,,,61036562aa01ea6f1560a8da,610368215121e23ecbd6c367,2021-07-29_22h48.27.349,Simcolourproject_2stim_asymm_v5,2020.2.10,MacIntel,60,61025ae37ef11b136ea224fe,,,,,,,,,3860,39,24,1,0,0,response1disk,,6,25,3,1,0,0,rectangle,25,3,1,0,0,25,3,1,0,0,1,96,256,61,1,,,,,,,,
,,,,,,,,,,,,,FF,,,,,,,,0.651,,,,,,,,,,,,,,,,,,,,,,61036562aa01ea6f1560a8da,610368215121e23ecbd6c367,2021-07-29_22h48.27.349,Simcolourproject_2stim_asymm_v5,2020.2.10,MacIntel,60,61025ae37ef11b136ea224fe,,,,,,,,,1924,32,23,1,0,0,response1disk,,6,26,8,1,0,0,rectangle,26,8,1,0,0,26,8,1,0,0,1,97,257,10,1,,,,,,,,
,,,,,,,,,,,,,FF,,,,,,,,0.484,,,,,,,,,,,,,,,,,,,,,,61036562aa01ea6f1560a8da,610368215121e23ecbd6c367,2021-07-29_22h48.27.349,Simcolourproject_2stim_asymm_v5,2020.2.10,MacIntel,60,61025ae37ef11b136ea224fe,,,,,,,,,2214,44,34,1,0,0,response1disk,,6,25,8,1,0,0,rectangle,-40,-87,1,0,0,-26,13,1,0,0,1,98,258,28,1,,response5disk_3,TRUE,3,3,"[45,299,96,244,56,154,241,155,168,201,68,235,302,189,282,13,259,24,184,291]",1.317,rectangle
,,,,,,,,,,,,,FF,,,,,,,,1.134,,,,,,,,,,,,,,,,,,,,,,61036562aa01ea6f1560a8da,610368215121e23ecbd6c367,2021-07-29_22h48.27.349,Simcolourproject_2stim_asymm_v5,2020.2.10,MacIntel,60,61025ae37ef11b136ea224fe,,,,,,,,,3533,31,28,1,0,0,response1disk,,6,5,-4,1,0,0,rectangle,5,-4,1,0,0,5,-4,1,0,0,1,99,259,115,1,,,,,,,,
,,,,,,,,,,,,,FF,,,,,,,,0.584,,,,,,,,,,,,,,,,,,,,,,61036562aa01ea6f1560a8da,610368215121e23ecbd6c367,2021-07-29_22h48.27.349,Simcolourproject_2stim_asymm_v5,2020.2.10,MacIntel,60,61025ae37ef11b136ea224fe,,,,,,,,,316,22,19,1,0,0,response1disk,,6,8,-3,1,0,0,rectangle,8,-3,1,0,0,8,-3,1,0,0,1,100,260,138,1,,,,,,,,
,,,,,,,,,,,,,FF,,,,,,,,0.468,,,,,,,,,,,,,,,,,,,,,,61036562aa01ea6f1560a8da,610368215121e23ecbd6c367,2021-07-29_22h48.27.349,Simcolourproject_2stim_asymm_v5,2020.2.10,MacIntel,60,61025ae37ef11b136ea224fe,,,,,,,,,552,36,46,1,0,0,response1disk,,7,14,-7,1,0,0,rectangle,14,-7,1,0,0,14,-7,1,0,0,1,101,261,43,1,,,,,,,,
,,,,,,,,,,,,,FF,,,,,,,,0.432,,,,,,,,,,,,,,,,,,,,,,61036562aa01ea6f1560a8da,610368215121e23ecbd6c367,2021-07-29_22h48.27.349,Simcolourproject_2stim_asymm_v5,2020.2.10,MacIntel,60,61025ae37ef11b136ea224fe,,,,,,,,,3276,37,31,1,0,0,response1disk,,6,21,7,1,0,0,rectangle,21,7,1,0,0,21,7,1,0,0,1,102,262,134,1,,,,,,,,
,,,,,,,,,,,,,FF,,,,,,,,0.517,,,,,,,,,,,,,,,,,,,,,,61036562aa01ea6f1560a8da,610368215121e23ecbd6c367,2021-07-29_22h48.27.349,Simcolourproject_2stim_asymm_v5,2020.2.10,MacIntel,60,61025ae37ef11b136ea224fe,,,,,,,,,153,45,37,1,0,0,response1disk,,6,31,13,1,0,0,rectangle,31,13,1,0,0,31,13,1,0,0,1,103,263,32,1,,,,,,,,
,,,,,,,,,,,,,FF,,,,,,,,1.352,,,,,,,,,,,,,,,,,,,,,,61036562aa01ea6f1560a8da,610368215121e23ecbd6c367,2021-07-29_22h48.27.349,Simcolourproject_2stim_asymm_v5,2020.2.10,MacIntel,60,61025ae37ef11b136ea224fe,,,,,,,,,3520,25,-64,1,0,0,response3disk,,4,10,-4,1,0,0,rectangle,10,-4,1,0,0,10,-4,1,0,0,1,104,264,79,1,,,,,,,,
,,,,,,,,,,,,,FF,,,,,,,,0.833,,,,,,,,,,,,,,,,,,,,,,61036562aa01ea6f1560a8da,610368215121e23ecbd6c367,2021-07-29_22h48.27.349,Simcolourproject_2stim_asymm_v5,2020.2.10,MacIntel,60,61025ae37ef11b136ea224fe,,,,,,,,,2045,32,33,1,0,0,response1disk,,7,10,-5,1,0,0,rectangle,10,-5,1,0,0,10,-5,1,0,0,1,105,265,47,1,,,,,,,,
,,,,,,,,,,,,,FF,,,,,,,,0.668,,,,,,,,,,,,,,,,,,,,,,61036562aa01ea6f1560a8da,610368215121e23ecbd6c367,2021-07-29_22h48.27.349,Simcolourproject_2stim_asymm_v5,2020.2.10,MacIntel,60,61025ae37ef11b136ea224fe,,,,,,,,,1434,42,27,1,0,0,response1disk,,6,21,-14,1,0,0,rectangle,21,-14,1,0,0,21,-14,1,0,0,1,106,266,64,1,,,,,,,,
,,,,,,,,,,,,,FF,,,,,,,,0.866,,,,,,,,,,,,,,,,,,,,,,61036562aa01ea6f1560a8da,610368215121e23ecbd6c367,2021-07-29_22h48.27.349,Simcolourproject_2stim_asymm_v5,2020.2.10,MacIntel,60,61025ae37ef11b136ea224fe,,,,,,,,,4118,-31,79,1,0,0,response7disk,,0,-13,-6,1,0,0,rectangle,-13,-6,1,0,0,-13,-6,1,0,0,1,107,267,119,1,,,,,,,,
,,,,,,,,,,,,,FF,,,,,,,,0.733,,,,,,,,,,,,,,,,,,,,,,61036562aa01ea6f1560a8da,610368215121e23ecbd6c367,2021-07-29_22h48.27.349,Simcolourproject_2stim_asymm_v5,2020.2.10,MacIntel,60,61025ae37ef11b136ea224fe,,,,,,,,,2188,29,34,1,0,0,response1disk,,7,-3,-13,1,0,0,rectangle,-3,-13,1,0,0,-3,-13,1,0,0,1,108,268,15,1,,,,,,,,
,,,,,,,,,,,,,FF,,,,,,,,0.733,,,,,,,,,,,,,,,,,,,,,,61036562aa01ea6f1560a8da,610368215121e23ecbd6c367,2021-07-29_22h48.27.349,Simcolourproject_2stim_asymm_v5,2020.2.10,MacIntel,60,61025ae37ef11b136ea224fe,,,,,,,,,1159,14,42,1,0,0,response1disk,,7,8,10,1,0,0,rectangle,8,10,1,0,0,8,10,1,0,0,1,109,269,151,1,,,,,,,,
,,,,,,,,,,,,,FF,,,,,,,,0.583,,,,,,,,,,,,,,,,,,,,,,61036562aa01ea6f1560a8da,610368215121e23ecbd6c367,2021-07-29_22h48.27.349,Simcolourproject_2stim_asymm_v5,2020.2.10,MacIntel,60,61025ae37ef11b136ea224fe,,,,,,,,,518,35,41,1,0,0,response1disk,,7,22,10,1,0,0,rectangle,22,10,1,0,0,22,10,1,0,0,1,110,270,46,1,,,,,,,,
,,,,,,,,,,,,,FF,,,,,,,,0.566,,,,,,,,,,,,,,,,,,,,,,61036562aa01ea6f1560a8da,610368215121e23ecbd6c367,2021-07-29_22h48.27.349,Simcolourproject_2stim_asymm_v5,2020.2.10,MacIntel,60,61025ae37ef11b136ea224fe,,,,,,,,,2836,32,38,1,0,0,response1disk,,7,17,1,1,0,0,rectangle,17,1,1,0,0,17,1,1,0,0,1,111,271,2,1,,,,,,,,
,,,,,,,,,,,,,FF,,,,,,,,0.967,,,,,,,,,,,,,,,,,,,,,,61036562aa01ea6f1560a8da,610368215121e23ecbd6c367,2021-07-29_22h48.27.349,Simcolourproject_2stim_asymm_v5,2020.2.10,MacIntel,60,61025ae37ef11b136ea224fe,,,,,,,,,2300,40,-64,1,0,0,response3disk,,4,24,7,1,0,0,rectangle,24,7,1,0,0,24,7,1,0,0,1,112,272,69,1,,,,,,,,
,,,,,,,,,,,,,FF,,,,,,,,1.265,,,,,,,,,,,,,,,,,,,,,,61036562aa01ea6f1560a8da,610368215121e23ecbd6c367,2021-07-29_22h48.27.349,Simcolourproject_2stim_asymm_v5,2020.2.10,MacIntel,60,61025ae37ef11b136ea224fe,,,,,,,,,4186,62,62,1,0,0,response1disk,,7,23,1,1,0,0,rectangle,23,1,1,0,0,23,1,1,0,0,1,113,273,71,1,,,,,,,,
,,,,,,,,,,,,,FF,,,,,,,,3.367,,,,,,,,,,,,,,,,,,,,,,61036562aa01ea6f1560a8da,610368215121e23ecbd6c367,2021-07-29_22h48.27.349,Simcolourproject_2stim_asymm_v5,2020.2.10,MacIntel,60,61025ae37ef11b136ea224fe,,,,,,,,,4185,48,79,1,0,0,response1disk,,7,13,9,1,0,0,rectangle,13,9,1,0,0,13,9,1,0,0,1,114,274,121,1,,,,,,,,
,,,,,,,,,,,,,FF,,,,,,,,0.633,,,,,,,,,,,,,,,,,,,,,,61036562aa01ea6f1560a8da,610368215121e23ecbd6c367,2021-07-29_22h48.27.349,Simcolourproject_2stim_asymm_v5,2020.2.10,MacIntel,60,61025ae37ef11b136ea224fe,,,,,,,,,669,45,49,1,0,0,response1disk,,7,14,-6,1,0,0,rectangle,14,-6,1,0,0,14,-6,1,0,0,1,115,275,24,1,,,,,,,,
,,,,,,,,,,,,,FF,,,,,,,,0.518,,,,,,,,,,,,,,,,,,,,,,61036562aa01ea6f1560a8da,610368215121e23ecbd6c367,2021-07-29_22h48.27.349,Simcolourproject_2stim_asymm_v5,2020.2.10,MacIntel,60,61025ae37ef11b136ea224fe,,,,,,,,,598,32,33,1,0,0,response1disk,,7,6,0,1,0,0,rectangle,6,0,1,0,0,6,0,1,0,0,1,116,276,82,1,,,,,,,,
,,,,,,,,,,,,,FF,,,,,,,,0.649,,,,,,,,,,,,,,,,,,,,,,61036562aa01ea6f1560a8da,610368215121e23ecbd6c367,2021-07-29_22h48.27.349,Simcolourproject_2stim_asymm_v5,2020.2.10,MacIntel,60,61025ae37ef11b136ea224fe,,,,,,,,,951,33,38,1,0,0,response1disk,,7,7,8,1,0,0,rectangle,7,8,1,0,0,7,8,1,0,0,1,117,277,8,1,,,,,,,,
,,,,,,,,,,,,,FF,,,,,,,,1.1,,,,,,,,,,,,,,,,,,,,,,61036562aa01ea6f1560a8da,610368215121e23ecbd6c367,2021-07-29_22h48.27.349,Simcolourproject_2stim_asymm_v5,2020.2.10,MacIntel,60,61025ae37ef11b136ea224fe,,,,,,,,,4205,-32,-57,1,0,0,response5disk,,3,-5,-14,1,0,0,rectangle,-5,-14,1,0,0,-5,-14,1,0,0,1,118,278,52,1,,,,,,,,
,,,,,,,,,,,,,FF,,,,,,,,0.782,,,,,,,,,,,,,,,,,,,,,,61036562aa01ea6f1560a8da,610368215121e23ecbd6c367,2021-07-29_22h48.27.349,Simcolourproject_2stim_asymm_v5,2020.2.10,MacIntel,60,61025ae37ef11b136ea224fe,,,,,,,,,2028,-35,-41,1,0,0,response5disk,,3,-3,11,1,0,0,rectangle,-3,11,1,0,0,-3,11,1,0,0,1,119,279,150,1,,,,,,,,
,,,,,,,,,,,,,FF,,,,,,,,0.716,,,,,,,,,,,,,,,,,,,,,,61036562aa01ea6f1560a8da,610368215121e23ecbd6c367,2021-07-29_22h48.27.349,Simcolourproject_2stim_asymm_v5,2020.2.10,MacIntel,60,61025ae37ef11b136ea224fe,,,,,,,,,271,52,56,1,0,0,response1disk,,7,16,-2,1,0,0,rectangle,16,-2,1,0,0,16,-2,1,0,0,1,120,280,30,1,,,,,,,,
,,,,,,,,,,,,,FF,,,,,,,,1.201,,,,,,,,,,,,,,,,,,,,,,61036562aa01ea6f1560a8da,610368215121e23ecbd6c367,2021-07-29_22h48.27.349,Simcolourproject_2stim_asymm_v5,2020.2.10,MacIntel,60,61025ae37ef11b136ea224fe,,,,,,,,,1216,65,-45,1,0,0,response3disk,,5,31,-5,1,0,0,rectangle,73,55,1,0,0,33,12,1,0,0,1,121,281,40,1,,response1disk_3,TRUE,6,6,"[45,299,96,244,56,154,241,155,168,201,68,235,302,189,282,13,259,24,184,291]",2.017,rectangle
,,,,,,,,,,,,,FF,,,,,,,,0.817,,,,,,,,,,,,,,,,,,,,,,61036562aa01ea6f1560a8da,610368215121e23ecbd6c367,2021-07-29_22h48.27.349,Simcolourproject_2stim_asymm_v5,2020.2.10,MacIntel,60,61025ae37ef11b136ea224fe,,,,,,,,,3859,52,37,1,0,0,response1disk,,6,31,12,1,0,0,rectangle,31,12,1,0,0,31,12,1,0,0,1,122,282,58,1,,,,,,,,
,,,,,,,,,,,,,FF,,,,,,,,1,,,,,,,,,,,,,,,,,,,,,,61036562aa01ea6f1560a8da,610368215121e23ecbd6c367,2021-07-29_22h48.27.349,Simcolourproject_2stim_asymm_v5,2020.2.10,MacIntel,60,61025ae37ef11b136ea224fe,,,,,,,,,1691,80,-32,1,0,0,response3disk,,5,15,-9,1,0,0,rectangle,15,-9,1,0,0,15,-9,1,0,0,1,123,283,114,1,,,,,,,,
,,,,,,,,,,,,,FF,,,,,,,,0.768,,,,,,,,,,,,,,,,,,,,,,61036562aa01ea6f1560a8da,610368215121e23ecbd6c367,2021-07-29_22h48.27.349,Simcolourproject_2stim_asymm_v5,2020.2.10,MacIntel,60,61025ae37ef11b136ea224fe,,,,,,,,,1392,52,32,1,0,0,response1disk,,6,21,4,1,0,0,rectangle,21,4,1,0,0,21,4,1,0,0,1,124,284,25,1,,,,,,,,
,,,,,,,,,,,,,FF,,,,,,,,0.517,,,,,,,,,,,,,,,,,,,,,,61036562aa01ea6f1560a8da,610368215121e23ecbd6c367,2021-07-29_22h48.27.349,Simcolourproject_2stim_asymm_v5,2020.2.10,MacIntel,60,61025ae37ef11b136ea224fe,,,,,,,,,226,56,43,1,0,0,response1disk,,6,23,2,1,0,0,rectangle,23,2,1,0,0,23,2,1,0,0,1,125,285,34,1,,,,,,,,
,,,,,,,,,,,,,FF,,,,,,,,0.55,,,,,,,,,,,,,,,,,,,,,,61036562aa01ea6f1560a8da,610368215121e23ecbd6c367,2021-07-29_22h48.27.349,Simcolourproject_2stim_asymm_v5,2020.2.10,MacIntel,60,61025ae37ef11b136ea224fe,,,,,,,,,1260,41,28,1,0,0,response1disk,,6,18,-5,1,0,0,rectangle,18,-5,1,0,0,18,-5,1,0,0,1,126,286,154,1,,,,,,,,
,,,,,,,,,,,,,FF,,,,,,,,1.266,,,,,,,,,,,,,,,,,,,,,,61036562aa01ea6f1560a8da,610368215121e23ecbd6c367,2021-07-29_22h48.27.349,Simcolourproject_2stim_asymm_v5,2020.2.10,MacIntel,60,61025ae37ef11b136ea224fe,,,,,,,,,806,40,-93,1,0,0,response3disk,,4,28,8,1,0,0,rectangle,28,8,1,0,0,28,8,1,0,0,1,127,287,41,1,,,,,,,,
,,,,,,,,,,,,,FF,,,,,,,,0.65,,,,,,,,,,,,,,,,,,,,,,61036562aa01ea6f1560a8da,610368215121e23ecbd6c367,2021-07-29_22h48.27.349,Simcolourproject_2stim_asymm_v5,2020.2.10,MacIntel,60,61025ae37ef11b136ea224fe,,,,,,,,,3985,42,48,1,0,0,response1disk,,7,30,10,1,0,0,rectangle,30,10,1,0,0,30,10,1,0,0,1,128,288,149,1,,,,,,,,
,,,,,,,,,,,,,FF,,,,,,,,2.15,,,,,,,,,,,,,,,,,,,,,,61036562aa01ea6f1560a8da,610368215121e23ecbd6c367,2021-07-29_22h48.27.349,Simcolourproject_2stim_asymm_v5,2020.2.10,MacIntel,60,61025ae37ef11b136ea224fe,,,,,,,,,645,33,64,1,0,0,response1disk,,7,8,-3,1,0,0,rectangle,8,-3,1,0,0,8,-3,1,0,0,1,129,289,72,1,,,,,,,,
,,,,,,,,,,,,,FF,,,,,,,,1.634,,,,,,,,,,,,,,,,,,,,,,61036562aa01ea6f1560a8da,610368215121e23ecbd6c367,2021-07-29_22h48.27.349,Simcolourproject_2stim_asymm_v5,2020.2.10,MacIntel,60,61025ae37ef11b136ea224fe,,,,,,,,,1605,29,-73,1,0,0,response3disk,,4,12,-18,1,0,0,rectangle,44,74,1,0,0,10,-3,1,0,0,1,130,290,35,1,,response1disk_3,TRUE,7,7,"[45,299,96,244,56,154,241,155,168,201,68,235,302,189,282,13,259,24,184,291]",1.216,rectangle
,,,,,,,,,,,,,FF,,,,,,,,0.716,,,,,,,,,,,,,,,,,,,,,,61036562aa01ea6f1560a8da,610368215121e23ecbd6c367,2021-07-29_22h48.27.349,Simcolourproject_2stim_asymm_v5,2020.2.10,MacIntel,60,61025ae37ef11b136ea224fe,,,,,,,,,2396,18,47,1,0,0,response1disk,,7,3,5,1,0,0,rectangle,3,5,1,0,0,3,5,1,0,0,1,131,291,144,1,,,,,,,,
,,,,,,,,,,,,,FF,,,,,,,,0.5,,,,,,,,,,,,,,,,,,,,,,61036562aa01ea6f1560a8da,610368215121e23ecbd6c367,2021-07-29_22h48.27.349,Simcolourproject_2stim_asymm_v5,2020.2.10,MacIntel,60,61025ae37ef11b136ea224fe,,,,,,,,,1774,37,61,1,0,0,response1disk,,7,9,4,1,0,0,rectangle,9,4,1,0,0,9,4,1,0,0,1,132,292,104,1,,,,,,,,
,,,,,,,,,,,,,FF,,,,,,,,0.383,,,,,,,,,,,,,,,,,,,,,,61036562aa01ea6f1560a8da,610368215121e23ecbd6c367,2021-07-29_22h48.27.349,Simcolourproject_2stim_asymm_v5,2020.2.10,MacIntel,60,61025ae37ef11b136ea224fe,,,,,,,,,1120,27,35,1,0,0,response1disk,,7,17,9,1,0,0,rectangle,17,9,1,0,0,17,9,1,0,0,1,133,293,86,1,,,,,,,,
,,,,,,,,,,,,,FF,,,,,,,,0.382,,,,,,,,,,,,,,,,,,,,,,61036562aa01ea6f1560a8da,610368215121e23ecbd6c367,2021-07-29_22h48.27.349,Simcolourproject_2stim_asymm_v5,2020.2.10,MacIntel,60,61025ae37ef11b136ea224fe,,,,,,,,,4291,31,43,1,0,0,response1disk,,7,28,15,1,0,0,rectangle,28,15,1,0,0,28,15,1,0,0,1,134,294,26,1,,,,,,,,
,,,,,,,,,,,,,FF,,,,,,,,1,,,,,,,,,,,,,,,,,,,,,,61036562aa01ea6f1560a8da,610368215121e23ecbd6c367,2021-07-29_22h48.27.349,Simcolourproject_2stim_asymm_v5,2020.2.10,MacIntel,60,61025ae37ef11b136ea224fe,,,,,,,,,2902,-23,-67,1,0,0,response5disk,,3,1,-3,1,0,0,rectangle,1,-3,1,0,0,1,-3,1,0,0,1,135,295,49,1,,,,,,,,
,,,,,,,,,,,,,FF,,,,,,,,0.632,,,,,,,,,,,,,,,,,,,,,,61036562aa01ea6f1560a8da,610368215121e23ecbd6c367,2021-07-29_22h48.27.349,Simcolourproject_2stim_asymm_v5,2020.2.10,MacIntel,60,61025ae37ef11b136ea224fe,,,,,,,,,3157,-26,-69,1,0,0,response5disk,,3,-9,-14,1,0,0,rectangle,-9,-14,1,0,0,-9,-14,1,0,0,1,136,296,92,1,,,,,,,,
,,,,,,,,,,,,,FF,,,,,,,,1.067,,,,,,,,,,,,,,,,,,,,,,61036562aa01ea6f1560a8da,610368215121e23ecbd6c367,2021-07-29_22h48.27.349,Simcolourproject_2stim_asymm_v5,2020.2.10,MacIntel,60,61025ae37ef11b136ea224fe,,,,,,,,,52,36,40,1,0,0,response1disk,,7,-3,-13,1,0,0,rectangle,-3,-13,1,0,0,-3,-13,1,0,0,1,137,297,20,1,,,,,,,,
,,,,,,,,,,,,,FF,,,,,,,,0.517,,,,,,,,,,,,,,,,,,,,,,61036562aa01ea6f1560a8da,610368215121e23ecbd6c367,2021-07-29_22h48.27.349,Simcolourproject_2stim_asymm_v5,2020.2.10,MacIntel,60,61025ae37ef11b136ea224fe,,,,,,,,,3608,20,26,1,0,0,response1disk,,7,5,-1,1,0,0,rectangle,-27,84,1,0,0,-24,6,1,0,0,1,138,298,129,1,,response7disk_3,TRUE,0,0,"[45,299,96,244,56,154,241,155,168,201,68,235,302,189,282,13,259,24,184,291]",1.517,rectangle
,,,,,,,,,,,,,FF,,,,,,,,1.517,,,,,,,,,,,,,,,,,,,,,,61036562aa01ea6f1560a8da,610368215121e23ecbd6c367,2021-07-29_22h48.27.349,Simcolourproject_2stim_asymm_v5,2020.2.10,MacIntel,60,61025ae37ef11b136ea224fe,,,,,,,,,697,29,59,1,0,0,response1disk,,7,22,1,1,0,0,rectangle,22,1,1,0,0,22,1,1,0,0,1,139,299,22,1,,,,,,,,
,,,,,,,,,,,,,FF,,,,,,,,1.219,,,,,,,,,,,,,,,,,,,,,,61036562aa01ea6f1560a8da,610368215121e23ecbd6c367,2021-07-29_22h48.27.349,Simcolourproject_2stim_asymm_v5,2020.2.10,MacIntel,60,61025ae37ef11b136ea224fe,,,,,,,,,1502,38,42,1,0,0,response1disk,,7,22,9,1,0,0,rectangle,22,9,1,0,0,22,9,1,0,0,1,140,300,130,1,,,,,,,,
