key_resp.keys,key_resp.rt,key_resp_14.keys,key_resp_14.rt,key_resp_15.keys,key_resp_15.rt,key_resp_17.keys,key_resp_17.rt,key_resp_9.keys,key_resp_9.rt,key_resp_10.keys,key_resp_10.rt,practice_comparison,Ecc,mouse_5.x,mouse_5.y,mouse_5.leftButton,mouse_5.midButton,mouse_5.rightButton,mouse_5.clicked_name,pracsimilarity,response_time,mouse_10.x,mouse_10.y,mouse_10.leftButton,mouse_10.midButton,mouse_10.rightButton,mouse_10.clicked_name,mouse_7.x,mouse_7.y,mouse_7.leftButton,mouse_7.midButton,mouse_7.rightButton,mouse_6.x,mouse_6.y,mouse_6.leftButton,mouse_6.midButton,mouse_6.rightButton,duringprac.thisRepN,duringprac.thisTrialN,duringprac.thisN,duringprac.thisIndex,duringprac.ran,participant,session,date,expName,psychopyVersion,OS,frameRate,study_id,mouse_7.clicked_name,catchpracsimilarity,catch_response_time,catchnumberprac,catchtrialorderprac,mouse_6.clicked_name,key_resp_22.keys,key_resp_22.rt,realcomparison,mouse.x,mouse.y,mouse.leftButton,mouse.midButton,mouse.rightButton,mouse.clicked_name,Colour2,similarity,mouse_2.x,mouse_2.y,mouse_2.leftButton,mouse_2.midButton,mouse_2.rightButton,mouse_2.clicked_name,mouse_3.x,mouse_3.y,mouse_3.leftButton,mouse_3.midButton,mouse_3.rightButton,mouse_11.x,mouse_11.y,mouse_11.leftButton,mouse_11.midButton,mouse_11.rightButton,trials_2.thisRepN,trials_2.thisTrialN,trials_2.thisN,trials_2.thisIndex,trials_2.ran,Colour1,mouse_3.clicked_name,catchornah,catchsimilarity,catchnumber,catchtrialorder,catchRT,mouse_11.clicked_name
space,31.845,space,17.449,space,38.353,space,27.974,space,9.212,space,8.58,0,PF,-36,101,1,0,0,response7disk_5,0,8.766,1,-3,1,0,0,rectangle_8,1,-3,1,0,0,1,-3,1,0,0,0,0,0,1,1,6103420d5147efb55f890c8c,61036a072d963db9b735fde2,2021-07-29_21h56.46.594,Simcolourproject_2stim_asymm_v5,2020.2.10,MacIntel,60,61025ae37ef11b136ea224fe,,,,,,,,,,,,,,,,,,,,,,,,,,,,,,,,,,,,,,,,,,,,,,
,,,,,,,,,,,,20,FF,40,93,1,0,0,response1disk_5,7,6.05,1,-2,1,0,0,rectangle_8,32,99,1,0,0,3,-3,1,0,0,0,1,1,3,1,6103420d5147efb55f890c8c,61036a072d963db9b735fde2,2021-07-29_21h56.46.594,Simcolourproject_2stim_asymm_v5,2020.2.10,MacIntel,60,61025ae37ef11b136ea224fe,response1disk_7,7,4.151,7,"[2,5]",rectangle_4,,,,,,,,,,,,,,,,,,,,,,,,,,,,,,,,,,,,,,,,
,,,,,,,,,,,,83,FF,39,92,1,0,0,response1disk_5,7,3.766,3,0,1,0,0,rectangle_8,3,0,1,0,0,3,0,1,0,0,0,2,2,0,1,6103420d5147efb55f890c8c,61036a072d963db9b735fde2,2021-07-29_21h56.46.594,Simcolourproject_2stim_asymm_v5,2020.2.10,MacIntel,60,61025ae37ef11b136ea224fe,,,,,,,,,,,,,,,,,,,,,,,,,,,,,,,,,,,,,,,,,,,,,,
,,,,,,,,,,,,59,FF,33,84,1,0,0,response1disk_5,7,2.85,9,-3,1,0,0,rectangle_8,9,-3,1,0,0,9,-3,1,0,0,0,3,3,5,1,6103420d5147efb55f890c8c,61036a072d963db9b735fde2,2021-07-29_21h56.46.594,Simcolourproject_2stim_asymm_v5,2020.2.10,MacIntel,60,61025ae37ef11b136ea224fe,,,,,,,,,,,,,,,,,,,,,,,,,,,,,,,,,,,,,,,,,,,,,,
,,,,,,,,,,,,36,PF,33,89,1,0,0,response1disk_5,7,4.917,-2,-6,1,0,0,rectangle_8,36,101,1,0,0,6,-7,1,0,0,0,4,4,2,1,6103420d5147efb55f890c8c,61036a072d963db9b735fde2,2021-07-29_21h56.46.594,Simcolourproject_2stim_asymm_v5,2020.2.10,MacIntel,60,61025ae37ef11b136ea224fe,response1disk_7,7,1.684,7,"[2,5]",rectangle_4,,,,,,,,,,,,,,,,,,,,,,,,,,,,,,,,,,,,,,,,
,,,,,,,,,,,,150,PF,38,-99,1,0,0,response3disk_5,4,8.15,4,2,1,0,0,rectangle_8,4,2,1,0,0,4,2,1,0,0,0,5,5,4,1,6103420d5147efb55f890c8c,61036a072d963db9b735fde2,2021-07-29_21h56.46.594,Simcolourproject_2stim_asymm_v5,2020.2.10,MacIntel,60,61025ae37ef11b136ea224fe,,,,,,,,,,,,,,,,,,,,,,,,,,,,,,,,,,,,,,,,,,,,,,
,,,,,,,,,,,,27,PF,-30,-84,1,0,0,response5disk_5,3,4.934,2,6,1,0,0,rectangle_8,2,6,1,0,0,2,6,1,0,0,0,6,6,6,1,6103420d5147efb55f890c8c,61036a072d963db9b735fde2,2021-07-29_21h56.46.594,Simcolourproject_2stim_asymm_v5,2020.2.10,MacIntel,60,61025ae37ef11b136ea224fe,,,,,,,,,,,,,,,,,,,,,,,,,,,,,,,,,,,,,,,,,,,,,,
,,,,,,,,,,,,,FF,,,,,,,,3.101,,,,,,,,,,,,,,,,,,,,,,6103420d5147efb55f890c8c,61036a072d963db9b735fde2,2021-07-29_21h56.46.594,Simcolourproject_2stim_asymm_v5,2020.2.10,MacIntel,60,61025ae37ef11b136ea224fe,,,,,,,space,4.976,4016,46,104,1,0,0,response1disk,,7,-1,-3,1,0,0,rectangle,-1,-3,1,0,0,-1,-3,1,0,0,0,0,0,138,1,,,,,,,,
,,,,,,,,,,,,,FF,,,,,,,,3.768,,,,,,,,,,,,,,,,,,,,,,6103420d5147efb55f890c8c,61036a072d963db9b735fde2,2021-07-29_21h56.46.594,Simcolourproject_2stim_asymm_v5,2020.2.10,MacIntel,60,61025ae37ef11b136ea224fe,,,,,,,,,3125,35,-83,1,0,0,response3disk,,4,4,-4,1,0,0,rectangle,4,-4,1,0,0,4,-4,1,0,0,0,1,1,116,1,,,,,,,,
,,,,,,,,,,,,,FF,,,,,,,,1.866,,,,,,,,,,,,,,,,,,,,,,6103420d5147efb55f890c8c,61036a072d963db9b735fde2,2021-07-29_21h56.46.594,Simcolourproject_2stim_asymm_v5,2020.2.10,MacIntel,60,61025ae37ef11b136ea224fe,,,,,,,,,1947,41,106,1,0,0,response1disk,,7,5,2,1,0,0,rectangle,5,2,1,0,0,5,2,1,0,0,0,2,2,115,1,,,,,,,,
,,,,,,,,,,,,,FF,,,,,,,,1.467,,,,,,,,,,,,,,,,,,,,,,6103420d5147efb55f890c8c,61036a072d963db9b735fde2,2021-07-29_21h56.46.594,Simcolourproject_2stim_asymm_v5,2020.2.10,MacIntel,60,61025ae37ef11b136ea224fe,,,,,,,,,2299,-34,-80,1,0,0,response5disk,,3,-5,0,1,0,0,rectangle,-5,0,1,0,0,-5,0,1,0,0,0,3,3,91,1,,,,,,,,
,,,,,,,,,,,,,FF,,,,,,,,1.765,,,,,,,,,,,,,,,,,,,,,,6103420d5147efb55f890c8c,61036a072d963db9b735fde2,2021-07-29_21h56.46.594,Simcolourproject_2stim_asymm_v5,2020.2.10,MacIntel,60,61025ae37ef11b136ea224fe,,,,,,,,,355,-85,-31,1,0,0,response5disk,,2,11,9,1,0,0,rectangle,11,9,1,0,0,11,9,1,0,0,0,4,4,31,1,,,,,,,,
,,,,,,,,,,,,,FF,,,,,,,,2.784,,,,,,,,,,,,,,,,,,,,,,6103420d5147efb55f890c8c,61036a072d963db9b735fde2,2021-07-29_21h56.46.594,Simcolourproject_2stim_asymm_v5,2020.2.10,MacIntel,60,61025ae37ef11b136ea224fe,,,,,,,,,2139,91,38,1,0,0,response1disk,,6,1,-1,1,0,0,rectangle,1,-1,1,0,0,1,-1,1,0,0,0,5,5,13,1,,,,,,,,
,,,,,,,,,,,,,FF,,,,,,,,2.767,,,,,,,,,,,,,,,,,,,,,,6103420d5147efb55f890c8c,61036a072d963db9b735fde2,2021-07-29_21h56.46.594,Simcolourproject_2stim_asymm_v5,2020.2.10,MacIntel,60,61025ae37ef11b136ea224fe,,,,,,,,,627,63,-27,1,0,0,response3disk,,5,4,-2,1,0,0,rectangle,-80,43,1,0,0,3,-1,1,0,0,0,6,6,35,1,,response7disk_3,TRUE,1,1,"[306,249,26,87,149,120,109,183,40,262,191,7,156,107,312,272,51,111,20,204]",3.016,rectangle
,,,,,,,,,,,,,FF,,,,,,,,1.7,,,,,,,,,,,,,,,,,,,,,,6103420d5147efb55f890c8c,61036a072d963db9b735fde2,2021-07-29_21h56.46.594,Simcolourproject_2stim_asymm_v5,2020.2.10,MacIntel,60,61025ae37ef11b136ea224fe,,,,,,,,,1514,68,-33,1,0,0,response3disk,,5,0,-2,1,0,0,rectangle,0,-2,1,0,0,0,-2,1,0,0,0,7,7,57,1,,,,,,,,
,,,,,,,,,,,,,FF,,,,,,,,0.999,,,,,,,,,,,,,,,,,,,,,,6103420d5147efb55f890c8c,61036a072d963db9b735fde2,2021-07-29_21h56.46.594,Simcolourproject_2stim_asymm_v5,2020.2.10,MacIntel,60,61025ae37ef11b136ea224fe,,,,,,,,,1886,-40,78,1,0,0,response7disk,,0,0,1,1,0,0,rectangle,0,1,1,0,0,0,1,1,0,0,0,8,8,8,1,,,,,,,,
,,,,,,,,,,,,,FF,,,,,,,,5.816,,,,,,,,,,,,,,,,,,,,,,6103420d5147efb55f890c8c,61036a072d963db9b735fde2,2021-07-29_21h56.46.594,Simcolourproject_2stim_asymm_v5,2020.2.10,MacIntel,60,61025ae37ef11b136ea224fe,,,,,,,,,4053,-80,-36,1,0,0,response5disk,,2,0,-1,1,0,0,rectangle,0,-1,1,0,0,0,-1,1,0,0,0,9,9,27,1,,,,,,,,
,,,,,,,,,,,,,FF,,,,,,,,1.216,,,,,,,,,,,,,,,,,,,,,,6103420d5147efb55f890c8c,61036a072d963db9b735fde2,2021-07-29_21h56.46.594,Simcolourproject_2stim_asymm_v5,2020.2.10,MacIntel,60,61025ae37ef11b136ea224fe,,,,,,,,,4106,-82,38,1,0,0,response7disk,,1,2,1,1,0,0,rectangle,2,1,1,0,0,2,1,1,0,0,0,10,10,108,1,,,,,,,,
,,,,,,,,,,,,,FF,,,,,,,,1.034,,,,,,,,,,,,,,,,,,,,,,6103420d5147efb55f890c8c,61036a072d963db9b735fde2,2021-07-29_21h56.46.594,Simcolourproject_2stim_asymm_v5,2020.2.10,MacIntel,60,61025ae37ef11b136ea224fe,,,,,,,,,3263,48,86,1,0,0,response1disk,,7,0,-2,1,0,0,rectangle,0,-2,1,0,0,0,-2,1,0,0,0,11,11,24,1,,,,,,,,
,,,,,,,,,,,,,FF,,,,,,,,1.75,,,,,,,,,,,,,,,,,,,,,,6103420d5147efb55f890c8c,61036a072d963db9b735fde2,2021-07-29_21h56.46.594,Simcolourproject_2stim_asymm_v5,2020.2.10,MacIntel,60,61025ae37ef11b136ea224fe,,,,,,,,,3322,40,96,1,0,0,response1disk,,7,5,-3,1,0,0,rectangle,5,-3,1,0,0,5,-3,1,0,0,0,12,12,37,1,,,,,,,,
,,,,,,,,,,,,,FF,,,,,,,,1.666,,,,,,,,,,,,,,,,,,,,,,6103420d5147efb55f890c8c,61036a072d963db9b735fde2,2021-07-29_21h56.46.594,Simcolourproject_2stim_asymm_v5,2020.2.10,MacIntel,60,61025ae37ef11b136ea224fe,,,,,,,,,3636,-42,-83,1,0,0,response5disk,,3,1,-5,1,0,0,rectangle,1,-5,1,0,0,1,-5,1,0,0,0,13,13,125,1,,,,,,,,
,,,,,,,,,,,,,FF,,,,,,,,1.883,,,,,,,,,,,,,,,,,,,,,,6103420d5147efb55f890c8c,61036a072d963db9b735fde2,2021-07-29_21h56.46.594,Simcolourproject_2stim_asymm_v5,2020.2.10,MacIntel,60,61025ae37ef11b136ea224fe,,,,,,,,,2427,-38,-86,1,0,0,response5disk,,3,0,2,1,0,0,rectangle,0,2,1,0,0,0,2,1,0,0,0,14,14,129,1,,,,,,,,
,,,,,,,,,,,,,FF,,,,,,,,1.434,,,,,,,,,,,,,,,,,,,,,,6103420d5147efb55f890c8c,61036a072d963db9b735fde2,2021-07-29_21h56.46.594,Simcolourproject_2stim_asymm_v5,2020.2.10,MacIntel,60,61025ae37ef11b136ea224fe,,,,,,,,,796,36,87,1,0,0,response1disk,,7,-1,-6,1,0,0,rectangle,-1,-6,1,0,0,-1,-6,1,0,0,0,15,15,86,1,,,,,,,,
,,,,,,,,,,,,,FF,,,,,,,,1.633,,,,,,,,,,,,,,,,,,,,,,6103420d5147efb55f890c8c,61036a072d963db9b735fde2,2021-07-29_21h56.46.594,Simcolourproject_2stim_asymm_v5,2020.2.10,MacIntel,60,61025ae37ef11b136ea224fe,,,,,,,,,1583,70,-45,1,0,0,response3disk,,5,1,1,1,0,0,rectangle,1,1,1,0,0,1,1,1,0,0,0,16,16,79,1,,,,,,,,
,,,,,,,,,,,,,FF,,,,,,,,1.167,,,,,,,,,,,,,,,,,,,,,,6103420d5147efb55f890c8c,61036a072d963db9b735fde2,2021-07-29_21h56.46.594,Simcolourproject_2stim_asymm_v5,2020.2.10,MacIntel,60,61025ae37ef11b136ea224fe,,,,,,,,,2797,37,82,1,0,0,response1disk,,7,4,-1,1,0,0,rectangle,4,-1,1,0,0,4,-1,1,0,0,0,17,17,80,1,,,,,,,,
,,,,,,,,,,,,,FF,,,,,,,,0.916,,,,,,,,,,,,,,,,,,,,,,6103420d5147efb55f890c8c,61036a072d963db9b735fde2,2021-07-29_21h56.46.594,Simcolourproject_2stim_asymm_v5,2020.2.10,MacIntel,60,61025ae37ef11b136ea224fe,,,,,,,,,2541,-41,89,1,0,0,response7disk,,0,5,-2,1,0,0,rectangle,5,-2,1,0,0,5,-2,1,0,0,0,18,18,128,1,,,,,,,,
,,,,,,,,,,,,,FF,,,,,,,,2,,,,,,,,,,,,,,,,,,,,,,6103420d5147efb55f890c8c,61036a072d963db9b735fde2,2021-07-29_21h56.46.594,Simcolourproject_2stim_asymm_v5,2020.2.10,MacIntel,60,61025ae37ef11b136ea224fe,,,,,,,,,2214,-20,-102,1,0,0,response5disk,,3,-3,-2,1,0,0,rectangle,39,-82,1,0,0,4,2,1,0,0,0,19,19,7,1,,response3disk_3,TRUE,4,4,"[306,249,26,87,149,120,109,183,40,262,191,7,156,107,312,272,51,111,20,204]",1.483,rectangle
,,,,,,,,,,,,,FF,,,,,,,,1.451,,,,,,,,,,,,,,,,,,,,,,6103420d5147efb55f890c8c,61036a072d963db9b735fde2,2021-07-29_21h56.46.594,Simcolourproject_2stim_asymm_v5,2020.2.10,MacIntel,60,61025ae37ef11b136ea224fe,,,,,,,,,2434,75,-44,1,0,0,response3disk,,5,5,0,1,0,0,rectangle,5,0,1,0,0,5,0,1,0,0,0,20,20,30,1,,,,,,,,
,,,,,,,,,,,,,FF,,,,,,,,1.033,,,,,,,,,,,,,,,,,,,,,,6103420d5147efb55f890c8c,61036a072d963db9b735fde2,2021-07-29_21h56.46.594,Simcolourproject_2stim_asymm_v5,2020.2.10,MacIntel,60,61025ae37ef11b136ea224fe,,,,,,,,,3128,53,99,1,0,0,response1disk,,7,-3,5,1,0,0,rectangle,-3,5,1,0,0,-3,5,1,0,0,0,21,21,154,1,,,,,,,,
,,,,,,,,,,,,,FF,,,,,,,,1.632,,,,,,,,,,,,,,,,,,,,,,6103420d5147efb55f890c8c,61036a072d963db9b735fde2,2021-07-29_21h56.46.594,Simcolourproject_2stim_asymm_v5,2020.2.10,MacIntel,60,61025ae37ef11b136ea224fe,,,,,,,,,3990,49,90,1,0,0,response1disk,,7,-5,-4,1,0,0,rectangle,-5,-4,1,0,0,-5,-4,1,0,0,0,22,22,99,1,,,,,,,,
,,,,,,,,,,,,,FF,,,,,,,,1.182,,,,,,,,,,,,,,,,,,,,,,6103420d5147efb55f890c8c,61036a072d963db9b735fde2,2021-07-29_21h56.46.594,Simcolourproject_2stim_asymm_v5,2020.2.10,MacIntel,60,61025ae37ef11b136ea224fe,,,,,,,,,2164,-90,-43,1,0,0,response5disk,,2,14,10,1,0,0,rectangle,14,10,1,0,0,14,10,1,0,0,0,23,23,17,1,,,,,,,,
,,,,,,,,,,,,,FF,,,,,,,,1.418,,,,,,,,,,,,,,,,,,,,,,6103420d5147efb55f890c8c,61036a072d963db9b735fde2,2021-07-29_21h56.46.594,Simcolourproject_2stim_asymm_v5,2020.2.10,MacIntel,60,61025ae37ef11b136ea224fe,,,,,,,,,4144,-42,-88,1,0,0,response5disk,,3,-5,1,1,0,0,rectangle,-5,1,1,0,0,-5,1,1,0,0,0,24,24,158,1,,,,,,,,
,,,,,,,,,,,,,FF,,,,,,,,1.6,,,,,,,,,,,,,,,,,,,,,,6103420d5147efb55f890c8c,61036a072d963db9b735fde2,2021-07-29_21h56.46.594,Simcolourproject_2stim_asymm_v5,2020.2.10,MacIntel,60,61025ae37ef11b136ea224fe,,,,,,,,,1513,78,-38,1,0,0,response3disk,,5,9,0,1,0,0,rectangle,36,-81,1,0,0,2,0,1,0,0,0,25,25,6,1,,response3disk_3,TRUE,4,4,"[306,249,26,87,149,120,109,183,40,262,191,7,156,107,312,272,51,111,20,204]",1.565,rectangle
,,,,,,,,,,,,,FF,,,,,,,,1.498,,,,,,,,,,,,,,,,,,,,,,6103420d5147efb55f890c8c,61036a072d963db9b735fde2,2021-07-29_21h56.46.594,Simcolourproject_2stim_asymm_v5,2020.2.10,MacIntel,60,61025ae37ef11b136ea224fe,,,,,,,,,1529,-94,-36,1,0,0,response5disk,,2,0,-8,1,0,0,rectangle,0,-8,1,0,0,0,-8,1,0,0,0,26,26,11,1,,,,,,,,
,,,,,,,,,,,,,FF,,,,,,,,1.533,,,,,,,,,,,,,,,,,,,,,,6103420d5147efb55f890c8c,61036a072d963db9b735fde2,2021-07-29_21h56.46.594,Simcolourproject_2stim_asymm_v5,2020.2.10,MacIntel,60,61025ae37ef11b136ea224fe,,,,,,,,,3973,-88,32,1,0,0,response7disk,,1,6,-4,1,0,0,rectangle,6,-4,1,0,0,6,-4,1,0,0,0,27,27,156,1,,,,,,,,
,,,,,,,,,,,,,FF,,,,,,,,1.433,,,,,,,,,,,,,,,,,,,,,,6103420d5147efb55f890c8c,61036a072d963db9b735fde2,2021-07-29_21h56.46.594,Simcolourproject_2stim_asymm_v5,2020.2.10,MacIntel,60,61025ae37ef11b136ea224fe,,,,,,,,,25,76,-36,1,0,0,response3disk,,5,-8,6,1,0,0,rectangle,-8,6,1,0,0,-8,6,1,0,0,0,28,28,9,1,,,,,,,,
,,,,,,,,,,,,,FF,,,,,,,,1.017,,,,,,,,,,,,,,,,,,,,,,6103420d5147efb55f890c8c,61036a072d963db9b735fde2,2021-07-29_21h56.46.594,Simcolourproject_2stim_asymm_v5,2020.2.10,MacIntel,60,61025ae37ef11b136ea224fe,,,,,,,,,3616,57,84,1,0,0,response1disk,,7,2,4,1,0,0,rectangle,2,4,1,0,0,2,4,1,0,0,0,29,29,89,1,,,,,,,,
,,,,,,,,,,,,,FF,,,,,,,,1.217,,,,,,,,,,,,,,,,,,,,,,6103420d5147efb55f890c8c,61036a072d963db9b735fde2,2021-07-29_21h56.46.594,Simcolourproject_2stim_asymm_v5,2020.2.10,MacIntel,60,61025ae37ef11b136ea224fe,,,,,,,,,1847,84,56,1,0,0,response1disk,,6,-2,-4,1,0,0,rectangle,-2,-4,1,0,0,-2,-4,1,0,0,0,30,30,144,1,,,,,,,,
,,,,,,,,,,,,,FF,,,,,,,,0.749,,,,,,,,,,,,,,,,,,,,,,6103420d5147efb55f890c8c,61036a072d963db9b735fde2,2021-07-29_21h56.46.594,Simcolourproject_2stim_asymm_v5,2020.2.10,MacIntel,60,61025ae37ef11b136ea224fe,,,,,,,,,1857,27,68,1,0,0,response1disk,,7,-5,-4,1,0,0,rectangle,-5,-4,1,0,0,-5,-4,1,0,0,0,31,31,141,1,,,,,,,,
,,,,,,,,,,,,,FF,,,,,,,,0.75,,,,,,,,,,,,,,,,,,,,,,6103420d5147efb55f890c8c,61036a072d963db9b735fde2,2021-07-29_21h56.46.594,Simcolourproject_2stim_asymm_v5,2020.2.10,MacIntel,60,61025ae37ef11b136ea224fe,,,,,,,,,1090,42,81,1,0,0,response1disk,,7,10,6,1,0,0,rectangle,10,6,1,0,0,10,6,1,0,0,0,32,32,41,1,,,,,,,,
,,,,,,,,,,,,,FF,,,,,,,,0.899,,,,,,,,,,,,,,,,,,,,,,6103420d5147efb55f890c8c,61036a072d963db9b735fde2,2021-07-29_21h56.46.594,Simcolourproject_2stim_asymm_v5,2020.2.10,MacIntel,60,61025ae37ef11b136ea224fe,,,,,,,,,2350,43,86,1,0,0,response1disk,,7,1,12,1,0,0,rectangle,1,12,1,0,0,1,12,1,0,0,0,33,33,118,1,,,,,,,,
,,,,,,,,,,,,,FF,,,,,,,,1.883,,,,,,,,,,,,,,,,,,,,,,6103420d5147efb55f890c8c,61036a072d963db9b735fde2,2021-07-29_21h56.46.594,Simcolourproject_2stim_asymm_v5,2020.2.10,MacIntel,60,61025ae37ef11b136ea224fe,,,,,,,,,1167,42,82,1,0,0,response1disk,,7,-2,8,1,0,0,rectangle,-2,8,1,0,0,-2,8,1,0,0,0,34,34,124,1,,,,,,,,
,,,,,,,,,,,,,FF,,,,,,,,1.465,,,,,,,,,,,,,,,,,,,,,,6103420d5147efb55f890c8c,61036a072d963db9b735fde2,2021-07-29_21h56.46.594,Simcolourproject_2stim_asymm_v5,2020.2.10,MacIntel,60,61025ae37ef11b136ea224fe,,,,,,,,,2045,45,89,1,0,0,response1disk,,7,-4,6,1,0,0,rectangle,-4,6,1,0,0,-4,6,1,0,0,0,35,35,100,1,,,,,,,,
,,,,,,,,,,,,,FF,,,,,,,,1.568,,,,,,,,,,,,,,,,,,,,,,6103420d5147efb55f890c8c,61036a072d963db9b735fde2,2021-07-29_21h56.46.594,Simcolourproject_2stim_asymm_v5,2020.2.10,MacIntel,60,61025ae37ef11b136ea224fe,,,,,,,,,297,43,-69,1,0,0,response3disk,,4,-6,2,1,0,0,rectangle,-6,2,1,0,0,-6,2,1,0,0,0,36,36,85,1,,,,,,,,
,,,,,,,,,,,,,FF,,,,,,,,0.684,,,,,,,,,,,,,,,,,,,,,,6103420d5147efb55f890c8c,61036a072d963db9b735fde2,2021-07-29_21h56.46.594,Simcolourproject_2stim_asymm_v5,2020.2.10,MacIntel,60,61025ae37ef11b136ea224fe,,,,,,,,,4355,30,73,1,0,0,response1disk,,7,3,-3,1,0,0,rectangle,3,-3,1,0,0,3,-3,1,0,0,0,37,37,50,1,,,,,,,,
,,,,,,,,,,,,,FF,,,,,,,,1.284,,,,,,,,,,,,,,,,,,,,,,6103420d5147efb55f890c8c,61036a072d963db9b735fde2,2021-07-29_21h56.46.594,Simcolourproject_2stim_asymm_v5,2020.2.10,MacIntel,60,61025ae37ef11b136ea224fe,,,,,,,,,3043,56,87,1,0,0,response1disk,,7,0,-5,1,0,0,rectangle,0,-5,1,0,0,0,-5,1,0,0,0,38,38,110,1,,,,,,,,
,,,,,,,,,,,,,FF,,,,,,,,2.033,,,,,,,,,,,,,,,,,,,,,,6103420d5147efb55f890c8c,61036a072d963db9b735fde2,2021-07-29_21h56.46.594,Simcolourproject_2stim_asymm_v5,2020.2.10,MacIntel,60,61025ae37ef11b136ea224fe,,,,,,,,,3289,58,85,1,0,0,response1disk,,7,-4,-6,1,0,0,rectangle,-43,80,1,0,0,0,0,1,0,0,0,39,39,71,1,,response7disk_3,TRUE,0,0,"[306,249,26,87,149,120,109,183,40,262,191,7,156,107,312,272,51,111,20,204]",1.418,rectangle
,,,,,,,,,,,,,FF,,,,,,,,0.683,,,,,,,,,,,,,,,,,,,,,,6103420d5147efb55f890c8c,61036a072d963db9b735fde2,2021-07-29_21h56.46.594,Simcolourproject_2stim_asymm_v5,2020.2.10,MacIntel,60,61025ae37ef11b136ea224fe,,,,,,,,,3696,45,85,1,0,0,response1disk,,7,6,7,1,0,0,rectangle,6,7,1,0,0,6,7,1,0,0,0,40,40,93,1,,,,,,,,
,,,,,,,,,,,,,FF,,,,,,,,1.083,,,,,,,,,,,,,,,,,,,,,,6103420d5147efb55f890c8c,61036a072d963db9b735fde2,2021-07-29_21h56.46.594,Simcolourproject_2stim_asymm_v5,2020.2.10,MacIntel,60,61025ae37ef11b136ea224fe,,,,,,,,,1607,-80,-39,1,0,0,response5disk,,2,-4,-9,1,0,0,rectangle,-4,-9,1,0,0,-4,-9,1,0,0,0,41,41,130,1,,,,,,,,
,,,,,,,,,,,,,FF,,,,,,,,1.968,,,,,,,,,,,,,,,,,,,,,,6103420d5147efb55f890c8c,61036a072d963db9b735fde2,2021-07-29_21h56.46.594,Simcolourproject_2stim_asymm_v5,2020.2.10,MacIntel,60,61025ae37ef11b136ea224fe,,,,,,,,,920,76,51,1,0,0,response1disk,,6,10,0,1,0,0,rectangle,10,0,1,0,0,10,0,1,0,0,0,42,42,73,1,,,,,,,,
,,,,,,,,,,,,,FF,,,,,,,,0.634,,,,,,,,,,,,,,,,,,,,,,6103420d5147efb55f890c8c,61036a072d963db9b735fde2,2021-07-29_21h56.46.594,Simcolourproject_2stim_asymm_v5,2020.2.10,MacIntel,60,61025ae37ef11b136ea224fe,,,,,,,,,3280,46,82,1,0,0,response1disk,,7,-2,-1,1,0,0,rectangle,-2,-1,1,0,0,-2,-1,1,0,0,0,43,43,32,1,,,,,,,,
,,,,,,,,,,,,,FF,,,,,,,,1.85,,,,,,,,,,,,,,,,,,,,,,6103420d5147efb55f890c8c,61036a072d963db9b735fde2,2021-07-29_21h56.46.594,Simcolourproject_2stim_asymm_v5,2020.2.10,MacIntel,60,61025ae37ef11b136ea224fe,,,,,,,,,908,74,-45,1,0,0,response3disk,,5,1,-5,1,0,0,rectangle,1,-5,1,0,0,1,-5,1,0,0,0,44,44,61,1,,,,,,,,
,,,,,,,,,,,,,FF,,,,,,,,0.816,,,,,,,,,,,,,,,,,,,,,,6103420d5147efb55f890c8c,61036a072d963db9b735fde2,2021-07-29_21h56.46.594,Simcolourproject_2stim_asymm_v5,2020.2.10,MacIntel,60,61025ae37ef11b136ea224fe,,,,,,,,,2812,43,85,1,0,0,response1disk,,7,11,1,1,0,0,rectangle,11,1,1,0,0,11,1,1,0,0,0,45,45,146,1,,,,,,,,
,,,,,,,,,,,,,FF,,,,,,,,1.033,,,,,,,,,,,,,,,,,,,,,,6103420d5147efb55f890c8c,61036a072d963db9b735fde2,2021-07-29_21h56.46.594,Simcolourproject_2stim_asymm_v5,2020.2.10,MacIntel,60,61025ae37ef11b136ea224fe,,,,,,,,,1882,45,87,1,0,0,response1disk,,7,-17,-9,1,0,0,rectangle,-17,-9,1,0,0,-17,-9,1,0,0,0,46,46,106,1,,,,,,,,
,,,,,,,,,,,,,FF,,,,,,,,0.549,,,,,,,,,,,,,,,,,,,,,,6103420d5147efb55f890c8c,61036a072d963db9b735fde2,2021-07-29_21h56.46.594,Simcolourproject_2stim_asymm_v5,2020.2.10,MacIntel,60,61025ae37ef11b136ea224fe,,,,,,,,,2398,47,89,1,0,0,response1disk,,7,1,1,1,0,0,rectangle,1,1,1,0,0,1,1,1,0,0,0,47,47,58,1,,,,,,,,
,,,,,,,,,,,,,FF,,,,,,,,1.799,,,,,,,,,,,,,,,,,,,,,,6103420d5147efb55f890c8c,61036a072d963db9b735fde2,2021-07-29_21h56.46.594,Simcolourproject_2stim_asymm_v5,2020.2.10,MacIntel,60,61025ae37ef11b136ea224fe,,,,,,,,,576,85,-43,1,0,0,response3disk,,5,3,-3,1,0,0,rectangle,3,-3,1,0,0,3,-3,1,0,0,0,48,48,21,1,,,,,,,,
,,,,,,,,,,,,,FF,,,,,,,,1.033,,,,,,,,,,,,,,,,,,,,,,6103420d5147efb55f890c8c,61036a072d963db9b735fde2,2021-07-29_21h56.46.594,Simcolourproject_2stim_asymm_v5,2020.2.10,MacIntel,60,61025ae37ef11b136ea224fe,,,,,,,,,261,-71,28,1,0,0,response7disk,,1,11,1,1,0,0,rectangle,11,1,1,0,0,11,1,1,0,0,0,49,49,29,1,,,,,,,,
,,,,,,,,,,,,,FF,,,,,,,,1.2,,,,,,,,,,,,,,,,,,,,,,6103420d5147efb55f890c8c,61036a072d963db9b735fde2,2021-07-29_21h56.46.594,Simcolourproject_2stim_asymm_v5,2020.2.10,MacIntel,60,61025ae37ef11b136ea224fe,,,,,,,,,2244,36,70,1,0,0,response1disk,,7,-15,-18,1,0,0,rectangle,35,-86,1,0,0,4,5,1,0,0,0,50,50,62,1,,response3disk_3,TRUE,4,4,"[306,249,26,87,149,120,109,183,40,262,191,7,156,107,312,272,51,111,20,204]",1.432,rectangle
,,,,,,,,,,,,,FF,,,,,,,,1.133,,,,,,,,,,,,,,,,,,,,,,6103420d5147efb55f890c8c,61036a072d963db9b735fde2,2021-07-29_21h56.46.594,Simcolourproject_2stim_asymm_v5,2020.2.10,MacIntel,60,61025ae37ef11b136ea224fe,,,,,,,,,1072,-39,-91,1,0,0,response5disk,,3,-3,-6,1,0,0,rectangle,-3,-6,1,0,0,-3,-6,1,0,0,0,51,51,131,1,,,,,,,,
,,,,,,,,,,,,,FF,,,,,,,,2.101,,,,,,,,,,,,,,,,,,,,,,6103420d5147efb55f890c8c,61036a072d963db9b735fde2,2021-07-29_21h56.46.594,Simcolourproject_2stim_asymm_v5,2020.2.10,MacIntel,60,61025ae37ef11b136ea224fe,,,,,,,,,2725,-85,-34,1,0,0,response5disk,,2,0,-2,1,0,0,rectangle,0,-2,1,0,0,0,-2,1,0,0,0,52,52,44,1,,,,,,,,
,,,,,,,,,,,,,FF,,,,,,,,0.95,,,,,,,,,,,,,,,,,,,,,,6103420d5147efb55f890c8c,61036a072d963db9b735fde2,2021-07-29_21h56.46.594,Simcolourproject_2stim_asymm_v5,2020.2.10,MacIntel,60,61025ae37ef11b136ea224fe,,,,,,,,,1744,-69,-38,1,0,0,response5disk,,2,0,-8,1,0,0,rectangle,0,-8,1,0,0,0,-8,1,0,0,0,53,53,150,1,,,,,,,,
,,,,,,,,,,,,,FF,,,,,,,,1.151,,,,,,,,,,,,,,,,,,,,,,6103420d5147efb55f890c8c,61036a072d963db9b735fde2,2021-07-29_21h56.46.594,Simcolourproject_2stim_asymm_v5,2020.2.10,MacIntel,60,61025ae37ef11b136ea224fe,,,,,,,,,2375,75,40,1,0,0,response1disk,,6,-5,10,1,0,0,rectangle,-5,10,1,0,0,-5,10,1,0,0,0,54,54,55,1,,,,,,,,
,,,,,,,,,,,,,FF,,,,,,,,0.583,,,,,,,,,,,,,,,,,,,,,,6103420d5147efb55f890c8c,61036a072d963db9b735fde2,2021-07-29_21h56.46.594,Simcolourproject_2stim_asymm_v5,2020.2.10,MacIntel,60,61025ae37ef11b136ea224fe,,,,,,,,,768,29,77,1,0,0,response1disk,,7,3,-1,1,0,0,rectangle,3,-1,1,0,0,3,-1,1,0,0,0,55,55,126,1,,,,,,,,
,,,,,,,,,,,,,FF,,,,,,,,0.733,,,,,,,,,,,,,,,,,,,,,,6103420d5147efb55f890c8c,61036a072d963db9b735fde2,2021-07-29_21h56.46.594,Simcolourproject_2stim_asymm_v5,2020.2.10,MacIntel,60,61025ae37ef11b136ea224fe,,,,,,,,,4249,37,71,1,0,0,response1disk,,7,15,11,1,0,0,rectangle,15,11,1,0,0,15,11,1,0,0,0,56,56,20,1,,,,,,,,
,,,,,,,,,,,,,FF,,,,,,,,1.834,,,,,,,,,,,,,,,,,,,,,,6103420d5147efb55f890c8c,61036a072d963db9b735fde2,2021-07-29_21h56.46.594,Simcolourproject_2stim_asymm_v5,2020.2.10,MacIntel,60,61025ae37ef11b136ea224fe,,,,,,,,,3108,-76,-20,1,0,0,response5disk,,2,6,-6,1,0,0,rectangle,6,-6,1,0,0,6,-6,1,0,0,0,57,57,95,1,,,,,,,,
,,,,,,,,,,,,,FF,,,,,,,,0.816,,,,,,,,,,,,,,,,,,,,,,6103420d5147efb55f890c8c,61036a072d963db9b735fde2,2021-07-29_21h56.46.594,Simcolourproject_2stim_asymm_v5,2020.2.10,MacIntel,60,61025ae37ef11b136ea224fe,,,,,,,,,626,43,72,1,0,0,response1disk,,7,3,8,1,0,0,rectangle,3,8,1,0,0,3,8,1,0,0,0,58,58,38,1,,,,,,,,
,,,,,,,,,,,,,FF,,,,,,,,0.6,,,,,,,,,,,,,,,,,,,,,,6103420d5147efb55f890c8c,61036a072d963db9b735fde2,2021-07-29_21h56.46.594,Simcolourproject_2stim_asymm_v5,2020.2.10,MacIntel,60,61025ae37ef11b136ea224fe,,,,,,,,,274,44,71,1,0,0,response1disk,,7,2,0,1,0,0,rectangle,2,0,1,0,0,2,0,1,0,0,0,59,59,136,1,,,,,,,,
,,,,,,,,,,,,,FF,,,,,,,,0.617,,,,,,,,,,,,,,,,,,,,,,6103420d5147efb55f890c8c,61036a072d963db9b735fde2,2021-07-29_21h56.46.594,Simcolourproject_2stim_asymm_v5,2020.2.10,MacIntel,60,61025ae37ef11b136ea224fe,,,,,,,,,1711,48,84,1,0,0,response1disk,,7,1,-2,1,0,0,rectangle,1,-2,1,0,0,1,-2,1,0,0,0,60,60,78,1,,,,,,,,
,,,,,,,,,,,,,FF,,,,,,,,1.05,,,,,,,,,,,,,,,,,,,,,,6103420d5147efb55f890c8c,61036a072d963db9b735fde2,2021-07-29_21h56.46.594,Simcolourproject_2stim_asymm_v5,2020.2.10,MacIntel,60,61025ae37ef11b136ea224fe,,,,,,,,,4304,35,70,1,0,0,response1disk,,7,-1,-8,1,0,0,rectangle,-1,-8,1,0,0,-1,-8,1,0,0,0,61,61,42,1,,,,,,,,
,,,,,,,,,,,,,FF,,,,,,,,1.217,,,,,,,,,,,,,,,,,,,,,,6103420d5147efb55f890c8c,61036a072d963db9b735fde2,2021-07-29_21h56.46.594,Simcolourproject_2stim_asymm_v5,2020.2.10,MacIntel,60,61025ae37ef11b136ea224fe,,,,,,,,,3818,-34,-99,1,0,0,response5disk,,3,-7,-5,1,0,0,rectangle,-7,-5,1,0,0,-7,-5,1,0,0,0,62,62,133,1,,,,,,,,
,,,,,,,,,,,,,FF,,,,,,,,1.284,,,,,,,,,,,,,,,,,,,,,,6103420d5147efb55f890c8c,61036a072d963db9b735fde2,2021-07-29_21h56.46.594,Simcolourproject_2stim_asymm_v5,2020.2.10,MacIntel,60,61025ae37ef11b136ea224fe,,,,,,,,,1435,46,-86,1,0,0,response3disk,,4,-2,7,1,0,0,rectangle,-2,7,1,0,0,-2,7,1,0,0,0,63,63,2,1,,,,,,,,
,,,,,,,,,,,,,FF,,,,,,,,1.117,,,,,,,,,,,,,,,,,,,,,,6103420d5147efb55f890c8c,61036a072d963db9b735fde2,2021-07-29_21h56.46.594,Simcolourproject_2stim_asymm_v5,2020.2.10,MacIntel,60,61025ae37ef11b136ea224fe,,,,,,,,,3691,42,70,1,0,0,response1disk,,7,-7,1,1,0,0,rectangle,-7,1,1,0,0,-7,1,1,0,0,0,64,64,122,1,,,,,,,,
,,,,,,,,,,,,,FF,,,,,,,,0.933,,,,,,,,,,,,,,,,,,,,,,6103420d5147efb55f890c8c,61036a072d963db9b735fde2,2021-07-29_21h56.46.594,Simcolourproject_2stim_asymm_v5,2020.2.10,MacIntel,60,61025ae37ef11b136ea224fe,,,,,,,,,2481,-80,42,1,0,0,response7disk,,1,7,-1,1,0,0,rectangle,7,-1,1,0,0,7,-1,1,0,0,0,65,65,97,1,,,,,,,,
,,,,,,,,,,,,,FF,,,,,,,,1.317,,,,,,,,,,,,,,,,,,,,,,6103420d5147efb55f890c8c,61036a072d963db9b735fde2,2021-07-29_21h56.46.594,Simcolourproject_2stim_asymm_v5,2020.2.10,MacIntel,60,61025ae37ef11b136ea224fe,,,,,,,,,211,98,-26,1,0,0,response3disk,,5,5,1,1,0,0,rectangle,5,1,1,0,0,5,1,1,0,0,0,66,66,14,1,,,,,,,,
,,,,,,,,,,,,,FF,,,,,,,,0.8,,,,,,,,,,,,,,,,,,,,,,6103420d5147efb55f890c8c,61036a072d963db9b735fde2,2021-07-29_21h56.46.594,Simcolourproject_2stim_asymm_v5,2020.2.10,MacIntel,60,61025ae37ef11b136ea224fe,,,,,,,,,985,84,40,1,0,0,response1disk,,6,7,6,1,0,0,rectangle,7,6,1,0,0,7,6,1,0,0,0,67,67,139,1,,,,,,,,
,,,,,,,,,,,,,FF,,,,,,,,0.683,,,,,,,,,,,,,,,,,,,,,,6103420d5147efb55f890c8c,61036a072d963db9b735fde2,2021-07-29_21h56.46.594,Simcolourproject_2stim_asymm_v5,2020.2.10,MacIntel,60,61025ae37ef11b136ea224fe,,,,,,,,,799,45,80,1,0,0,response1disk,,7,-3,-2,1,0,0,rectangle,-3,-2,1,0,0,-3,-2,1,0,0,0,68,68,111,1,,,,,,,,
,,,,,,,,,,,,,FF,,,,,,,,1.516,,,,,,,,,,,,,,,,,,,,,,6103420d5147efb55f890c8c,61036a072d963db9b735fde2,2021-07-29_21h56.46.594,Simcolourproject_2stim_asymm_v5,2020.2.10,MacIntel,60,61025ae37ef11b136ea224fe,,,,,,,,,3198,-34,-78,1,0,0,response5disk,,3,5,6,1,0,0,rectangle,5,6,1,0,0,5,6,1,0,0,0,69,69,113,1,,,,,,,,
,,,,,,,,,,,,,FF,,,,,,,,0.616,,,,,,,,,,,,,,,,,,,,,,6103420d5147efb55f890c8c,61036a072d963db9b735fde2,2021-07-29_21h56.46.594,Simcolourproject_2stim_asymm_v5,2020.2.10,MacIntel,60,61025ae37ef11b136ea224fe,,,,,,,,,1875,35,59,1,0,0,response1disk,,7,5,-6,1,0,0,rectangle,5,-6,1,0,0,5,-6,1,0,0,0,70,70,46,1,,,,,,,,
,,,,,,,,,,,,,FF,,,,,,,,1.8,,,,,,,,,,,,,,,,,,,,,,6103420d5147efb55f890c8c,61036a072d963db9b735fde2,2021-07-29_21h56.46.594,Simcolourproject_2stim_asymm_v5,2020.2.10,MacIntel,60,61025ae37ef11b136ea224fe,,,,,,,,,1542,78,-41,1,0,0,response3disk,,5,3,-5,1,0,0,rectangle,3,-5,1,0,0,3,-5,1,0,0,0,71,71,90,1,,,,,,,,
,,,,,,,,,,,,,FF,,,,,,,,1.099,,,,,,,,,,,,,,,,,,,,,,6103420d5147efb55f890c8c,61036a072d963db9b735fde2,2021-07-29_21h56.46.594,Simcolourproject_2stim_asymm_v5,2020.2.10,MacIntel,60,61025ae37ef11b136ea224fe,,,,,,,,,175,-77,-28,1,0,0,response5disk,,2,9,1,1,0,0,rectangle,9,1,1,0,0,9,1,1,0,0,0,72,72,18,1,,,,,,,,
,,,,,,,,,,,,,FF,,,,,,,,0.766,,,,,,,,,,,,,,,,,,,,,,6103420d5147efb55f890c8c,61036a072d963db9b735fde2,2021-07-29_21h56.46.594,Simcolourproject_2stim_asymm_v5,2020.2.10,MacIntel,60,61025ae37ef11b136ea224fe,,,,,,,,,2893,-70,39,1,0,0,response7disk,,1,-6,7,1,0,0,rectangle,-6,7,1,0,0,-6,7,1,0,0,0,73,73,148,1,,,,,,,,
,,,,,,,,,,,,,FF,,,,,,,,1.268,,,,,,,,,,,,,,,,,,,,,,6103420d5147efb55f890c8c,61036a072d963db9b735fde2,2021-07-29_21h56.46.594,Simcolourproject_2stim_asymm_v5,2020.2.10,MacIntel,60,61025ae37ef11b136ea224fe,,,,,,,,,2847,-92,48,1,0,0,response7disk,,1,8,-3,1,0,0,rectangle,8,-3,1,0,0,8,-3,1,0,0,0,74,74,12,1,,,,,,,,
,,,,,,,,,,,,,FF,,,,,,,,0.701,,,,,,,,,,,,,,,,,,,,,,6103420d5147efb55f890c8c,61036a072d963db9b735fde2,2021-07-29_21h56.46.594,Simcolourproject_2stim_asymm_v5,2020.2.10,MacIntel,60,61025ae37ef11b136ea224fe,,,,,,,,,3951,78,45,1,0,0,response1disk,,6,-10,-4,1,0,0,rectangle,-10,-4,1,0,0,-10,-4,1,0,0,0,75,75,3,1,,,,,,,,
,,,,,,,,,,,,,FF,,,,,,,,0.832,,,,,,,,,,,,,,,,,,,,,,6103420d5147efb55f890c8c,61036a072d963db9b735fde2,2021-07-29_21h56.46.594,Simcolourproject_2stim_asymm_v5,2020.2.10,MacIntel,60,61025ae37ef11b136ea224fe,,,,,,,,,2408,65,111,1,0,0,response1disk,,7,5,0,1,0,0,rectangle,5,0,1,0,0,5,0,1,0,0,0,76,76,39,1,,,,,,,,
,,,,,,,,,,,,,FF,,,,,,,,1.184,,,,,,,,,,,,,,,,,,,,,,6103420d5147efb55f890c8c,61036a072d963db9b735fde2,2021-07-29_21h56.46.594,Simcolourproject_2stim_asymm_v5,2020.2.10,MacIntel,60,61025ae37ef11b136ea224fe,,,,,,,,,1388,63,-44,1,0,0,response3disk,,5,10,7,1,0,0,rectangle,10,7,1,0,0,10,7,1,0,0,0,77,77,147,1,,,,,,,,
,,,,,,,,,,,,,FF,,,,,,,,0.733,,,,,,,,,,,,,,,,,,,,,,6103420d5147efb55f890c8c,61036a072d963db9b735fde2,2021-07-29_21h56.46.594,Simcolourproject_2stim_asymm_v5,2020.2.10,MacIntel,60,61025ae37ef11b136ea224fe,,,,,,,,,2376,48,69,1,0,0,response1disk,,7,8,2,1,0,0,rectangle,8,2,1,0,0,8,2,1,0,0,0,78,78,123,1,,,,,,,,
,,,,,,,,,,,,,FF,,,,,,,,0.6,,,,,,,,,,,,,,,,,,,,,,6103420d5147efb55f890c8c,61036a072d963db9b735fde2,2021-07-29_21h56.46.594,Simcolourproject_2stim_asymm_v5,2020.2.10,MacIntel,60,61025ae37ef11b136ea224fe,,,,,,,,,4037,63,99,1,0,0,response1disk,,7,4,3,1,0,0,rectangle,4,3,1,0,0,4,3,1,0,0,0,79,79,22,1,,,,,,,,
,,,,,,,,,,,,,FF,,,,,,,,1.399,,,,,,,,,,,,,,,,,,,,,,6103420d5147efb55f890c8c,61036a072d963db9b735fde2,2021-07-29_21h56.46.594,Simcolourproject_2stim_asymm_v5,2020.2.10,MacIntel,60,61025ae37ef11b136ea224fe,,,,,,,,,2848,-47,-77,1,0,0,response5disk,,3,6,-6,1,0,0,rectangle,6,-6,1,0,0,6,-6,1,0,0,0,80,80,26,1,,,,,,,,
,,,,,,,,,,,,,FF,,,,,,,,1.5,,,,,,,,,,,,,,,,,,,,,,6103420d5147efb55f890c8c,61036a072d963db9b735fde2,2021-07-29_21h56.46.594,Simcolourproject_2stim_asymm_v5,2020.2.10,MacIntel,60,61025ae37ef11b136ea224fe,,,,,,,,,3118,76,46,1,0,0,response1disk,,6,-1,3,1,0,0,rectangle,-1,3,1,0,0,-1,3,1,0,0,0,81,81,34,1,,,,,,,,
,,,,,,,,,,,,,FF,,,,,,,,1.366,,,,,,,,,,,,,,,,,,,,,,6103420d5147efb55f890c8c,61036a072d963db9b735fde2,2021-07-29_21h56.46.594,Simcolourproject_2stim_asymm_v5,2020.2.10,MacIntel,60,61025ae37ef11b136ea224fe,,,,,,,,,2179,-36,-73,1,0,0,response5disk,,3,-6,1,1,0,0,rectangle,-6,1,1,0,0,-6,1,1,0,0,0,82,82,75,1,,,,,,,,
,,,,,,,,,,,,,FF,,,,,,,,0.6,,,,,,,,,,,,,,,,,,,,,,6103420d5147efb55f890c8c,61036a072d963db9b735fde2,2021-07-29_21h56.46.594,Simcolourproject_2stim_asymm_v5,2020.2.10,MacIntel,60,61025ae37ef11b136ea224fe,,,,,,,,,1209,40,66,1,0,0,response1disk,,7,16,12,1,0,0,rectangle,16,12,1,0,0,16,12,1,0,0,0,83,83,127,1,,,,,,,,
,,,,,,,,,,,,,FF,,,,,,,,0.868,,,,,,,,,,,,,,,,,,,,,,6103420d5147efb55f890c8c,61036a072d963db9b735fde2,2021-07-29_21h56.46.594,Simcolourproject_2stim_asymm_v5,2020.2.10,MacIntel,60,61025ae37ef11b136ea224fe,,,,,,,,,543,-73,41,1,0,0,response7disk,,1,-2,4,1,0,0,rectangle,-2,4,1,0,0,-2,4,1,0,0,0,84,84,48,1,,,,,,,,
,,,,,,,,,,,,,FF,,,,,,,,0.883,,,,,,,,,,,,,,,,,,,,,,6103420d5147efb55f890c8c,61036a072d963db9b735fde2,2021-07-29_21h56.46.594,Simcolourproject_2stim_asymm_v5,2020.2.10,MacIntel,60,61025ae37ef11b136ea224fe,,,,,,,,,2979,82,50,1,0,0,response1disk,,6,6,9,1,0,0,rectangle,6,9,1,0,0,6,9,1,0,0,0,85,85,60,1,,,,,,,,
,,,,,,,,,,,,,FF,,,,,,,,1.4,,,,,,,,,,,,,,,,,,,,,,6103420d5147efb55f890c8c,61036a072d963db9b735fde2,2021-07-29_21h56.46.594,Simcolourproject_2stim_asymm_v5,2020.2.10,MacIntel,60,61025ae37ef11b136ea224fe,,,,,,,,,790,77,59,1,0,0,response1disk,,6,-2,5,1,0,0,rectangle,37,78,1,0,0,10,2,1,0,0,0,86,86,98,1,,response1disk_3,TRUE,7,7,"[306,249,26,87,149,120,109,183,40,262,191,7,156,107,312,272,51,111,20,204]",1.716,rectangle
,,,,,,,,,,,,,FF,,,,,,,,1.5,,,,,,,,,,,,,,,,,,,,,,6103420d5147efb55f890c8c,61036a072d963db9b735fde2,2021-07-29_21h56.46.594,Simcolourproject_2stim_asymm_v5,2020.2.10,MacIntel,60,61025ae37ef11b136ea224fe,,,,,,,,,307,61,-43,1,0,0,response3disk,,5,11,-4,1,0,0,rectangle,11,-4,1,0,0,11,-4,1,0,0,0,87,87,107,1,,,,,,,,
,,,,,,,,,,,,,FF,,,,,,,,0.733,,,,,,,,,,,,,,,,,,,,,,6103420d5147efb55f890c8c,61036a072d963db9b735fde2,2021-07-29_21h56.46.594,Simcolourproject_2stim_asymm_v5,2020.2.10,MacIntel,60,61025ae37ef11b136ea224fe,,,,,,,,,3609,35,64,1,0,0,response1disk,,7,7,-11,1,0,0,rectangle,7,-11,1,0,0,7,-11,1,0,0,0,88,88,145,1,,,,,,,,
,,,,,,,,,,,,,FF,,,,,,,,1.385,,,,,,,,,,,,,,,,,,,,,,6103420d5147efb55f890c8c,61036a072d963db9b735fde2,2021-07-29_21h56.46.594,Simcolourproject_2stim_asymm_v5,2020.2.10,MacIntel,60,61025ae37ef11b136ea224fe,,,,,,,,,1676,-46,-68,1,0,0,response5disk,,3,0,-7,1,0,0,rectangle,0,-7,1,0,0,0,-7,1,0,0,0,89,89,134,1,,,,,,,,
,,,,,,,,,,,,,FF,,,,,,,,0.799,,,,,,,,,,,,,,,,,,,,,,6103420d5147efb55f890c8c,61036a072d963db9b735fde2,2021-07-29_21h56.46.594,Simcolourproject_2stim_asymm_v5,2020.2.10,MacIntel,60,61025ae37ef11b136ea224fe,,,,,,,,,3825,42,83,1,0,0,response1disk,,7,12,0,1,0,0,rectangle,12,0,1,0,0,12,0,1,0,0,0,90,90,137,1,,,,,,,,
,,,,,,,,,,,,,FF,,,,,,,,0.918,,,,,,,,,,,,,,,,,,,,,,6103420d5147efb55f890c8c,61036a072d963db9b735fde2,2021-07-29_21h56.46.594,Simcolourproject_2stim_asymm_v5,2020.2.10,MacIntel,60,61025ae37ef11b136ea224fe,,,,,,,,,1039,77,-48,1,0,0,response3disk,,5,5,-4,1,0,0,rectangle,5,-4,1,0,0,5,-4,1,0,0,0,91,91,132,1,,,,,,,,
,,,,,,,,,,,,,FF,,,,,,,,0.784,,,,,,,,,,,,,,,,,,,,,,6103420d5147efb55f890c8c,61036a072d963db9b735fde2,2021-07-29_21h56.46.594,Simcolourproject_2stim_asymm_v5,2020.2.10,MacIntel,60,61025ae37ef11b136ea224fe,,,,,,,,,2165,-30,-61,1,0,0,response5disk,,3,-11,-1,1,0,0,rectangle,-11,-1,1,0,0,-11,-1,1,0,0,0,92,92,112,1,,,,,,,,
,,,,,,,,,,,,,FF,,,,,,,,1.267,,,,,,,,,,,,,,,,,,,,,,6103420d5147efb55f890c8c,61036a072d963db9b735fde2,2021-07-29_21h56.46.594,Simcolourproject_2stim_asymm_v5,2020.2.10,MacIntel,60,61025ae37ef11b136ea224fe,,,,,,,,,3149,-29,-58,1,0,0,response5disk,,3,-6,-11,1,0,0,rectangle,-6,-11,1,0,0,-6,-11,1,0,0,0,93,93,63,1,,,,,,,,
,,,,,,,,,,,,,FF,,,,,,,,0.933,,,,,,,,,,,,,,,,,,,,,,6103420d5147efb55f890c8c,61036a072d963db9b735fde2,2021-07-29_21h56.46.594,Simcolourproject_2stim_asymm_v5,2020.2.10,MacIntel,60,61025ae37ef11b136ea224fe,,,,,,,,,4123,-30,-64,1,0,0,response5disk,,3,-8,-11,1,0,0,rectangle,-8,-11,1,0,0,-8,-11,1,0,0,0,94,94,81,1,,,,,,,,
,,,,,,,,,,,,,FF,,,,,,,,0.95,,,,,,,,,,,,,,,,,,,,,,6103420d5147efb55f890c8c,61036a072d963db9b735fde2,2021-07-29_21h56.46.594,Simcolourproject_2stim_asymm_v5,2020.2.10,MacIntel,60,61025ae37ef11b136ea224fe,,,,,,,,,235,40,69,1,0,0,response1disk,,7,12,4,1,0,0,rectangle,12,4,1,0,0,12,4,1,0,0,0,95,95,1,1,,,,,,,,
,,,,,,,,,,,,,FF,,,,,,,,1.051,,,,,,,,,,,,,,,,,,,,,,6103420d5147efb55f890c8c,61036a072d963db9b735fde2,2021-07-29_21h56.46.594,Simcolourproject_2stim_asymm_v5,2020.2.10,MacIntel,60,61025ae37ef11b136ea224fe,,,,,,,,,3248,-70,-28,1,0,0,response5disk,,2,-10,-11,1,0,0,rectangle,-10,-11,1,0,0,-10,-11,1,0,0,0,96,96,19,1,,,,,,,,
,,,,,,,,,,,,,FF,,,,,,,,0.55,,,,,,,,,,,,,,,,,,,,,,6103420d5147efb55f890c8c,61036a072d963db9b735fde2,2021-07-29_21h56.46.594,Simcolourproject_2stim_asymm_v5,2020.2.10,MacIntel,60,61025ae37ef11b136ea224fe,,,,,,,,,3992,55,85,1,0,0,response1disk,,7,15,8,1,0,0,rectangle,15,8,1,0,0,15,8,1,0,0,0,97,97,143,1,,,,,,,,
,,,,,,,,,,,,,FF,,,,,,,,1.35,,,,,,,,,,,,,,,,,,,,,,6103420d5147efb55f890c8c,61036a072d963db9b735fde2,2021-07-29_21h56.46.594,Simcolourproject_2stim_asymm_v5,2020.2.10,MacIntel,60,61025ae37ef11b136ea224fe,,,,,,,,,2216,48,-26,1,0,0,response3disk,,5,7,-9,1,0,0,rectangle,7,-9,1,0,0,7,-9,1,0,0,0,98,98,92,1,,,,,,,,
,,,,,,,,,,,,,FF,,,,,,,,1.85,,,,,,,,,,,,,,,,,,,,,,6103420d5147efb55f890c8c,61036a072d963db9b735fde2,2021-07-29_21h56.46.594,Simcolourproject_2stim_asymm_v5,2020.2.10,MacIntel,60,61025ae37ef11b136ea224fe,,,,,,,,,2043,77,-17,1,0,0,response3disk,,5,1,2,1,0,0,rectangle,1,2,1,0,0,1,2,1,0,0,0,99,99,15,1,,,,,,,,
,,,,,,,,,,,,,FF,,,,,,,,1.3,,,,,,,,,,,,,,,,,,,,,,6103420d5147efb55f890c8c,61036a072d963db9b735fde2,2021-07-29_21h56.46.594,Simcolourproject_2stim_asymm_v5,2020.2.10,MacIntel,60,61025ae37ef11b136ea224fe,,,,,,,,,1543,85,60,1,0,0,response1disk,,6,16,8,1,0,0,rectangle,16,8,1,0,0,16,8,1,0,0,0,100,100,135,1,,,,,,,,
,,,,,,,,,,,,,FF,,,,,,,,1.266,,,,,,,,,,,,,,,,,,,,,,6103420d5147efb55f890c8c,61036a072d963db9b735fde2,2021-07-29_21h56.46.594,Simcolourproject_2stim_asymm_v5,2020.2.10,MacIntel,60,61025ae37ef11b136ea224fe,,,,,,,,,1907,45,-35,1,0,0,response3disk,,5,-1,-10,1,0,0,rectangle,-1,-10,1,0,0,-1,-10,1,0,0,0,101,101,157,1,,,,,,,,
,,,,,,,,,,,,,FF,,,,,,,,0.866,,,,,,,,,,,,,,,,,,,,,,6103420d5147efb55f890c8c,61036a072d963db9b735fde2,2021-07-29_21h56.46.594,Simcolourproject_2stim_asymm_v5,2020.2.10,MacIntel,60,61025ae37ef11b136ea224fe,,,,,,,,,2765,31,65,1,0,0,response1disk,,7,11,0,1,0,0,rectangle,11,0,1,0,0,11,0,1,0,0,0,102,102,47,1,,,,,,,,
,,,,,,,,,,,,,FF,,,,,,,,0.8,,,,,,,,,,,,,,,,,,,,,,6103420d5147efb55f890c8c,61036a072d963db9b735fde2,2021-07-29_21h56.46.594,Simcolourproject_2stim_asymm_v5,2020.2.10,MacIntel,60,61025ae37ef11b136ea224fe,,,,,,,,,3024,42,58,1,0,0,response1disk,,7,15,-1,1,0,0,rectangle,15,-1,1,0,0,15,-1,1,0,0,0,103,103,49,1,,,,,,,,
,,,,,,,,,,,,,FF,,,,,,,,1.799,,,,,,,,,,,,,,,,,,,,,,6103420d5147efb55f890c8c,61036a072d963db9b735fde2,2021-07-29_21h56.46.594,Simcolourproject_2stim_asymm_v5,2020.2.10,MacIntel,60,61025ae37ef11b136ea224fe,,,,,,,,,350,-26,-55,1,0,0,response5disk,,3,-3,-9,1,0,0,rectangle,-3,-9,1,0,0,-3,-9,1,0,0,0,104,104,103,1,,,,,,,,
,,,,,,,,,,,,,FF,,,,,,,,0.699,,,,,,,,,,,,,,,,,,,,,,6103420d5147efb55f890c8c,61036a072d963db9b735fde2,2021-07-29_21h56.46.594,Simcolourproject_2stim_asymm_v5,2020.2.10,MacIntel,60,61025ae37ef11b136ea224fe,,,,,,,,,859,31,67,1,0,0,response1disk,,7,16,1,1,0,0,rectangle,16,1,1,0,0,16,1,1,0,0,0,105,105,23,1,,,,,,,,
,,,,,,,,,,,,,FF,,,,,,,,0.567,,,,,,,,,,,,,,,,,,,,,,6103420d5147efb55f890c8c,61036a072d963db9b735fde2,2021-07-29_21h56.46.594,Simcolourproject_2stim_asymm_v5,2020.2.10,MacIntel,60,61025ae37ef11b136ea224fe,,,,,,,,,2564,35,78,1,0,0,response1disk,,7,18,2,1,0,0,rectangle,17,-65,1,0,0,0,0,1,0,0,0,106,106,76,1,,response3disk_3,TRUE,4,4,"[306,249,26,87,149,120,109,183,40,262,191,7,156,107,312,272,51,111,20,204]",1.283,rectangle
,,,,,,,,,,,,,FF,,,,,,,,1.967,,,,,,,,,,,,,,,,,,,,,,6103420d5147efb55f890c8c,61036a072d963db9b735fde2,2021-07-29_21h56.46.594,Simcolourproject_2stim_asymm_v5,2020.2.10,MacIntel,60,61025ae37ef11b136ea224fe,,,,,,,,,3706,-80,16,1,0,0,response7disk,,1,-12,3,1,0,0,rectangle,-12,3,1,0,0,-12,3,1,0,0,0,107,107,69,1,,,,,,,,
,,,,,,,,,,,,,FF,,,,,,,,0.8,,,,,,,,,,,,,,,,,,,,,,6103420d5147efb55f890c8c,61036a072d963db9b735fde2,2021-07-29_21h56.46.594,Simcolourproject_2stim_asymm_v5,2020.2.10,MacIntel,60,61025ae37ef11b136ea224fe,,,,,,,,,2655,56,85,1,0,0,response1disk,,7,17,-4,1,0,0,rectangle,-41,91,1,0,0,-9,7,1,0,0,0,108,108,151,1,,response7disk_3,TRUE,0,0,"[306,249,26,87,149,120,109,183,40,262,191,7,156,107,312,272,51,111,20,204]",1.382,rectangle
,,,,,,,,,,,,,FF,,,,,,,,0.916,,,,,,,,,,,,,,,,,,,,,,6103420d5147efb55f890c8c,61036a072d963db9b735fde2,2021-07-29_21h56.46.594,Simcolourproject_2stim_asymm_v5,2020.2.10,MacIntel,60,61025ae37ef11b136ea224fe,,,,,,,,,1347,47,84,1,0,0,response1disk,,7,14,4,1,0,0,rectangle,14,4,1,0,0,14,4,1,0,0,0,109,109,104,1,,,,,,,,
,,,,,,,,,,,,,FF,,,,,,,,1.151,,,,,,,,,,,,,,,,,,,,,,6103420d5147efb55f890c8c,61036a072d963db9b735fde2,2021-07-29_21h56.46.594,Simcolourproject_2stim_asymm_v5,2020.2.10,MacIntel,60,61025ae37ef11b136ea224fe,,,,,,,,,172,-39,-71,1,0,0,response5disk,,3,-15,3,1,0,0,rectangle,79,33,1,0,0,16,2,1,0,0,0,110,110,10,1,,response1disk_3,TRUE,6,6,"[306,249,26,87,149,120,109,183,40,262,191,7,156,107,312,272,51,111,20,204]",1.434,rectangle
,,,,,,,,,,,,,FF,,,,,,,,1.067,,,,,,,,,,,,,,,,,,,,,,6103420d5147efb55f890c8c,61036a072d963db9b735fde2,2021-07-29_21h56.46.594,Simcolourproject_2stim_asymm_v5,2020.2.10,MacIntel,60,61025ae37ef11b136ea224fe,,,,,,,,,3197,-66,43,1,0,0,response7disk,,1,6,0,1,0,0,rectangle,6,0,1,0,0,6,0,1,0,0,0,111,111,70,1,,,,,,,,
,,,,,,,,,,,,,FF,,,,,,,,0.668,,,,,,,,,,,,,,,,,,,,,,6103420d5147efb55f890c8c,61036a072d963db9b735fde2,2021-07-29_21h56.46.594,Simcolourproject_2stim_asymm_v5,2020.2.10,MacIntel,60,61025ae37ef11b136ea224fe,,,,,,,,,2675,31,59,1,0,0,response1disk,,7,6,-14,1,0,0,rectangle,6,-14,1,0,0,6,-14,1,0,0,0,112,112,114,1,,,,,,,,
,,,,,,,,,,,,,FF,,,,,,,,0.733,,,,,,,,,,,,,,,,,,,,,,6103420d5147efb55f890c8c,61036a072d963db9b735fde2,2021-07-29_21h56.46.594,Simcolourproject_2stim_asymm_v5,2020.2.10,MacIntel,60,61025ae37ef11b136ea224fe,,,,,,,,,249,64,104,1,0,0,response1disk,,7,0,-5,1,0,0,rectangle,0,-5,1,0,0,0,-5,1,0,0,0,113,113,153,1,,,,,,,,
,,,,,,,,,,,,,FF,,,,,,,,1.851,,,,,,,,,,,,,,,,,,,,,,6103420d5147efb55f890c8c,61036a072d963db9b735fde2,2021-07-29_21h56.46.594,Simcolourproject_2stim_asymm_v5,2020.2.10,MacIntel,60,61025ae37ef11b136ea224fe,,,,,,,,,895,-28,-66,1,0,0,response5disk,,3,-9,-10,1,0,0,rectangle,-9,-10,1,0,0,-9,-10,1,0,0,0,114,114,117,1,,,,,,,,
,,,,,,,,,,,,,FF,,,,,,,,2.033,,,,,,,,,,,,,,,,,,,,,,6103420d5147efb55f890c8c,61036a072d963db9b735fde2,2021-07-29_21h56.46.594,Simcolourproject_2stim_asymm_v5,2020.2.10,MacIntel,60,61025ae37ef11b136ea224fe,,,,,,,,,3676,26,-66,1,0,0,response3disk,,4,9,-12,1,0,0,rectangle,9,-12,1,0,0,9,-12,1,0,0,0,115,115,54,1,,,,,,,,
,,,,,,,,,,,,,FF,,,,,,,,1.75,,,,,,,,,,,,,,,,,,,,,,6103420d5147efb55f890c8c,61036a072d963db9b735fde2,2021-07-29_21h56.46.594,Simcolourproject_2stim_asymm_v5,2020.2.10,MacIntel,60,61025ae37ef11b136ea224fe,,,,,,,,,657,70,30,1,0,0,response1disk,,6,-2,-4,1,0,0,rectangle,-2,-4,1,0,0,-2,-4,1,0,0,0,116,116,102,1,,,,,,,,
,,,,,,,,,,,,,FF,,,,,,,,0.634,,,,,,,,,,,,,,,,,,,,,,6103420d5147efb55f890c8c,61036a072d963db9b735fde2,2021-07-29_21h56.46.594,Simcolourproject_2stim_asymm_v5,2020.2.10,MacIntel,60,61025ae37ef11b136ea224fe,,,,,,,,,1864,30,89,1,0,0,response1disk,,7,0,-1,1,0,0,rectangle,0,-1,1,0,0,0,-1,1,0,0,0,117,117,72,1,,,,,,,,
,,,,,,,,,,,,,FF,,,,,,,,0.584,,,,,,,,,,,,,,,,,,,,,,6103420d5147efb55f890c8c,61036a072d963db9b735fde2,2021-07-29_21h56.46.594,Simcolourproject_2stim_asymm_v5,2020.2.10,MacIntel,60,61025ae37ef11b136ea224fe,,,,,,,,,2151,46,93,1,0,0,response1disk,,7,6,-3,1,0,0,rectangle,6,-3,1,0,0,6,-3,1,0,0,0,118,118,149,1,,,,,,,,
,,,,,,,,,,,,,FF,,,,,,,,0.633,,,,,,,,,,,,,,,,,,,,,,6103420d5147efb55f890c8c,61036a072d963db9b735fde2,2021-07-29_21h56.46.594,Simcolourproject_2stim_asymm_v5,2020.2.10,MacIntel,60,61025ae37ef11b136ea224fe,,,,,,,,,3659,37,74,1,0,0,response1disk,,7,7,-1,1,0,0,rectangle,-46,80,1,0,0,-5,4,1,0,0,0,119,119,5,1,,response7disk_3,TRUE,0,0,"[306,249,26,87,149,120,109,183,40,262,191,7,156,107,312,272,51,111,20,204]",1.432,rectangle
,,,,,,,,,,,,,FF,,,,,,,,0.65,,,,,,,,,,,,,,,,,,,,,,6103420d5147efb55f890c8c,61036a072d963db9b735fde2,2021-07-29_21h56.46.594,Simcolourproject_2stim_asymm_v5,2020.2.10,MacIntel,60,61025ae37ef11b136ea224fe,,,,,,,,,1286,35,82,1,0,0,response1disk,,7,5,10,1,0,0,rectangle,5,10,1,0,0,5,10,1,0,0,0,120,120,33,1,,,,,,,,
,,,,,,,,,,,,,FF,,,,,,,,0.583,,,,,,,,,,,,,,,,,,,,,,6103420d5147efb55f890c8c,61036a072d963db9b735fde2,2021-07-29_21h56.46.594,Simcolourproject_2stim_asymm_v5,2020.2.10,MacIntel,60,61025ae37ef11b136ea224fe,,,,,,,,,3334,44,79,1,0,0,response1disk,,7,2,1,1,0,0,rectangle,2,1,1,0,0,2,1,1,0,0,0,121,121,68,1,,,,,,,,
,,,,,,,,,,,,,FF,,,,,,,,1.2,,,,,,,,,,,,,,,,,,,,,,6103420d5147efb55f890c8c,61036a072d963db9b735fde2,2021-07-29_21h56.46.594,Simcolourproject_2stim_asymm_v5,2020.2.10,MacIntel,60,61025ae37ef11b136ea224fe,,,,,,,,,3300,66,45,1,0,0,response1disk,,6,-1,2,1,0,0,rectangle,-1,2,1,0,0,-1,2,1,0,0,0,122,122,53,1,,,,,,,,
,,,,,,,,,,,,,FF,,,,,,,,0.634,,,,,,,,,,,,,,,,,,,,,,6103420d5147efb55f890c8c,61036a072d963db9b735fde2,2021-07-29_21h56.46.594,Simcolourproject_2stim_asymm_v5,2020.2.10,MacIntel,60,61025ae37ef11b136ea224fe,,,,,,,,,3448,39,76,1,0,0,response1disk,,7,5,1,1,0,0,rectangle,5,1,1,0,0,5,1,1,0,0,0,123,123,74,1,,,,,,,,
,,,,,,,,,,,,,FF,,,,,,,,0.601,,,,,,,,,,,,,,,,,,,,,,6103420d5147efb55f890c8c,61036a072d963db9b735fde2,2021-07-29_21h56.46.594,Simcolourproject_2stim_asymm_v5,2020.2.10,MacIntel,60,61025ae37ef11b136ea224fe,,,,,,,,,2930,41,88,1,0,0,response1disk,,7,6,3,1,0,0,rectangle,6,3,1,0,0,6,3,1,0,0,0,124,124,36,1,,,,,,,,
,,,,,,,,,,,,,FF,,,,,,,,1.782,,,,,,,,,,,,,,,,,,,,,,6103420d5147efb55f890c8c,61036a072d963db9b735fde2,2021-07-29_21h56.46.594,Simcolourproject_2stim_asymm_v5,2020.2.10,MacIntel,60,61025ae37ef11b136ea224fe,,,,,,,,,1754,81,-44,1,0,0,response3disk,,5,4,-3,1,0,0,rectangle,4,-3,1,0,0,4,-3,1,0,0,0,125,125,159,1,,,,,,,,
,,,,,,,,,,,,,FF,,,,,,,,1.351,,,,,,,,,,,,,,,,,,,,,,6103420d5147efb55f890c8c,61036a072d963db9b735fde2,2021-07-29_21h56.46.594,Simcolourproject_2stim_asymm_v5,2020.2.10,MacIntel,60,61025ae37ef11b136ea224fe,,,,,,,,,189,33,-69,1,0,0,response3disk,,4,1,7,1,0,0,rectangle,1,7,1,0,0,1,7,1,0,0,0,126,126,51,1,,,,,,,,
,,,,,,,,,,,,,FF,,,,,,,,0.8,,,,,,,,,,,,,,,,,,,,,,6103420d5147efb55f890c8c,61036a072d963db9b735fde2,2021-07-29_21h56.46.594,Simcolourproject_2stim_asymm_v5,2020.2.10,MacIntel,60,61025ae37ef11b136ea224fe,,,,,,,,,648,68,-31,1,0,0,response3disk,,5,17,5,1,0,0,rectangle,17,5,1,0,0,17,5,1,0,0,0,127,127,87,1,,,,,,,,
,,,,,,,,,,,,,FF,,,,,,,,1.384,,,,,,,,,,,,,,,,,,,,,,6103420d5147efb55f890c8c,61036a072d963db9b735fde2,2021-07-29_21h56.46.594,Simcolourproject_2stim_asymm_v5,2020.2.10,MacIntel,60,61025ae37ef11b136ea224fe,,,,,,,,,2841,58,27,1,0,0,response1disk,,6,10,10,1,0,0,rectangle,10,10,1,0,0,10,10,1,0,0,0,128,128,16,1,,,,,,,,
,,,,,,,,,,,,,FF,,,,,,,,0.882,,,,,,,,,,,,,,,,,,,,,,6103420d5147efb55f890c8c,61036a072d963db9b735fde2,2021-07-29_21h56.46.594,Simcolourproject_2stim_asymm_v5,2020.2.10,MacIntel,60,61025ae37ef11b136ea224fe,,,,,,,,,2033,-28,-48,1,0,0,response5disk,,3,-10,-13,1,0,0,rectangle,-10,-13,1,0,0,-10,-13,1,0,0,0,129,129,59,1,,,,,,,,
,,,,,,,,,,,,,FF,,,,,,,,0.782,,,,,,,,,,,,,,,,,,,,,,6103420d5147efb55f890c8c,61036a072d963db9b735fde2,2021-07-29_21h56.46.594,Simcolourproject_2stim_asymm_v5,2020.2.10,MacIntel,60,61025ae37ef11b136ea224fe,,,,,,,,,3121,32,66,1,0,0,response1disk,,7,12,0,1,0,0,rectangle,12,0,1,0,0,12,0,1,0,0,0,130,130,65,1,,,,,,,,
,,,,,,,,,,,,,FF,,,,,,,,0.617,,,,,,,,,,,,,,,,,,,,,,6103420d5147efb55f890c8c,61036a072d963db9b735fde2,2021-07-29_21h56.46.594,Simcolourproject_2stim_asymm_v5,2020.2.10,MacIntel,60,61025ae37ef11b136ea224fe,,,,,,,,,1268,35,78,1,0,0,response1disk,,7,7,-7,1,0,0,rectangle,7,-7,1,0,0,7,-7,1,0,0,0,131,131,66,1,,,,,,,,
,,,,,,,,,,,,,FF,,,,,,,,0.801,,,,,,,,,,,,,,,,,,,,,,6103420d5147efb55f890c8c,61036a072d963db9b735fde2,2021-07-29_21h56.46.594,Simcolourproject_2stim_asymm_v5,2020.2.10,MacIntel,60,61025ae37ef11b136ea224fe,,,,,,,,,3570,35,62,1,0,0,response1disk,,7,3,6,1,0,0,rectangle,3,6,1,0,0,3,6,1,0,0,0,132,132,94,1,,,,,,,,
,,,,,,,,,,,,,FF,,,,,,,,1.267,,,,,,,,,,,,,,,,,,,,,,6103420d5147efb55f890c8c,61036a072d963db9b735fde2,2021-07-29_21h56.46.594,Simcolourproject_2stim_asymm_v5,2020.2.10,MacIntel,60,61025ae37ef11b136ea224fe,,,,,,,,,3485,31,72,1,0,0,response1disk,,7,-5,-3,1,0,0,rectangle,-5,-3,1,0,0,-5,-3,1,0,0,0,133,133,83,1,,,,,,,,
,,,,,,,,,,,,,FF,,,,,,,,0.817,,,,,,,,,,,,,,,,,,,,,,6103420d5147efb55f890c8c,61036a072d963db9b735fde2,2021-07-29_21h56.46.594,Simcolourproject_2stim_asymm_v5,2020.2.10,MacIntel,60,61025ae37ef11b136ea224fe,,,,,,,,,2727,45,-67,1,0,0,response3disk,,4,10,-9,1,0,0,rectangle,10,-9,1,0,0,10,-9,1,0,0,0,134,134,64,1,,,,,,,,
,,,,,,,,,,,,,FF,,,,,,,,0.734,,,,,,,,,,,,,,,,,,,,,,6103420d5147efb55f890c8c,61036a072d963db9b735fde2,2021-07-29_21h56.46.594,Simcolourproject_2stim_asymm_v5,2020.2.10,MacIntel,60,61025ae37ef11b136ea224fe,,,,,,,,,1141,67,-28,1,0,0,response3disk,,5,5,1,1,0,0,rectangle,5,1,1,0,0,5,1,1,0,0,0,135,135,67,1,,,,,,,,
,,,,,,,,,,,,,FF,,,,,,,,1.033,,,,,,,,,,,,,,,,,,,,,,6103420d5147efb55f890c8c,61036a072d963db9b735fde2,2021-07-29_21h56.46.594,Simcolourproject_2stim_asymm_v5,2020.2.10,MacIntel,60,61025ae37ef11b136ea224fe,,,,,,,,,21,33,61,1,0,0,response1disk,,7,2,4,1,0,0,rectangle,2,4,1,0,0,2,4,1,0,0,0,136,136,119,1,,,,,,,,
,,,,,,,,,,,,,FF,,,,,,,,0.85,,,,,,,,,,,,,,,,,,,,,,6103420d5147efb55f890c8c,61036a072d963db9b735fde2,2021-07-29_21h56.46.594,Simcolourproject_2stim_asymm_v5,2020.2.10,MacIntel,60,61025ae37ef11b136ea224fe,,,,,,,,,3379,30,49,1,0,0,response1disk,,7,13,0,1,0,0,rectangle,13,0,1,0,0,13,0,1,0,0,0,137,137,84,1,,,,,,,,
,,,,,,,,,,,,,FF,,,,,,,,0.534,,,,,,,,,,,,,,,,,,,,,,6103420d5147efb55f890c8c,61036a072d963db9b735fde2,2021-07-29_21h56.46.594,Simcolourproject_2stim_asymm_v5,2020.2.10,MacIntel,60,61025ae37ef11b136ea224fe,,,,,,,,,58,37,74,1,0,0,response1disk,,7,9,9,1,0,0,rectangle,9,9,1,0,0,9,9,1,0,0,0,138,138,52,1,,,,,,,,
,,,,,,,,,,,,,FF,,,,,,,,1.417,,,,,,,,,,,,,,,,,,,,,,6103420d5147efb55f890c8c,61036a072d963db9b735fde2,2021-07-29_21h56.46.594,Simcolourproject_2stim_asymm_v5,2020.2.10,MacIntel,60,61025ae37ef11b136ea224fe,,,,,,,,,70,34,-68,1,0,0,response3disk,,4,7,-2,1,0,0,rectangle,7,-2,1,0,0,7,-2,1,0,0,0,139,139,56,1,,,,,,,,
,,,,,,,,,,,,,FF,,,,,,,,0.583,,,,,,,,,,,,,,,,,,,,,,6103420d5147efb55f890c8c,61036a072d963db9b735fde2,2021-07-29_21h56.46.594,Simcolourproject_2stim_asymm_v5,2020.2.10,MacIntel,60,61025ae37ef11b136ea224fe,,,,,,,,,2813,37,66,1,0,0,response1disk,,7,7,3,1,0,0,rectangle,7,3,1,0,0,7,3,1,0,0,0,140,140,25,1,,,,,,,,
,,,,,,,,,,,,,FF,,,,,,,,0.95,,,,,,,,,,,,,,,,,,,,,,6103420d5147efb55f890c8c,61036a072d963db9b735fde2,2021-07-29_21h56.46.594,Simcolourproject_2stim_asymm_v5,2020.2.10,MacIntel,60,61025ae37ef11b136ea224fe,,,,,,,,,3204,-36,-59,1,0,0,response5disk,,3,7,6,1,0,0,rectangle,7,6,1,0,0,7,6,1,0,0,0,141,141,77,1,,,,,,,,
,,,,,,,,,,,,,FF,,,,,,,,0.649,,,,,,,,,,,,,,,,,,,,,,6103420d5147efb55f890c8c,61036a072d963db9b735fde2,2021-07-29_21h56.46.594,Simcolourproject_2stim_asymm_v5,2020.2.10,MacIntel,60,61025ae37ef11b136ea224fe,,,,,,,,,3960,37,71,1,0,0,response1disk,,7,-4,-12,1,0,0,rectangle,-4,-12,1,0,0,-4,-12,1,0,0,0,142,142,43,1,,,,,,,,
,,,,,,,,,,,,,FF,,,,,,,,2.067,,,,,,,,,,,,,,,,,,,,,,6103420d5147efb55f890c8c,61036a072d963db9b735fde2,2021-07-29_21h56.46.594,Simcolourproject_2stim_asymm_v5,2020.2.10,MacIntel,60,61025ae37ef11b136ea224fe,,,,,,,,,169,29,-61,1,0,0,response3disk,,4,19,-18,1,0,0,rectangle,19,-18,1,0,0,19,-18,1,0,0,0,143,143,155,1,,,,,,,,
,,,,,,,,,,,,,FF,,,,,,,,1.465,,,,,,,,,,,,,,,,,,,,,,6103420d5147efb55f890c8c,61036a072d963db9b735fde2,2021-07-29_21h56.46.594,Simcolourproject_2stim_asymm_v5,2020.2.10,MacIntel,60,61025ae37ef11b136ea224fe,,,,,,,,,1686,61,26,1,0,0,response1disk,,6,-3,11,1,0,0,rectangle,-3,11,1,0,0,-3,11,1,0,0,0,144,144,88,1,,,,,,,,
,,,,,,,,,,,,,FF,,,,,,,,0.852,,,,,,,,,,,,,,,,,,,,,,6103420d5147efb55f890c8c,61036a072d963db9b735fde2,2021-07-29_21h56.46.594,Simcolourproject_2stim_asymm_v5,2020.2.10,MacIntel,60,61025ae37ef11b136ea224fe,,,,,,,,,589,23,55,1,0,0,response1disk,,7,2,-8,1,0,0,rectangle,2,-8,1,0,0,2,-8,1,0,0,0,145,145,105,1,,,,,,,,
,,,,,,,,,,,,,FF,,,,,,,,0.717,,,,,,,,,,,,,,,,,,,,,,6103420d5147efb55f890c8c,61036a072d963db9b735fde2,2021-07-29_21h56.46.594,Simcolourproject_2stim_asymm_v5,2020.2.10,MacIntel,60,61025ae37ef11b136ea224fe,,,,,,,,,2921,44,86,1,0,0,response1disk,,7,1,1,1,0,0,rectangle,1,1,1,0,0,1,1,1,0,0,0,146,146,4,1,,,,,,,,
,,,,,,,,,,,,,FF,,,,,,,,0.632,,,,,,,,,,,,,,,,,,,,,,6103420d5147efb55f890c8c,61036a072d963db9b735fde2,2021-07-29_21h56.46.594,Simcolourproject_2stim_asymm_v5,2020.2.10,MacIntel,60,61025ae37ef11b136ea224fe,,,,,,,,,2714,41,87,1,0,0,response1disk,,7,0,0,1,0,0,rectangle,0,0,1,0,0,0,0,1,0,0,0,147,147,101,1,,,,,,,,
,,,,,,,,,,,,,FF,,,,,,,,1.2,,,,,,,,,,,,,,,,,,,,,,6103420d5147efb55f890c8c,61036a072d963db9b735fde2,2021-07-29_21h56.46.594,Simcolourproject_2stim_asymm_v5,2020.2.10,MacIntel,60,61025ae37ef11b136ea224fe,,,,,,,,,2169,68,25,1,0,0,response1disk,,6,-1,-10,1,0,0,rectangle,46,-72,1,0,0,7,-1,1,0,0,0,148,148,40,1,,response3disk_3,TRUE,4,4,"[306,249,26,87,149,120,109,183,40,262,191,7,156,107,312,272,51,111,20,204]",1.284,rectangle
,,,,,,,,,,,,,FF,,,,,,,,0.767,,,,,,,,,,,,,,,,,,,,,,6103420d5147efb55f890c8c,61036a072d963db9b735fde2,2021-07-29_21h56.46.594,Simcolourproject_2stim_asymm_v5,2020.2.10,MacIntel,60,61025ae37ef11b136ea224fe,,,,,,,,,2368,56,39,1,0,0,response1disk,,6,6,-1,1,0,0,rectangle,6,-1,1,0,0,6,-1,1,0,0,0,149,149,45,1,,,,,,,,
,,,,,,,,,,,,,FF,,,,,,,,1.366,,,,,,,,,,,,,,,,,,,,,,6103420d5147efb55f890c8c,61036a072d963db9b735fde2,2021-07-29_21h56.46.594,Simcolourproject_2stim_asymm_v5,2020.2.10,MacIntel,60,61025ae37ef11b136ea224fe,,,,,,,,,287,84,26,1,0,0,response1disk,,6,9,3,1,0,0,rectangle,9,3,1,0,0,9,3,1,0,0,0,150,150,0,1,,,,,,,,
,,,,,,,,,,,,,FF,,,,,,,,0.566,,,,,,,,,,,,,,,,,,,,,,6103420d5147efb55f890c8c,61036a072d963db9b735fde2,2021-07-29_21h56.46.594,Simcolourproject_2stim_asymm_v5,2020.2.10,MacIntel,60,61025ae37ef11b136ea224fe,,,,,,,,,3612,43,81,1,0,0,response1disk,,7,3,-1,1,0,0,rectangle,3,-1,1,0,0,3,-1,1,0,0,0,151,151,120,1,,,,,,,,
,,,,,,,,,,,,,FF,,,,,,,,0.5,,,,,,,,,,,,,,,,,,,,,,6103420d5147efb55f890c8c,61036a072d963db9b735fde2,2021-07-29_21h56.46.594,Simcolourproject_2stim_asymm_v5,2020.2.10,MacIntel,60,61025ae37ef11b136ea224fe,,,,,,,,,1930,47,99,1,0,0,response1disk,,7,5,7,1,0,0,rectangle,5,7,1,0,0,5,7,1,0,0,0,152,152,28,1,,,,,,,,
,,,,,,,,,,,,,FF,,,,,,,,0.466,,,,,,,,,,,,,,,,,,,,,,6103420d5147efb55f890c8c,61036a072d963db9b735fde2,2021-07-29_21h56.46.594,Simcolourproject_2stim_asymm_v5,2020.2.10,MacIntel,60,61025ae37ef11b136ea224fe,,,,,,,,,3482,35,62,1,0,0,response1disk,,7,-4,-15,1,0,0,rectangle,-4,-15,1,0,0,-4,-15,1,0,0,0,153,153,121,1,,,,,,,,
,,,,,,,,,,,,,FF,,,,,,,,0.582,,,,,,,,,,,,,,,,,,,,,,6103420d5147efb55f890c8c,61036a072d963db9b735fde2,2021-07-29_21h56.46.594,Simcolourproject_2stim_asymm_v5,2020.2.10,MacIntel,60,61025ae37ef11b136ea224fe,,,,,,,,,3161,35,77,1,0,0,response1disk,,7,4,-1,1,0,0,rectangle,4,-1,1,0,0,4,-1,1,0,0,0,154,154,82,1,,,,,,,,
,,,,,,,,,,,,,FF,,,,,,,,0.55,,,,,,,,,,,,,,,,,,,,,,6103420d5147efb55f890c8c,61036a072d963db9b735fde2,2021-07-29_21h56.46.594,Simcolourproject_2stim_asymm_v5,2020.2.10,MacIntel,60,61025ae37ef11b136ea224fe,,,,,,,,,3521,50,84,1,0,0,response1disk,,7,2,0,1,0,0,rectangle,19,66,1,0,0,1,-1,1,0,0,0,155,155,109,1,,response1disk_3,TRUE,7,7,"[306,249,26,87,149,120,109,183,40,262,191,7,156,107,312,272,51,111,20,204]",1.983,rectangle
,,,,,,,,,,,,,FF,,,,,,,,0.883,,,,,,,,,,,,,,,,,,,,,,6103420d5147efb55f890c8c,61036a072d963db9b735fde2,2021-07-29_21h56.46.594,Simcolourproject_2stim_asymm_v5,2020.2.10,MacIntel,60,61025ae37ef11b136ea224fe,,,,,,,,,1383,64,24,1,0,0,response1disk,,6,19,7,1,0,0,rectangle,19,7,1,0,0,19,7,1,0,0,0,156,156,140,1,,,,,,,,
,,,,,,,,,,,,,FF,,,,,,,,0.567,,,,,,,,,,,,,,,,,,,,,,6103420d5147efb55f890c8c,61036a072d963db9b735fde2,2021-07-29_21h56.46.594,Simcolourproject_2stim_asymm_v5,2020.2.10,MacIntel,60,61025ae37ef11b136ea224fe,,,,,,,,,731,76,38,1,0,0,response1disk,,6,-1,-2,1,0,0,rectangle,-1,-2,1,0,0,-1,-2,1,0,0,0,157,157,142,1,,,,,,,,
,,,,,,,,,,,,,FF,,,,,,,,0.616,,,,,,,,,,,,,,,,,,,,,,6103420d5147efb55f890c8c,61036a072d963db9b735fde2,2021-07-29_21h56.46.594,Simcolourproject_2stim_asymm_v5,2020.2.10,MacIntel,60,61025ae37ef11b136ea224fe,,,,,,,,,2456,28,58,1,0,0,response1disk,,7,9,-5,1,0,0,rectangle,9,-5,1,0,0,9,-5,1,0,0,0,158,158,96,1,,,,,,,,
,,,,,,,,,,,,,FF,,,,,,,,0.701,,,,,,,,,,,,,,,,,,,,,,6103420d5147efb55f890c8c,61036a072d963db9b735fde2,2021-07-29_21h56.46.594,Simcolourproject_2stim_asymm_v5,2020.2.10,MacIntel,60,61025ae37ef11b136ea224fe,,,,,,,,,1001,33,66,1,0,0,response1disk,,7,5,-4,1,0,0,rectangle,5,-4,1,0,0,5,-4,1,0,0,0,159,159,152,1,,,,,,,,
,,,,,,,,,,,,,FF,,,,,,,,0.434,,,,,,,,,,,,,,,,,,,,,,6103420d5147efb55f890c8c,61036a072d963db9b735fde2,2021-07-29_21h56.46.594,Simcolourproject_2stim_asymm_v5,2020.2.10,MacIntel,60,61025ae37ef11b136ea224fe,,,,,,,,,4016,33,72,1,0,0,response1disk,,7,-5,-2,1,0,0,rectangle,-5,-2,1,0,0,-5,-2,1,0,0,1,0,160,2,1,,,,,,,,
,,,,,,,,,,,,,FF,,,,,,,,0.618,,,,,,,,,,,,,,,,,,,,,,6103420d5147efb55f890c8c,61036a072d963db9b735fde2,2021-07-29_21h56.46.594,Simcolourproject_2stim_asymm_v5,2020.2.10,MacIntel,60,61025ae37ef11b136ea224fe,,,,,,,,,3125,35,60,1,0,0,response1disk,,7,-6,-4,1,0,0,rectangle,-6,-4,1,0,0,-6,-4,1,0,0,1,1,161,108,1,,,,,,,,
,,,,,,,,,,,,,FF,,,,,,,,0.6,,,,,,,,,,,,,,,,,,,,,,6103420d5147efb55f890c8c,61036a072d963db9b735fde2,2021-07-29_21h56.46.594,Simcolourproject_2stim_asymm_v5,2020.2.10,MacIntel,60,61025ae37ef11b136ea224fe,,,,,,,,,1947,23,72,1,0,0,response1disk,,7,8,-6,1,0,0,rectangle,8,-6,1,0,0,8,-6,1,0,0,1,2,162,21,1,,,,,,,,
,,,,,,,,,,,,,FF,,,,,,,,0.6,,,,,,,,,,,,,,,,,,,,,,6103420d5147efb55f890c8c,61036a072d963db9b735fde2,2021-07-29_21h56.46.594,Simcolourproject_2stim_asymm_v5,2020.2.10,MacIntel,60,61025ae37ef11b136ea224fe,,,,,,,,,2299,81,30,1,0,0,response1disk,,6,16,2,1,0,0,rectangle,16,2,1,0,0,16,2,1,0,0,1,3,163,4,1,,,,,,,,
,,,,,,,,,,,,,FF,,,,,,,,1.581,,,,,,,,,,,,,,,,,,,,,,6103420d5147efb55f890c8c,61036a072d963db9b735fde2,2021-07-29_21h56.46.594,Simcolourproject_2stim_asymm_v5,2020.2.10,MacIntel,60,61025ae37ef11b136ea224fe,,,,,,,,,355,-25,-87,1,0,0,response5disk,,3,-6,-12,1,0,0,rectangle,-6,-12,1,0,0,-6,-12,1,0,0,1,4,164,112,1,,,,,,,,
,,,,,,,,,,,,,FF,,,,,,,,0.632,,,,,,,,,,,,,,,,,,,,,,6103420d5147efb55f890c8c,61036a072d963db9b735fde2,2021-07-29_21h56.46.594,Simcolourproject_2stim_asymm_v5,2020.2.10,MacIntel,60,61025ae37ef11b136ea224fe,,,,,,,,,2139,30,68,1,0,0,response1disk,,7,1,2,1,0,0,rectangle,1,2,1,0,0,1,2,1,0,0,1,5,165,154,1,,,,,,,,
,,,,,,,,,,,,,FF,,,,,,,,0.584,,,,,,,,,,,,,,,,,,,,,,6103420d5147efb55f890c8c,61036a072d963db9b735fde2,2021-07-29_21h56.46.594,Simcolourproject_2stim_asymm_v5,2020.2.10,MacIntel,60,61025ae37ef11b136ea224fe,,,,,,,,,627,45,82,1,0,0,response1disk,,7,-1,7,1,0,0,rectangle,-1,7,1,0,0,-1,7,1,0,0,1,6,166,93,1,,,,,,,,
,,,,,,,,,,,,,FF,,,,,,,,0.599,,,,,,,,,,,,,,,,,,,,,,6103420d5147efb55f890c8c,61036a072d963db9b735fde2,2021-07-29_21h56.46.594,Simcolourproject_2stim_asymm_v5,2020.2.10,MacIntel,60,61025ae37ef11b136ea224fe,,,,,,,,,1514,23,69,1,0,0,response1disk,,7,1,-1,1,0,0,rectangle,1,-1,1,0,0,1,-1,1,0,0,1,7,167,10,1,,,,,,,,
,,,,,,,,,,,,,FF,,,,,,,,0.883,,,,,,,,,,,,,,,,,,,,,,6103420d5147efb55f890c8c,61036a072d963db9b735fde2,2021-07-29_21h56.46.594,Simcolourproject_2stim_asymm_v5,2020.2.10,MacIntel,60,61025ae37ef11b136ea224fe,,,,,,,,,1886,-41,73,1,0,0,response7disk,,0,-5,-3,1,0,0,rectangle,-5,-3,1,0,0,-5,-3,1,0,0,1,8,168,42,1,,,,,,,,
,,,,,,,,,,,,,FF,,,,,,,,0.683,,,,,,,,,,,,,,,,,,,,,,6103420d5147efb55f890c8c,61036a072d963db9b735fde2,2021-07-29_21h56.46.594,Simcolourproject_2stim_asymm_v5,2020.2.10,MacIntel,60,61025ae37ef11b136ea224fe,,,,,,,,,4053,34,64,1,0,0,response1disk,,7,-1,2,1,0,0,rectangle,-1,2,1,0,0,-1,2,1,0,0,1,9,169,148,1,,,,,,,,
,,,,,,,,,,,,,FF,,,,,,,,1.349,,,,,,,,,,,,,,,,,,,,,,6103420d5147efb55f890c8c,61036a072d963db9b735fde2,2021-07-29_21h56.46.594,Simcolourproject_2stim_asymm_v5,2020.2.10,MacIntel,60,61025ae37ef11b136ea224fe,,,,,,,,,4106,69,27,1,0,0,response1disk,,6,8,7,1,0,0,rectangle,8,7,1,0,0,8,7,1,0,0,1,10,170,142,1,,,,,,,,
,,,,,,,,,,,,,FF,,,,,,,,0.449,,,,,,,,,,,,,,,,,,,,,,6103420d5147efb55f890c8c,61036a072d963db9b735fde2,2021-07-29_21h56.46.594,Simcolourproject_2stim_asymm_v5,2020.2.10,MacIntel,60,61025ae37ef11b136ea224fe,,,,,,,,,3263,41,65,1,0,0,response1disk,,7,4,1,1,0,0,rectangle,4,1,1,0,0,4,1,1,0,0,1,11,171,37,1,,,,,,,,
,,,,,,,,,,,,,FF,,,,,,,,0.466,,,,,,,,,,,,,,,,,,,,,,6103420d5147efb55f890c8c,61036a072d963db9b735fde2,2021-07-29_21h56.46.594,Simcolourproject_2stim_asymm_v5,2020.2.10,MacIntel,60,61025ae37ef11b136ea224fe,,,,,,,,,3322,33,81,1,0,0,response1disk,,7,3,5,1,0,0,rectangle,3,5,1,0,0,3,5,1,0,0,1,12,172,96,1,,,,,,,,
,,,,,,,,,,,,,FF,,,,,,,,1.451,,,,,,,,,,,,,,,,,,,,,,6103420d5147efb55f890c8c,61036a072d963db9b735fde2,2021-07-29_21h56.46.594,Simcolourproject_2stim_asymm_v5,2020.2.10,MacIntel,60,61025ae37ef11b136ea224fe,,,,,,,,,3636,66,-42,1,0,0,response3disk,,5,9,0,1,0,0,rectangle,9,0,1,0,0,9,0,1,0,0,1,13,173,15,1,,,,,,,,
,,,,,,,,,,,,,FF,,,,,,,,1.1,,,,,,,,,,,,,,,,,,,,,,6103420d5147efb55f890c8c,61036a072d963db9b735fde2,2021-07-29_21h56.46.594,Simcolourproject_2stim_asymm_v5,2020.2.10,MacIntel,60,61025ae37ef11b136ea224fe,,,,,,,,,2427,60,-35,1,0,0,response3disk,,5,14,-6,1,0,0,rectangle,14,-6,1,0,0,14,-6,1,0,0,1,14,174,9,1,,,,,,,,
,,,,,,,,,,,,,FF,,,,,,,,0.617,,,,,,,,,,,,,,,,,,,,,,6103420d5147efb55f890c8c,61036a072d963db9b735fde2,2021-07-29_21h56.46.594,Simcolourproject_2stim_asymm_v5,2020.2.10,MacIntel,60,61025ae37ef11b136ea224fe,,,,,,,,,796,40,63,1,0,0,response1disk,,7,4,2,1,0,0,rectangle,4,2,1,0,0,4,2,1,0,0,1,15,175,95,1,,,,,,,,
,,,,,,,,,,,,,FF,,,,,,,,0.516,,,,,,,,,,,,,,,,,,,,,,6103420d5147efb55f890c8c,61036a072d963db9b735fde2,2021-07-29_21h56.46.594,Simcolourproject_2stim_asymm_v5,2020.2.10,MacIntel,60,61025ae37ef11b136ea224fe,,,,,,,,,1583,32,64,1,0,0,response1disk,,7,-1,2,1,0,0,rectangle,-1,2,1,0,0,-1,2,1,0,0,1,16,176,69,1,,,,,,,,
,,,,,,,,,,,,,FF,,,,,,,,0.551,,,,,,,,,,,,,,,,,,,,,,6103420d5147efb55f890c8c,61036a072d963db9b735fde2,2021-07-29_21h56.46.594,Simcolourproject_2stim_asymm_v5,2020.2.10,MacIntel,60,61025ae37ef11b136ea224fe,,,,,,,,,2797,50,85,1,0,0,response1disk,,7,1,1,1,0,0,rectangle,1,1,1,0,0,1,1,1,0,0,1,17,177,41,1,,,,,,,,
,,,,,,,,,,,,,FF,,,,,,,,1.534,,,,,,,,,,,,,,,,,,,,,,6103420d5147efb55f890c8c,61036a072d963db9b735fde2,2021-07-29_21h56.46.594,Simcolourproject_2stim_asymm_v5,2020.2.10,MacIntel,60,61025ae37ef11b136ea224fe,,,,,,,,,2541,-76,41,1,0,0,response7disk,,1,-6,0,1,0,0,rectangle,-6,0,1,0,0,-6,0,1,0,0,1,18,178,143,1,,,,,,,,
,,,,,,,,,,,,,FF,,,,,,,,0.517,,,,,,,,,,,,,,,,,,,,,,6103420d5147efb55f890c8c,61036a072d963db9b735fde2,2021-07-29_21h56.46.594,Simcolourproject_2stim_asymm_v5,2020.2.10,MacIntel,60,61025ae37ef11b136ea224fe,,,,,,,,,2214,32,68,1,0,0,response1disk,,7,2,-4,1,0,0,rectangle,2,-4,1,0,0,2,-4,1,0,0,1,19,179,29,1,,,,,,,,
,,,,,,,,,,,,,FF,,,,,,,,0.783,,,,,,,,,,,,,,,,,,,,,,6103420d5147efb55f890c8c,61036a072d963db9b735fde2,2021-07-29_21h56.46.594,Simcolourproject_2stim_asymm_v5,2020.2.10,MacIntel,60,61025ae37ef11b136ea224fe,,,,,,,,,2434,26,61,1,0,0,response1disk,,7,-1,4,1,0,0,rectangle,-1,4,1,0,0,-1,4,1,0,0,1,20,180,132,1,,,,,,,,
,,,,,,,,,,,,,FF,,,,,,,,0.516,,,,,,,,,,,,,,,,,,,,,,6103420d5147efb55f890c8c,61036a072d963db9b735fde2,2021-07-29_21h56.46.594,Simcolourproject_2stim_asymm_v5,2020.2.10,MacIntel,60,61025ae37ef11b136ea224fe,,,,,,,,,3128,33,65,1,0,0,response1disk,,7,5,-6,1,0,0,rectangle,5,-6,1,0,0,5,-6,1,0,0,1,21,181,22,1,,,,,,,,
,,,,,,,,,,,,,FF,,,,,,,,0.733,,,,,,,,,,,,,,,,,,,,,,6103420d5147efb55f890c8c,61036a072d963db9b735fde2,2021-07-29_21h56.46.594,Simcolourproject_2stim_asymm_v5,2020.2.10,MacIntel,60,61025ae37ef11b136ea224fe,,,,,,,,,3990,38,84,1,0,0,response1disk,,7,3,1,1,0,0,rectangle,40,76,1,0,0,3,-2,1,0,0,1,22,182,120,1,,response1disk_3,TRUE,7,7,"[306,249,26,87,149,120,109,183,40,262,191,7,156,107,312,272,51,111,20,204]",1.95,rectangle
,,,,,,,,,,,,,FF,,,,,,,,1.317,,,,,,,,,,,,,,,,,,,,,,6103420d5147efb55f890c8c,61036a072d963db9b735fde2,2021-07-29_21h56.46.594,Simcolourproject_2stim_asymm_v5,2020.2.10,MacIntel,60,61025ae37ef11b136ea224fe,,,,,,,,,2164,-32,-69,1,0,0,response5disk,,3,-3,-1,1,0,0,rectangle,-3,-1,1,0,0,-3,-1,1,0,0,1,23,183,126,1,,,,,,,,
,,,,,,,,,,,,,FF,,,,,,,,1.099,,,,,,,,,,,,,,,,,,,,,,6103420d5147efb55f890c8c,61036a072d963db9b735fde2,2021-07-29_21h56.46.594,Simcolourproject_2stim_asymm_v5,2020.2.10,MacIntel,60,61025ae37ef11b136ea224fe,,,,,,,,,4144,-32,-62,1,0,0,response5disk,,3,-10,4,1,0,0,rectangle,-10,4,1,0,0,-10,4,1,0,0,1,24,184,55,1,,,,,,,,
,,,,,,,,,,,,,FF,,,,,,,,0.534,,,,,,,,,,,,,,,,,,,,,,6103420d5147efb55f890c8c,61036a072d963db9b735fde2,2021-07-29_21h56.46.594,Simcolourproject_2stim_asymm_v5,2020.2.10,MacIntel,60,61025ae37ef11b136ea224fe,,,,,,,,,1513,36,80,1,0,0,response1disk,,7,4,-1,1,0,0,rectangle,4,-1,1,0,0,4,-1,1,0,0,1,25,185,56,1,,,,,,,,
,,,,,,,,,,,,,FF,,,,,,,,1.184,,,,,,,,,,,,,,,,,,,,,,6103420d5147efb55f890c8c,61036a072d963db9b735fde2,2021-07-29_21h56.46.594,Simcolourproject_2stim_asymm_v5,2020.2.10,MacIntel,60,61025ae37ef11b136ea224fe,,,,,,,,,1529,32,-48,1,0,0,response3disk,,4,2,1,1,0,0,rectangle,2,1,1,0,0,2,1,1,0,0,1,26,186,7,1,,,,,,,,
,,,,,,,,,,,,,FF,,,,,,,,0.899,,,,,,,,,,,,,,,,,,,,,,6103420d5147efb55f890c8c,61036a072d963db9b735fde2,2021-07-29_21h56.46.594,Simcolourproject_2stim_asymm_v5,2020.2.10,MacIntel,60,61025ae37ef11b136ea224fe,,,,,,,,,3973,51,28,1,0,0,response1disk,,6,1,8,1,0,0,rectangle,1,8,1,0,0,1,8,1,0,0,1,27,187,149,1,,,,,,,,
,,,,,,,,,,,,,FF,,,,,,,,0.665,,,,,,,,,,,,,,,,,,,,,,6103420d5147efb55f890c8c,61036a072d963db9b735fde2,2021-07-29_21h56.46.594,Simcolourproject_2stim_asymm_v5,2020.2.10,MacIntel,60,61025ae37ef11b136ea224fe,,,,,,,,,25,35,67,1,0,0,response1disk,,7,-7,-4,1,0,0,rectangle,-7,-4,1,0,0,-7,-4,1,0,0,1,28,188,90,1,,,,,,,,
,,,,,,,,,,,,,FF,,,,,,,,0.55,,,,,,,,,,,,,,,,,,,,,,6103420d5147efb55f890c8c,61036a072d963db9b735fde2,2021-07-29_21h56.46.594,Simcolourproject_2stim_asymm_v5,2020.2.10,MacIntel,60,61025ae37ef11b136ea224fe,,,,,,,,,3616,40,72,1,0,0,response1disk,,7,5,-1,1,0,0,rectangle,5,-1,1,0,0,5,-1,1,0,0,1,29,189,144,1,,,,,,,,
,,,,,,,,,,,,,FF,,,,,,,,0.9,,,,,,,,,,,,,,,,,,,,,,6103420d5147efb55f890c8c,61036a072d963db9b735fde2,2021-07-29_21h56.46.594,Simcolourproject_2stim_asymm_v5,2020.2.10,MacIntel,60,61025ae37ef11b136ea224fe,,,,,,,,,1847,28,59,1,0,0,response1disk,,7,-5,15,1,0,0,rectangle,37,73,1,0,0,0,3,1,0,0,1,30,190,5,1,,response1disk_3,TRUE,7,7,"[306,249,26,87,149,120,109,183,40,262,191,7,156,107,312,272,51,111,20,204]",1.467,rectangle
,,,,,,,,,,,,,FF,,,,,,,,0.634,,,,,,,,,,,,,,,,,,,,,,6103420d5147efb55f890c8c,61036a072d963db9b735fde2,2021-07-29_21h56.46.594,Simcolourproject_2stim_asymm_v5,2020.2.10,MacIntel,60,61025ae37ef11b136ea224fe,,,,,,,,,1857,42,68,1,0,0,response1disk,,7,2,-2,1,0,0,rectangle,2,-2,1,0,0,2,-2,1,0,0,1,31,191,32,1,,,,,,,,
,,,,,,,,,,,,,FF,,,,,,,,0.633,,,,,,,,,,,,,,,,,,,,,,6103420d5147efb55f890c8c,61036a072d963db9b735fde2,2021-07-29_21h56.46.594,Simcolourproject_2stim_asymm_v5,2020.2.10,MacIntel,60,61025ae37ef11b136ea224fe,,,,,,,,,1090,31,72,1,0,0,response1disk,,7,3,5,1,0,0,rectangle,3,5,1,0,0,3,5,1,0,0,1,32,192,110,1,,,,,,,,
,,,,,,,,,,,,,FF,,,,,,,,0.616,,,,,,,,,,,,,,,,,,,,,,6103420d5147efb55f890c8c,61036a072d963db9b735fde2,2021-07-29_21h56.46.594,Simcolourproject_2stim_asymm_v5,2020.2.10,MacIntel,60,61025ae37ef11b136ea224fe,,,,,,,,,2350,29,68,1,0,0,response1disk,,7,2,3,1,0,0,rectangle,2,3,1,0,0,2,3,1,0,0,1,33,193,53,1,,,,,,,,
,,,,,,,,,,,,,FF,,,,,,,,0.617,,,,,,,,,,,,,,,,,,,,,,6103420d5147efb55f890c8c,61036a072d963db9b735fde2,2021-07-29_21h56.46.594,Simcolourproject_2stim_asymm_v5,2020.2.10,MacIntel,60,61025ae37ef11b136ea224fe,,,,,,,,,1167,36,44,1,0,0,response1disk,,7,6,-7,1,0,0,rectangle,6,-7,1,0,0,6,-7,1,0,0,1,34,194,153,1,,,,,,,,
,,,,,,,,,,,,,FF,,,,,,,,0.766,,,,,,,,,,,,,,,,,,,,,,6103420d5147efb55f890c8c,61036a072d963db9b735fde2,2021-07-29_21h56.46.594,Simcolourproject_2stim_asymm_v5,2020.2.10,MacIntel,60,61025ae37ef11b136ea224fe,,,,,,,,,2045,55,22,1,0,0,response1disk,,6,7,5,1,0,0,rectangle,7,5,1,0,0,7,5,1,0,0,1,35,195,118,1,,,,,,,,
,,,,,,,,,,,,,FF,,,,,,,,1.184,,,,,,,,,,,,,,,,,,,,,,6103420d5147efb55f890c8c,61036a072d963db9b735fde2,2021-07-29_21h56.46.594,Simcolourproject_2stim_asymm_v5,2020.2.10,MacIntel,60,61025ae37ef11b136ea224fe,,,,,,,,,297,70,39,1,0,0,response1disk,,6,17,-1,1,0,0,rectangle,17,-1,1,0,0,17,-1,1,0,0,1,36,196,100,1,,,,,,,,
,,,,,,,,,,,,,FF,,,,,,,,0.583,,,,,,,,,,,,,,,,,,,,,,6103420d5147efb55f890c8c,61036a072d963db9b735fde2,2021-07-29_21h56.46.594,Simcolourproject_2stim_asymm_v5,2020.2.10,MacIntel,60,61025ae37ef11b136ea224fe,,,,,,,,,4355,29,50,1,0,0,response1disk,,7,-4,4,1,0,0,rectangle,-4,4,1,0,0,-4,4,1,0,0,1,37,197,31,1,,,,,,,,
,,,,,,,,,,,,,FF,,,,,,,,0.567,,,,,,,,,,,,,,,,,,,,,,6103420d5147efb55f890c8c,61036a072d963db9b735fde2,2021-07-29_21h56.46.594,Simcolourproject_2stim_asymm_v5,2020.2.10,MacIntel,60,61025ae37ef11b136ea224fe,,,,,,,,,3043,35,73,1,0,0,response1disk,,7,3,-1,1,0,0,rectangle,3,-1,1,0,0,3,-1,1,0,0,1,38,198,23,1,,,,,,,,
,,,,,,,,,,,,,FF,,,,,,,,0.516,,,,,,,,,,,,,,,,,,,,,,6103420d5147efb55f890c8c,61036a072d963db9b735fde2,2021-07-29_21h56.46.594,Simcolourproject_2stim_asymm_v5,2020.2.10,MacIntel,60,61025ae37ef11b136ea224fe,,,,,,,,,3289,32,64,1,0,0,response1disk,,7,4,6,1,0,0,rectangle,4,6,1,0,0,4,6,1,0,0,1,39,199,26,1,,,,,,,,
,,,,,,,,,,,,,FF,,,,,,,,0.533,,,,,,,,,,,,,,,,,,,,,,6103420d5147efb55f890c8c,61036a072d963db9b735fde2,2021-07-29_21h56.46.594,Simcolourproject_2stim_asymm_v5,2020.2.10,MacIntel,60,61025ae37ef11b136ea224fe,,,,,,,,,3696,38,93,1,0,0,response1disk,,7,-8,-7,1,0,0,rectangle,-8,-7,1,0,0,-8,-7,1,0,0,1,40,200,35,1,,,,,,,,
,,,,,,,,,,,,,FF,,,,,,,,0.567,,,,,,,,,,,,,,,,,,,,,,6103420d5147efb55f890c8c,61036a072d963db9b735fde2,2021-07-29_21h56.46.594,Simcolourproject_2stim_asymm_v5,2020.2.10,MacIntel,60,61025ae37ef11b136ea224fe,,,,,,,,,1607,55,33,1,0,0,response1disk,,6,13,-5,1,0,0,rectangle,13,-5,1,0,0,13,-5,1,0,0,1,41,201,130,1,,,,,,,,
,,,,,,,,,,,,,FF,,,,,,,,0.55,,,,,,,,,,,,,,,,,,,,,,6103420d5147efb55f890c8c,61036a072d963db9b735fde2,2021-07-29_21h56.46.594,Simcolourproject_2stim_asymm_v5,2020.2.10,MacIntel,60,61025ae37ef11b136ea224fe,,,,,,,,,920,31,61,1,0,0,response1disk,,7,0,0,1,0,0,rectangle,0,0,1,0,0,0,0,1,0,0,1,42,202,113,1,,,,,,,,
,,,,,,,,,,,,,FF,,,,,,,,0.584,,,,,,,,,,,,,,,,,,,,,,6103420d5147efb55f890c8c,61036a072d963db9b735fde2,2021-07-29_21h56.46.594,Simcolourproject_2stim_asymm_v5,2020.2.10,MacIntel,60,61025ae37ef11b136ea224fe,,,,,,,,,3280,19,57,1,0,0,response1disk,,7,16,-9,1,0,0,rectangle,-62,31,1,0,0,1,0,1,0,0,1,43,203,44,1,,response7disk_3,TRUE,1,1,"[306,249,26,87,149,120,109,183,40,262,191,7,156,107,312,272,51,111,20,204]",1.549,rectangle
,,,,,,,,,,,,,FF,,,,,,,,1.615,,,,,,,,,,,,,,,,,,,,,,6103420d5147efb55f890c8c,61036a072d963db9b735fde2,2021-07-29_21h56.46.594,Simcolourproject_2stim_asymm_v5,2020.2.10,MacIntel,60,61025ae37ef11b136ea224fe,,,,,,,,,908,78,-39,1,0,0,response3disk,,5,8,-4,1,0,0,rectangle,8,-4,1,0,0,8,-4,1,0,0,1,44,204,34,1,,,,,,,,
,,,,,,,,,,,,,FF,,,,,,,,0.516,,,,,,,,,,,,,,,,,,,,,,6103420d5147efb55f890c8c,61036a072d963db9b735fde2,2021-07-29_21h56.46.594,Simcolourproject_2stim_asymm_v5,2020.2.10,MacIntel,60,61025ae37ef11b136ea224fe,,,,,,,,,2812,26,47,1,0,0,response1disk,,7,13,-1,1,0,0,rectangle,13,-1,1,0,0,13,-1,1,0,0,1,45,205,97,1,,,,,,,,
,,,,,,,,,,,,,FF,,,,,,,,0.55,,,,,,,,,,,,,,,,,,,,,,6103420d5147efb55f890c8c,61036a072d963db9b735fde2,2021-07-29_21h56.46.594,Simcolourproject_2stim_asymm_v5,2020.2.10,MacIntel,60,61025ae37ef11b136ea224fe,,,,,,,,,1882,41,61,1,0,0,response1disk,,7,10,4,1,0,0,rectangle,10,4,1,0,0,10,4,1,0,0,1,46,206,71,1,,,,,,,,
,,,,,,,,,,,,,FF,,,,,,,,0.734,,,,,,,,,,,,,,,,,,,,,,6103420d5147efb55f890c8c,61036a072d963db9b735fde2,2021-07-29_21h56.46.594,Simcolourproject_2stim_asymm_v5,2020.2.10,MacIntel,60,61025ae37ef11b136ea224fe,,,,,,,,,2398,41,71,1,0,0,response1disk,,7,2,3,1,0,0,rectangle,2,3,1,0,0,2,3,1,0,0,1,47,207,150,1,,,,,,,,
,,,,,,,,,,,,,FF,,,,,,,,0.617,,,,,,,,,,,,,,,,,,,,,,6103420d5147efb55f890c8c,61036a072d963db9b735fde2,2021-07-29_21h56.46.594,Simcolourproject_2stim_asymm_v5,2020.2.10,MacIntel,60,61025ae37ef11b136ea224fe,,,,,,,,,576,61,33,1,0,0,response1disk,,6,3,1,1,0,0,rectangle,3,1,1,0,0,3,1,1,0,0,1,48,208,137,1,,,,,,,,
,,,,,,,,,,,,,FF,,,,,,,,1.133,,,,,,,,,,,,,,,,,,,,,,6103420d5147efb55f890c8c,61036a072d963db9b735fde2,2021-07-29_21h56.46.594,Simcolourproject_2stim_asymm_v5,2020.2.10,MacIntel,60,61025ae37ef11b136ea224fe,,,,,,,,,261,-32,-90,1,0,0,response5disk,,3,5,-1,1,0,0,rectangle,5,-1,1,0,0,5,-1,1,0,0,1,49,209,115,1,,,,,,,,
,,,,,,,,,,,,,FF,,,,,,,,1.349,,,,,,,,,,,,,,,,,,,,,,6103420d5147efb55f890c8c,61036a072d963db9b735fde2,2021-07-29_21h56.46.594,Simcolourproject_2stim_asymm_v5,2020.2.10,MacIntel,60,61025ae37ef11b136ea224fe,,,,,,,,,2244,72,-32,1,0,0,response3disk,,5,3,-2,1,0,0,rectangle,3,-2,1,0,0,3,-2,1,0,0,1,50,210,127,1,,,,,,,,
,,,,,,,,,,,,,FF,,,,,,,,0.783,,,,,,,,,,,,,,,,,,,,,,6103420d5147efb55f890c8c,61036a072d963db9b735fde2,2021-07-29_21h56.46.594,Simcolourproject_2stim_asymm_v5,2020.2.10,MacIntel,60,61025ae37ef11b136ea224fe,,,,,,,,,1072,60,22,1,0,0,response1disk,,6,0,4,1,0,0,rectangle,0,4,1,0,0,0,4,1,0,0,1,51,211,8,1,,,,,,,,
,,,,,,,,,,,,,FF,,,,,,,,1.951,,,,,,,,,,,,,,,,,,,,,,6103420d5147efb55f890c8c,61036a072d963db9b735fde2,2021-07-29_21h56.46.594,Simcolourproject_2stim_asymm_v5,2020.2.10,MacIntel,60,61025ae37ef11b136ea224fe,,,,,,,,,2725,-36,-58,1,0,0,response5disk,,3,-3,-8,1,0,0,rectangle,-3,-8,1,0,0,-3,-8,1,0,0,1,52,212,79,1,,,,,,,,
,,,,,,,,,,,,,FF,,,,,,,,0.965,,,,,,,,,,,,,,,,,,,,,,6103420d5147efb55f890c8c,61036a072d963db9b735fde2,2021-07-29_21h56.46.594,Simcolourproject_2stim_asymm_v5,2020.2.10,MacIntel,60,61025ae37ef11b136ea224fe,,,,,,,,,1744,49,-67,1,0,0,response3disk,,4,2,2,1,0,0,rectangle,2,2,1,0,0,2,2,1,0,0,1,53,213,111,1,,,,,,,,
,,,,,,,,,,,,,FF,,,,,,,,0.667,,,,,,,,,,,,,,,,,,,,,,6103420d5147efb55f890c8c,61036a072d963db9b735fde2,2021-07-29_21h56.46.594,Simcolourproject_2stim_asymm_v5,2020.2.10,MacIntel,60,61025ae37ef11b136ea224fe,,,,,,,,,2375,26,59,1,0,0,response1disk,,7,6,-6,1,0,0,rectangle,6,-6,1,0,0,6,-6,1,0,0,1,54,214,91,1,,,,,,,,
,,,,,,,,,,,,,FF,,,,,,,,0.551,,,,,,,,,,,,,,,,,,,,,,6103420d5147efb55f890c8c,61036a072d963db9b735fde2,2021-07-29_21h56.46.594,Simcolourproject_2stim_asymm_v5,2020.2.10,MacIntel,60,61025ae37ef11b136ea224fe,,,,,,,,,768,34,67,1,0,0,response1disk,,7,-4,-5,1,0,0,rectangle,-4,-5,1,0,0,-4,-5,1,0,0,1,55,215,121,1,,,,,,,,
,,,,,,,,,,,,,FF,,,,,,,,0.517,,,,,,,,,,,,,,,,,,,,,,6103420d5147efb55f890c8c,61036a072d963db9b735fde2,2021-07-29_21h56.46.594,Simcolourproject_2stim_asymm_v5,2020.2.10,MacIntel,60,61025ae37ef11b136ea224fe,,,,,,,,,4249,41,85,1,0,0,response1disk,,7,0,7,1,0,0,rectangle,0,7,1,0,0,0,7,1,0,0,1,56,216,158,1,,,,,,,,
,,,,,,,,,,,,,FF,,,,,,,,0.982,,,,,,,,,,,,,,,,,,,,,,6103420d5147efb55f890c8c,61036a072d963db9b735fde2,2021-07-29_21h56.46.594,Simcolourproject_2stim_asymm_v5,2020.2.10,MacIntel,60,61025ae37ef11b136ea224fe,,,,,,,,,3108,-39,-63,1,0,0,response5disk,,3,-11,-7,1,0,0,rectangle,-11,-7,1,0,0,-11,-7,1,0,0,1,57,217,45,1,,,,,,,,
,,,,,,,,,,,,,FF,,,,,,,,0.584,,,,,,,,,,,,,,,,,,,,,,6103420d5147efb55f890c8c,61036a072d963db9b735fde2,2021-07-29_21h56.46.594,Simcolourproject_2stim_asymm_v5,2020.2.10,MacIntel,60,61025ae37ef11b136ea224fe,,,,,,,,,626,25,58,1,0,0,response1disk,,7,10,11,1,0,0,rectangle,10,11,1,0,0,10,11,1,0,0,1,58,218,28,1,,,,,,,,
,,,,,,,,,,,,,FF,,,,,,,,0.566,,,,,,,,,,,,,,,,,,,,,,6103420d5147efb55f890c8c,61036a072d963db9b735fde2,2021-07-29_21h56.46.594,Simcolourproject_2stim_asymm_v5,2020.2.10,MacIntel,60,61025ae37ef11b136ea224fe,,,,,,,,,274,36,64,1,0,0,response1disk,,7,8,0,1,0,0,rectangle,8,0,1,0,0,8,0,1,0,0,1,59,219,88,1,,,,,,,,
,,,,,,,,,,,,,FF,,,,,,,,0.534,,,,,,,,,,,,,,,,,,,,,,6103420d5147efb55f890c8c,61036a072d963db9b735fde2,2021-07-29_21h56.46.594,Simcolourproject_2stim_asymm_v5,2020.2.10,MacIntel,60,61025ae37ef11b136ea224fe,,,,,,,,,1711,45,78,1,0,0,response1disk,,7,10,2,1,0,0,rectangle,10,2,1,0,0,10,2,1,0,0,1,60,220,39,1,,,,,,,,
,,,,,,,,,,,,,FF,,,,,,,,0.517,,,,,,,,,,,,,,,,,,,,,,6103420d5147efb55f890c8c,61036a072d963db9b735fde2,2021-07-29_21h56.46.594,Simcolourproject_2stim_asymm_v5,2020.2.10,MacIntel,60,61025ae37ef11b136ea224fe,,,,,,,,,4304,46,79,1,0,0,response1disk,,7,6,6,1,0,0,rectangle,6,6,1,0,0,6,6,1,0,0,1,61,221,14,1,,,,,,,,
,,,,,,,,,,,,,FF,,,,,,,,1.867,,,,,,,,,,,,,,,,,,,,,,6103420d5147efb55f890c8c,61036a072d963db9b735fde2,2021-07-29_21h56.46.594,Simcolourproject_2stim_asymm_v5,2020.2.10,MacIntel,60,61025ae37ef11b136ea224fe,,,,,,,,,3818,-36,-84,1,0,0,response5disk,,3,-1,-8,1,0,0,rectangle,-1,-8,1,0,0,-1,-8,1,0,0,1,62,222,18,1,,,,,,,,
,,,,,,,,,,,,,FF,,,,,,,,0.95,,,,,,,,,,,,,,,,,,,,,,6103420d5147efb55f890c8c,61036a072d963db9b735fde2,2021-07-29_21h56.46.594,Simcolourproject_2stim_asymm_v5,2020.2.10,MacIntel,60,61025ae37ef11b136ea224fe,,,,,,,,,1435,60,-33,1,0,0,response3disk,,5,4,-9,1,0,0,rectangle,4,-9,1,0,0,4,-9,1,0,0,1,63,223,73,1,,,,,,,,
,,,,,,,,,,,,,FF,,,,,,,,0.551,,,,,,,,,,,,,,,,,,,,,,6103420d5147efb55f890c8c,61036a072d963db9b735fde2,2021-07-29_21h56.46.594,Simcolourproject_2stim_asymm_v5,2020.2.10,MacIntel,60,61025ae37ef11b136ea224fe,,,,,,,,,3691,45,67,1,0,0,response1disk,,7,11,3,1,0,0,rectangle,11,3,1,0,0,11,3,1,0,0,1,64,224,107,1,,,,,,,,
,,,,,,,,,,,,,FF,,,,,,,,1.499,,,,,,,,,,,,,,,,,,,,,,6103420d5147efb55f890c8c,61036a072d963db9b735fde2,2021-07-29_21h56.46.594,Simcolourproject_2stim_asymm_v5,2020.2.10,MacIntel,60,61025ae37ef11b136ea224fe,,,,,,,,,2481,-82,33,1,0,0,response7disk,,1,-1,2,1,0,0,rectangle,-1,2,1,0,0,-1,2,1,0,0,1,65,225,66,1,,,,,,,,
,,,,,,,,,,,,,FF,,,,,,,,0.583,,,,,,,,,,,,,,,,,,,,,,6103420d5147efb55f890c8c,61036a072d963db9b735fde2,2021-07-29_21h56.46.594,Simcolourproject_2stim_asymm_v5,2020.2.10,MacIntel,60,61025ae37ef11b136ea224fe,,,,,,,,,211,39,65,1,0,0,response1disk,,7,-3,-12,1,0,0,rectangle,-3,-12,1,0,0,-3,-12,1,0,0,1,66,226,135,1,,,,,,,,
,,,,,,,,,,,,,FF,,,,,,,,1.734,,,,,,,,,,,,,,,,,,,,,,6103420d5147efb55f890c8c,61036a072d963db9b735fde2,2021-07-29_21h56.46.594,Simcolourproject_2stim_asymm_v5,2020.2.10,MacIntel,60,61025ae37ef11b136ea224fe,,,,,,,,,985,61,-89,1,0,0,response3disk,,4,11,-2,1,0,0,rectangle,11,-2,1,0,0,11,-2,1,0,0,1,67,227,147,1,,,,,,,,
,,,,,,,,,,,,,FF,,,,,,,,0.466,,,,,,,,,,,,,,,,,,,,,,6103420d5147efb55f890c8c,61036a072d963db9b735fde2,2021-07-29_21h56.46.594,Simcolourproject_2stim_asymm_v5,2020.2.10,MacIntel,60,61025ae37ef11b136ea224fe,,,,,,,,,799,21,66,1,0,0,response1disk,,7,-13,-5,1,0,0,rectangle,-13,-5,1,0,0,-13,-5,1,0,0,1,68,228,25,1,,,,,,,,
,,,,,,,,,,,,,FF,,,,,,,,1.001,,,,,,,,,,,,,,,,,,,,,,6103420d5147efb55f890c8c,61036a072d963db9b735fde2,2021-07-29_21h56.46.594,Simcolourproject_2stim_asymm_v5,2020.2.10,MacIntel,60,61025ae37ef11b136ea224fe,,,,,,,,,3198,-42,-75,1,0,0,response5disk,,3,2,1,1,0,0,rectangle,2,1,1,0,0,2,1,1,0,0,1,69,229,116,1,,,,,,,,
,,,,,,,,,,,,,FF,,,,,,,,0.768,,,,,,,,,,,,,,,,,,,,,,6103420d5147efb55f890c8c,61036a072d963db9b735fde2,2021-07-29_21h56.46.594,Simcolourproject_2stim_asymm_v5,2020.2.10,MacIntel,60,61025ae37ef11b136ea224fe,,,,,,,,,1875,18,46,1,0,0,response1disk,,7,0,-10,1,0,0,rectangle,0,-10,1,0,0,0,-10,1,0,0,1,70,230,61,1,,,,,,,,
,,,,,,,,,,,,,FF,,,,,,,,1.034,,,,,,,,,,,,,,,,,,,,,,6103420d5147efb55f890c8c,61036a072d963db9b735fde2,2021-07-29_21h56.46.594,Simcolourproject_2stim_asymm_v5,2020.2.10,MacIntel,60,61025ae37ef11b136ea224fe,,,,,,,,,1542,58,-33,1,0,0,response3disk,,5,11,-13,1,0,0,rectangle,11,-13,1,0,0,11,-13,1,0,0,1,71,231,145,1,,,,,,,,
,,,,,,,,,,,,,FF,,,,,,,,0.968,,,,,,,,,,,,,,,,,,,,,,6103420d5147efb55f890c8c,61036a072d963db9b735fde2,2021-07-29_21h56.46.594,Simcolourproject_2stim_asymm_v5,2020.2.10,MacIntel,60,61025ae37ef11b136ea224fe,,,,,,,,,175,-52,-76,1,0,0,response5disk,,3,-1,-3,1,0,0,rectangle,-1,-3,1,0,0,-1,-3,1,0,0,1,72,232,3,1,,,,,,,,
,,,,,,,,,,,,,FF,,,,,,,,0.683,,,,,,,,,,,,,,,,,,,,,,6103420d5147efb55f890c8c,61036a072d963db9b735fde2,2021-07-29_21h56.46.594,Simcolourproject_2stim_asymm_v5,2020.2.10,MacIntel,60,61025ae37ef11b136ea224fe,,,,,,,,,2893,-80,-42,1,0,0,response5disk,,2,-5,-10,1,0,0,rectangle,-5,-10,1,0,0,-5,-10,1,0,0,1,73,233,59,1,,,,,,,,
,,,,,,,,,,,,,FF,,,,,,,,0.666,,,,,,,,,,,,,,,,,,,,,,6103420d5147efb55f890c8c,61036a072d963db9b735fde2,2021-07-29_21h56.46.594,Simcolourproject_2stim_asymm_v5,2020.2.10,MacIntel,60,61025ae37ef11b136ea224fe,,,,,,,,,2847,-78,-41,1,0,0,response5disk,,2,-5,-5,1,0,0,rectangle,-5,-5,1,0,0,-5,-5,1,0,0,1,74,234,74,1,,,,,,,,
,,,,,,,,,,,,,FF,,,,,,,,0.55,,,,,,,,,,,,,,,,,,,,,,6103420d5147efb55f890c8c,61036a072d963db9b735fde2,2021-07-29_21h56.46.594,Simcolourproject_2stim_asymm_v5,2020.2.10,MacIntel,60,61025ae37ef11b136ea224fe,,,,,,,,,3951,34,69,1,0,0,response1disk,,7,5,0,1,0,0,rectangle,5,0,1,0,0,5,0,1,0,0,1,75,235,30,1,,,,,,,,
,,,,,,,,,,,,,FF,,,,,,,,1.132,,,,,,,,,,,,,,,,,,,,,,6103420d5147efb55f890c8c,61036a072d963db9b735fde2,2021-07-29_21h56.46.594,Simcolourproject_2stim_asymm_v5,2020.2.10,MacIntel,60,61025ae37ef11b136ea224fe,,,,,,,,,2408,38,51,1,0,0,response1disk,,7,7,4,1,0,0,rectangle,7,4,1,0,0,7,4,1,0,0,1,76,236,122,1,,,,,,,,
,,,,,,,,,,,,,FF,,,,,,,,1.017,,,,,,,,,,,,,,,,,,,,,,6103420d5147efb55f890c8c,61036a072d963db9b735fde2,2021-07-29_21h56.46.594,Simcolourproject_2stim_asymm_v5,2020.2.10,MacIntel,60,61025ae37ef11b136ea224fe,,,,,,,,,1388,56,-34,1,0,0,response3disk,,5,14,-4,1,0,0,rectangle,14,-4,1,0,0,14,-4,1,0,0,1,77,237,136,1,,,,,,,,
,,,,,,,,,,,,,FF,,,,,,,,0.916,,,,,,,,,,,,,,,,,,,,,,6103420d5147efb55f890c8c,61036a072d963db9b735fde2,2021-07-29_21h56.46.594,Simcolourproject_2stim_asymm_v5,2020.2.10,MacIntel,60,61025ae37ef11b136ea224fe,,,,,,,,,2376,37,56,1,0,0,response1disk,,7,14,3,1,0,0,rectangle,14,3,1,0,0,14,3,1,0,0,1,78,238,77,1,,,,,,,,
,,,,,,,,,,,,,FF,,,,,,,,0.45,,,,,,,,,,,,,,,,,,,,,,6103420d5147efb55f890c8c,61036a072d963db9b735fde2,2021-07-29_21h56.46.594,Simcolourproject_2stim_asymm_v5,2020.2.10,MacIntel,60,61025ae37ef11b136ea224fe,,,,,,,,,4037,36,78,1,0,0,response1disk,,7,10,0,1,0,0,rectangle,10,0,1,0,0,10,0,1,0,0,1,79,239,140,1,,,,,,,,
,,,,,,,,,,,,,FF,,,,,,,,1.249,,,,,,,,,,,,,,,,,,,,,,6103420d5147efb55f890c8c,61036a072d963db9b735fde2,2021-07-29_21h56.46.594,Simcolourproject_2stim_asymm_v5,2020.2.10,MacIntel,60,61025ae37ef11b136ea224fe,,,,,,,,,2848,55,-33,1,0,0,response3disk,,5,-5,5,1,0,0,rectangle,-5,5,1,0,0,-5,5,1,0,0,1,80,240,101,1,,,,,,,,
,,,,,,,,,,,,,FF,,,,,,,,0.434,,,,,,,,,,,,,,,,,,,,,,6103420d5147efb55f890c8c,61036a072d963db9b735fde2,2021-07-29_21h56.46.594,Simcolourproject_2stim_asymm_v5,2020.2.10,MacIntel,60,61025ae37ef11b136ea224fe,,,,,,,,,3118,30,68,1,0,0,response1disk,,7,11,1,1,0,0,rectangle,11,1,1,0,0,11,1,1,0,0,1,81,241,156,1,,,,,,,,
,,,,,,,,,,,,,FF,,,,,,,,0.7,,,,,,,,,,,,,,,,,,,,,,6103420d5147efb55f890c8c,61036a072d963db9b735fde2,2021-07-29_21h56.46.594,Simcolourproject_2stim_asymm_v5,2020.2.10,MacIntel,60,61025ae37ef11b136ea224fe,,,,,,,,,2179,65,40,1,0,0,response1disk,,6,0,4,1,0,0,rectangle,0,4,1,0,0,0,4,1,0,0,1,82,242,85,1,,,,,,,,
,,,,,,,,,,,,,FF,,,,,,,,0.516,,,,,,,,,,,,,,,,,,,,,,6103420d5147efb55f890c8c,61036a072d963db9b735fde2,2021-07-29_21h56.46.594,Simcolourproject_2stim_asymm_v5,2020.2.10,MacIntel,60,61025ae37ef11b136ea224fe,,,,,,,,,1209,30,79,1,0,0,response1disk,,7,6,0,1,0,0,rectangle,6,0,1,0,0,6,0,1,0,0,1,83,243,49,1,,,,,,,,
,,,,,,,,,,,,,FF,,,,,,,,0.734,,,,,,,,,,,,,,,,,,,,,,6103420d5147efb55f890c8c,61036a072d963db9b735fde2,2021-07-29_21h56.46.594,Simcolourproject_2stim_asymm_v5,2020.2.10,MacIntel,60,61025ae37ef11b136ea224fe,,,,,,,,,543,-34,76,1,0,0,response7disk,,0,-5,0,1,0,0,rectangle,-5,0,1,0,0,-5,0,1,0,0,1,84,244,1,1,,,,,,,,
,,,,,,,,,,,,,FF,,,,,,,,0.55,,,,,,,,,,,,,,,,,,,,,,6103420d5147efb55f890c8c,61036a072d963db9b735fde2,2021-07-29_21h56.46.594,Simcolourproject_2stim_asymm_v5,2020.2.10,MacIntel,60,61025ae37ef11b136ea224fe,,,,,,,,,2979,48,94,1,0,0,response1disk,,7,3,6,1,0,0,rectangle,3,6,1,0,0,3,6,1,0,0,1,85,245,84,1,,,,,,,,
,,,,,,,,,,,,,FF,,,,,,,,1.95,,,,,,,,,,,,,,,,,,,,,,6103420d5147efb55f890c8c,61036a072d963db9b735fde2,2021-07-29_21h56.46.594,Simcolourproject_2stim_asymm_v5,2020.2.10,MacIntel,60,61025ae37ef11b136ea224fe,,,,,,,,,790,32,-64,1,0,0,response3disk,,4,3,-8,1,0,0,rectangle,3,-8,1,0,0,3,-8,1,0,0,1,86,246,102,1,,,,,,,,
,,,,,,,,,,,,,FF,,,,,,,,0.75,,,,,,,,,,,,,,,,,,,,,,6103420d5147efb55f890c8c,61036a072d963db9b735fde2,2021-07-29_21h56.46.594,Simcolourproject_2stim_asymm_v5,2020.2.10,MacIntel,60,61025ae37ef11b136ea224fe,,,,,,,,,307,69,-31,1,0,0,response3disk,,5,12,-5,1,0,0,rectangle,12,-5,1,0,0,12,-5,1,0,0,1,87,247,86,1,,,,,,,,
,,,,,,,,,,,,,FF,,,,,,,,0.517,,,,,,,,,,,,,,,,,,,,,,6103420d5147efb55f890c8c,61036a072d963db9b735fde2,2021-07-29_21h56.46.594,Simcolourproject_2stim_asymm_v5,2020.2.10,MacIntel,60,61025ae37ef11b136ea224fe,,,,,,,,,3609,37,56,1,0,0,response1disk,,7,8,-1,1,0,0,rectangle,-82,-47,1,0,0,-8,-4,1,0,0,1,88,248,117,1,,response5disk_3,TRUE,2,2,"[306,249,26,87,149,120,109,183,40,262,191,7,156,107,312,272,51,111,20,204]",1.716,rectangle
,,,,,,,,,,,,,FF,,,,,,,,1.317,,,,,,,,,,,,,,,,,,,,,,6103420d5147efb55f890c8c,61036a072d963db9b735fde2,2021-07-29_21h56.46.594,Simcolourproject_2stim_asymm_v5,2020.2.10,MacIntel,60,61025ae37ef11b136ea224fe,,,,,,,,,1676,-28,-67,1,0,0,response5disk,,3,-10,-3,1,0,0,rectangle,-10,-3,1,0,0,-10,-3,1,0,0,1,89,249,131,1,,,,,,,,
,,,,,,,,,,,,,FF,,,,,,,,1.05,,,,,,,,,,,,,,,,,,,,,,6103420d5147efb55f890c8c,61036a072d963db9b735fde2,2021-07-29_21h56.46.594,Simcolourproject_2stim_asymm_v5,2020.2.10,MacIntel,60,61025ae37ef11b136ea224fe,,,,,,,,,3825,38,62,1,0,0,response1disk,,7,7,14,1,0,0,rectangle,7,14,1,0,0,7,14,1,0,0,1,90,250,70,1,,,,,,,,
,,,,,,,,,,,,,FF,,,,,,,,1.65,,,,,,,,,,,,,,,,,,,,,,6103420d5147efb55f890c8c,61036a072d963db9b735fde2,2021-07-29_21h56.46.594,Simcolourproject_2stim_asymm_v5,2020.2.10,MacIntel,60,61025ae37ef11b136ea224fe,,,,,,,,,1039,36,-26,1,0,0,response3disk,,5,2,-7,1,0,0,rectangle,2,-7,1,0,0,2,-7,1,0,0,1,91,251,89,1,,,,,,,,
,,,,,,,,,,,,,FF,,,,,,,,0.834,,,,,,,,,,,,,,,,,,,,,,6103420d5147efb55f890c8c,61036a072d963db9b735fde2,2021-07-29_21h56.46.594,Simcolourproject_2stim_asymm_v5,2020.2.10,MacIntel,60,61025ae37ef11b136ea224fe,,,,,,,,,2165,-35,-62,1,0,0,response5disk,,3,-4,-11,1,0,0,rectangle,-4,-11,1,0,0,-4,-11,1,0,0,1,92,252,13,1,,,,,,,,
,,,,,,,,,,,,,FF,,,,,,,,1.567,,,,,,,,,,,,,,,,,,,,,,6103420d5147efb55f890c8c,61036a072d963db9b735fde2,2021-07-29_21h56.46.594,Simcolourproject_2stim_asymm_v5,2020.2.10,MacIntel,60,61025ae37ef11b136ea224fe,,,,,,,,,3149,-39,-71,1,0,0,response5disk,,3,-4,-10,1,0,0,rectangle,-4,-10,1,0,0,-4,-10,1,0,0,1,93,253,125,1,,,,,,,,
,,,,,,,,,,,,,FF,,,,,,,,0.8,,,,,,,,,,,,,,,,,,,,,,6103420d5147efb55f890c8c,61036a072d963db9b735fde2,2021-07-29_21h56.46.594,Simcolourproject_2stim_asymm_v5,2020.2.10,MacIntel,60,61025ae37ef11b136ea224fe,,,,,,,,,4123,-32,-50,1,0,0,response5disk,,3,-1,16,1,0,0,rectangle,-1,16,1,0,0,-1,16,1,0,0,1,94,254,124,1,,,,,,,,
,,,,,,,,,,,,,FF,,,,,,,,0.549,,,,,,,,,,,,,,,,,,,,,,6103420d5147efb55f890c8c,61036a072d963db9b735fde2,2021-07-29_21h56.46.594,Simcolourproject_2stim_asymm_v5,2020.2.10,MacIntel,60,61025ae37ef11b136ea224fe,,,,,,,,,235,44,79,1,0,0,response1disk,,7,1,0,1,0,0,rectangle,1,0,1,0,0,1,0,1,0,0,1,95,255,155,1,,,,,,,,
,,,,,,,,,,,,,FF,,,,,,,,0.868,,,,,,,,,,,,,,,,,,,,,,6103420d5147efb55f890c8c,61036a072d963db9b735fde2,2021-07-29_21h56.46.594,Simcolourproject_2stim_asymm_v5,2020.2.10,MacIntel,60,61025ae37ef11b136ea224fe,,,,,,,,,3248,-37,-64,1,0,0,response5disk,,3,-9,-9,1,0,0,rectangle,-9,-9,1,0,0,-9,-9,1,0,0,1,96,256,0,1,,,,,,,,
,,,,,,,,,,,,,FF,,,,,,,,0.466,,,,,,,,,,,,,,,,,,,,,,6103420d5147efb55f890c8c,61036a072d963db9b735fde2,2021-07-29_21h56.46.594,Simcolourproject_2stim_asymm_v5,2020.2.10,MacIntel,60,61025ae37ef11b136ea224fe,,,,,,,,,3992,35,65,1,0,0,response1disk,,7,6,1,1,0,0,rectangle,6,1,1,0,0,6,1,1,0,0,1,97,257,139,1,,,,,,,,
,,,,,,,,,,,,,FF,,,,,,,,2.433,,,,,,,,,,,,,,,,,,,,,,6103420d5147efb55f890c8c,61036a072d963db9b735fde2,2021-07-29_21h56.46.594,Simcolourproject_2stim_asymm_v5,2020.2.10,MacIntel,60,61025ae37ef11b136ea224fe,,,,,,,,,2216,68,-36,1,0,0,response3disk,,5,9,4,1,0,0,rectangle,9,4,1,0,0,9,4,1,0,0,1,98,258,38,1,,,,,,,,
,,,,,,,,,,,,,FF,,,,,,,,1.516,,,,,,,,,,,,,,,,,,,,,,6103420d5147efb55f890c8c,61036a072d963db9b735fde2,2021-07-29_21h56.46.594,Simcolourproject_2stim_asymm_v5,2020.2.10,MacIntel,60,61025ae37ef11b136ea224fe,,,,,,,,,2043,64,-21,1,0,0,response3disk,,5,7,-3,1,0,0,rectangle,7,-3,1,0,0,7,-3,1,0,0,1,99,259,81,1,,,,,,,,
,,,,,,,,,,,,,FF,,,,,,,,1.017,,,,,,,,,,,,,,,,,,,,,,6103420d5147efb55f890c8c,61036a072d963db9b735fde2,2021-07-29_21h56.46.594,Simcolourproject_2stim_asymm_v5,2020.2.10,MacIntel,60,61025ae37ef11b136ea224fe,,,,,,,,,1543,35,-58,1,0,0,response3disk,,4,6,-3,1,0,0,rectangle,6,-3,1,0,0,6,-3,1,0,0,1,100,260,64,1,,,,,,,,
,,,,,,,,,,,,,FF,,,,,,,,0.7,,,,,,,,,,,,,,,,,,,,,,6103420d5147efb55f890c8c,61036a072d963db9b735fde2,2021-07-29_21h56.46.594,Simcolourproject_2stim_asymm_v5,2020.2.10,MacIntel,60,61025ae37ef11b136ea224fe,,,,,,,,,1907,59,-30,1,0,0,response3disk,,5,3,1,1,0,0,rectangle,38,-82,1,0,0,-4,4,1,0,0,1,101,261,12,1,,response3disk_3,TRUE,4,4,"[306,249,26,87,149,120,109,183,40,262,191,7,156,107,312,272,51,111,20,204]",1.348,rectangle
,,,,,,,,,,,,,FF,,,,,,,,0.684,,,,,,,,,,,,,,,,,,,,,,6103420d5147efb55f890c8c,61036a072d963db9b735fde2,2021-07-29_21h56.46.594,Simcolourproject_2stim_asymm_v5,2020.2.10,MacIntel,60,61025ae37ef11b136ea224fe,,,,,,,,,2765,60,31,1,0,0,response1disk,,6,-1,-14,1,0,0,rectangle,-1,-14,1,0,0,-1,-14,1,0,0,1,102,262,87,1,,,,,,,,
,,,,,,,,,,,,,FF,,,,,,,,0.551,,,,,,,,,,,,,,,,,,,,,,6103420d5147efb55f890c8c,61036a072d963db9b735fde2,2021-07-29_21h56.46.594,Simcolourproject_2stim_asymm_v5,2020.2.10,MacIntel,60,61025ae37ef11b136ea224fe,,,,,,,,,3024,30,58,1,0,0,response1disk,,7,0,-12,1,0,0,rectangle,0,-12,1,0,0,0,-12,1,0,0,1,103,263,60,1,,,,,,,,
,,,,,,,,,,,,,FF,,,,,,,,0.967,,,,,,,,,,,,,,,,,,,,,,6103420d5147efb55f890c8c,61036a072d963db9b735fde2,2021-07-29_21h56.46.594,Simcolourproject_2stim_asymm_v5,2020.2.10,MacIntel,60,61025ae37ef11b136ea224fe,,,,,,,,,350,69,-32,1,0,0,response3disk,,5,5,-4,1,0,0,rectangle,5,-4,1,0,0,5,-4,1,0,0,1,104,264,76,1,,,,,,,,
,,,,,,,,,,,,,FF,,,,,,,,0.566,,,,,,,,,,,,,,,,,,,,,,6103420d5147efb55f890c8c,61036a072d963db9b735fde2,2021-07-29_21h56.46.594,Simcolourproject_2stim_asymm_v5,2020.2.10,MacIntel,60,61025ae37ef11b136ea224fe,,,,,,,,,859,61,91,1,0,0,response1disk,,7,10,-3,1,0,0,rectangle,10,-3,1,0,0,10,-3,1,0,0,1,105,265,128,1,,,,,,,,
,,,,,,,,,,,,,FF,,,,,,,,0.5,,,,,,,,,,,,,,,,,,,,,,6103420d5147efb55f890c8c,61036a072d963db9b735fde2,2021-07-29_21h56.46.594,Simcolourproject_2stim_asymm_v5,2020.2.10,MacIntel,60,61025ae37ef11b136ea224fe,,,,,,,,,2564,37,55,1,0,0,response1disk,,7,5,2,1,0,0,rectangle,5,2,1,0,0,5,2,1,0,0,1,106,266,98,1,,,,,,,,
,,,,,,,,,,,,,FF,,,,,,,,1.3,,,,,,,,,,,,,,,,,,,,,,6103420d5147efb55f890c8c,61036a072d963db9b735fde2,2021-07-29_21h56.46.594,Simcolourproject_2stim_asymm_v5,2020.2.10,MacIntel,60,61025ae37ef11b136ea224fe,,,,,,,,,3706,-72,-37,1,0,0,response5disk,,2,1,4,1,0,0,rectangle,1,4,1,0,0,1,4,1,0,0,1,107,267,17,1,,,,,,,,
,,,,,,,,,,,,,FF,,,,,,,,0.584,,,,,,,,,,,,,,,,,,,,,,6103420d5147efb55f890c8c,61036a072d963db9b735fde2,2021-07-29_21h56.46.594,Simcolourproject_2stim_asymm_v5,2020.2.10,MacIntel,60,61025ae37ef11b136ea224fe,,,,,,,,,2655,41,96,1,0,0,response1disk,,7,10,3,1,0,0,rectangle,10,3,1,0,0,10,3,1,0,0,1,108,268,62,1,,,,,,,,
,,,,,,,,,,,,,FF,,,,,,,,0.616,,,,,,,,,,,,,,,,,,,,,,6103420d5147efb55f890c8c,61036a072d963db9b735fde2,2021-07-29_21h56.46.594,Simcolourproject_2stim_asymm_v5,2020.2.10,MacIntel,60,61025ae37ef11b136ea224fe,,,,,,,,,1347,33,56,1,0,0,response1disk,,7,8,-10,1,0,0,rectangle,8,-10,1,0,0,8,-10,1,0,0,1,109,269,141,1,,,,,,,,
,,,,,,,,,,,,,FF,,,,,,,,0.799,,,,,,,,,,,,,,,,,,,,,,6103420d5147efb55f890c8c,61036a072d963db9b735fde2,2021-07-29_21h56.46.594,Simcolourproject_2stim_asymm_v5,2020.2.10,MacIntel,60,61025ae37ef11b136ea224fe,,,,,,,,,172,-33,-57,1,0,0,response5disk,,3,-10,-1,1,0,0,rectangle,-10,-1,1,0,0,-10,-1,1,0,0,1,110,270,129,1,,,,,,,,
,,,,,,,,,,,,,FF,,,,,,,,1.217,,,,,,,,,,,,,,,,,,,,,,6103420d5147efb55f890c8c,61036a072d963db9b735fde2,2021-07-29_21h56.46.594,Simcolourproject_2stim_asymm_v5,2020.2.10,MacIntel,60,61025ae37ef11b136ea224fe,,,,,,,,,3197,-29,-45,1,0,0,response5disk,,3,4,8,1,0,0,rectangle,24,-48,1,0,0,5,-8,1,0,0,1,111,271,57,1,,response3disk_3,TRUE,4,4,"[306,249,26,87,149,120,109,183,40,262,191,7,156,107,312,272,51,111,20,204]",1.183,rectangle
,,,,,,,,,,,,,FF,,,,,,,,0.882,,,,,,,,,,,,,,,,,,,,,,6103420d5147efb55f890c8c,61036a072d963db9b735fde2,2021-07-29_21h56.46.594,Simcolourproject_2stim_asymm_v5,2020.2.10,MacIntel,60,61025ae37ef11b136ea224fe,,,,,,,,,2675,69,-22,1,0,0,response3disk,,5,7,-2,1,0,0,rectangle,7,-2,1,0,0,7,-2,1,0,0,1,112,272,72,1,,,,,,,,
,,,,,,,,,,,,,FF,,,,,,,,0.702,,,,,,,,,,,,,,,,,,,,,,6103420d5147efb55f890c8c,61036a072d963db9b735fde2,2021-07-29_21h56.46.594,Simcolourproject_2stim_asymm_v5,2020.2.10,MacIntel,60,61025ae37ef11b136ea224fe,,,,,,,,,249,26,41,1,0,0,response1disk,,7,14,3,1,0,0,rectangle,14,3,1,0,0,14,3,1,0,0,1,113,273,83,1,,,,,,,,
,,,,,,,,,,,,,FF,,,,,,,,0.816,,,,,,,,,,,,,,,,,,,,,,6103420d5147efb55f890c8c,61036a072d963db9b735fde2,2021-07-29_21h56.46.594,Simcolourproject_2stim_asymm_v5,2020.2.10,MacIntel,60,61025ae37ef11b136ea224fe,,,,,,,,,895,62,26,1,0,0,response1disk,,6,-11,-13,1,0,0,rectangle,-11,-13,1,0,0,-11,-13,1,0,0,1,114,274,123,1,,,,,,,,
,,,,,,,,,,,,,FF,,,,,,,,1.532,,,,,,,,,,,,,,,,,,,,,,6103420d5147efb55f890c8c,61036a072d963db9b735fde2,2021-07-29_21h56.46.594,Simcolourproject_2stim_asymm_v5,2020.2.10,MacIntel,60,61025ae37ef11b136ea224fe,,,,,,,,,3676,-26,-61,1,0,0,response5disk,,3,6,-5,1,0,0,rectangle,6,-5,1,0,0,6,-5,1,0,0,1,115,275,94,1,,,,,,,,
,,,,,,,,,,,,,FF,,,,,,,,0.732,,,,,,,,,,,,,,,,,,,,,,6103420d5147efb55f890c8c,61036a072d963db9b735fde2,2021-07-29_21h56.46.594,Simcolourproject_2stim_asymm_v5,2020.2.10,MacIntel,60,61025ae37ef11b136ea224fe,,,,,,,,,657,57,33,1,0,0,response1disk,,6,6,-2,1,0,0,rectangle,6,-2,1,0,0,6,-2,1,0,0,1,116,276,80,1,,,,,,,,
,,,,,,,,,,,,,FF,,,,,,,,0.45,,,,,,,,,,,,,,,,,,,,,,6103420d5147efb55f890c8c,61036a072d963db9b735fde2,2021-07-29_21h56.46.594,Simcolourproject_2stim_asymm_v5,2020.2.10,MacIntel,60,61025ae37ef11b136ea224fe,,,,,,,,,1864,31,72,1,0,0,response1disk,,7,6,2,1,0,0,rectangle,6,2,1,0,0,6,2,1,0,0,1,117,277,105,1,,,,,,,,
,,,,,,,,,,,,,FF,,,,,,,,0.55,,,,,,,,,,,,,,,,,,,,,,6103420d5147efb55f890c8c,61036a072d963db9b735fde2,2021-07-29_21h56.46.594,Simcolourproject_2stim_asymm_v5,2020.2.10,MacIntel,60,61025ae37ef11b136ea224fe,,,,,,,,,2151,38,66,1,0,0,response1disk,,7,-1,2,1,0,0,rectangle,-1,2,1,0,0,-1,2,1,0,0,1,118,278,40,1,,,,,,,,
,,,,,,,,,,,,,FF,,,,,,,,0.516,,,,,,,,,,,,,,,,,,,,,,6103420d5147efb55f890c8c,61036a072d963db9b735fde2,2021-07-29_21h56.46.594,Simcolourproject_2stim_asymm_v5,2020.2.10,MacIntel,60,61025ae37ef11b136ea224fe,,,,,,,,,3659,40,82,1,0,0,response1disk,,7,9,8,1,0,0,rectangle,9,8,1,0,0,9,8,1,0,0,1,119,279,146,1,,,,,,,,
,,,,,,,,,,,,,FF,,,,,,,,0.617,,,,,,,,,,,,,,,,,,,,,,6103420d5147efb55f890c8c,61036a072d963db9b735fde2,2021-07-29_21h56.46.594,Simcolourproject_2stim_asymm_v5,2020.2.10,MacIntel,60,61025ae37ef11b136ea224fe,,,,,,,,,1286,29,67,1,0,0,response1disk,,7,-1,0,1,0,0,rectangle,-1,0,1,0,0,-1,0,1,0,0,1,120,280,51,1,,,,,,,,
,,,,,,,,,,,,,FF,,,,,,,,0.533,,,,,,,,,,,,,,,,,,,,,,6103420d5147efb55f890c8c,61036a072d963db9b735fde2,2021-07-29_21h56.46.594,Simcolourproject_2stim_asymm_v5,2020.2.10,MacIntel,60,61025ae37ef11b136ea224fe,,,,,,,,,3334,51,93,1,0,0,response1disk,,7,7,-4,1,0,0,rectangle,7,-4,1,0,0,7,-4,1,0,0,1,121,281,133,1,,,,,,,,
,,,,,,,,,,,,,FF,,,,,,,,0.683,,,,,,,,,,,,,,,,,,,,,,6103420d5147efb55f890c8c,61036a072d963db9b735fde2,2021-07-29_21h56.46.594,Simcolourproject_2stim_asymm_v5,2020.2.10,MacIntel,60,61025ae37ef11b136ea224fe,,,,,,,,,3300,42,70,1,0,0,response1disk,,7,4,-9,1,0,0,rectangle,4,-9,1,0,0,4,-9,1,0,0,1,122,282,52,1,,,,,,,,
,,,,,,,,,,,,,FF,,,,,,,,0.6,,,,,,,,,,,,,,,,,,,,,,6103420d5147efb55f890c8c,61036a072d963db9b735fde2,2021-07-29_21h56.46.594,Simcolourproject_2stim_asymm_v5,2020.2.10,MacIntel,60,61025ae37ef11b136ea224fe,,,,,,,,,3448,37,81,1,0,0,response1disk,,7,-4,-6,1,0,0,rectangle,-4,-6,1,0,0,-4,-6,1,0,0,1,123,283,152,1,,,,,,,,
,,,,,,,,,,,,,FF,,,,,,,,0.666,,,,,,,,,,,,,,,,,,,,,,6103420d5147efb55f890c8c,61036a072d963db9b735fde2,2021-07-29_21h56.46.594,Simcolourproject_2stim_asymm_v5,2020.2.10,MacIntel,60,61025ae37ef11b136ea224fe,,,,,,,,,2930,31,72,1,0,0,response1disk,,7,2,1,1,0,0,rectangle,2,1,1,0,0,2,1,1,0,0,1,124,284,47,1,,,,,,,,
,,,,,,,,,,,,,FF,,,,,,,,0.718,,,,,,,,,,,,,,,,,,,,,,6103420d5147efb55f890c8c,61036a072d963db9b735fde2,2021-07-29_21h56.46.594,Simcolourproject_2stim_asymm_v5,2020.2.10,MacIntel,60,61025ae37ef11b136ea224fe,,,,,,,,,1754,65,28,1,0,0,response1disk,,6,13,9,1,0,0,rectangle,13,9,1,0,0,13,9,1,0,0,1,125,285,6,1,,,,,,,,
,,,,,,,,,,,,,FF,,,,,,,,0.7,,,,,,,,,,,,,,,,,,,,,,6103420d5147efb55f890c8c,61036a072d963db9b735fde2,2021-07-29_21h56.46.594,Simcolourproject_2stim_asymm_v5,2020.2.10,MacIntel,60,61025ae37ef11b136ea224fe,,,,,,,,,189,67,45,1,0,0,response1disk,,6,6,10,1,0,0,rectangle,6,10,1,0,0,6,10,1,0,0,1,126,286,36,1,,,,,,,,
,,,,,,,,,,,,,FF,,,,,,,,0.833,,,,,,,,,,,,,,,,,,,,,,6103420d5147efb55f890c8c,61036a072d963db9b735fde2,2021-07-29_21h56.46.594,Simcolourproject_2stim_asymm_v5,2020.2.10,MacIntel,60,61025ae37ef11b136ea224fe,,,,,,,,,648,54,35,1,0,0,response1disk,,6,-13,-11,1,0,0,rectangle,-13,-11,1,0,0,-13,-11,1,0,0,1,127,287,159,1,,,,,,,,
,,,,,,,,,,,,,FF,,,,,,,,1.167,,,,,,,,,,,,,,,,,,,,,,6103420d5147efb55f890c8c,61036a072d963db9b735fde2,2021-07-29_21h56.46.594,Simcolourproject_2stim_asymm_v5,2020.2.10,MacIntel,60,61025ae37ef11b136ea224fe,,,,,,,,,2841,32,52,1,0,0,response1disk,,7,13,4,1,0,0,rectangle,13,4,1,0,0,13,4,1,0,0,1,128,288,104,1,,,,,,,,
,,,,,,,,,,,,,FF,,,,,,,,1.033,,,,,,,,,,,,,,,,,,,,,,6103420d5147efb55f890c8c,61036a072d963db9b735fde2,2021-07-29_21h56.46.594,Simcolourproject_2stim_asymm_v5,2020.2.10,MacIntel,60,61025ae37ef11b136ea224fe,,,,,,,,,2033,-43,-77,1,0,0,response5disk,,3,-9,-5,1,0,0,rectangle,-9,-5,1,0,0,-9,-5,1,0,0,1,129,289,11,1,,,,,,,,
,,,,,,,,,,,,,FF,,,,,,,,0.533,,,,,,,,,,,,,,,,,,,,,,6103420d5147efb55f890c8c,61036a072d963db9b735fde2,2021-07-29_21h56.46.594,Simcolourproject_2stim_asymm_v5,2020.2.10,MacIntel,60,61025ae37ef11b136ea224fe,,,,,,,,,3121,43,84,1,0,0,response1disk,,7,-1,-6,1,0,0,rectangle,-1,-6,1,0,0,-1,-6,1,0,0,1,130,290,134,1,,,,,,,,
,,,,,,,,,,,,,FF,,,,,,,,0.5,,,,,,,,,,,,,,,,,,,,,,6103420d5147efb55f890c8c,61036a072d963db9b735fde2,2021-07-29_21h56.46.594,Simcolourproject_2stim_asymm_v5,2020.2.10,MacIntel,60,61025ae37ef11b136ea224fe,,,,,,,,,1268,52,93,1,0,0,response1disk,,7,3,-16,1,0,0,rectangle,3,-16,1,0,0,3,-16,1,0,0,1,131,291,99,1,,,,,,,,
,,,,,,,,,,,,,FF,,,,,,,,0.418,,,,,,,,,,,,,,,,,,,,,,6103420d5147efb55f890c8c,61036a072d963db9b735fde2,2021-07-29_21h56.46.594,Simcolourproject_2stim_asymm_v5,2020.2.10,MacIntel,60,61025ae37ef11b136ea224fe,,,,,,,,,3570,48,66,1,0,0,response1disk,,7,4,3,1,0,0,rectangle,4,3,1,0,0,4,3,1,0,0,1,132,292,157,1,,,,,,,,
,,,,,,,,,,,,,FF,,,,,,,,0.417,,,,,,,,,,,,,,,,,,,,,,6103420d5147efb55f890c8c,61036a072d963db9b735fde2,2021-07-29_21h56.46.594,Simcolourproject_2stim_asymm_v5,2020.2.10,MacIntel,60,61025ae37ef11b136ea224fe,,,,,,,,,3485,38,63,1,0,0,response1disk,,7,12,7,1,0,0,rectangle,12,7,1,0,0,12,7,1,0,0,1,133,293,33,1,,,,,,,,
,,,,,,,,,,,,,FF,,,,,,,,0.55,,,,,,,,,,,,,,,,,,,,,,6103420d5147efb55f890c8c,61036a072d963db9b735fde2,2021-07-29_21h56.46.594,Simcolourproject_2stim_asymm_v5,2020.2.10,MacIntel,60,61025ae37ef11b136ea224fe,,,,,,,,,2727,67,48,1,0,0,response1disk,,6,1,-10,1,0,0,rectangle,1,-10,1,0,0,1,-10,1,0,0,1,134,294,46,1,,,,,,,,
,,,,,,,,,,,,,FF,,,,,,,,0.817,,,,,,,,,,,,,,,,,,,,,,6103420d5147efb55f890c8c,61036a072d963db9b735fde2,2021-07-29_21h56.46.594,Simcolourproject_2stim_asymm_v5,2020.2.10,MacIntel,60,61025ae37ef11b136ea224fe,,,,,,,,,1141,65,41,1,0,0,response1disk,,6,-3,3,1,0,0,rectangle,-3,3,1,0,0,-3,3,1,0,0,1,135,295,68,1,,,,,,,,
,,,,,,,,,,,,,FF,,,,,,,,0.766,,,,,,,,,,,,,,,,,,,,,,6103420d5147efb55f890c8c,61036a072d963db9b735fde2,2021-07-29_21h56.46.594,Simcolourproject_2stim_asymm_v5,2020.2.10,MacIntel,60,61025ae37ef11b136ea224fe,,,,,,,,,21,23,51,1,0,0,response1disk,,7,9,6,1,0,0,rectangle,9,6,1,0,0,9,6,1,0,0,1,136,296,106,1,,,,,,,,
,,,,,,,,,,,,,FF,,,,,,,,0.383,,,,,,,,,,,,,,,,,,,,,,6103420d5147efb55f890c8c,61036a072d963db9b735fde2,2021-07-29_21h56.46.594,Simcolourproject_2stim_asymm_v5,2020.2.10,MacIntel,60,61025ae37ef11b136ea224fe,,,,,,,,,3379,50,72,1,0,0,response1disk,,7,0,-8,1,0,0,rectangle,0,-8,1,0,0,0,-8,1,0,0,1,137,297,48,1,,,,,,,,
,,,,,,,,,,,,,FF,,,,,,,,0.384,,,,,,,,,,,,,,,,,,,,,,6103420d5147efb55f890c8c,61036a072d963db9b735fde2,2021-07-29_21h56.46.594,Simcolourproject_2stim_asymm_v5,2020.2.10,MacIntel,60,61025ae37ef11b136ea224fe,,,,,,,,,58,80,111,1,0,0,response1disk,,7,11,5,1,0,0,rectangle,11,5,1,0,0,11,5,1,0,0,1,138,298,63,1,,,,,,,,
,,,,,,,,,,,,,FF,,,,,,,,0.95,,,,,,,,,,,,,,,,,,,,,,6103420d5147efb55f890c8c,61036a072d963db9b735fde2,2021-07-29_21h56.46.594,Simcolourproject_2stim_asymm_v5,2020.2.10,MacIntel,60,61025ae37ef11b136ea224fe,,,,,,,,,70,46,29,1,0,0,response1disk,,6,-3,-1,1,0,0,rectangle,-3,-1,1,0,0,-3,-1,1,0,0,1,139,299,114,1,,,,,,,,
,,,,,,,,,,,,,FF,,,,,,,,0.45,,,,,,,,,,,,,,,,,,,,,,6103420d5147efb55f890c8c,61036a072d963db9b735fde2,2021-07-29_21h56.46.594,Simcolourproject_2stim_asymm_v5,2020.2.10,MacIntel,60,61025ae37ef11b136ea224fe,,,,,,,,,2813,27,62,1,0,0,response1disk,,7,7,5,1,0,0,rectangle,7,5,1,0,0,7,5,1,0,0,1,140,300,78,1,,,,,,,,
,,,,,,,,,,,,,FF,,,,,,,,1.666,,,,,,,,,,,,,,,,,,,,,,6103420d5147efb55f890c8c,61036a072d963db9b735fde2,2021-07-29_21h56.46.594,Simcolourproject_2stim_asymm_v5,2020.2.10,MacIntel,60,61025ae37ef11b136ea224fe,,,,,,,,,3204,34,-75,1,0,0,response3disk,,4,0,4,1,0,0,rectangle,0,4,1,0,0,0,4,1,0,0,1,141,301,75,1,,,,,,,,
,,,,,,,,,,,,,FF,,,,,,,,0.517,,,,,,,,,,,,,,,,,,,,,,6103420d5147efb55f890c8c,61036a072d963db9b735fde2,2021-07-29_21h56.46.594,Simcolourproject_2stim_asymm_v5,2020.2.10,MacIntel,60,61025ae37ef11b136ea224fe,,,,,,,,,3960,34,57,1,0,0,response1disk,,7,3,-2,1,0,0,rectangle,3,-2,1,0,0,3,-2,1,0,0,1,142,302,151,1,,,,,,,,
