key_resp.keys,key_resp.rt,key_resp_14.keys,key_resp_14.rt,key_resp_15.keys,key_resp_15.rt,key_resp_17.keys,key_resp_17.rt,key_resp_9.keys,key_resp_9.rt,key_resp_10.keys,key_resp_10.rt,practice_comparison,Ecc,mouse_5.x,mouse_5.y,mouse_5.leftButton,mouse_5.midButton,mouse_5.rightButton,mouse_5.clicked_name,pracsimilarity,response_time,mouse_10.x,mouse_10.y,mouse_10.leftButton,mouse_10.midButton,mouse_10.rightButton,mouse_10.clicked_name,mouse_7.x,mouse_7.y,mouse_7.leftButton,mouse_7.midButton,mouse_7.rightButton,mouse_6.x,mouse_6.y,mouse_6.leftButton,mouse_6.midButton,mouse_6.rightButton,duringprac.thisRepN,duringprac.thisTrialN,duringprac.thisN,duringprac.thisIndex,duringprac.ran,participant,session,date,expName,psychopyVersion,OS,frameRate,study_id,mouse_7.clicked_name,catchpracsimilarity,catch_response_time,catchnumberprac,catchtrialorderprac,mouse_6.clicked_name,key_resp_22.keys,key_resp_22.rt,realcomparison,mouse.x,mouse.y,mouse.leftButton,mouse.midButton,mouse.rightButton,mouse.clicked_name,Colour2,similarity,mouse_2.x,mouse_2.y,mouse_2.leftButton,mouse_2.midButton,mouse_2.rightButton,mouse_2.clicked_name,mouse_3.x,mouse_3.y,mouse_3.leftButton,mouse_3.midButton,mouse_3.rightButton,mouse_11.x,mouse_11.y,mouse_11.leftButton,mouse_11.midButton,mouse_11.rightButton,trials_2.thisRepN,trials_2.thisTrialN,trials_2.thisN,trials_2.thisIndex,trials_2.ran,Colour1,mouse_3.clicked_name,catchornah,catchsimilarity,catchnumber,catchtrialorder,catchRT,mouse_11.clicked_name
space,1.2364,space,2.0315,space,18.5013,space,7.2245,space,1.2461,space,4.316,127,PF,28.80001187,92.79999495,1,0,0,response1disk_5,7,9.2609,1.600060296,-1.600006461,1,0,0,rectangle_8,1.600060296,-1.600006461,1,0,0,1.600060296,-1.600006461,1,0,0,0,0,0,6,1,6103508e0a0d600eaac0a294,6103686938f9927b499bc0f9,2021-07-29_20h57.46.887,Simcolourproject_2stim_asymm_v5,2020.2.10,Win32,60,61025ae37ef11b136ea224fe,,,,,,,,,,,,,,,,,,,,,,,,,,,,,,,,,,,,,,,,,,,,,,
,,,,,,,,,,,,137,FF,28.00001186,106.3999951,1,0,0,response1disk_5,7,4.3958,16.00001168,4.799993634,1,0,0,rectangle_8,48.00001216,-105.6000568,1,0,0,-8.799988687,-3.200006485,1,0,0,0,1,1,0,1,6103508e0a0d600eaac0a294,6103686938f9927b499bc0f9,2021-07-29_20h57.46.887,Simcolourproject_2stim_asymm_v5,2020.2.10,Win32,60,61025ae37ef11b136ea224fe,response3disk_7,4,2.4984,4,"[2,5]",rectangle_4,,,,,,,,,,,,,,,,,,,,,,,,,,,,,,,,,,,,,,,,
,,,,,,,,,,,,7,FF,112.0000131,69.5999946,1,0,0,response1disk_5,6,8.2928,10.4000116,-3.200006485,1,0,0,rectangle_8,10.4000116,-3.200006485,1,0,0,10.4000116,-3.200006485,1,0,0,0,2,2,5,1,6103508e0a0d600eaac0a294,6103686938f9927b499bc0f9,2021-07-29_20h57.46.887,Simcolourproject_2stim_asymm_v5,2020.2.10,Win32,60,61025ae37ef11b136ea224fe,,,,,,,,,,,,,,,,,,,,,,,,,,,,,,,,,,,,,,,,,,,,,,
,,,,,,,,,,,,37,PF,53.60001224,112.7999952,1,0,0,response1disk_5,7,2.4315,14.40001166,7.19999367,1,0,0,rectangle_8,14.40001166,7.19999367,1,0,0,14.40001166,7.19999367,1,0,0,0,3,3,2,1,6103508e0a0d600eaac0a294,6103686938f9927b499bc0f9,2021-07-29_20h57.46.887,Simcolourproject_2stim_asymm_v5,2020.2.10,Win32,60,61025ae37ef11b136ea224fe,,,,,,,,,,,,,,,,,,,,,,,,,,,,,,,,,,,,,,,,,,,,,,
,,,,,,,,,,,,1,PF,49.60006101,105.5999951,1,0,0,response1disk_5,7,1.4982,21.60006059,9.599993706,1,0,0,rectangle_8,50.4000122,-109.6000569,1,0,0,5.600060356,-6.400006533,1,0,0,0,4,4,1,1,6103508e0a0d600eaac0a294,6103686938f9927b499bc0f9,2021-07-29_20h57.46.887,Simcolourproject_2stim_asymm_v5,2020.2.10,Win32,60,61025ae37ef11b136ea224fe,response3disk_7,4,2.5644,4,"[2,5]",rectangle_4,,,,,,,,,,,,,,,,,,,,,,,,,,,,,,,,,,,,,,,,
,,,,,,,,,,,,72,PF,46.40001214,80.79999477,1,0,0,response1disk_5,7,1.2821,17.60006053,-1.600006461,1,0,0,rectangle_8,17.60006053,-1.600006461,1,0,0,17.60006053,-1.600006461,1,0,0,0,5,5,4,1,6103508e0a0d600eaac0a294,6103686938f9927b499bc0f9,2021-07-29_20h57.46.887,Simcolourproject_2stim_asymm_v5,2020.2.10,Win32,60,61025ae37ef11b136ea224fe,,,,,,,,,,,,,,,,,,,,,,,,,,,,,,,,,,,,,,,,,,,,,,
,,,,,,,,,,,,65,FF,-47.19998926,-104.000008,1,0,0,response5disk_5,3,3.0475,-21.59998888,-6.4373E-06,1,0,0,rectangle_8,-21.59998888,-6.4373E-06,1,0,0,-21.59998888,-6.4373E-06,1,0,0,0,6,6,3,1,6103508e0a0d600eaac0a294,6103686938f9927b499bc0f9,2021-07-29_20h57.46.887,Simcolourproject_2stim_asymm_v5,2020.2.10,Win32,60,61025ae37ef11b136ea224fe,,,,,,,,,,,,,,,,,,,,,,,,,,,,,,,,,,,,,,,,,,,,,,
,,,,,,,,,,,,,FF,,,,,,,,5.5623,,,,,,,,,,,,,,,,,,,,,,6103508e0a0d600eaac0a294,6103686938f9927b499bc0f9,2021-07-29_20h57.46.887,Simcolourproject_2stim_asymm_v5,2020.2.10,Win32,60,61025ae37ef11b136ea224fe,,,,,,,space,3.8111,3937,74.40001255,-112.0000081,1,0,0,response3disk,,4,20.80001175,7.19999367,1,0,0,rectangle,20.80001175,7.19999367,1,0,0,20.80001175,7.19999367,1,0,0,0,0,0,1,1,,,,,,,,
,,,,,,,,,,,,,FF,,,,,,,,2.7144,,,,,,,,,,,,,,,,,,,,,,6103508e0a0d600eaac0a294,6103686938f9927b499bc0f9,2021-07-29_20h57.46.887,Simcolourproject_2stim_asymm_v5,2020.2.10,Win32,60,61025ae37ef11b136ea224fe,,,,,,,,,688,42.40001208,84.79999483,1,0,0,response1disk,,7,4.000011504,3.999993622,1,0,0,rectangle,4.000011504,3.999993622,1,0,0,4.000011504,3.999993622,1,0,0,0,1,1,110,1,,,,,,,,
,,,,,,,,,,,,,FF,,,,,,,,1.1989,,,,,,,,,,,,,,,,,,,,,,6103508e0a0d600eaac0a294,6103686938f9927b499bc0f9,2021-07-29_20h57.46.887,Simcolourproject_2stim_asymm_v5,2020.2.10,Win32,60,61025ae37ef11b136ea224fe,,,,,,,,,1448,87.20001274,-47.20000714,1,0,0,response3disk,,5,13.60006047,0.799993575,1,0,0,rectangle,13.60006047,0.799993575,1,0,0,13.60006047,0.799993575,1,0,0,0,2,2,62,1,,,,,,,,
,,,,,,,,,,,,,FF,,,,,,,,0.8821,,,,,,,,,,,,,,,,,,,,,,6103508e0a0d600eaac0a294,6103686938f9927b499bc0f9,2021-07-29_20h57.46.887,Simcolourproject_2stim_asymm_v5,2020.2.10,Win32,60,61025ae37ef11b136ea224fe,,,,,,,,,3255,42.40001208,83.99999481,1,0,0,response1disk,,7,3.200011492,3.19999361,1,0,0,rectangle,3.200011492,3.19999361,1,0,0,3.200011492,3.19999361,1,0,0,0,3,3,152,1,,,,,,,,
,,,,,,,,,,,,,FF,,,,,,,,0.6995,,,,,,,,,,,,,,,,,,,,,,6103508e0a0d600eaac0a294,6103686938f9927b499bc0f9,2021-07-29_20h57.46.887,Simcolourproject_2stim_asymm_v5,2020.2.10,Win32,60,61025ae37ef11b136ea224fe,,,,,,,,,1015,32.80001193,83.19997039,1,0,0,response1disk,,7,-3.199988604,8.799993694,1,0,0,rectangle,-62.39994066,38.39999413,1,0,0,-11.19998872,-1.600006461,1,0,0,0,4,4,8,1,,response7disk_3,TRUE,1,1,"[219,213,211,311,130,170,125,167,287,192,63,135,10,145,121,5,25,170,58,196]",3.2307,rectangle
,,,,,,,,,,,,,FF,,,,,,,,3.0971,,,,,,,,,,,,,,,,,,,,,,6103508e0a0d600eaac0a294,6103686938f9927b499bc0f9,2021-07-29_20h57.46.887,Simcolourproject_2stim_asymm_v5,2020.2.10,Win32,60,61025ae37ef11b136ea224fe,,,,,,,,,259,81.60001266,-45.60000712,1,0,0,response3disk,,5,16.00001168,0.799993575,1,0,0,rectangle,16.00001168,0.799993575,1,0,0,16.00001168,0.799993575,1,0,0,0,5,5,35,1,,,,,,,,
,,,,,,,,,,,,,FF,,,,,,,,1.5652,,,,,,,,,,,,,,,,,,,,,,6103508e0a0d600eaac0a294,6103686938f9927b499bc0f9,2021-07-29_20h57.46.887,Simcolourproject_2stim_asymm_v5,2020.2.10,Win32,60,61025ae37ef11b136ea224fe,,,,,,,,,3609,46.40001214,87.19997045,1,0,0,response1disk,,7,19.20001173,-3.200006485,1,0,0,rectangle,19.20001173,-3.200006485,1,0,0,19.20001173,-3.200006485,1,0,0,0,6,6,40,1,,,,,,,,
,,,,,,,,,,,,,FF,,,,,,,,2.0149,,,,,,,,,,,,,,,,,,,,,,6103508e0a0d600eaac0a294,6103686938f9927b499bc0f9,2021-07-29_20h57.46.887,Simcolourproject_2stim_asymm_v5,2020.2.10,Win32,60,61025ae37ef11b136ea224fe,,,,,,,,,3824,80.00001264,36.79999411,1,0,0,response1disk,,6,6.400011539,1.599993587,1,0,0,rectangle,6.400011539,1.599993587,1,0,0,6.400011539,1.599993587,1,0,0,0,7,7,13,1,,,,,,,,
,,,,,,,,,,,,,FF,,,,,,,,1.1654,,,,,,,,,,,,,,,,,,,,,,6103508e0a0d600eaac0a294,6103686938f9927b499bc0f9,2021-07-29_20h57.46.887,Simcolourproject_2stim_asymm_v5,2020.2.10,Win32,60,61025ae37ef11b136ea224fe,,,,,,,,,1343,36.00001198,83.19997039,1,0,0,response1disk,,7,12.00001162,3.999993622,1,0,0,rectangle,12.00001162,3.999993622,1,0,0,12.00001162,3.999993622,1,0,0,0,8,8,23,1,,,,,,,,
,,,,,,,,,,,,,FF,,,,,,,,1.9149,,,,,,,,,,,,,,,,,,,,,,6103508e0a0d600eaac0a294,6103686938f9927b499bc0f9,2021-07-29_20h57.46.887,Simcolourproject_2stim_asymm_v5,2020.2.10,Win32,60,61025ae37ef11b136ea224fe,,,,,,,,,2313,58.40001231,98.39999503,1,0,0,response1disk,,7,12.00001162,5.599993646,1,0,0,rectangle,-88.79998988,-28.00000685,1,0,0,-7.199988663,3.19999361,1,0,0,0,9,9,104,1,,response5disk_3,TRUE,2,2,"[219,213,211,311,130,170,125,167,287,192,63,135,10,145,121,5,25,170,58,196]",2.6806,rectangle
,,,,,,,,,,,,,FF,,,,,,,,1.0493,,,,,,,,,,,,,,,,,,,,,,6103508e0a0d600eaac0a294,6103686938f9927b499bc0f9,2021-07-29_20h57.46.887,Simcolourproject_2stim_asymm_v5,2020.2.10,Win32,60,61025ae37ef11b136ea224fe,,,,,,,,,4304,48.00001216,94.39999497,1,0,0,response1disk,,7,8.000011563,2.399993598,1,0,0,rectangle,8.000011563,2.399993598,1,0,0,8.000011563,2.399993598,1,0,0,0,10,10,127,1,,,,,,,,
,,,,,,,,,,,,,FF,,,,,,,,0.8989,,,,,,,,,,,,,,,,,,,,,,6103508e0a0d600eaac0a294,6103686938f9927b499bc0f9,2021-07-29_20h57.46.887,Simcolourproject_2stim_asymm_v5,2020.2.10,Win32,60,61025ae37ef11b136ea224fe,,,,,,,,,2695,47.20001215,83.19997039,1,0,0,response1disk,,7,12.00001162,3.999993622,1,0,0,rectangle,12.00001162,3.999993622,1,0,0,12.00001162,3.999993622,1,0,0,0,11,11,55,1,,,,,,,,
,,,,,,,,,,,,,FF,,,,,,,,1.3488,,,,,,,,,,,,,,,,,,,,,,6103508e0a0d600eaac0a294,6103686938f9927b499bc0f9,2021-07-29_20h57.46.887,Simcolourproject_2stim_asymm_v5,2020.2.10,Win32,60,61025ae37ef11b136ea224fe,,,,,,,,,3480,78.40001261,-44.00000709,1,0,0,response3disk,,5,3.200011492,-2.400006473,1,0,0,rectangle,3.200011492,-2.400006473,1,0,0,3.200011492,-2.400006473,1,0,0,0,12,12,158,1,,,,,,,,
,,,,,,,,,,,,,FF,,,,,,,,2.2483,,,,,,,,,,,,,,,,,,,,,,6103508e0a0d600eaac0a294,6103686938f9927b499bc0f9,2021-07-29_20h57.46.887,Simcolourproject_2stim_asymm_v5,2020.2.10,Win32,60,61025ae37ef11b136ea224fe,,,,,,,,,3062,44.80001211,59.19997003,1,0,0,response1disk,,7,2.40001148,9.599993706,1,0,0,rectangle,2.40001148,9.599993706,1,0,0,2.40001148,9.599993706,1,0,0,0,13,13,85,1,,,,,,,,
,,,,,,,,,,,,,FF,,,,,,,,1.3989,,,,,,,,,,,,,,,,,,,,,,6103508e0a0d600eaac0a294,6103686938f9927b499bc0f9,2021-07-29_20h57.46.887,Simcolourproject_2stim_asymm_v5,2020.2.10,Win32,60,61025ae37ef11b136ea224fe,,,,,,,,,2938,38.40001202,102.3999951,1,0,0,response1disk,,7,8.800011575,-1.600006461,1,0,0,rectangle,8.800011575,-1.600006461,1,0,0,8.800011575,-1.600006461,1,0,0,0,14,14,53,1,,,,,,,,
,,,,,,,,,,,,,FF,,,,,,,,1.3319,,,,,,,,,,,,,,,,,,,,,,6103508e0a0d600eaac0a294,6103686938f9927b499bc0f9,2021-07-29_20h57.46.887,Simcolourproject_2stim_asymm_v5,2020.2.10,Win32,60,61025ae37ef11b136ea224fe,,,,,,,,,2593,77.6000126,-34.40000695,1,0,0,response3disk,,5,-7.199988663,1.599993587,1,0,0,rectangle,-7.199988663,1.599993587,1,0,0,-7.199988663,1.599993587,1,0,0,0,15,15,52,1,,,,,,,,
,,,,,,,,,,,,,FF,,,,,,,,1.1131,,,,,,,,,,,,,,,,,,,,,,6103508e0a0d600eaac0a294,6103686938f9927b499bc0f9,2021-07-29_20h57.46.887,Simcolourproject_2stim_asymm_v5,2020.2.10,Win32,60,61025ae37ef11b136ea224fe,,,,,,,,,3252,-40.79998916,-88.00000775,1,0,0,response5disk,,3,-3.199988604,-0.800006449,1,0,0,rectangle,-3.199988604,-0.800006449,1,0,0,-3.199988604,-0.800006449,1,0,0,0,16,16,145,1,,,,,,,,
,,,,,,,,,,,,,FF,,,,,,,,1.5487,,,,,,,,,,,,,,,,,,,,,,6103508e0a0d600eaac0a294,6103686938f9927b499bc0f9,2021-07-29_20h57.46.887,Simcolourproject_2stim_asymm_v5,2020.2.10,Win32,60,61025ae37ef11b136ea224fe,,,,,,,,,803,42.40001208,-81.60005648,1,0,0,response3disk,,4,-0.799988568,-7.200006545,1,0,0,rectangle,-0.799988568,-7.200006545,1,0,0,-0.799988568,-7.200006545,1,0,0,0,17,17,68,1,,,,,,,,
,,,,,,,,,,,,,FF,,,,,,,,1.5986,,,,,,,,,,,,,,,,,,,,,,6103508e0a0d600eaac0a294,6103686938f9927b499bc0f9,2021-07-29_20h57.46.887,Simcolourproject_2stim_asymm_v5,2020.2.10,Win32,60,61025ae37ef11b136ea224fe,,,,,,,,,3171,51.20001221,84.79999483,1,0,0,response1disk,,7,8.800011575,0.799993575,1,0,0,rectangle,8.800011575,0.799993575,1,0,0,8.800011575,0.799993575,1,0,0,0,18,18,31,1,,,,,,,,
,,,,,,,,,,,,,FF,,,,,,,,3.0308,,,,,,,,,,,,,,,,,,,,,,6103508e0a0d600eaac0a294,6103686938f9927b499bc0f9,2021-07-29_20h57.46.887,Simcolourproject_2stim_asymm_v5,2020.2.10,Win32,60,61025ae37ef11b136ea224fe,,,,,,,,,3014,61.60001236,-40.00000703,1,0,0,response3disk,,5,2.40001148,1.599993587,1,0,0,rectangle,2.40001148,1.599993587,1,0,0,2.40001148,1.599993587,1,0,0,0,19,19,69,1,,,,,,,,
,,,,,,,,,,,,,FF,,,,,,,,0.6663,,,,,,,,,,,,,,,,,,,,,,6103508e0a0d600eaac0a294,6103686938f9927b499bc0f9,2021-07-29_20h57.46.887,Simcolourproject_2stim_asymm_v5,2020.2.10,Win32,60,61025ae37ef11b136ea224fe,,,,,,,,,114,36.80001199,96.79999501,1,0,0,response1disk,,7,15.20001167,-5.600006521,1,0,0,rectangle,15.20001167,-5.600006521,1,0,0,15.20001167,-5.600006521,1,0,0,0,20,20,15,1,,,,,,,,
,,,,,,,,,,,,,FF,,,,,,,,2.0483,,,,,,,,,,,,,,,,,,,,,,6103508e0a0d600eaac0a294,6103686938f9927b499bc0f9,2021-07-29_20h57.46.887,Simcolourproject_2stim_asymm_v5,2020.2.10,Win32,60,61025ae37ef11b136ea224fe,,,,,,,,,1750,63.20001239,-78.40000761,1,0,0,response3disk,,4,10.4000116,2.399993598,1,0,0,rectangle,10.4000116,2.399993598,1,0,0,10.4000116,2.399993598,1,0,0,0,21,21,154,1,,,,,,,,
,,,,,,,,,,,,,FF,,,,,,,,0.8852,,,,,,,,,,,,,,,,,,,,,,6103508e0a0d600eaac0a294,6103686938f9927b499bc0f9,2021-07-29_20h57.46.887,Simcolourproject_2stim_asymm_v5,2020.2.10,Win32,60,61025ae37ef11b136ea224fe,,,,,,,,,4199,37.60006083,75.9999947,1,0,0,response1disk,,7,8.800011575,-11.2000066,1,0,0,rectangle,8.800011575,-11.2000066,1,0,0,8.800011575,-11.2000066,1,0,0,0,22,22,135,1,,,,,,,,
,,,,,,,,,,,,,FF,,,,,,,,2.2647,,,,,,,,,,,,,,,,,,,,,,6103508e0a0d600eaac0a294,6103686938f9927b499bc0f9,2021-07-29_20h57.46.887,Simcolourproject_2stim_asymm_v5,2020.2.10,Win32,60,61025ae37ef11b136ea224fe,,,,,,,,,1829,77.6000126,-48.00000715,1,0,0,response3disk,,5,10.4000116,4.799993634,1,0,0,rectangle,10.4000116,4.799993634,1,0,0,10.4000116,4.799993634,1,0,0,0,23,23,73,1,,,,,,,,
,,,,,,,,,,,,,FF,,,,,,,,0.9492,,,,,,,,,,,,,,,,,,,,,,6103508e0a0d600eaac0a294,6103686938f9927b499bc0f9,2021-07-29_20h57.46.887,Simcolourproject_2stim_asymm_v5,2020.2.10,Win32,60,61025ae37ef11b136ea224fe,,,,,,,,,625,36.80001199,81.59999478,1,0,0,response1disk,,7,8.000011563,-2.400006473,1,0,0,rectangle,36.80001199,99.19997063,1,0,0,4.800011516,-9.60000658,1,0,0,0,24,24,0,1,,response1disk_3,TRUE,7,7,"[219,213,211,311,130,170,125,167,287,192,63,135,10,145,121,5,25,170,58,196]",2.3147,rectangle
,,,,,,,,,,,,,FF,,,,,,,,2.3646,,,,,,,,,,,,,,,,,,,,,,6103508e0a0d600eaac0a294,6103686938f9927b499bc0f9,2021-07-29_20h57.46.887,Simcolourproject_2stim_asymm_v5,2020.2.10,Win32,60,61025ae37ef11b136ea224fe,,,,,,,,,2403,37.60006083,88.79999489,1,0,0,response1disk,,7,-7.999988675,14.39999378,1,0,0,rectangle,-7.999988675,14.39999378,1,0,0,-7.999988675,14.39999378,1,0,0,0,25,25,113,1,,,,,,,,
,,,,,,,,,,,,,FF,,,,,,,,0.8489,,,,,,,,,,,,,,,,,,,,,,6103508e0a0d600eaac0a294,6103686938f9927b499bc0f9,2021-07-29_20h57.46.887,Simcolourproject_2stim_asymm_v5,2020.2.10,Win32,60,61025ae37ef11b136ea224fe,,,,,,,,,2718,-27.19998896,-73.60000753,1,0,0,response5disk,,3,-7.199988663,-5.600006521,1,0,0,rectangle,-7.199988663,-5.600006521,1,0,0,-7.199988663,-5.600006521,1,0,0,0,26,26,159,1,,,,,,,,
,,,,,,,,,,,,,FF,,,,,,,,2.498,,,,,,,,,,,,,,,,,,,,,,6103508e0a0d600eaac0a294,6103686938f9927b499bc0f9,2021-07-29_20h57.46.887,Simcolourproject_2stim_asymm_v5,2020.2.10,Win32,60,61025ae37ef11b136ea224fe,,,,,,,,,2957,30.4000119,81.59999478,1,0,0,response1disk,,7,12.00001162,14.39999378,1,0,0,rectangle,12.00001162,14.39999378,1,0,0,12.00001162,14.39999378,1,0,0,0,27,27,95,1,,,,,,,,
,,,,,,,,,,,,,FF,,,,,,,,1.3489,,,,,,,,,,,,,,,,,,,,,,6103508e0a0d600eaac0a294,6103686938f9927b499bc0f9,2021-07-29_20h57.46.887,Simcolourproject_2stim_asymm_v5,2020.2.10,Win32,60,61025ae37ef11b136ea224fe,,,,,,,,,2076,40.00001204,-74.40000755,1,0,0,response3disk,,4,20.80001175,3.19999361,1,0,0,rectangle,20.80001175,3.19999361,1,0,0,20.80001175,3.19999361,1,0,0,0,28,28,86,1,,,,,,,,
,,,,,,,,,,,,,FF,,,,,,,,0.9489,,,,,,,,,,,,,,,,,,,,,,6103508e0a0d600eaac0a294,6103686938f9927b499bc0f9,2021-07-29_20h57.46.887,Simcolourproject_2stim_asymm_v5,2020.2.10,Win32,60,61025ae37ef11b136ea224fe,,,,,,,,,4109,53.60001224,95.19997057,1,0,0,response1disk,,7,2.40001148,7.19999367,1,0,0,rectangle,2.40001148,7.19999367,1,0,0,2.40001148,7.19999367,1,0,0,0,29,29,25,1,,,,,,,,
,,,,,,,,,,,,,FF,,,,,,,,3.4305,,,,,,,,,,,,,,,,,,,,,,6103508e0a0d600eaac0a294,6103686938f9927b499bc0f9,2021-07-29_20h57.46.887,Simcolourproject_2stim_asymm_v5,2020.2.10,Win32,60,61025ae37ef11b136ea224fe,,,,,,,,,1986,101.600013,-36.00000697,1,0,0,response3disk,,5,8.000011563,7.999993682,1,0,0,rectangle,8.000011563,7.999993682,1,0,0,8.000011563,7.999993682,1,0,0,0,30,30,133,1,,,,,,,,
,,,,,,,,,,,,,FF,,,,,,,,1.3153,,,,,,,,,,,,,,,,,,,,,,6103508e0a0d600eaac0a294,6103686938f9927b499bc0f9,2021-07-29_20h57.46.887,Simcolourproject_2stim_asymm_v5,2020.2.10,Win32,60,61025ae37ef11b136ea224fe,,,,,,,,,1062,51.20001221,87.99999487,1,0,0,response1disk,,7,-0.799988568,5.599993646,1,0,0,rectangle,-0.799988568,5.599993646,1,0,0,-0.799988568,5.599993646,1,0,0,0,31,31,84,1,,,,,,,,
,,,,,,,,,,,,,FF,,,,,,,,1.9315,,,,,,,,,,,,,,,,,,,,,,6103508e0a0d600eaac0a294,6103686938f9927b499bc0f9,2021-07-29_20h57.46.887,Simcolourproject_2stim_asymm_v5,2020.2.10,Win32,60,61025ae37ef11b136ea224fe,,,,,,,,,2392,68.00001246,39.99999416,1,0,0,response1disk,,6,14.40001166,7.19999367,1,0,0,rectangle,14.40001166,7.19999367,1,0,0,14.40001166,7.19999367,1,0,0,0,32,32,109,1,,,,,,,,
,,,,,,,,,,,,,FF,,,,,,,,0.849,,,,,,,,,,,,,,,,,,,,,,6103508e0a0d600eaac0a294,6103686938f9927b499bc0f9,2021-07-29_20h57.46.887,Simcolourproject_2stim_asymm_v5,2020.2.10,Win32,60,61025ae37ef11b136ea224fe,,,,,,,,,3889,72.80001253,35.19996967,1,0,0,response1disk,,6,5.600060356,2.399993598,1,0,0,rectangle,5.600060356,2.399993598,1,0,0,5.600060356,2.399993598,1,0,0,0,33,33,5,1,,,,,,,,
,,,,,,,,,,,,,FF,,,,,,,,1.3156,,,,,,,,,,,,,,,,,,,,,,6103508e0a0d600eaac0a294,6103686938f9927b499bc0f9,2021-07-29_20h57.46.887,Simcolourproject_2stim_asymm_v5,2020.2.10,Win32,60,61025ae37ef11b136ea224fe,,,,,,,,,3282,47.20001215,88.79999489,1,0,0,response1disk,,7,-3.199988604,-5.600006521,1,0,0,rectangle,-3.199988604,-5.600006521,1,0,0,-3.199988604,-5.600006521,1,0,0,0,34,34,71,1,,,,,,,,
,,,,,,,,,,,,,FF,,,,,,,,1.9149,,,,,,,,,,,,,,,,,,,,,,6103508e0a0d600eaac0a294,6103686938f9927b499bc0f9,2021-07-29_20h57.46.887,Simcolourproject_2stim_asymm_v5,2020.2.10,Win32,60,61025ae37ef11b136ea224fe,,,,,,,,,2492,40.00001204,86.39999485,1,0,0,response1disk,,7,5.600060356,-0.800006449,1,0,0,rectangle,5.600060356,-0.800006449,1,0,0,5.600060356,-0.800006449,1,0,0,0,35,35,93,1,,,,,,,,
,,,,,,,,,,,,,FF,,,,,,,,1.482,,,,,,,,,,,,,,,,,,,,,,6103508e0a0d600eaac0a294,6103686938f9927b499bc0f9,2021-07-29_20h57.46.887,Simcolourproject_2stim_asymm_v5,2020.2.10,Win32,60,61025ae37ef11b136ea224fe,,,,,,,,,4208,84.0000127,27.99999398,1,0,0,response1disk,,6,13.60006047,3.19999361,1,0,0,rectangle,13.60006047,3.19999361,1,0,0,13.60006047,3.19999361,1,0,0,0,36,36,42,1,,,,,,,,
,,,,,,,,,,,,,FF,,,,,,,,1.779,,,,,,,,,,,,,,,,,,,,,,6103508e0a0d600eaac0a294,6103686938f9927b499bc0f9,2021-07-29_20h57.46.887,Simcolourproject_2stim_asymm_v5,2020.2.10,Win32,60,61025ae37ef11b136ea224fe,,,,,,,,,3915,45.60006095,85.59999484,1,0,0,response1disk,,7,17.60006053,-0.800006449,1,0,0,rectangle,17.60006053,-0.800006449,1,0,0,17.60006053,-0.800006449,1,0,0,0,37,37,65,1,,,,,,,,
,,,,,,,,,,,,,FF,,,,,,,,0.816,,,,,,,,,,,,,,,,,,,,,,6103508e0a0d600eaac0a294,6103686938f9927b499bc0f9,2021-07-29_20h57.46.887,Simcolourproject_2stim_asymm_v5,2020.2.10,Win32,60,61025ae37ef11b136ea224fe,,,,,,,,,1928,46.40001214,94.39999497,1,0,0,response1disk,,7,15.20001167,7.19999367,1,0,0,rectangle,15.20001167,7.19999367,1,0,0,15.20001167,7.19999367,1,0,0,0,38,38,157,1,,,,,,,,
,,,,,,,,,,,,,FF,,,,,,,,1.3989,,,,,,,,,,,,,,,,,,,,,,6103508e0a0d600eaac0a294,6103686938f9927b499bc0f9,2021-07-29_20h57.46.887,Simcolourproject_2stim_asymm_v5,2020.2.10,Win32,60,61025ae37ef11b136ea224fe,,,,,,,,,3605,54.40001225,41.59999418,1,0,0,response1disk,,6,20.80001175,7.19999367,1,0,0,rectangle,20.80001175,7.19999367,1,0,0,20.80001175,7.19999367,1,0,0,0,39,39,77,1,,,,,,,,
,,,,,,,,,,,,,FF,,,,,,,,1.4821,,,,,,,,,,,,,,,,,,,,,,6103508e0a0d600eaac0a294,6103686938f9927b499bc0f9,2021-07-29_20h57.46.887,Simcolourproject_2stim_asymm_v5,2020.2.10,Win32,60,61025ae37ef11b136ea224fe,,,,,,,,,1474,67.20001245,35.19996967,1,0,0,response1disk,,6,28.00001186,-1.600006461,1,0,0,rectangle,28.00001186,-1.600006461,1,0,0,28.00001186,-1.600006461,1,0,0,0,40,40,91,1,,,,,,,,
,,,,,,,,,,,,,FF,,,,,,,,1.2988,,,,,,,,,,,,,,,,,,,,,,6103508e0a0d600eaac0a294,6103686938f9927b499bc0f9,2021-07-29_20h57.46.887,Simcolourproject_2stim_asymm_v5,2020.2.10,Win32,60,61025ae37ef11b136ea224fe,,,,,,,,,1831,86.40001273,-54.40000725,1,0,0,response3disk,,5,1.14441E-05,9.599993706,1,0,0,rectangle,1.14441E-05,9.599993706,1,0,0,1.14441E-05,9.599993706,1,0,0,0,41,41,151,1,,,,,,,,
,,,,,,,,,,,,,FF,,,,,,,,0.9823,,,,,,,,,,,,,,,,,,,,,,6103508e0a0d600eaac0a294,6103686938f9927b499bc0f9,2021-07-29_20h57.46.887,Simcolourproject_2stim_asymm_v5,2020.2.10,Win32,60,61025ae37ef11b136ea224fe,,,,,,,,,4072,47.20001215,78.39999473,1,0,0,response1disk,,7,14.40001166,-0.800006449,1,0,0,rectangle,14.40001166,-0.800006449,1,0,0,14.40001166,-0.800006449,1,0,0,0,42,42,144,1,,,,,,,,
,,,,,,,,,,,,,FF,,,,,,,,0.9493,,,,,,,,,,,,,,,,,,,,,,6103508e0a0d600eaac0a294,6103686938f9927b499bc0f9,2021-07-29_20h57.46.887,Simcolourproject_2stim_asymm_v5,2020.2.10,Win32,60,61025ae37ef11b136ea224fe,,,,,,,,,1406,40.80001205,100.7999951,1,0,0,response1disk,,7,5.600060356,-4.800006509,1,0,0,rectangle,5.600060356,-4.800006509,1,0,0,5.600060356,-4.800006509,1,0,0,0,43,43,2,1,,,,,,,,
,,,,,,,,,,,,,FF,,,,,,,,1.7464,,,,,,,,,,,,,,,,,,,,,,6103508e0a0d600eaac0a294,6103686938f9927b499bc0f9,2021-07-29_20h57.46.887,Simcolourproject_2stim_asymm_v5,2020.2.10,Win32,60,61025ae37ef11b136ea224fe,,,,,,,,,2172,80.80001265,39.19996973,1,0,0,response1disk,,6,16.00001168,6.399993658,1,0,0,rectangle,16.00001168,6.399993658,1,0,0,16.00001168,6.399993658,1,0,0,0,44,44,17,1,,,,,,,,
,,,,,,,,,,,,,FF,,,,,,,,0.8494,,,,,,,,,,,,,,,,,,,,,,6103508e0a0d600eaac0a294,6103686938f9927b499bc0f9,2021-07-29_20h57.46.887,Simcolourproject_2stim_asymm_v5,2020.2.10,Win32,60,61025ae37ef11b136ea224fe,,,,,,,,,3184,52.00001222,93.59999496,1,0,0,response1disk,,7,17.60006053,6.399993658,1,0,0,rectangle,17.60006053,6.399993658,1,0,0,17.60006053,6.399993658,1,0,0,0,45,45,143,1,,,,,,,,
,,,,,,,,,,,,,FF,,,,,,,,0.9828,,,,,,,,,,,,,,,,,,,,,,6103508e0a0d600eaac0a294,6103686938f9927b499bc0f9,2021-07-29_20h57.46.887,Simcolourproject_2stim_asymm_v5,2020.2.10,Win32,60,61025ae37ef11b136ea224fe,,,,,,,,,4087,47.20001215,90.39999491,1,0,0,response1disk,,7,7.200011551,-4.000006497,1,0,0,rectangle,7.200011551,-4.000006497,1,0,0,7.200011551,-4.000006497,1,0,0,0,46,46,59,1,,,,,,,,
,,,,,,,,,,,,,FF,,,,,,,,0.6328,,,,,,,,,,,,,,,,,,,,,,6103508e0a0d600eaac0a294,6103686938f9927b499bc0f9,2021-07-29_20h57.46.887,Simcolourproject_2stim_asymm_v5,2020.2.10,Win32,60,61025ae37ef11b136ea224fe,,,,,,,,,3310,40.00001204,75.9999947,1,0,0,response1disk,,7,8.000011563,-12.00000662,1,0,0,rectangle,8.000011563,-12.00000662,1,0,0,8.000011563,-12.00000662,1,0,0,0,47,47,122,1,,,,,,,,
,,,,,,,,,,,,,FF,,,,,,,,1.732,,,,,,,,,,,,,,,,,,,,,,6103508e0a0d600eaac0a294,6103686938f9927b499bc0f9,2021-07-29_20h57.46.887,Simcolourproject_2stim_asymm_v5,2020.2.10,Win32,60,61025ae37ef11b136ea224fe,,,,,,,,,2785,68.80001247,42.39999419,1,0,0,response1disk,,6,20.00001174,7.19999367,1,0,0,rectangle,20.00001174,7.19999367,1,0,0,20.00001174,7.19999367,1,0,0,0,48,48,57,1,,,,,,,,
,,,,,,,,,,,,,FF,,,,,,,,2.0984,,,,,,,,,,,,,,,,,,,,,,6103508e0a0d600eaac0a294,6103686938f9927b499bc0f9,2021-07-29_20h57.46.887,Simcolourproject_2stim_asymm_v5,2020.2.10,Win32,60,61025ae37ef11b136ea224fe,,,,,,,,,1638,57.6000123,103.1999707,1,0,0,response1disk,,7,-15.19998878,7.999993682,1,0,0,rectangle,-15.19998878,7.999993682,1,0,0,-15.19998878,7.999993682,1,0,0,0,49,49,117,1,,,,,,,,
,,,,,,,,,,,,,FF,,,,,,,,1.149,,,,,,,,,,,,,,,,,,,,,,6103508e0a0d600eaac0a294,6103686938f9927b499bc0f9,2021-07-29_20h57.46.887,Simcolourproject_2stim_asymm_v5,2020.2.10,Win32,60,61025ae37ef11b136ea224fe,,,,,,,,,2217,-36.7999891,-88.80000776,1,0,0,response5disk,,3,2.40001148,5.599993646,1,0,0,rectangle,2.40001148,5.599993646,1,0,0,2.40001148,5.599993646,1,0,0,0,50,50,9,1,,,,,,,,
,,,,,,,,,,,,,FF,,,,,,,,1.6986,,,,,,,,,,,,,,,,,,,,,,6103508e0a0d600eaac0a294,6103686938f9927b499bc0f9,2021-07-29_20h57.46.887,Simcolourproject_2stim_asymm_v5,2020.2.10,Win32,60,61025ae37ef11b136ea224fe,,,,,,,,,3325,48.80001217,81.59999478,1,0,0,response1disk,,7,12.00001162,-2.400006473,1,0,0,rectangle,12.00001162,-2.400006473,1,0,0,12.00001162,-2.400006473,1,0,0,0,51,51,132,1,,,,,,,,
,,,,,,,,,,,,,FF,,,,,,,,1.0823,,,,,,,,,,,,,,,,,,,,,,6103508e0a0d600eaac0a294,6103686938f9927b499bc0f9,2021-07-29_20h57.46.887,Simcolourproject_2stim_asymm_v5,2020.2.10,Win32,60,61025ae37ef11b136ea224fe,,,,,,,,,442,40.80001205,-69.60000747,1,0,0,response3disk,,4,9.600060415,3.19999361,1,0,0,rectangle,9.600060415,3.19999361,1,0,0,9.600060415,3.19999361,1,0,0,0,52,52,78,1,,,,,,,,
,,,,,,,,,,,,,FF,,,,,,,,3.3492,,,,,,,,,,,,,,,,,,,,,,6103508e0a0d600eaac0a294,6103686938f9927b499bc0f9,2021-07-29_20h57.46.887,Simcolourproject_2stim_asymm_v5,2020.2.10,Win32,60,61025ae37ef11b136ea224fe,,,,,,,,,4015,51.20001221,44.79999423,1,0,0,response1disk,,6,20.00001174,11.19999373,1,0,0,rectangle,20.00001174,11.19999373,1,0,0,20.00001174,11.19999373,1,0,0,0,53,53,137,1,,,,,,,,
,,,,,,,,,,,,,FF,,,,,,,,0.8825,,,,,,,,,,,,,,,,,,,,,,6103508e0a0d600eaac0a294,6103686938f9927b499bc0f9,2021-07-29_20h57.46.887,Simcolourproject_2stim_asymm_v5,2020.2.10,Win32,60,61025ae37ef11b136ea224fe,,,,,,,,,1574,48.00001216,101.5999951,1,0,0,response1disk,,7,1.14441E-05,-6.4373E-06,1,0,0,rectangle,1.14441E-05,-6.4373E-06,1,0,0,1.14441E-05,-6.4373E-06,1,0,0,0,54,54,155,1,,,,,,,,
,,,,,,,,,,,,,FF,,,,,,,,1.1324,,,,,,,,,,,,,,,,,,,,,,6103508e0a0d600eaac0a294,6103686938f9927b499bc0f9,2021-07-29_20h57.46.887,Simcolourproject_2stim_asymm_v5,2020.2.10,Win32,60,61025ae37ef11b136ea224fe,,,,,,,,,2989,72.00001252,29.599994,1,0,0,response1disk,,6,9.600060415,-1.600006461,1,0,0,rectangle,9.600060415,-1.600006461,1,0,0,9.600060415,-1.600006461,1,0,0,0,55,55,99,1,,,,,,,,
,,,,,,,,,,,,,FF,,,,,,,,1.3822,,,,,,,,,,,,,,,,,,,,,,6103508e0a0d600eaac0a294,6103686938f9927b499bc0f9,2021-07-29_20h57.46.887,Simcolourproject_2stim_asymm_v5,2020.2.10,Win32,60,61025ae37ef11b136ea224fe,,,,,,,,,1723,54.40001225,75.9999947,1,0,0,response1disk,,7,20.80001175,-4.000006497,1,0,0,rectangle,20.80001175,-4.000006497,1,0,0,20.80001175,-4.000006497,1,0,0,0,56,56,142,1,,,,,,,,
,,,,,,,,,,,,,FF,,,,,,,,1.2823,,,,,,,,,,,,,,,,,,,,,,6103508e0a0d600eaac0a294,6103686938f9927b499bc0f9,2021-07-29_20h57.46.887,Simcolourproject_2stim_asymm_v5,2020.2.10,Win32,60,61025ae37ef11b136ea224fe,,,,,,,,,1454,87.20001274,-42.40000707,1,0,0,response3disk,,5,15.20001167,2.399993598,1,0,0,rectangle,47.20001215,83.19997039,1,0,0,11.20001161,-9.60000658,1,0,0,0,57,57,24,1,,response1disk_3,TRUE,7,7,"[219,213,211,311,130,170,125,167,287,192,63,135,10,145,121,5,25,170,58,196]",1.2825,rectangle
,,,,,,,,,,,,,FF,,,,,,,,1.7318,,,,,,,,,,,,,,,,,,,,,,6103508e0a0d600eaac0a294,6103686938f9927b499bc0f9,2021-07-29_20h57.46.887,Simcolourproject_2stim_asymm_v5,2020.2.10,Win32,60,61025ae37ef11b136ea224fe,,,,,,,,,2881,82.40001267,45.59999424,1,0,0,response1disk,,6,12.80001163,-6.4373E-06,1,0,0,rectangle,12.80001163,-6.4373E-06,1,0,0,12.80001163,-6.4373E-06,1,0,0,0,58,58,58,1,,,,,,,,
,,,,,,,,,,,,,FF,,,,,,,,1.0663,,,,,,,,,,,,,,,,,,,,,,6103508e0a0d600eaac0a294,6103686938f9927b499bc0f9,2021-07-29_20h57.46.887,Simcolourproject_2stim_asymm_v5,2020.2.10,Win32,60,61025ae37ef11b136ea224fe,,,,,,,,,2940,-20.79998887,-96.80000788,1,0,0,response5disk,,3,5.600060356,3.19999361,1,0,0,rectangle,5.600060356,3.19999361,1,0,0,5.600060356,3.19999361,1,0,0,0,59,59,156,1,,,,,,,,
,,,,,,,,,,,,,FF,,,,,,,,1.1156,,,,,,,,,,,,,,,,,,,,,,6103508e0a0d600eaac0a294,6103686938f9927b499bc0f9,2021-07-29_20h57.46.887,Simcolourproject_2stim_asymm_v5,2020.2.10,Win32,60,61025ae37ef11b136ea224fe,,,,,,,,,4335,-80.79998976,24.79999393,1,0,0,response7disk,,1,-6.399939823,-4.800006509,1,0,0,rectangle,-6.399939823,-4.800006509,1,0,0,-6.399939823,-4.800006509,1,0,0,0,60,60,125,1,,,,,,,,
,,,,,,,,,,,,,FF,,,,,,,,2.2481,,,,,,,,,,,,,,,,,,,,,,6103508e0a0d600eaac0a294,6103686938f9927b499bc0f9,2021-07-29_20h57.46.887,Simcolourproject_2stim_asymm_v5,2020.2.10,Win32,60,61025ae37ef11b136ea224fe,,,,,,,,,378,43.20001209,81.59999478,1,0,0,response1disk,,7,-15.19998878,8.799993694,1,0,0,rectangle,-15.19998878,8.799993694,1,0,0,-15.19998878,8.799993694,1,0,0,0,61,61,79,1,,,,,,,,
,,,,,,,,,,,,,FF,,,,,,,,1.5296,,,,,,,,,,,,,,,,,,,,,,6103508e0a0d600eaac0a294,6103686938f9927b499bc0f9,2021-07-29_20h57.46.887,Simcolourproject_2stim_asymm_v5,2020.2.10,Win32,60,61025ae37ef11b136ea224fe,,,,,,,,,3848,87.20001274,-53.60000724,1,0,0,response3disk,,5,19.20001173,4.799993634,1,0,0,rectangle,-35.99998909,-99.20000792,1,0,0,-1.59998858,8.799993694,1,0,0,0,62,62,75,1,,response5disk_3,TRUE,3,3,"[219,213,211,311,130,170,125,167,287,192,63,135,10,145,121,5,25,170,58,196]",2.1813,rectangle
,,,,,,,,,,,,,FF,,,,,,,,1.6984,,,,,,,,,,,,,,,,,,,,,,6103508e0a0d600eaac0a294,6103686938f9927b499bc0f9,2021-07-29_20h57.46.887,Simcolourproject_2stim_asymm_v5,2020.2.10,Win32,60,61025ae37ef11b136ea224fe,,,,,,,,,4253,65.60001242,-37.600007,1,0,0,response3disk,,5,13.60006047,2.399993598,1,0,0,rectangle,13.60006047,2.399993598,1,0,0,13.60006047,2.399993598,1,0,0,0,63,63,16,1,,,,,,,,
,,,,,,,,,,,,,FF,,,,,,,,2.7644,,,,,,,,,,,,,,,,,,,,,,6103508e0a0d600eaac0a294,6103686938f9927b499bc0f9,2021-07-29_20h57.46.887,Simcolourproject_2stim_asymm_v5,2020.2.10,Win32,60,61025ae37ef11b136ea224fe,,,,,,,,,805,106.400013,36.79999411,1,0,0,response1disk,,6,9.600060415,-1.600006461,1,0,0,rectangle,9.600060415,-1.600006461,1,0,0,9.600060415,-1.600006461,1,0,0,0,64,64,74,1,,,,,,,,
,,,,,,,,,,,,,FF,,,,,,,,1.7818,,,,,,,,,,,,,,,,,,,,,,6103508e0a0d600eaac0a294,6103686938f9927b499bc0f9,2021-07-29_20h57.46.887,Simcolourproject_2stim_asymm_v5,2020.2.10,Win32,60,61025ae37ef11b136ea224fe,,,,,,,,,4343,-100.7999901,63.99999452,1,0,0,response7disk,,1,-1.59998858,7.999993682,1,0,0,rectangle,-1.59998858,7.999993682,1,0,0,-1.59998858,7.999993682,1,0,0,0,65,65,20,1,,,,,,,,
,,,,,,,,,,,,,FF,,,,,,,,3.7966,,,,,,,,,,,,,,,,,,,,,,6103508e0a0d600eaac0a294,6103686938f9927b499bc0f9,2021-07-29_20h57.46.887,Simcolourproject_2stim_asymm_v5,2020.2.10,Win32,60,61025ae37ef11b136ea224fe,,,,,,,,,3959,48.80001217,100.7999951,1,0,0,response1disk,,7,1.14441E-05,5.599993646,1,0,0,rectangle,1.14441E-05,5.599993646,1,0,0,1.14441E-05,5.599993646,1,0,0,0,66,66,28,1,,,,,,,,
,,,,,,,,,,,,,FF,,,,,,,,0.7659,,,,,,,,,,,,,,,,,,,,,,6103508e0a0d600eaac0a294,6103686938f9927b499bc0f9,2021-07-29_20h57.46.887,Simcolourproject_2stim_asymm_v5,2020.2.10,Win32,60,61025ae37ef11b136ea224fe,,,,,,,,,4013,43.20001209,81.59999478,1,0,0,response1disk,,7,8.800011575,-6.4373E-06,1,0,0,rectangle,8.800011575,-6.4373E-06,1,0,0,8.800011575,-6.4373E-06,1,0,0,0,67,67,46,1,,,,,,,,
,,,,,,,,,,,,,FF,,,,,,,,0.6328,,,,,,,,,,,,,,,,,,,,,,6103508e0a0d600eaac0a294,6103686938f9927b499bc0f9,2021-07-29_20h57.46.887,Simcolourproject_2stim_asymm_v5,2020.2.10,Win32,60,61025ae37ef11b136ea224fe,,,,,,,,,2847,35.20001197,90.39999491,1,0,0,response1disk,,7,4.000011504,3.999993622,1,0,0,rectangle,4.000011504,3.999993622,1,0,0,4.000011504,3.999993622,1,0,0,0,68,68,7,1,,,,,,,,
,,,,,,,,,,,,,FF,,,,,,,,0.583,,,,,,,,,,,,,,,,,,,,,,6103508e0a0d600eaac0a294,6103686938f9927b499bc0f9,2021-07-29_20h57.46.887,Simcolourproject_2stim_asymm_v5,2020.2.10,Win32,60,61025ae37ef11b136ea224fe,,,,,,,,,2433,42.40001208,79.19997033,1,0,0,response1disk,,7,5.600060356,-1.600006461,1,0,0,rectangle,5.600060356,-1.600006461,1,0,0,5.600060356,-1.600006461,1,0,0,0,69,69,19,1,,,,,,,,
,,,,,,,,,,,,,FF,,,,,,,,0.4996,,,,,,,,,,,,,,,,,,,,,,6103508e0a0d600eaac0a294,6103686938f9927b499bc0f9,2021-07-29_20h57.46.887,Simcolourproject_2stim_asymm_v5,2020.2.10,Win32,60,61025ae37ef11b136ea224fe,,,,,,,,,59,46.40001214,90.39999491,1,0,0,response1disk,,7,14.40001166,7.19999367,1,0,0,rectangle,14.40001166,7.19999367,1,0,0,14.40001166,7.19999367,1,0,0,0,70,70,130,1,,,,,,,,
,,,,,,,,,,,,,FF,,,,,,,,0.7328,,,,,,,,,,,,,,,,,,,,,,6103508e0a0d600eaac0a294,6103686938f9927b499bc0f9,2021-07-29_20h57.46.887,Simcolourproject_2stim_asymm_v5,2020.2.10,Win32,60,61025ae37ef11b136ea224fe,,,,,,,,,706,36.80001199,78.39999473,1,0,0,response1disk,,7,10.4000116,5.599993646,1,0,0,rectangle,10.4000116,5.599993646,1,0,0,10.4000116,5.599993646,1,0,0,0,71,71,36,1,,,,,,,,
,,,,,,,,,,,,,FF,,,,,,,,0.6828,,,,,,,,,,,,,,,,,,,,,,6103508e0a0d600eaac0a294,6103686938f9927b499bc0f9,2021-07-29_20h57.46.887,Simcolourproject_2stim_asymm_v5,2020.2.10,Win32,60,61025ae37ef11b136ea224fe,,,,,,,,,2567,41.60006089,93.59999496,1,0,0,response1disk,,7,4.000011504,12.79999375,1,0,0,rectangle,4.000011504,12.79999375,1,0,0,4.000011504,12.79999375,1,0,0,0,72,72,119,1,,,,,,,,
,,,,,,,,,,,,,FF,,,,,,,,0.6828,,,,,,,,,,,,,,,,,,,,,,6103508e0a0d600eaac0a294,6103686938f9927b499bc0f9,2021-07-29_20h57.46.887,Simcolourproject_2stim_asymm_v5,2020.2.10,Win32,60,61025ae37ef11b136ea224fe,,,,,,,,,3588,32.80001193,75.19997027,1,0,0,response1disk,,7,9.600060415,-4.800006509,1,0,0,rectangle,9.600060415,-4.800006509,1,0,0,9.600060415,-4.800006509,1,0,0,0,73,73,66,1,,,,,,,,
,,,,,,,,,,,,,FF,,,,,,,,0.6661,,,,,,,,,,,,,,,,,,,,,,6103508e0a0d600eaac0a294,6103686938f9927b499bc0f9,2021-07-29_20h57.46.887,Simcolourproject_2stim_asymm_v5,2020.2.10,Win32,60,61025ae37ef11b136ea224fe,,,,,,,,,2,53.60001224,42.39999419,1,0,0,response1disk,,6,28.00001186,6.399993658,1,0,0,rectangle,28.00001186,6.399993658,1,0,0,28.00001186,6.399993658,1,0,0,0,74,74,64,1,,,,,,,,
,,,,,,,,,,,,,FF,,,,,,,,0.8158,,,,,,,,,,,,,,,,,,,,,,6103508e0a0d600eaac0a294,6103686938f9927b499bc0f9,2021-07-29_20h57.46.887,Simcolourproject_2stim_asymm_v5,2020.2.10,Win32,60,61025ae37ef11b136ea224fe,,,,,,,,,3526,45.60006095,83.19997039,1,0,0,response1disk,,7,-2.399939764,-1.600006461,1,0,0,rectangle,-2.399939764,-1.600006461,1,0,0,-2.399939764,-1.600006461,1,0,0,0,75,75,41,1,,,,,,,,
,,,,,,,,,,,,,FF,,,,,,,,0.7995,,,,,,,,,,,,,,,,,,,,,,6103508e0a0d600eaac0a294,6103686938f9927b499bc0f9,2021-07-29_20h57.46.887,Simcolourproject_2stim_asymm_v5,2020.2.10,Win32,60,61025ae37ef11b136ea224fe,,,,,,,,,2269,40.80001205,75.9999947,1,0,0,response1disk,,7,25.60006065,6.399993658,1,0,0,rectangle,25.60006065,6.399993658,1,0,0,25.60006065,6.399993658,1,0,0,0,76,76,118,1,,,,,,,,
,,,,,,,,,,,,,FF,,,,,,,,0.4992,,,,,,,,,,,,,,,,,,,,,,6103508e0a0d600eaac0a294,6103686938f9927b499bc0f9,2021-07-29_20h57.46.887,Simcolourproject_2stim_asymm_v5,2020.2.10,Win32,60,61025ae37ef11b136ea224fe,,,,,,,,,1037,44.80001211,86.39999485,1,0,0,response1disk,,7,18.40001172,11.99999374,1,0,0,rectangle,18.40001172,11.99999374,1,0,0,18.40001172,11.99999374,1,0,0,0,77,77,101,1,,,,,,,,
,,,,,,,,,,,,,FF,,,,,,,,0.6992,,,,,,,,,,,,,,,,,,,,,,6103508e0a0d600eaac0a294,6103686938f9927b499bc0f9,2021-07-29_20h57.46.887,Simcolourproject_2stim_asymm_v5,2020.2.10,Win32,60,61025ae37ef11b136ea224fe,,,,,,,,,3018,36.80001199,67.99999458,1,0,0,response1disk,,7,12.00001162,9.599993706,1,0,0,rectangle,12.00001162,9.599993706,1,0,0,12.00001162,9.599993706,1,0,0,0,78,78,12,1,,,,,,,,
,,,,,,,,,,,,,FF,,,,,,,,1.299,,,,,,,,,,,,,,,,,,,,,,6103508e0a0d600eaac0a294,6103686938f9927b499bc0f9,2021-07-29_20h57.46.887,Simcolourproject_2stim_asymm_v5,2020.2.10,Win32,60,61025ae37ef11b136ea224fe,,,,,,,,,2953,75.20001256,-36.80000699,1,0,0,response3disk,,5,15.20001167,7.999993682,1,0,0,rectangle,15.20001167,7.999993682,1,0,0,15.20001167,7.999993682,1,0,0,0,79,79,98,1,,,,,,,,
,,,,,,,,,,,,,FF,,,,,,,,2.0148,,,,,,,,,,,,,,,,,,,,,,6103508e0a0d600eaac0a294,6103686938f9927b499bc0f9,2021-07-29_20h57.46.887,Simcolourproject_2stim_asymm_v5,2020.2.10,Win32,60,61025ae37ef11b136ea224fe,,,,,,,,,1055,70.40001249,38.39999413,1,0,0,response1disk,,6,-0.799988568,0.799993575,1,0,0,rectangle,-0.799988568,0.799993575,1,0,0,-0.799988568,0.799993575,1,0,0,0,80,80,102,1,,,,,,,,
,,,,,,,,,,,,,FF,,,,,,,,2.0481,,,,,,,,,,,,,,,,,,,,,,6103508e0a0d600eaac0a294,6103686938f9927b499bc0f9,2021-07-29_20h57.46.887,Simcolourproject_2stim_asymm_v5,2020.2.10,Win32,60,61025ae37ef11b136ea224fe,,,,,,,,,740,88.80001277,-28.80000687,1,0,0,response3disk,,5,-4.799988627,-1.600006461,1,0,0,rectangle,-4.799988627,-1.600006461,1,0,0,-4.799988627,-1.600006461,1,0,0,0,81,81,10,1,,,,,,,,
,,,,,,,,,,,,,FF,,,,,,,,0.6992,,,,,,,,,,,,,,,,,,,,,,6103508e0a0d600eaac0a294,6103686938f9927b499bc0f9,2021-07-29_20h57.46.887,Simcolourproject_2stim_asymm_v5,2020.2.10,Win32,60,61025ae37ef11b136ea224fe,,,,,,,,,3126,63.20001239,92.79999495,1,0,0,response1disk,,7,1.600060296,4.799993634,1,0,0,rectangle,1.600060296,4.799993634,1,0,0,1.600060296,4.799993634,1,0,0,0,82,82,50,1,,,,,,,,
,,,,,,,,,,,,,FF,,,,,,,,1.1825,,,,,,,,,,,,,,,,,,,,,,6103508e0a0d600eaac0a294,6103686938f9927b499bc0f9,2021-07-29_20h57.46.887,Simcolourproject_2stim_asymm_v5,2020.2.10,Win32,60,61025ae37ef11b136ea224fe,,,,,,,,,76,83.20001268,51.19996991,1,0,0,response1disk,,6,15.20001167,11.19999373,1,0,0,rectangle,15.20001167,11.19999373,1,0,0,15.20001167,11.19999373,1,0,0,0,83,83,44,1,,,,,,,,
,,,,,,,,,,,,,FF,,,,,,,,0.4996,,,,,,,,,,,,,,,,,,,,,,6103508e0a0d600eaac0a294,6103686938f9927b499bc0f9,2021-07-29_20h57.46.887,Simcolourproject_2stim_asymm_v5,2020.2.10,Win32,60,61025ae37ef11b136ea224fe,,,,,,,,,1927,60.00001234,83.19997039,1,0,0,response1disk,,7,20.00001174,5.599993646,1,0,0,rectangle,20.00001174,5.599993646,1,0,0,20.00001174,5.599993646,1,0,0,0,84,84,47,1,,,,,,,,
,,,,,,,,,,,,,FF,,,,,,,,0.3331,,,,,,,,,,,,,,,,,,,,,,6103508e0a0d600eaac0a294,6103686938f9927b499bc0f9,2021-07-29_20h57.46.887,Simcolourproject_2stim_asymm_v5,2020.2.10,Win32,60,61025ae37ef11b136ea224fe,,,,,,,,,2616,54.40001225,101.5999951,1,0,0,response1disk,,7,16.80001169,16.79999381,1,0,0,rectangle,16.80001169,16.79999381,1,0,0,16.80001169,16.79999381,1,0,0,0,85,85,114,1,,,,,,,,
,,,,,,,,,,,,,FF,,,,,,,,1.1323,,,,,,,,,,,,,,,,,,,,,,6103508e0a0d600eaac0a294,6103686938f9927b499bc0f9,2021-07-29_20h57.46.887,Simcolourproject_2stim_asymm_v5,2020.2.10,Win32,60,61025ae37ef11b136ea224fe,,,,,,,,,3707,-51.19998932,-88.00000775,1,0,0,response5disk,,3,1.14441E-05,7.999993682,1,0,0,rectangle,1.14441E-05,7.999993682,1,0,0,1.14441E-05,7.999993682,1,0,0,0,86,86,51,1,,,,,,,,
,,,,,,,,,,,,,FF,,,,,,,,0.7803,,,,,,,,,,,,,,,,,,,,,,6103508e0a0d600eaac0a294,6103686938f9927b499bc0f9,2021-07-29_20h57.46.887,Simcolourproject_2stim_asymm_v5,2020.2.10,Win32,60,61025ae37ef11b136ea224fe,,,,,,,,,3268,45.60006095,84.79999483,1,0,0,response1disk,,7,9.600060415,16.79999381,1,0,0,rectangle,9.600060415,16.79999381,1,0,0,9.600060415,16.79999381,1,0,0,0,87,87,39,1,,,,,,,,
,,,,,,,,,,,,,FF,,,,,,,,0.766,,,,,,,,,,,,,,,,,,,,,,6103508e0a0d600eaac0a294,6103686938f9927b499bc0f9,2021-07-29_20h57.46.887,Simcolourproject_2stim_asymm_v5,2020.2.10,Win32,60,61025ae37ef11b136ea224fe,,,,,,,,,120,40.80001205,83.19997039,1,0,0,response1disk,,7,13.60006047,-4.000006497,1,0,0,rectangle,13.60006047,-4.000006497,1,0,0,13.60006047,-4.000006497,1,0,0,0,88,88,136,1,,,,,,,,
,,,,,,,,,,,,,FF,,,,,,,,0.4494,,,,,,,,,,,,,,,,,,,,,,6103508e0a0d600eaac0a294,6103686938f9927b499bc0f9,2021-07-29_20h57.46.887,Simcolourproject_2stim_asymm_v5,2020.2.10,Win32,60,61025ae37ef11b136ea224fe,,,,,,,,,1981,27.20001185,62.39999449,1,0,0,response1disk,,7,2.40001148,-0.800006449,1,0,0,rectangle,2.40001148,-0.800006449,1,0,0,2.40001148,-0.800006449,1,0,0,0,89,89,70,1,,,,,,,,
,,,,,,,,,,,,,FF,,,,,,,,0.5829,,,,,,,,,,,,,,,,,,,,,,6103508e0a0d600eaac0a294,6103686938f9927b499bc0f9,2021-07-29_20h57.46.887,Simcolourproject_2stim_asymm_v5,2020.2.10,Win32,60,61025ae37ef11b136ea224fe,,,,,,,,,401,28.80001187,79.99999475,1,0,0,response1disk,,7,9.600060415,-0.800006449,1,0,0,rectangle,9.600060415,-0.800006449,1,0,0,9.600060415,-0.800006449,1,0,0,0,90,90,94,1,,,,,,,,
,,,,,,,,,,,,,FF,,,,,,,,0.9825,,,,,,,,,,,,,,,,,,,,,,6103508e0a0d600eaac0a294,6103686938f9927b499bc0f9,2021-07-29_20h57.46.887,Simcolourproject_2stim_asymm_v5,2020.2.10,Win32,60,61025ae37ef11b136ea224fe,,,,,,,,,1794,46.40001214,106.3999951,1,0,0,response1disk,,7,24.0000118,4.799993634,1,0,0,rectangle,24.0000118,4.799993634,1,0,0,24.0000118,4.799993634,1,0,0,0,91,91,38,1,,,,,,,,
,,,,,,,,,,,,,FF,,,,,,,,0.9825,,,,,,,,,,,,,,,,,,,,,,6103508e0a0d600eaac0a294,6103686938f9927b499bc0f9,2021-07-29_20h57.46.887,Simcolourproject_2stim_asymm_v5,2020.2.10,Win32,60,61025ae37ef11b136ea224fe,,,,,,,,,3436,76.80001259,-36.00000697,1,0,0,response3disk,,5,9.600060415,11.19999373,1,0,0,rectangle,9.600060415,11.19999373,1,0,0,9.600060415,11.19999373,1,0,0,0,92,92,60,1,,,,,,,,
,,,,,,,,,,,,,FF,,,,,,,,0.6492,,,,,,,,,,,,,,,,,,,,,,6103508e0a0d600eaac0a294,6103686938f9927b499bc0f9,2021-07-29_20h57.46.887,Simcolourproject_2stim_asymm_v5,2020.2.10,Win32,60,61025ae37ef11b136ea224fe,,,,,,,,,569,29.60006071,66.39999455,1,0,0,response1disk,,7,3.200011492,-6.4373E-06,1,0,0,rectangle,3.200011492,-6.4373E-06,1,0,0,3.200011492,-6.4373E-06,1,0,0,0,93,93,90,1,,,,,,,,
,,,,,,,,,,,,,FF,,,,,,,,1.482,,,,,,,,,,,,,,,,,,,,,,6103508e0a0d600eaac0a294,6103686938f9927b499bc0f9,2021-07-29_20h57.46.887,Simcolourproject_2stim_asymm_v5,2020.2.10,Win32,60,61025ae37ef11b136ea224fe,,,,,,,,,1961,69.60001248,31.19996961,1,0,0,response1disk,,6,10.4000116,5.599993646,1,0,0,rectangle,10.4000116,5.599993646,1,0,0,10.4000116,5.599993646,1,0,0,0,94,94,11,1,,,,,,,,
,,,,,,,,,,,,,FF,,,,,,,,1.4487,,,,,,,,,,,,,,,,,,,,,,6103508e0a0d600eaac0a294,6103686938f9927b499bc0f9,2021-07-29_20h57.46.887,Simcolourproject_2stim_asymm_v5,2020.2.10,Win32,60,61025ae37ef11b136ea224fe,,,,,,,,,3620,75.20001256,39.19996973,1,0,0,response1disk,,6,23.20001179,-1.600006461,1,0,0,rectangle,23.20001179,-1.600006461,1,0,0,23.20001179,-1.600006461,1,0,0,0,95,95,56,1,,,,,,,,
,,,,,,,,,,,,,FF,,,,,,,,1.9484,,,,,,,,,,,,,,,,,,,,,,6103508e0a0d600eaac0a294,6103686938f9927b499bc0f9,2021-07-29_20h57.46.887,Simcolourproject_2stim_asymm_v5,2020.2.10,Win32,60,61025ae37ef11b136ea224fe,,,,,,,,,3410,96.80001289,-41.60000706,1,0,0,response3disk,,5,0.800011456,11.99999374,1,0,0,rectangle,0.800011456,11.99999374,1,0,0,0.800011456,11.99999374,1,0,0,0,96,96,27,1,,,,,,,,
,,,,,,,,,,,,,FF,,,,,,,,1.0991,,,,,,,,,,,,,,,,,,,,,,6103508e0a0d600eaac0a294,6103686938f9927b499bc0f9,2021-07-29_20h57.46.887,Simcolourproject_2stim_asymm_v5,2020.2.10,Win32,60,61025ae37ef11b136ea224fe,,,,,,,,,4115,56.00001228,83.99999481,1,0,0,response1disk,,7,25.60006065,-8.000006557,1,0,0,rectangle,25.60006065,-8.000006557,1,0,0,25.60006065,-8.000006557,1,0,0,0,97,97,107,1,,,,,,,,
,,,,,,,,,,,,,FF,,,,,,,,0.4829,,,,,,,,,,,,,,,,,,,,,,6103508e0a0d600eaac0a294,6103686938f9927b499bc0f9,2021-07-29_20h57.46.887,Simcolourproject_2stim_asymm_v5,2020.2.10,Win32,60,61025ae37ef11b136ea224fe,,,,,,,,,2198,20.00001174,71.19997021,1,0,0,response1disk,,7,16.00001168,-4.000006497,1,0,0,rectangle,16.00001168,-4.000006497,1,0,0,16.00001168,-4.000006497,1,0,0,0,98,98,45,1,,,,,,,,
,,,,,,,,,,,,,FF,,,,,,,,0.5663,,,,,,,,,,,,,,,,,,,,,,6103508e0a0d600eaac0a294,6103686938f9927b499bc0f9,2021-07-29_20h57.46.887,Simcolourproject_2stim_asymm_v5,2020.2.10,Win32,60,61025ae37ef11b136ea224fe,,,,,,,,,1032,48.00001216,84.79999483,1,0,0,response1disk,,7,15.20001167,-0.800006449,1,0,0,rectangle,15.20001167,-0.800006449,1,0,0,15.20001167,-0.800006449,1,0,0,0,99,99,96,1,,,,,,,,
,,,,,,,,,,,,,FF,,,,,,,,1.0989,,,,,,,,,,,,,,,,,,,,,,6103508e0a0d600eaac0a294,6103686938f9927b499bc0f9,2021-07-29_20h57.46.887,Simcolourproject_2stim_asymm_v5,2020.2.10,Win32,60,61025ae37ef11b136ea224fe,,,,,,,,,2650,103.200013,-30.40000689,1,0,0,response3disk,,5,17.60006053,4.799993634,1,0,0,rectangle,17.60006053,4.799993634,1,0,0,17.60006053,4.799993634,1,0,0,0,100,100,3,1,,,,,,,,
,,,,,,,,,,,,,FF,,,,,,,,2.448,,,,,,,,,,,,,,,,,,,,,,6103508e0a0d600eaac0a294,6103686938f9927b499bc0f9,2021-07-29_20h57.46.887,Simcolourproject_2stim_asymm_v5,2020.2.10,Win32,60,61025ae37ef11b136ea224fe,,,,,,,,,895,57.6000123,89.5999949,1,0,0,response1disk,,7,24.0000118,4.799993634,1,0,0,rectangle,24.0000118,4.799993634,1,0,0,24.0000118,4.799993634,1,0,0,0,101,101,121,1,,,,,,,,
,,,,,,,,,,,,,FF,,,,,,,,0.6661,,,,,,,,,,,,,,,,,,,,,,6103508e0a0d600eaac0a294,6103686938f9927b499bc0f9,2021-07-29_20h57.46.887,Simcolourproject_2stim_asymm_v5,2020.2.10,Win32,60,61025ae37ef11b136ea224fe,,,,,,,,,1139,33.60006077,99.99999505,1,0,0,response1disk,,7,20.00001174,4.799993634,1,0,0,rectangle,20.00001174,4.799993634,1,0,0,20.00001174,4.799993634,1,0,0,0,102,102,108,1,,,,,,,,
,,,,,,,,,,,,,FF,,,,,,,,0.4997,,,,,,,,,,,,,,,,,,,,,,6103508e0a0d600eaac0a294,6103686938f9927b499bc0f9,2021-07-29_20h57.46.887,Simcolourproject_2stim_asymm_v5,2020.2.10,Win32,60,61025ae37ef11b136ea224fe,,,,,,,,,2971,26.40001184,80.79999477,1,0,0,response1disk,,7,20.00001174,-3.200006485,1,0,0,rectangle,20.00001174,-3.200006485,1,0,0,20.00001174,-3.200006485,1,0,0,0,103,103,80,1,,,,,,,,
,,,,,,,,,,,,,FF,,,,,,,,1.6986,,,,,,,,,,,,,,,,,,,,,,6103508e0a0d600eaac0a294,6103686938f9927b499bc0f9,2021-07-29_20h57.46.887,Simcolourproject_2stim_asymm_v5,2020.2.10,Win32,60,61025ae37ef11b136ea224fe,,,,,,,,,889,92.80001283,47.19996985,1,0,0,response1disk,,6,34.40001196,1.599993587,1,0,0,rectangle,34.40001196,1.599993587,1,0,0,34.40001196,1.599993587,1,0,0,0,104,104,32,1,,,,,,,,
,,,,,,,,,,,,,FF,,,,,,,,0.6992,,,,,,,,,,,,,,,,,,,,,,6103508e0a0d600eaac0a294,6103686938f9927b499bc0f9,2021-07-29_20h57.46.887,Simcolourproject_2stim_asymm_v5,2020.2.10,Win32,60,61025ae37ef11b136ea224fe,,,,,,,,,2562,41.60006089,88.79999489,1,0,0,response1disk,,7,28.80001187,3.19999361,1,0,0,rectangle,28.80001187,3.19999361,1,0,0,28.80001187,3.19999361,1,0,0,0,105,105,49,1,,,,,,,,
,,,,,,,,,,,,,FF,,,,,,,,1.0489,,,,,,,,,,,,,,,,,,,,,,6103508e0a0d600eaac0a294,6103686938f9927b499bc0f9,2021-07-29_20h57.46.887,Simcolourproject_2stim_asymm_v5,2020.2.10,Win32,60,61025ae37ef11b136ea224fe,,,,,,,,,4034,83.20001268,41.59999418,1,0,0,response1disk,,6,14.40001166,-2.400006473,1,0,0,rectangle,14.40001166,-2.400006473,1,0,0,14.40001166,-2.400006473,1,0,0,0,106,106,82,1,,,,,,,,
,,,,,,,,,,,,,FF,,,,,,,,1.2989,,,,,,,,,,,,,,,,,,,,,,6103508e0a0d600eaac0a294,6103686938f9927b499bc0f9,2021-07-29_20h57.46.887,Simcolourproject_2stim_asymm_v5,2020.2.10,Win32,60,61025ae37ef11b136ea224fe,,,,,,,,,3037,-93.59998995,-56.00000727,1,0,0,response5disk,,2,-4.799988627,-7.200006545,1,0,0,rectangle,-4.799988627,-7.200006545,1,0,0,-4.799988627,-7.200006545,1,0,0,0,107,107,63,1,,,,,,,,
,,,,,,,,,,,,,FF,,,,,,,,1.1325,,,,,,,,,,,,,,,,,,,,,,6103508e0a0d600eaac0a294,6103686938f9927b499bc0f9,2021-07-29_20h57.46.887,Simcolourproject_2stim_asymm_v5,2020.2.10,Win32,60,61025ae37ef11b136ea224fe,,,,,,,,,3529,59.20001233,105.5999951,1,0,0,response1disk,,7,-1.59998858,7.19999367,1,0,0,rectangle,-1.59998858,7.19999367,1,0,0,-1.59998858,7.19999367,1,0,0,0,108,108,124,1,,,,,,,,
,,,,,,,,,,,,,FF,,,,,,,,2.348,,,,,,,,,,,,,,,,,,,,,,6103508e0a0d600eaac0a294,6103686938f9927b499bc0f9,2021-07-29_20h57.46.887,Simcolourproject_2stim_asymm_v5,2020.2.10,Win32,60,61025ae37ef11b136ea224fe,,,,,,,,,4116,44.80001211,89.5999949,1,0,0,response1disk,,7,13.60006047,1.599993587,1,0,0,rectangle,13.60006047,1.599993587,1,0,0,13.60006047,1.599993587,1,0,0,0,109,109,26,1,,,,,,,,
,,,,,,,,,,,,,FF,,,,,,,,1.3656,,,,,,,,,,,,,,,,,,,,,,6103508e0a0d600eaac0a294,6103686938f9927b499bc0f9,2021-07-29_20h57.46.887,Simcolourproject_2stim_asymm_v5,2020.2.10,Win32,60,61025ae37ef11b136ea224fe,,,,,,,,,1902,72.80001253,37.59999412,1,0,0,response1disk,,6,23.20001179,-5.600006521,1,0,0,rectangle,23.20001179,-5.600006521,1,0,0,23.20001179,-5.600006521,1,0,0,0,110,110,54,1,,,,,,,,
,,,,,,,,,,,,,FF,,,,,,,,0.8658,,,,,,,,,,,,,,,,,,,,,,6103508e0a0d600eaac0a294,6103686938f9927b499bc0f9,2021-07-29_20h57.46.887,Simcolourproject_2stim_asymm_v5,2020.2.10,Win32,60,61025ae37ef11b136ea224fe,,,,,,,,,2058,32.00001192,98.39999503,1,0,0,response1disk,,7,-1.59998858,-4.000006497,1,0,0,rectangle,-1.59998858,-4.000006497,1,0,0,-1.59998858,-4.000006497,1,0,0,0,111,111,92,1,,,,,,,,
,,,,,,,,,,,,,FF,,,,,,,,1.2654,,,,,,,,,,,,,,,,,,,,,,6103508e0a0d600eaac0a294,6103686938f9927b499bc0f9,2021-07-29_20h57.46.887,Simcolourproject_2stim_asymm_v5,2020.2.10,Win32,60,61025ae37ef11b136ea224fe,,,,,,,,,629,21.60006059,79.99999475,1,0,0,response1disk,,7,1.600060296,-6.4373E-06,1,0,0,rectangle,1.600060296,-6.4373E-06,1,0,0,1.600060296,-6.4373E-06,1,0,0,0,112,112,18,1,,,,,,,,
,,,,,,,,,,,,,FF,,,,,,,,1.0156,,,,,,,,,,,,,,,,,,,,,,6103508e0a0d600eaac0a294,6103686938f9927b499bc0f9,2021-07-29_20h57.46.887,Simcolourproject_2stim_asymm_v5,2020.2.10,Win32,60,61025ae37ef11b136ea224fe,,,,,,,,,2645,28.00001186,75.9999947,1,0,0,response1disk,,7,1.600060296,-6.400006533,1,0,0,rectangle,1.600060296,-6.400006533,1,0,0,1.600060296,-6.400006533,1,0,0,0,113,113,88,1,,,,,,,,
,,,,,,,,,,,,,FF,,,,,,,,3.1306,,,,,,,,,,,,,,,,,,,,,,6103508e0a0d600eaac0a294,6103686938f9927b499bc0f9,2021-07-29_20h57.46.887,Simcolourproject_2stim_asymm_v5,2020.2.10,Win32,60,61025ae37ef11b136ea224fe,,,,,,,,,2889,111.2000131,45.59999424,1,0,0,response1disk,,6,31.20001191,3.999993622,1,0,0,rectangle,31.20001191,3.999993622,1,0,0,31.20001191,3.999993622,1,0,0,0,114,114,37,1,,,,,,,,
,,,,,,,,,,,,,FF,,,,,,,,0.5828,,,,,,,,,,,,,,,,,,,,,,6103508e0a0d600eaac0a294,6103686938f9927b499bc0f9,2021-07-29_20h57.46.887,Simcolourproject_2stim_asymm_v5,2020.2.10,Win32,60,61025ae37ef11b136ea224fe,,,,,,,,,3029,61.60001236,95.19997057,1,0,0,response1disk,,7,13.60006047,7.999993682,1,0,0,rectangle,13.60006047,7.999993682,1,0,0,13.60006047,7.999993682,1,0,0,0,115,115,97,1,,,,,,,,
,,,,,,,,,,,,,FF,,,,,,,,1.0989,,,,,,,,,,,,,,,,,,,,,,6103508e0a0d600eaac0a294,6103686938f9927b499bc0f9,2021-07-29_20h57.46.887,Simcolourproject_2stim_asymm_v5,2020.2.10,Win32,60,61025ae37ef11b136ea224fe,,,,,,,,,1965,54.40001225,-74.40000755,1,0,0,response3disk,,4,11.20001161,6.399993658,1,0,0,rectangle,11.20001161,6.399993658,1,0,0,11.20001161,6.399993658,1,0,0,0,116,116,105,1,,,,,,,,
,,,,,,,,,,,,,FF,,,,,,,,0.7661,,,,,,,,,,,,,,,,,,,,,,6103508e0a0d600eaac0a294,6103686938f9927b499bc0f9,2021-07-29_20h57.46.887,Simcolourproject_2stim_asymm_v5,2020.2.10,Win32,60,61025ae37ef11b136ea224fe,,,,,,,,,2383,42.40001208,86.39999485,1,0,0,response1disk,,7,3.200011492,-9.60000658,1,0,0,rectangle,3.200011492,-9.60000658,1,0,0,3.200011492,-9.60000658,1,0,0,0,117,117,134,1,,,,,,,,
,,,,,,,,,,,,,FF,,,,,,,,2.7309,,,,,,,,,,,,,,,,,,,,,,6103508e0a0d600eaac0a294,6103686938f9927b499bc0f9,2021-07-29_20h57.46.887,Simcolourproject_2stim_asymm_v5,2020.2.10,Win32,60,61025ae37ef11b136ea224fe,,,,,,,,,269,49.60006101,116.7999953,1,0,0,response1disk,,7,1.600060296,13.59999377,1,0,0,rectangle,1.600060296,13.59999377,1,0,0,1.600060296,13.59999377,1,0,0,0,118,118,116,1,,,,,,,,
,,,,,,,,,,,,,FF,,,,,,,,0.6493,,,,,,,,,,,,,,,,,,,,,,6103508e0a0d600eaac0a294,6103686938f9927b499bc0f9,2021-07-29_20h57.46.887,Simcolourproject_2stim_asymm_v5,2020.2.10,Win32,60,61025ae37ef11b136ea224fe,,,,,,,,,2318,30.4000119,117.5999953,1,0,0,response1disk,,7,5.600060356,1.599993587,1,0,0,rectangle,5.600060356,1.599993587,1,0,0,5.600060356,1.599993587,1,0,0,0,119,119,87,1,,,,,,,,
,,,,,,,,,,,,,FF,,,,,,,,1.0988,,,,,,,,,,,,,,,,,,,,,,6103508e0a0d600eaac0a294,6103686938f9927b499bc0f9,2021-07-29_20h57.46.887,Simcolourproject_2stim_asymm_v5,2020.2.10,Win32,60,61025ae37ef11b136ea224fe,,,,,,,,,1522,39.20001203,-74.40000755,1,0,0,response3disk,,4,8.000011563,5.599993646,1,0,0,rectangle,71.20001251,-40.80000705,1,0,0,7.200011551,0.799993575,1,0,0,0,120,120,112,1,,response3disk_3,TRUE,5,5,"[219,213,211,311,130,170,125,167,287,192,63,135,10,145,121,5,25,170,58,196]",2.2319,rectangle
,,,,,,,,,,,,,FF,,,,,,,,3.0972,,,,,,,,,,,,,,,,,,,,,,6103508e0a0d600eaac0a294,6103686938f9927b499bc0f9,2021-07-29_20h57.46.887,Simcolourproject_2stim_asymm_v5,2020.2.10,Win32,60,61025ae37ef11b136ea224fe,,,,,,,,,1779,40.80001205,93.59999496,1,0,0,response1disk,,7,24.0000118,-6.4373E-06,1,0,0,rectangle,24.0000118,-6.4373E-06,1,0,0,24.0000118,-6.4373E-06,1,0,0,0,121,121,141,1,,,,,,,,
,,,,,,,,,,,,,FF,,,,,,,,1.5152,,,,,,,,,,,,,,,,,,,,,,6103508e0a0d600eaac0a294,6103686938f9927b499bc0f9,2021-07-29_20h57.46.887,Simcolourproject_2stim_asymm_v5,2020.2.10,Win32,60,61025ae37ef11b136ea224fe,,,,,,,,,4293,-39.99998915,-91.2000078,1,0,0,response5disk,,3,-13.59998876,-8.800006568,1,0,0,rectangle,-13.59998876,-8.800006568,1,0,0,-13.59998876,-8.800006568,1,0,0,0,122,122,34,1,,,,,,,,
,,,,,,,,,,,,,FF,,,,,,,,1.0325,,,,,,,,,,,,,,,,,,,,,,6103508e0a0d600eaac0a294,6103686938f9927b499bc0f9,2021-07-29_20h57.46.887,Simcolourproject_2stim_asymm_v5,2020.2.10,Win32,60,61025ae37ef11b136ea224fe,,,,,,,,,3868,40.80001205,-72.80000752,1,0,0,response3disk,,4,4.000011504,1.599993587,1,0,0,rectangle,4.000011504,1.599993587,1,0,0,4.000011504,1.599993587,1,0,0,0,123,123,76,1,,,,,,,,
,,,,,,,,,,,,,FF,,,,,,,,0.9992,,,,,,,,,,,,,,,,,,,,,,6103508e0a0d600eaac0a294,6103686938f9927b499bc0f9,2021-07-29_20h57.46.887,Simcolourproject_2stim_asymm_v5,2020.2.10,Win32,60,61025ae37ef11b136ea224fe,,,,,,,,,1000,44.0000121,96.79999501,1,0,0,response1disk,,7,18.40001172,4.799993634,1,0,0,rectangle,42.40001208,97.59999502,1,0,0,-0.799988568,-5.600006521,1,0,0,0,124,124,106,1,,response1disk_3,TRUE,7,7,"[219,213,211,311,130,170,125,167,287,192,63,135,10,145,121,5,25,170,58,196]",2.065,rectangle
,,,,,,,,,,,,,FF,,,,,,,,1.0158,,,,,,,,,,,,,,,,,,,,,,6103508e0a0d600eaac0a294,6103686938f9927b499bc0f9,2021-07-29_20h57.46.887,Simcolourproject_2stim_asymm_v5,2020.2.10,Win32,60,61025ae37ef11b136ea224fe,,,,,,,,,637,86.40001273,43.19996979,1,0,0,response1disk,,6,3.200011492,12.79999375,1,0,0,rectangle,3.200011492,12.79999375,1,0,0,3.200011492,12.79999375,1,0,0,0,125,125,111,1,,,,,,,,
,,,,,,,,,,,,,FF,,,,,,,,2.2812,,,,,,,,,,,,,,,,,,,,,,6103508e0a0d600eaac0a294,6103686938f9927b499bc0f9,2021-07-29_20h57.46.887,Simcolourproject_2stim_asymm_v5,2020.2.10,Win32,60,61025ae37ef11b136ea224fe,,,,,,,,,1004,46.40001214,118.3999953,1,0,0,response1disk,,7,-9.599988699,-2.400006473,1,0,0,rectangle,-9.599988699,-2.400006473,1,0,0,-9.599988699,-2.400006473,1,0,0,0,126,126,128,1,,,,,,,,
,,,,,,,,,,,,,FF,,,,,,,,0.8992,,,,,,,,,,,,,,,,,,,,,,6103508e0a0d600eaac0a294,6103686938f9927b499bc0f9,2021-07-29_20h57.46.887,Simcolourproject_2stim_asymm_v5,2020.2.10,Win32,60,61025ae37ef11b136ea224fe,,,,,,,,,1464,74.40001255,39.99999416,1,0,0,response1disk,,6,32.00001192,-6.4373E-06,1,0,0,rectangle,32.00001192,-6.4373E-06,1,0,0,32.00001192,-6.4373E-06,1,0,0,0,127,127,4,1,,,,,,,,
,,,,,,,,,,,,,FF,,,,,,,,1.285,,,,,,,,,,,,,,,,,,,,,,6103508e0a0d600eaac0a294,6103686938f9927b499bc0f9,2021-07-29_20h57.46.887,Simcolourproject_2stim_asymm_v5,2020.2.10,Win32,60,61025ae37ef11b136ea224fe,,,,,,,,,3906,-61.59998947,-24.80000681,1,0,0,response5disk,,2,-0.799988568,-4.800006509,1,0,0,rectangle,-0.799988568,-4.800006509,1,0,0,-0.799988568,-4.800006509,1,0,0,0,128,128,126,1,,,,,,,,
,,,,,,,,,,,,,FF,,,,,,,,1.6823,,,,,,,,,,,,,,,,,,,,,,6103508e0a0d600eaac0a294,6103686938f9927b499bc0f9,2021-07-29_20h57.46.887,Simcolourproject_2stim_asymm_v5,2020.2.10,Win32,60,61025ae37ef11b136ea224fe,,,,,,,,,1231,48.00001216,-68.00000745,1,0,0,response3disk,,4,24.0000118,3.19999361,1,0,0,rectangle,30.4000119,-109.6000569,1,0,0,-12.79998875,-4.800006509,1,0,0,0,129,129,43,1,,response3disk_3,TRUE,4,4,"[219,213,211,311,130,170,125,167,287,192,63,135,10,145,121,5,25,170,58,196]",1.3986,rectangle
,,,,,,,,,,,,,FF,,,,,,,,2.7144,,,,,,,,,,,,,,,,,,,,,,6103508e0a0d600eaac0a294,6103686938f9927b499bc0f9,2021-07-29_20h57.46.887,Simcolourproject_2stim_asymm_v5,2020.2.10,Win32,60,61025ae37ef11b136ea224fe,,,,,,,,,4102,-45.59998924,-99.20000792,1,0,0,response5disk,,3,8.000011563,-6.4373E-06,1,0,0,rectangle,8.000011563,-6.4373E-06,1,0,0,8.000011563,-6.4373E-06,1,0,0,0,130,130,139,1,,,,,,,,
,,,,,,,,,,,,,FF,,,,,,,,2.4811,,,,,,,,,,,,,,,,,,,,,,6103508e0a0d600eaac0a294,6103686938f9927b499bc0f9,2021-07-29_20h57.46.887,Simcolourproject_2stim_asymm_v5,2020.2.10,Win32,60,61025ae37ef11b136ea224fe,,,,,,,,,279,106.400013,25.59999394,1,0,0,response1disk,,6,5.600060356,2.399993598,1,0,0,rectangle,5.600060356,2.399993598,1,0,0,5.600060356,2.399993598,1,0,0,0,131,131,149,1,,,,,,,,
,,,,,,,,,,,,,FF,,,,,,,,0.8494,,,,,,,,,,,,,,,,,,,,,,6103508e0a0d600eaac0a294,6103686938f9927b499bc0f9,2021-07-29_20h57.46.887,Simcolourproject_2stim_asymm_v5,2020.2.10,Win32,60,61025ae37ef11b136ea224fe,,,,,,,,,2116,26.40001184,85.59999484,1,0,0,response1disk,,7,9.600060415,-6.4373E-06,1,0,0,rectangle,9.600060415,-6.4373E-06,1,0,0,9.600060415,-6.4373E-06,1,0,0,0,132,132,100,1,,,,,,,,
,,,,,,,,,,,,,FF,,,,,,,,0.8325,,,,,,,,,,,,,,,,,,,,,,6103508e0a0d600eaac0a294,6103686938f9927b499bc0f9,2021-07-29_20h57.46.887,Simcolourproject_2stim_asymm_v5,2020.2.10,Win32,60,61025ae37ef11b136ea224fe,,,,,,,,,2906,44.80001211,80.79999477,1,0,0,response1disk,,7,0.800011456,-2.400006473,1,0,0,rectangle,0.800011456,-2.400006473,1,0,0,0.800011456,-2.400006473,1,0,0,0,133,133,67,1,,,,,,,,
,,,,,,,,,,,,,FF,,,,,,,,4.4296,,,,,,,,,,,,,,,,,,,,,,6103508e0a0d600eaac0a294,6103686938f9927b499bc0f9,2021-07-29_20h57.46.887,Simcolourproject_2stim_asymm_v5,2020.2.10,Win32,60,61025ae37ef11b136ea224fe,,,,,,,,,1125,48.80001217,-88.80000776,1,0,0,response3disk,,4,-6.399939823,2.399993598,1,0,0,rectangle,91.2000128,-43.20000708,1,0,0,6.400011539,0.799993575,1,0,0,0,134,134,72,1,,response3disk_3,TRUE,5,5,"[219,213,211,311,130,170,125,167,287,192,63,135,10,145,121,5,25,170,58,196]",1.3802,rectangle
,,,,,,,,,,,,,FF,,,,,,,,2.5312,,,,,,,,,,,,,,,,,,,,,,6103508e0a0d600eaac0a294,6103686938f9927b499bc0f9,2021-07-29_20h57.46.887,Simcolourproject_2stim_asymm_v5,2020.2.10,Win32,60,61025ae37ef11b136ea224fe,,,,,,,,,1621,42.40001208,84.79999483,1,0,0,response1disk,,7,8.000011563,-0.800006449,1,0,0,rectangle,8.000011563,-0.800006449,1,0,0,8.000011563,-0.800006449,1,0,0,0,135,135,48,1,,,,,,,,
,,,,,,,,,,,,,FF,,,,,,,,0.7826,,,,,,,,,,,,,,,,,,,,,,6103508e0a0d600eaac0a294,6103686938f9927b499bc0f9,2021-07-29_20h57.46.887,Simcolourproject_2stim_asymm_v5,2020.2.10,Win32,60,61025ae37ef11b136ea224fe,,,,,,,,,16,32.00001192,84.79999483,1,0,0,response1disk,,7,-0.799988568,-8.800006568,1,0,0,rectangle,-0.799988568,-8.800006568,1,0,0,-0.799988568,-8.800006568,1,0,0,0,136,136,83,1,,,,,,,,
,,,,,,,,,,,,,FF,,,,,,,,0.6328,,,,,,,,,,,,,,,,,,,,,,6103508e0a0d600eaac0a294,6103686938f9927b499bc0f9,2021-07-29_20h57.46.887,Simcolourproject_2stim_asymm_v5,2020.2.10,Win32,60,61025ae37ef11b136ea224fe,,,,,,,,,3942,31.20001191,73.59999466,1,0,0,response1disk,,7,16.00001168,4.799993634,1,0,0,rectangle,16.00001168,4.799993634,1,0,0,16.00001168,4.799993634,1,0,0,0,137,137,30,1,,,,,,,,
,,,,,,,,,,,,,FF,,,,,,,,0.6495,,,,,,,,,,,,,,,,,,,,,,6103508e0a0d600eaac0a294,6103686938f9927b499bc0f9,2021-07-29_20h57.46.887,Simcolourproject_2stim_asymm_v5,2020.2.10,Win32,60,61025ae37ef11b136ea224fe,,,,,,,,,1872,48.80001217,90.39999491,1,0,0,response1disk,,7,16.80001169,10.39999372,1,0,0,rectangle,16.80001169,10.39999372,1,0,0,16.80001169,10.39999372,1,0,0,0,138,138,22,1,,,,,,,,
,,,,,,,,,,,,,FF,,,,,,,,0.6496,,,,,,,,,,,,,,,,,,,,,,6103508e0a0d600eaac0a294,6103686938f9927b499bc0f9,2021-07-29_20h57.46.887,Simcolourproject_2stim_asymm_v5,2020.2.10,Win32,60,61025ae37ef11b136ea224fe,,,,,,,,,2394,40.00001204,78.39999473,1,0,0,response1disk,,7,4.000011504,-4.000006497,1,0,0,rectangle,4.000011504,-4.000006497,1,0,0,4.000011504,-4.000006497,1,0,0,0,139,139,123,1,,,,,,,,
,,,,,,,,,,,,,FF,,,,,,,,0.8827,,,,,,,,,,,,,,,,,,,,,,6103508e0a0d600eaac0a294,6103686938f9927b499bc0f9,2021-07-29_20h57.46.887,Simcolourproject_2stim_asymm_v5,2020.2.10,Win32,60,61025ae37ef11b136ea224fe,,,,,,,,,1326,48.00001216,78.39999473,1,0,0,response1disk,,7,1.600060296,-1.600006461,1,0,0,rectangle,1.600060296,-1.600006461,1,0,0,1.600060296,-1.600006461,1,0,0,0,140,140,29,1,,,,,,,,
,,,,,,,,,,,,,FF,,,,,,,,0.5159,,,,,,,,,,,,,,,,,,,,,,6103508e0a0d600eaac0a294,6103686938f9927b499bc0f9,2021-07-29_20h57.46.887,Simcolourproject_2stim_asymm_v5,2020.2.10,Win32,60,61025ae37ef11b136ea224fe,,,,,,,,,575,32.00001192,80.79999477,1,0,0,response1disk,,7,21.60006059,-6.4373E-06,1,0,0,rectangle,21.60006059,-6.4373E-06,1,0,0,21.60006059,-6.4373E-06,1,0,0,0,141,141,89,1,,,,,,,,
,,,,,,,,,,,,,FF,,,,,,,,0.7492,,,,,,,,,,,,,,,,,,,,,,6103508e0a0d600eaac0a294,6103686938f9927b499bc0f9,2021-07-29_20h57.46.887,Simcolourproject_2stim_asymm_v5,2020.2.10,Win32,60,61025ae37ef11b136ea224fe,,,,,,,,,3932,52.00001222,82.39999479,1,0,0,response1disk,,7,10.4000116,-2.400006473,1,0,0,rectangle,10.4000116,-2.400006473,1,0,0,10.4000116,-2.400006473,1,0,0,0,142,142,131,1,,,,,,,,
,,,,,,,,,,,,,FF,,,,,,,,0.7659,,,,,,,,,,,,,,,,,,,,,,6103508e0a0d600eaac0a294,6103686938f9927b499bc0f9,2021-07-29_20h57.46.887,Simcolourproject_2stim_asymm_v5,2020.2.10,Win32,60,61025ae37ef11b136ea224fe,,,,,,,,,2675,47.20001215,97.59999502,1,0,0,response1disk,,7,16.80001169,5.599993646,1,0,0,rectangle,16.80001169,5.599993646,1,0,0,16.80001169,5.599993646,1,0,0,0,143,143,140,1,,,,,,,,
,,,,,,,,,,,,,FF,,,,,,,,0.5493,,,,,,,,,,,,,,,,,,,,,,6103508e0a0d600eaac0a294,6103686938f9927b499bc0f9,2021-07-29_20h57.46.887,Simcolourproject_2stim_asymm_v5,2020.2.10,Win32,60,61025ae37ef11b136ea224fe,,,,,,,,,2843,52.00001222,96.79999501,1,0,0,response1disk,,7,8.800011575,10.39999372,1,0,0,rectangle,98.40001291,-42.40000707,1,0,0,21.60006059,0.799993575,1,0,0,0,144,144,120,1,,response3disk_3,TRUE,5,5,"[219,213,211,311,130,170,125,167,287,192,63,135,10,145,121,5,25,170,58,196]",1.7484,rectangle
,,,,,,,,,,,,,FF,,,,,,,,2.3143,,,,,,,,,,,,,,,,,,,,,,6103508e0a0d600eaac0a294,6103686938f9927b499bc0f9,2021-07-29_20h57.46.887,Simcolourproject_2stim_asymm_v5,2020.2.10,Win32,60,61025ae37ef11b136ea224fe,,,,,,,,,25,48.80001217,99.99999505,1,0,0,response1disk,,7,-0.799988568,4.799993634,1,0,0,rectangle,-0.799988568,4.799993634,1,0,0,-0.799988568,4.799993634,1,0,0,0,145,145,81,1,,,,,,,,
,,,,,,,,,,,,,FF,,,,,,,,0.6826,,,,,,,,,,,,,,,,,,,,,,6103508e0a0d600eaac0a294,6103686938f9927b499bc0f9,2021-07-29_20h57.46.887,Simcolourproject_2stim_asymm_v5,2020.2.10,Win32,60,61025ae37ef11b136ea224fe,,,,,,,,,411,52.00001222,100.7999951,1,0,0,response1disk,,7,-1.59998858,-1.600006461,1,0,0,rectangle,-1.59998858,-1.600006461,1,0,0,-1.59998858,-1.600006461,1,0,0,0,146,146,6,1,,,,,,,,
,,,,,,,,,,,,,FF,,,,,,,,0.5659,,,,,,,,,,,,,,,,,,,,,,6103508e0a0d600eaac0a294,6103686938f9927b499bc0f9,2021-07-29_20h57.46.887,Simcolourproject_2stim_asymm_v5,2020.2.10,Win32,60,61025ae37ef11b136ea224fe,,,,,,,,,2140,48.80001217,93.59999496,1,0,0,response1disk,,7,4.800011516,7.19999367,1,0,0,rectangle,4.800011516,7.19999367,1,0,0,4.800011516,7.19999367,1,0,0,0,147,147,147,1,,,,,,,,
,,,,,,,,,,,,,FF,,,,,,,,0.6994,,,,,,,,,,,,,,,,,,,,,,6103508e0a0d600eaac0a294,6103686938f9927b499bc0f9,2021-07-29_20h57.46.887,Simcolourproject_2stim_asymm_v5,2020.2.10,Win32,60,61025ae37ef11b136ea224fe,,,,,,,,,2690,44.80001211,106.3999951,1,0,0,response1disk,,7,3.200011492,0.799993575,1,0,0,rectangle,3.200011492,0.799993575,1,0,0,3.200011492,0.799993575,1,0,0,0,148,148,115,1,,,,,,,,
,,,,,,,,,,,,,FF,,,,,,,,0.4663,,,,,,,,,,,,,,,,,,,,,,6103508e0a0d600eaac0a294,6103686938f9927b499bc0f9,2021-07-29_20h57.46.887,Simcolourproject_2stim_asymm_v5,2020.2.10,Win32,60,61025ae37ef11b136ea224fe,,,,,,,,,759,49.60006101,92.79999495,1,0,0,response1disk,,7,14.40001166,6.399993658,1,0,0,rectangle,14.40001166,6.399993658,1,0,0,14.40001166,6.399993658,1,0,0,0,149,149,14,1,,,,,,,,
,,,,,,,,,,,,,FF,,,,,,,,1.1155,,,,,,,,,,,,,,,,,,,,,,6103508e0a0d600eaac0a294,6103686938f9927b499bc0f9,2021-07-29_20h57.46.887,Simcolourproject_2stim_asymm_v5,2020.2.10,Win32,60,61025ae37ef11b136ea224fe,,,,,,,,,353,37.60006083,-80.00000763,1,0,0,response3disk,,4,-9.599988699,-2.400006473,1,0,0,rectangle,-9.599988699,-2.400006473,1,0,0,-9.599988699,-2.400006473,1,0,0,0,150,150,138,1,,,,,,,,
,,,,,,,,,,,,,FF,,,,,,,,1.635,,,,,,,,,,,,,,,,,,,,,,6103508e0a0d600eaac0a294,6103686938f9927b499bc0f9,2021-07-29_20h57.46.887,Simcolourproject_2stim_asymm_v5,2020.2.10,Win32,60,61025ae37ef11b136ea224fe,,,,,,,,,879,48.00001216,-76.00000757,1,0,0,response3disk,,4,8.000011563,-4.000006497,1,0,0,rectangle,8.000011563,-4.000006497,1,0,0,8.000011563,-4.000006497,1,0,0,0,151,151,129,1,,,,,,,,
,,,,,,,,,,,,,FF,,,,,,,,1.1491,,,,,,,,,,,,,,,,,,,,,,6103508e0a0d600eaac0a294,6103686938f9927b499bc0f9,2021-07-29_20h57.46.887,Simcolourproject_2stim_asymm_v5,2020.2.10,Win32,60,61025ae37ef11b136ea224fe,,,,,,,,,3302,52.00001222,71.99999464,1,0,0,response1disk,,7,12.80001163,-4.000006497,1,0,0,rectangle,12.80001163,-4.000006497,1,0,0,12.80001163,-4.000006497,1,0,0,0,152,152,61,1,,,,,,,,
,,,,,,,,,,,,,FF,,,,,,,,2.2647,,,,,,,,,,,,,,,,,,,,,,6103508e0a0d600eaac0a294,6103686938f9927b499bc0f9,2021-07-29_20h57.46.887,Simcolourproject_2stim_asymm_v5,2020.2.10,Win32,60,61025ae37ef11b136ea224fe,,,,,,,,,2097,88.00001276,-41.60000706,1,0,0,response3disk,,5,2.40001148,10.39999372,1,0,0,rectangle,2.40001148,10.39999372,1,0,0,2.40001148,10.39999372,1,0,0,0,153,153,33,1,,,,,,,,
,,,,,,,,,,,,,FF,,,,,,,,0.7828,,,,,,,,,,,,,,,,,,,,,,6103508e0a0d600eaac0a294,6103686938f9927b499bc0f9,2021-07-29_20h57.46.887,Simcolourproject_2stim_asymm_v5,2020.2.10,Win32,60,61025ae37ef11b136ea224fe,,,,,,,,,144,40.80001205,83.19997039,1,0,0,response1disk,,7,17.60006053,10.39999372,1,0,0,rectangle,17.60006053,10.39999372,1,0,0,17.60006053,10.39999372,1,0,0,0,154,154,150,1,,,,,,,,
,,,,,,,,,,,,,FF,,,,,,,,0.5829,,,,,,,,,,,,,,,,,,,,,,6103508e0a0d600eaac0a294,6103686938f9927b499bc0f9,2021-07-29_20h57.46.887,Simcolourproject_2stim_asymm_v5,2020.2.10,Win32,60,61025ae37ef11b136ea224fe,,,,,,,,,3355,48.80001217,112.7999952,1,0,0,response1disk,,7,2.40001148,8.799993694,1,0,0,rectangle,2.40001148,8.799993694,1,0,0,2.40001148,8.799993694,1,0,0,0,155,155,153,1,,,,,,,,
,,,,,,,,,,,,,FF,,,,,,,,1.4821,,,,,,,,,,,,,,,,,,,,,,6103508e0a0d600eaac0a294,6103686938f9927b499bc0f9,2021-07-29_20h57.46.887,Simcolourproject_2stim_asymm_v5,2020.2.10,Win32,60,61025ae37ef11b136ea224fe,,,,,,,,,2999,46.40001214,-91.2000078,1,0,0,response3disk,,4,8.000011563,2.399993598,1,0,0,rectangle,8.000011563,2.399993598,1,0,0,8.000011563,2.399993598,1,0,0,0,156,156,21,1,,,,,,,,
,,,,,,,,,,,,,FF,,,,,,,,0.799,,,,,,,,,,,,,,,,,,,,,,6103508e0a0d600eaac0a294,6103686938f9927b499bc0f9,2021-07-29_20h57.46.887,Simcolourproject_2stim_asymm_v5,2020.2.10,Win32,60,61025ae37ef11b136ea224fe,,,,,,,,,4271,34.40001196,79.99999475,1,0,0,response1disk,,7,2.40001148,-8.800006568,1,0,0,rectangle,2.40001148,-8.800006568,1,0,0,2.40001148,-8.800006568,1,0,0,0,157,157,103,1,,,,,,,,
,,,,,,,,,,,,,FF,,,,,,,,0.9155,,,,,,,,,,,,,,,,,,,,,,6103508e0a0d600eaac0a294,6103686938f9927b499bc0f9,2021-07-29_20h57.46.887,Simcolourproject_2stim_asymm_v5,2020.2.10,Win32,60,61025ae37ef11b136ea224fe,,,,,,,,,35,49.60006101,83.99999481,1,0,0,response1disk,,7,3.200011492,7.999993682,1,0,0,rectangle,3.200011492,7.999993682,1,0,0,3.200011492,7.999993682,1,0,0,0,158,158,146,1,,,,,,,,
,,,,,,,,,,,,,FF,,,,,,,,0.916,,,,,,,,,,,,,,,,,,,,,,6103508e0a0d600eaac0a294,6103686938f9927b499bc0f9,2021-07-29_20h57.46.887,Simcolourproject_2stim_asymm_v5,2020.2.10,Win32,60,61025ae37ef11b136ea224fe,,,,,,,,,1331,48.80001217,92.79999495,1,0,0,response1disk,,7,4.800011516,3.19999361,1,0,0,rectangle,4.800011516,3.19999361,1,0,0,4.800011516,3.19999361,1,0,0,0,159,159,148,1,,,,,,,,
,,,,,,,,,,,,,FF,,,,,,,,1.9651,,,,,,,,,,,,,,,,,,,,,,6103508e0a0d600eaac0a294,6103686938f9927b499bc0f9,2021-07-29_20h57.46.887,Simcolourproject_2stim_asymm_v5,2020.2.10,Win32,60,61025ae37ef11b136ea224fe,,,,,,,,,3937,38.40001202,79.19997033,1,0,0,response1disk,,7,5.600060356,-12.80000663,1,0,0,rectangle,5.600060356,-12.80000663,1,0,0,5.600060356,-12.80000663,1,0,0,1,0,160,144,1,,,,,,,,
,,,,,,,,,,,,,FF,,,,,,,,1.0155,,,,,,,,,,,,,,,,,,,,,,6103508e0a0d600eaac0a294,6103686938f9927b499bc0f9,2021-07-29_20h57.46.887,Simcolourproject_2stim_asymm_v5,2020.2.10,Win32,60,61025ae37ef11b136ea224fe,,,,,,,,,688,33.60006077,86.39999485,1,0,0,response1disk,,7,-12.79998875,6.399993658,1,0,0,rectangle,-12.79998875,6.399993658,1,0,0,-12.79998875,6.399993658,1,0,0,1,1,161,70,1,,,,,,,,
,,,,,,,,,,,,,FF,,,,,,,,1.1155,,,,,,,,,,,,,,,,,,,,,,6103508e0a0d600eaac0a294,6103686938f9927b499bc0f9,2021-07-29_20h57.46.887,Simcolourproject_2stim_asymm_v5,2020.2.10,Win32,60,61025ae37ef11b136ea224fe,,,,,,,,,1448,83.20001268,-37.600007,1,0,0,response3disk,,5,3.200011492,11.19999373,1,0,0,rectangle,3.200011492,11.19999373,1,0,0,3.200011492,11.19999373,1,0,0,1,2,162,29,1,,,,,,,,
,,,,,,,,,,,,,FF,,,,,,,,0.6996,,,,,,,,,,,,,,,,,,,,,,6103508e0a0d600eaac0a294,6103686938f9927b499bc0f9,2021-07-29_20h57.46.887,Simcolourproject_2stim_asymm_v5,2020.2.10,Win32,60,61025ae37ef11b136ea224fe,,,,,,,,,3255,40.80001205,75.19997027,1,0,0,response1disk,,7,8.800011575,1.599993587,1,0,0,rectangle,8.800011575,1.599993587,1,0,0,8.800011575,1.599993587,1,0,0,1,3,163,125,1,,,,,,,,
,,,,,,,,,,,,,FF,,,,,,,,0.5328,,,,,,,,,,,,,,,,,,,,,,6103508e0a0d600eaac0a294,6103686938f9927b499bc0f9,2021-07-29_20h57.46.887,Simcolourproject_2stim_asymm_v5,2020.2.10,Win32,60,61025ae37ef11b136ea224fe,,,,,,,,,1015,52.00001222,98.39999503,1,0,0,response1disk,,7,17.60006053,-5.600006521,1,0,0,rectangle,17.60006053,-5.600006521,1,0,0,17.60006053,-5.600006521,1,0,0,1,4,164,105,1,,,,,,,,
,,,,,,,,,,,,,FF,,,,,,,,1.0824,,,,,,,,,,,,,,,,,,,,,,6103508e0a0d600eaac0a294,6103686938f9927b499bc0f9,2021-07-29_20h57.46.887,Simcolourproject_2stim_asymm_v5,2020.2.10,Win32,60,61025ae37ef11b136ea224fe,,,,,,,,,259,62.40001237,-106.400008,1,0,0,response3disk,,4,2.40001148,-2.400006473,1,0,0,rectangle,2.40001148,-2.400006473,1,0,0,2.40001148,-2.400006473,1,0,0,1,5,165,50,1,,,,,,,,
,,,,,,,,,,,,,FF,,,,,,,,1.8818,,,,,,,,,,,,,,,,,,,,,,6103508e0a0d600eaac0a294,6103686938f9927b499bc0f9,2021-07-29_20h57.46.887,Simcolourproject_2stim_asymm_v5,2020.2.10,Win32,60,61025ae37ef11b136ea224fe,,,,,,,,,3609,78.40001261,30.39999402,1,0,0,response1disk,,6,5.600060356,-4.800006509,1,0,0,rectangle,68.80001247,111.1999708,1,0,0,16.00001168,4.799993634,1,0,0,1,6,166,142,1,,response1disk_3,TRUE,7,7,"[219,213,211,311,130,170,125,167,287,192,63,135,10,145,121,5,25,170,58,196]",3.3468,rectangle
,,,,,,,,,,,,,FF,,,,,,,,1.2156,,,,,,,,,,,,,,,,,,,,,,6103508e0a0d600eaac0a294,6103686938f9927b499bc0f9,2021-07-29_20h57.46.887,Simcolourproject_2stim_asymm_v5,2020.2.10,Win32,60,61025ae37ef11b136ea224fe,,,,,,,,,3824,78.40001261,35.19996967,1,0,0,response1disk,,6,-3.199988604,6.399993658,1,0,0,rectangle,-3.199988604,6.399993658,1,0,0,-3.199988604,6.399993658,1,0,0,1,7,167,5,1,,,,,,,,
,,,,,,,,,,,,,FF,,,,,,,,4.1298,,,,,,,,,,,,,,,,,,,,,,6103508e0a0d600eaac0a294,6103686938f9927b499bc0f9,2021-07-29_20h57.46.887,Simcolourproject_2stim_asymm_v5,2020.2.10,Win32,60,61025ae37ef11b136ea224fe,,,,,,,,,1343,57.6000123,90.39999491,1,0,0,response1disk,,7,-14.39993994,-6.4373E-06,1,0,0,rectangle,-14.39993994,-6.4373E-06,1,0,0,-14.39993994,-6.4373E-06,1,0,0,1,8,168,62,1,,,,,,,,
,,,,,,,,,,,,,FF,,,,,,,,0.6494,,,,,,,,,,,,,,,,,,,,,,6103508e0a0d600eaac0a294,6103686938f9927b499bc0f9,2021-07-29_20h57.46.887,Simcolourproject_2stim_asymm_v5,2020.2.10,Win32,60,61025ae37ef11b136ea224fe,,,,,,,,,2313,64.0000124,88.79999489,1,0,0,response1disk,,7,23.20001179,5.599993646,1,0,0,rectangle,58.40001231,-93.60005666,1,0,0,-10.39993988,-8.800006568,1,0,0,1,9,169,106,1,,response3disk_3,TRUE,4,4,"[219,213,211,311,130,170,125,167,287,192,63,135,10,145,121,5,25,170,58,196]",1.7317,rectangle
,,,,,,,,,,,,,FF,,,,,,,,3.0641,,,,,,,,,,,,,,,,,,,,,,6103508e0a0d600eaac0a294,6103686938f9927b499bc0f9,2021-07-29_20h57.46.887,Simcolourproject_2stim_asymm_v5,2020.2.10,Win32,60,61025ae37ef11b136ea224fe,,,,,,,,,4304,33.60006077,85.59999484,1,0,0,response1disk,,7,1.600060296,7.19999367,1,0,0,rectangle,1.600060296,7.19999367,1,0,0,1.600060296,7.19999367,1,0,0,1,10,170,100,1,,,,,,,,
,,,,,,,,,,,,,FF,,,,,,,,0.8994,,,,,,,,,,,,,,,,,,,,,,6103508e0a0d600eaac0a294,6103686938f9927b499bc0f9,2021-07-29_20h57.46.887,Simcolourproject_2stim_asymm_v5,2020.2.10,Win32,60,61025ae37ef11b136ea224fe,,,,,,,,,2695,52.80001223,84.79999483,1,0,0,response1disk,,7,19.20001173,1.599993587,1,0,0,rectangle,19.20001173,1.599993587,1,0,0,19.20001173,1.599993587,1,0,0,1,11,171,54,1,,,,,,,,
,,,,,,,,,,,,,FF,,,,,,,,1.2824,,,,,,,,,,,,,,,,,,,,,,6103508e0a0d600eaac0a294,6103686938f9927b499bc0f9,2021-07-29_20h57.46.887,Simcolourproject_2stim_asymm_v5,2020.2.10,Win32,60,61025ae37ef11b136ea224fe,,,,,,,,,3480,101.600013,-44.00000709,1,0,0,response3disk,,5,-7.999988675,7.999993682,1,0,0,rectangle,-7.999988675,7.999993682,1,0,0,-7.999988675,7.999993682,1,0,0,1,12,172,74,1,,,,,,,,
,,,,,,,,,,,,,FF,,,,,,,,0.5994,,,,,,,,,,,,,,,,,,,,,,6103508e0a0d600eaac0a294,6103686938f9927b499bc0f9,2021-07-29_20h57.46.887,Simcolourproject_2stim_asymm_v5,2020.2.10,Win32,60,61025ae37ef11b136ea224fe,,,,,,,,,3062,51.20001221,72.79999465,1,0,0,response1disk,,7,7.200011551,7.999993682,1,0,0,rectangle,7.200011551,7.999993682,1,0,0,7.200011551,7.999993682,1,0,0,1,13,173,95,1,,,,,,,,
,,,,,,,,,,,,,FF,,,,,,,,1.915,,,,,,,,,,,,,,,,,,,,,,6103508e0a0d600eaac0a294,6103686938f9927b499bc0f9,2021-07-29_20h57.46.887,Simcolourproject_2stim_asymm_v5,2020.2.10,Win32,60,61025ae37ef11b136ea224fe,,,,,,,,,2938,87.20001274,41.59999418,1,0,0,response1disk,,6,10.4000116,10.39999372,1,0,0,rectangle,10.4000116,10.39999372,1,0,0,10.4000116,10.39999372,1,0,0,1,14,174,31,1,,,,,,,,
,,,,,,,,,,,,,FF,,,,,,,,1.4822,,,,,,,,,,,,,,,,,,,,,,6103508e0a0d600eaac0a294,6103686938f9927b499bc0f9,2021-07-29_20h57.46.887,Simcolourproject_2stim_asymm_v5,2020.2.10,Win32,60,61025ae37ef11b136ea224fe,,,,,,,,,2593,68.00001246,-88.80000776,1,0,0,response3disk,,4,0.800011456,4.799993634,1,0,0,rectangle,0.800011456,4.799993634,1,0,0,0.800011456,4.799993634,1,0,0,1,15,175,63,1,,,,,,,,
,,,,,,,,,,,,,FF,,,,,,,,1.0326,,,,,,,,,,,,,,,,,,,,,,6103508e0a0d600eaac0a294,6103686938f9927b499bc0f9,2021-07-29_20h57.46.887,Simcolourproject_2stim_asymm_v5,2020.2.10,Win32,60,61025ae37ef11b136ea224fe,,,,,,,,,3252,42.40001208,-78.40000761,1,0,0,response3disk,,4,-6.399939823,5.599993646,1,0,0,rectangle,-6.399939823,5.599993646,1,0,0,-6.399939823,5.599993646,1,0,0,1,16,176,122,1,,,,,,,,
,,,,,,,,,,,,,FF,,,,,,,,0.7658,,,,,,,,,,,,,,,,,,,,,,6103508e0a0d600eaac0a294,6103686938f9927b499bc0f9,2021-07-29_20h57.46.887,Simcolourproject_2stim_asymm_v5,2020.2.10,Win32,60,61025ae37ef11b136ea224fe,,,,,,,,,803,-47.99998927,-66.40000743,1,0,0,response5disk,,3,20.80001175,8.799993694,1,0,0,rectangle,20.80001175,8.799993694,1,0,0,20.80001175,8.799993694,1,0,0,1,17,177,78,1,,,,,,,,
,,,,,,,,,,,,,FF,,,,,,,,1.9152,,,,,,,,,,,,,,,,,,,,,,6103508e0a0d600eaac0a294,6103686938f9927b499bc0f9,2021-07-29_20h57.46.887,Simcolourproject_2stim_asymm_v5,2020.2.10,Win32,60,61025ae37ef11b136ea224fe,,,,,,,,,3171,77.6000126,40.79999417,1,0,0,response1disk,,6,-11.99998873,0.799993575,1,0,0,rectangle,-11.99998873,0.799993575,1,0,0,-11.99998873,0.799993575,1,0,0,1,18,178,16,1,,,,,,,,
,,,,,,,,,,,,,FF,,,,,,,,1.4319,,,,,,,,,,,,,,,,,,,,,,6103508e0a0d600eaac0a294,6103686938f9927b499bc0f9,2021-07-29_20h57.46.887,Simcolourproject_2stim_asymm_v5,2020.2.10,Win32,60,61025ae37ef11b136ea224fe,,,,,,,,,3014,64.80001241,34.39999408,1,0,0,response1disk,,6,20.00001174,12.79999375,1,0,0,rectangle,20.00001174,12.79999375,1,0,0,20.00001174,12.79999375,1,0,0,1,19,179,148,1,,,,,,,,
,,,,,,,,,,,,,FF,,,,,,,,0.8659,,,,,,,,,,,,,,,,,,,,,,6103508e0a0d600eaac0a294,6103686938f9927b499bc0f9,2021-07-29_20h57.46.887,Simcolourproject_2stim_asymm_v5,2020.2.10,Win32,60,61025ae37ef11b136ea224fe,,,,,,,,,114,40.80001205,75.19997027,1,0,0,response1disk,,7,4.800011516,-2.400006473,1,0,0,rectangle,4.800011516,-2.400006473,1,0,0,4.800011516,-2.400006473,1,0,0,1,20,180,115,1,,,,,,,,
,,,,,,,,,,,,,FF,,,,,,,,0.7824,,,,,,,,,,,,,,,,,,,,,,6103508e0a0d600eaac0a294,6103686938f9927b499bc0f9,2021-07-29_20h57.46.887,Simcolourproject_2stim_asymm_v5,2020.2.10,Win32,60,61025ae37ef11b136ea224fe,,,,,,,,,1750,79.20001262,39.99999416,1,0,0,response1disk,,6,27.20001185,7.19999367,1,0,0,rectangle,27.20001185,7.19999367,1,0,0,27.20001185,7.19999367,1,0,0,1,21,181,135,1,,,,,,,,
,,,,,,,,,,,,,FF,,,,,,,,0.9324,,,,,,,,,,,,,,,,,,,,,,6103508e0a0d600eaac0a294,6103686938f9927b499bc0f9,2021-07-29_20h57.46.887,Simcolourproject_2stim_asymm_v5,2020.2.10,Win32,60,61025ae37ef11b136ea224fe,,,,,,,,,4199,48.80001217,96.79999501,1,0,0,response1disk,,7,9.600060415,10.39999372,1,0,0,rectangle,9.600060415,10.39999372,1,0,0,9.600060415,10.39999372,1,0,0,1,22,182,23,1,,,,,,,,
,,,,,,,,,,,,,FF,,,,,,,,1.5322,,,,,,,,,,,,,,,,,,,,,,6103508e0a0d600eaac0a294,6103686938f9927b499bc0f9,2021-07-29_20h57.46.887,Simcolourproject_2stim_asymm_v5,2020.2.10,Win32,60,61025ae37ef11b136ea224fe,,,,,,,,,1829,59.20001233,-40.00000703,1,0,0,response3disk,,5,-11.99998873,4.799993634,1,0,0,rectangle,-11.99998873,4.799993634,1,0,0,-11.99998873,4.799993634,1,0,0,1,23,183,49,1,,,,,,,,
,,,,,,,,,,,,,FF,,,,,,,,5.9945,,,,,,,,,,,,,,,,,,,,,,6103508e0a0d600eaac0a294,6103686938f9927b499bc0f9,2021-07-29_20h57.46.887,Simcolourproject_2stim_asymm_v5,2020.2.10,Win32,60,61025ae37ef11b136ea224fe,,,,,,,,,625,85.60001272,-41.60000706,1,0,0,response3disk,,5,19.20001173,-6.4373E-06,1,0,0,rectangle,19.20001173,-6.4373E-06,1,0,0,19.20001173,-6.4373E-06,1,0,0,1,24,184,149,1,,,,,,,,
,,,,,,,,,,,,,FF,,,,,,,,1.066,,,,,,,,,,,,,,,,,,,,,,6103508e0a0d600eaac0a294,6103686938f9927b499bc0f9,2021-07-29_20h57.46.887,Simcolourproject_2stim_asymm_v5,2020.2.10,Win32,60,61025ae37ef11b136ea224fe,,,,,,,,,2403,48.00001216,99.19997063,1,0,0,response1disk,,7,-0.799988568,11.19999373,1,0,0,rectangle,-0.799988568,11.19999373,1,0,0,-0.799988568,11.19999373,1,0,0,1,25,185,4,1,,,,,,,,
,,,,,,,,,,,,,FF,,,,,,,,0.6828,,,,,,,,,,,,,,,,,,,,,,6103508e0a0d600eaac0a294,6103686938f9927b499bc0f9,2021-07-29_20h57.46.887,Simcolourproject_2stim_asymm_v5,2020.2.10,Win32,60,61025ae37ef11b136ea224fe,,,,,,,,,2718,44.80001211,86.39999485,1,0,0,response1disk,,7,0.800011456,6.399993658,1,0,0,rectangle,0.800011456,6.399993658,1,0,0,0.800011456,6.399993658,1,0,0,1,26,186,66,1,,,,,,,,
,,,,,,,,,,,,,FF,,,,,,,,1.1989,,,,,,,,,,,,,,,,,,,,,,6103508e0a0d600eaac0a294,6103686938f9927b499bc0f9,2021-07-29_20h57.46.887,Simcolourproject_2stim_asymm_v5,2020.2.10,Win32,60,61025ae37ef11b136ea224fe,,,,,,,,,2957,44.0000121,75.19997027,1,0,0,response1disk,,7,-3.199988604,10.39999372,1,0,0,rectangle,-3.199988604,10.39999372,1,0,0,-3.199988604,10.39999372,1,0,0,1,27,187,7,1,,,,,,,,
,,,,,,,,,,,,,FF,,,,,,,,1.1491,,,,,,,,,,,,,,,,,,,,,,6103508e0a0d600eaac0a294,6103686938f9927b499bc0f9,2021-07-29_20h57.46.887,Simcolourproject_2stim_asymm_v5,2020.2.10,Win32,60,61025ae37ef11b136ea224fe,,,,,,,,,2076,48.00001216,78.39999473,1,0,0,response1disk,,7,11.20001161,4.799993634,1,0,0,rectangle,11.20001161,4.799993634,1,0,0,11.20001161,4.799993634,1,0,0,1,28,188,2,1,,,,,,,,
,,,,,,,,,,,,,FF,,,,,,,,1.5151,,,,,,,,,,,,,,,,,,,,,,6103508e0a0d600eaac0a294,6103686938f9927b499bc0f9,2021-07-29_20h57.46.887,Simcolourproject_2stim_asymm_v5,2020.2.10,Win32,60,61025ae37ef11b136ea224fe,,,,,,,,,4109,36.80001199,75.9999947,1,0,0,response1disk,,7,13.60006047,2.399993598,1,0,0,rectangle,13.60006047,2.399993598,1,0,0,13.60006047,2.399993598,1,0,0,1,29,189,0,1,,,,,,,,
,,,,,,,,,,,,,FF,,,,,,,,1.2153,,,,,,,,,,,,,,,,,,,,,,6103508e0a0d600eaac0a294,6103686938f9927b499bc0f9,2021-07-29_20h57.46.887,Simcolourproject_2stim_asymm_v5,2020.2.10,Win32,60,61025ae37ef11b136ea224fe,,,,,,,,,1986,77.6000126,42.39999419,1,0,0,response1disk,,6,-11.19998872,7.999993682,1,0,0,rectangle,-11.19998872,7.999993682,1,0,0,-11.19998872,7.999993682,1,0,0,1,30,190,113,1,,,,,,,,
,,,,,,,,,,,,,FF,,,,,,,,1.2656,,,,,,,,,,,,,,,,,,,,,,6103508e0a0d600eaac0a294,6103686938f9927b499bc0f9,2021-07-29_20h57.46.887,Simcolourproject_2stim_asymm_v5,2020.2.10,Win32,60,61025ae37ef11b136ea224fe,,,,,,,,,1062,72.80001253,26.39999396,1,0,0,response1disk,,6,21.60006059,-11.2000066,1,0,0,rectangle,92.00001281,36.79999411,1,0,0,17.60006053,3.999993622,1,0,0,1,31,191,53,1,,response1disk_3,TRUE,6,6,"[219,213,211,311,130,170,125,167,287,192,63,135,10,145,121,5,25,170,58,196]",2.015,rectangle
,,,,,,,,,,,,,FF,,,,,,,,1.2323,,,,,,,,,,,,,,,,,,,,,,6103508e0a0d600eaac0a294,6103686938f9927b499bc0f9,2021-07-29_20h57.46.887,Simcolourproject_2stim_asymm_v5,2020.2.10,Win32,60,61025ae37ef11b136ea224fe,,,,,,,,,2392,84.80001271,44.79999423,1,0,0,response1disk,,6,25.60006065,6.399993658,1,0,0,rectangle,25.60006065,6.399993658,1,0,0,25.60006065,6.399993658,1,0,0,1,32,192,18,1,,,,,,,,
,,,,,,,,,,,,,FF,,,,,,,,1.4156,,,,,,,,,,,,,,,,,,,,,,6103508e0a0d600eaac0a294,6103686938f9927b499bc0f9,2021-07-29_20h57.46.887,Simcolourproject_2stim_asymm_v5,2020.2.10,Win32,60,61025ae37ef11b136ea224fe,,,,,,,,,3889,88.80001277,-36.00000697,1,0,0,response3disk,,5,-12.79998875,-1.600006461,1,0,0,rectangle,-12.79998875,-1.600006461,1,0,0,-12.79998875,-1.600006461,1,0,0,1,33,193,123,1,,,,,,,,
,,,,,,,,,,,,,FF,,,,,,,,1.3321,,,,,,,,,,,,,,,,,,,,,,6103508e0a0d600eaac0a294,6103686938f9927b499bc0f9,2021-07-29_20h57.46.887,Simcolourproject_2stim_asymm_v5,2020.2.10,Win32,60,61025ae37ef11b136ea224fe,,,,,,,,,3282,43.20001209,87.99999487,1,0,0,response1disk,,7,-11.99998873,7.999993682,1,0,0,rectangle,-11.99998873,7.999993682,1,0,0,-11.99998873,7.999993682,1,0,0,1,34,194,25,1,,,,,,,,
,,,,,,,,,,,,,FF,,,,,,,,0.9161,,,,,,,,,,,,,,,,,,,,,,6103508e0a0d600eaac0a294,6103686938f9927b499bc0f9,2021-07-29_20h57.46.887,Simcolourproject_2stim_asymm_v5,2020.2.10,Win32,60,61025ae37ef11b136ea224fe,,,,,,,,,2492,86.40001273,29.599994,1,0,0,response1disk,,6,16.80001169,4.799993634,1,0,0,rectangle,88.00001276,50.39999431,1,0,0,32.00001192,4.799993634,1,0,0,1,35,195,41,1,,response1disk_3,TRUE,6,6,"[219,213,211,311,130,170,125,167,287,192,63,135,10,145,121,5,25,170,58,196]",1.2655,rectangle
,,,,,,,,,,,,,FF,,,,,,,,2.6473,,,,,,,,,,,,,,,,,,,,,,6103508e0a0d600eaac0a294,6103686938f9927b499bc0f9,2021-07-29_20h57.46.887,Simcolourproject_2stim_asymm_v5,2020.2.10,Win32,60,61025ae37ef11b136ea224fe,,,,,,,,,4208,91.2000128,-48.80000716,1,0,0,response3disk,,5,13.60006047,7.999993682,1,0,0,rectangle,13.60006047,7.999993682,1,0,0,13.60006047,7.999993682,1,0,0,1,36,196,146,1,,,,,,,,
,,,,,,,,,,,,,FF,,,,,,,,1.8153,,,,,,,,,,,,,,,,,,,,,,6103508e0a0d600eaac0a294,6103686938f9927b499bc0f9,2021-07-29_20h57.46.887,Simcolourproject_2stim_asymm_v5,2020.2.10,Win32,60,61025ae37ef11b136ea224fe,,,,,,,,,3915,40.80001205,85.59999484,1,0,0,response1disk,,7,2.40001148,7.999993682,1,0,0,rectangle,2.40001148,7.999993682,1,0,0,2.40001148,7.999993682,1,0,0,1,37,197,24,1,,,,,,,,
,,,,,,,,,,,,,FF,,,,,,,,2.1314,,,,,,,,,,,,,,,,,,,,,,6103508e0a0d600eaac0a294,6103686938f9927b499bc0f9,2021-07-29_20h57.46.887,Simcolourproject_2stim_asymm_v5,2020.2.10,Win32,60,61025ae37ef11b136ea224fe,,,,,,,,,1928,69.60001248,39.19996973,1,0,0,response1disk,,6,2.40001148,-4.800006509,1,0,0,rectangle,2.40001148,-4.800006509,1,0,0,2.40001148,-4.800006509,1,0,0,1,38,198,67,1,,,,,,,,
,,,,,,,,,,,,,FF,,,,,,,,2.5311,,,,,,,,,,,,,,,,,,,,,,6103508e0a0d600eaac0a294,6103686938f9927b499bc0f9,2021-07-29_20h57.46.887,Simcolourproject_2stim_asymm_v5,2020.2.10,Win32,60,61025ae37ef11b136ea224fe,,,,,,,,,3605,80.80001265,-36.00000697,1,0,0,response3disk,,5,-3.199988604,10.39999372,1,0,0,rectangle,-3.199988604,10.39999372,1,0,0,-3.199988604,10.39999372,1,0,0,1,39,199,44,1,,,,,,,,
,,,,,,,,,,,,,FF,,,,,,,,1.2656,,,,,,,,,,,,,,,,,,,,,,6103508e0a0d600eaac0a294,6103686938f9927b499bc0f9,2021-07-29_20h57.46.887,Simcolourproject_2stim_asymm_v5,2020.2.10,Win32,60,61025ae37ef11b136ea224fe,,,,,,,,,1474,31.20001191,71.99999464,1,0,0,response1disk,,7,8.000011563,-4.800006509,1,0,0,rectangle,8.000011563,-4.800006509,1,0,0,8.000011563,-4.800006509,1,0,0,1,40,200,58,1,,,,,,,,
,,,,,,,,,,,,,FF,,,,,,,,1.1156,,,,,,,,,,,,,,,,,,,,,,6103508e0a0d600eaac0a294,6103686938f9927b499bc0f9,2021-07-29_20h57.46.887,Simcolourproject_2stim_asymm_v5,2020.2.10,Win32,60,61025ae37ef11b136ea224fe,,,,,,,,,1831,32.80001193,-91.2000078,1,0,0,response3disk,,4,-9.599988699,-5.600006521,1,0,0,rectangle,-9.599988699,-5.600006521,1,0,0,-9.599988699,-5.600006521,1,0,0,1,41,201,158,1,,,,,,,,
,,,,,,,,,,,,,FF,,,,,,,,3.1972,,,,,,,,,,,,,,,,,,,,,,6103508e0a0d600eaac0a294,6103686938f9927b499bc0f9,2021-07-29_20h57.46.887,Simcolourproject_2stim_asymm_v5,2020.2.10,Win32,60,61025ae37ef11b136ea224fe,,,,,,,,,4072,94.40001285,-28.00000685,1,0,0,response3disk,,5,1.600060296,5.599993646,1,0,0,rectangle,1.600060296,5.599993646,1,0,0,1.600060296,5.599993646,1,0,0,1,42,202,52,1,,,,,,,,
,,,,,,,,,,,,,FF,,,,,,,,0.916,,,,,,,,,,,,,,,,,,,,,,6103508e0a0d600eaac0a294,6103686938f9927b499bc0f9,2021-07-29_20h57.46.887,Simcolourproject_2stim_asymm_v5,2020.2.10,Win32,60,61025ae37ef11b136ea224fe,,,,,,,,,1406,49.60006101,80.79999477,1,0,0,response1disk,,7,7.200011551,6.399993658,1,0,0,rectangle,7.200011551,6.399993658,1,0,0,7.200011551,6.399993658,1,0,0,1,43,203,150,1,,,,,,,,
,,,,,,,,,,,,,FF,,,,,,,,1.1988,,,,,,,,,,,,,,,,,,,,,,6103508e0a0d600eaac0a294,6103686938f9927b499bc0f9,2021-07-29_20h57.46.887,Simcolourproject_2stim_asymm_v5,2020.2.10,Win32,60,61025ae37ef11b136ea224fe,,,,,,,,,2172,84.0000127,38.39999413,1,0,0,response1disk,,6,15.20001167,11.19999373,1,0,0,rectangle,15.20001167,11.19999373,1,0,0,15.20001167,11.19999373,1,0,0,1,44,204,38,1,,,,,,,,
,,,,,,,,,,,,,FF,,,,,,,,1.8959,,,,,,,,,,,,,,,,,,,,,,6103508e0a0d600eaac0a294,6103686938f9927b499bc0f9,2021-07-29_20h57.46.887,Simcolourproject_2stim_asymm_v5,2020.2.10,Win32,60,61025ae37ef11b136ea224fe,,,,,,,,,3184,84.0000127,49.5999943,1,0,0,response1disk,,6,8.000011563,3.999993622,1,0,0,rectangle,8.000011563,3.999993622,1,0,0,8.000011563,3.999993622,1,0,0,1,45,205,61,1,,,,,,,,
,,,,,,,,,,,,,FF,,,,,,,,0.9157,,,,,,,,,,,,,,,,,,,,,,6103508e0a0d600eaac0a294,6103686938f9927b499bc0f9,2021-07-29_20h57.46.887,Simcolourproject_2stim_asymm_v5,2020.2.10,Win32,60,61025ae37ef11b136ea224fe,,,,,,,,,4087,39.20001203,68.79999459,1,0,0,response1disk,,7,10.4000116,4.799993634,1,0,0,rectangle,10.4000116,4.799993634,1,0,0,10.4000116,4.799993634,1,0,0,1,46,206,83,1,,,,,,,,
,,,,,,,,,,,,,FF,,,,,,,,3.5803,,,,,,,,,,,,,,,,,,,,,,6103508e0a0d600eaac0a294,6103686938f9927b499bc0f9,2021-07-29_20h57.46.887,Simcolourproject_2stim_asymm_v5,2020.2.10,Win32,60,61025ae37ef11b136ea224fe,,,,,,,,,3310,52.00001222,35.19996967,1,0,0,response1disk,,6,9.600060415,3.19999361,1,0,0,rectangle,9.600060415,3.19999361,1,0,0,9.600060415,3.19999361,1,0,0,1,47,207,116,1,,,,,,,,
,,,,,,,,,,,,,FF,,,,,,,,2.2814,,,,,,,,,,,,,,,,,,,,,,6103508e0a0d600eaac0a294,6103686938f9927b499bc0f9,2021-07-29_20h57.46.887,Simcolourproject_2stim_asymm_v5,2020.2.10,Win32,60,61025ae37ef11b136ea224fe,,,,,,,,,2785,53.60001224,83.99999481,1,0,0,response1disk,,7,18.40001172,4.799993634,1,0,0,rectangle,18.40001172,4.799993634,1,0,0,18.40001172,4.799993634,1,0,0,1,48,208,42,1,,,,,,,,
,,,,,,,,,,,,,FF,,,,,,,,0.7993,,,,,,,,,,,,,,,,,,,,,,6103508e0a0d600eaac0a294,6103686938f9927b499bc0f9,2021-07-29_20h57.46.887,Simcolourproject_2stim_asymm_v5,2020.2.10,Win32,60,61025ae37ef11b136ea224fe,,,,,,,,,1638,44.0000121,83.19997039,1,0,0,response1disk,,7,12.80001163,4.799993634,1,0,0,rectangle,12.80001163,4.799993634,1,0,0,12.80001163,4.799993634,1,0,0,1,49,209,136,1,,,,,,,,
,,,,,,,,,,,,,FF,,,,,,,,1.4655,,,,,,,,,,,,,,,,,,,,,,6103508e0a0d600eaac0a294,6103686938f9927b499bc0f9,2021-07-29_20h57.46.887,Simcolourproject_2stim_asymm_v5,2020.2.10,Win32,60,61025ae37ef11b136ea224fe,,,,,,,,,2217,55.20001227,-84.8000077,1,0,0,response3disk,,4,-2.399939764,-4.000006497,1,0,0,rectangle,72.00001252,47.19996985,1,0,0,18.40001172,-0.800006449,1,0,0,1,50,210,8,1,,response1disk_3,TRUE,6,6,"[219,213,211,311,130,170,125,167,287,192,63,135,10,145,121,5,25,170,58,196]",1.4318,rectangle
,,,,,,,,,,,,,FF,,,,,,,,2.5144,,,,,,,,,,,,,,,,,,,,,,6103508e0a0d600eaac0a294,6103686938f9927b499bc0f9,2021-07-29_20h57.46.887,Simcolourproject_2stim_asymm_v5,2020.2.10,Win32,60,61025ae37ef11b136ea224fe,,,,,,,,,3325,58.40001231,95.99999499,1,0,0,response1disk,,7,22.40001178,0.799993575,1,0,0,rectangle,22.40001178,0.799993575,1,0,0,22.40001178,0.799993575,1,0,0,1,51,211,35,1,,,,,,,,
,,,,,,,,,,,,,FF,,,,,,,,0.8327,,,,,,,,,,,,,,,,,,,,,,6103508e0a0d600eaac0a294,6103686938f9927b499bc0f9,2021-07-29_20h57.46.887,Simcolourproject_2stim_asymm_v5,2020.2.10,Win32,60,61025ae37ef11b136ea224fe,,,,,,,,,442,75.20001256,50.39999431,1,0,0,response1disk,,6,23.20001179,-6.4373E-06,1,0,0,rectangle,50.4000122,86.39999485,1,0,0,4.800011516,-5.600006521,1,0,0,1,52,212,91,1,,response1disk_3,TRUE,7,7,"[219,213,211,311,130,170,125,167,287,192,63,135,10,145,121,5,25,170,58,196]",1.4321,rectangle
,,,,,,,,,,,,,FF,,,,,,,,3.5968,,,,,,,,,,,,,,,,,,,,,,6103508e0a0d600eaac0a294,6103686938f9927b499bc0f9,2021-07-29_20h57.46.887,Simcolourproject_2stim_asymm_v5,2020.2.10,Win32,60,61025ae37ef11b136ea224fe,,,,,,,,,4015,47.20001215,87.19997045,1,0,0,response1disk,,7,8.800011575,-6.4373E-06,1,0,0,rectangle,8.800011575,-6.4373E-06,1,0,0,8.800011575,-6.4373E-06,1,0,0,1,53,213,34,1,,,,,,,,
,,,,,,,,,,,,,FF,,,,,,,,2.1813,,,,,,,,,,,,,,,,,,,,,,6103508e0a0d600eaac0a294,6103686938f9927b499bc0f9,2021-07-29_20h57.46.887,Simcolourproject_2stim_asymm_v5,2020.2.10,Win32,60,61025ae37ef11b136ea224fe,,,,,,,,,1574,64.0000124,37.59999412,1,0,0,response1disk,,6,14.40001166,10.39999372,1,0,0,rectangle,14.40001166,10.39999372,1,0,0,14.40001166,10.39999372,1,0,0,1,54,214,104,1,,,,,,,,
,,,,,,,,,,,,,FF,,,,,,,,1.3645,,,,,,,,,,,,,,,,,,,,,,6103508e0a0d600eaac0a294,6103686938f9927b499bc0f9,2021-07-29_20h57.46.887,Simcolourproject_2stim_asymm_v5,2020.2.10,Win32,60,61025ae37ef11b136ea224fe,,,,,,,,,2989,57.6000123,45.59999424,1,0,0,response1disk,,6,15.20001167,7.999993682,1,0,0,rectangle,15.20001167,7.999993682,1,0,0,15.20001167,7.999993682,1,0,0,1,55,215,26,1,,,,,,,,
,,,,,,,,,,,,,FF,,,,,,,,0.6162,,,,,,,,,,,,,,,,,,,,,,6103508e0a0d600eaac0a294,6103686938f9927b499bc0f9,2021-07-29_20h57.46.887,Simcolourproject_2stim_asymm_v5,2020.2.10,Win32,60,61025ae37ef11b136ea224fe,,,,,,,,,1723,46.40001214,87.99999487,1,0,0,response1disk,,7,12.00001162,3.19999361,1,0,0,rectangle,12.00001162,3.19999361,1,0,0,12.00001162,3.19999361,1,0,0,1,56,216,132,1,,,,,,,,
,,,,,,,,,,,,,FF,,,,,,,,1.0821,,,,,,,,,,,,,,,,,,,,,,6103508e0a0d600eaac0a294,6103686938f9927b499bc0f9,2021-07-29_20h57.46.887,Simcolourproject_2stim_asymm_v5,2020.2.10,Win32,60,61025ae37ef11b136ea224fe,,,,,,,,,1454,-35.99998909,-78.40000761,1,0,0,response5disk,,3,3.200011492,-0.800006449,1,0,0,rectangle,3.200011492,-0.800006449,1,0,0,3.200011492,-0.800006449,1,0,0,1,57,217,64,1,,,,,,,,
,,,,,,,,,,,,,FF,,,,,,,,1.6484,,,,,,,,,,,,,,,,,,,,,,6103508e0a0d600eaac0a294,6103686938f9927b499bc0f9,2021-07-29_20h57.46.887,Simcolourproject_2stim_asymm_v5,2020.2.10,Win32,60,61025ae37ef11b136ea224fe,,,,,,,,,2881,80.00001264,-30.40000689,1,0,0,response3disk,,5,12.80001163,3.19999361,1,0,0,rectangle,33.60006077,-79.20000762,1,0,0,-7.999988675,-6.4373E-06,1,0,0,1,58,218,92,1,,response3disk_3,TRUE,4,4,"[219,213,211,311,130,170,125,167,287,192,63,135,10,145,121,5,25,170,58,196]",1.7149,rectangle
,,,,,,,,,,,,,FF,,,,,,,,2.148,,,,,,,,,,,,,,,,,,,,,,6103508e0a0d600eaac0a294,6103686938f9927b499bc0f9,2021-07-29_20h57.46.887,Simcolourproject_2stim_asymm_v5,2020.2.10,Win32,60,61025ae37ef11b136ea224fe,,,,,,,,,2940,-87.99998987,-32.80000693,1,0,0,response5disk,,2,4.000011504,9.599993706,1,0,0,rectangle,4.000011504,9.599993706,1,0,0,4.000011504,9.599993706,1,0,0,1,59,219,36,1,,,,,,,,
,,,,,,,,,,,,,FF,,,,,,,,1.0351,,,,,,,,,,,,,,,,,,,,,,6103508e0a0d600eaac0a294,6103686938f9927b499bc0f9,2021-07-29_20h57.46.887,Simcolourproject_2stim_asymm_v5,2020.2.10,Win32,60,61025ae37ef11b136ea224fe,,,,,,,,,4335,-76.7999897,41.59999418,1,0,0,response7disk,,1,-19.19998884,3.19999361,1,0,0,rectangle,-19.19998884,3.19999361,1,0,0,-19.19998884,3.19999361,1,0,0,1,60,220,99,1,,,,,,,,
,,,,,,,,,,,,,FF,,,,,,,,3.0472,,,,,,,,,,,,,,,,,,,,,,6103508e0a0d600eaac0a294,6103686938f9927b499bc0f9,2021-07-29_20h57.46.887,Simcolourproject_2stim_asymm_v5,2020.2.10,Win32,60,61025ae37ef11b136ea224fe,,,,,,,,,378,78.40001261,48.79999429,1,0,0,response1disk,,6,-17.59998882,-9.60000658,1,0,0,rectangle,-17.59998882,-9.60000658,1,0,0,-17.59998882,-9.60000658,1,0,0,1,61,221,32,1,,,,,,,,
,,,,,,,,,,,,,FF,,,,,,,,1.6332,,,,,,,,,,,,,,,,,,,,,,6103508e0a0d600eaac0a294,6103686938f9927b499bc0f9,2021-07-29_20h57.46.887,Simcolourproject_2stim_asymm_v5,2020.2.10,Win32,60,61025ae37ef11b136ea224fe,,,,,,,,,3848,48.00001216,-90.40000778,1,0,0,response3disk,,4,-3.199988604,-2.400006473,1,0,0,rectangle,-3.199988604,-2.400006473,1,0,0,-3.199988604,-2.400006473,1,0,0,1,62,222,45,1,,,,,,,,
,,,,,,,,,,,,,FF,,,,,,,,1.5985,,,,,,,,,,,,,,,,,,,,,,6103508e0a0d600eaac0a294,6103686938f9927b499bc0f9,2021-07-29_20h57.46.887,Simcolourproject_2stim_asymm_v5,2020.2.10,Win32,60,61025ae37ef11b136ea224fe,,,,,,,,,4253,76.00001258,-49.60000718,1,0,0,response3disk,,5,7.200011551,3.19999361,1,0,0,rectangle,7.200011551,3.19999361,1,0,0,7.200011551,3.19999361,1,0,0,1,63,223,131,1,,,,,,,,
,,,,,,,,,,,,,FF,,,,,,,,1.5155,,,,,,,,,,,,,,,,,,,,,,6103508e0a0d600eaac0a294,6103686938f9927b499bc0f9,2021-07-29_20h57.46.887,Simcolourproject_2stim_asymm_v5,2020.2.10,Win32,60,61025ae37ef11b136ea224fe,,,,,,,,,805,76.00001258,37.59999412,1,0,0,response1disk,,6,-3.199988604,-1.600006461,1,0,0,rectangle,-3.199988604,-1.600006461,1,0,0,-3.199988604,-1.600006461,1,0,0,1,64,224,65,1,,,,,,,,
,,,,,,,,,,,,,FF,,,,,,,,1.0657,,,,,,,,,,,,,,,,,,,,,,6103508e0a0d600eaac0a294,6103686938f9927b499bc0f9,2021-07-29_20h57.46.887,Simcolourproject_2stim_asymm_v5,2020.2.10,Win32,60,61025ae37ef11b136ea224fe,,,,,,,,,4343,-60.79998946,23.19996949,1,0,0,response7disk,,1,12.00001162,-6.400006533,1,0,0,rectangle,12.00001162,-6.400006533,1,0,0,12.00001162,-6.400006533,1,0,0,1,65,225,71,1,,,,,,,,
,,,,,,,,,,,,,FF,,,,,,,,2.0816,,,,,,,,,,,,,,,,,,,,,,6103508e0a0d600eaac0a294,6103686938f9927b499bc0f9,2021-07-29_20h57.46.887,Simcolourproject_2stim_asymm_v5,2020.2.10,Win32,60,61025ae37ef11b136ea224fe,,,,,,,,,3959,29.60006071,85.59999484,1,0,0,response1disk,,7,12.00001162,10.39999372,1,0,0,rectangle,12.00001162,10.39999372,1,0,0,12.00001162,10.39999372,1,0,0,1,66,226,97,1,,,,,,,,
,,,,,,,,,,,,,FF,,,,,,,,0.7662,,,,,,,,,,,,,,,,,,,,,,6103508e0a0d600eaac0a294,6103686938f9927b499bc0f9,2021-07-29_20h57.46.887,Simcolourproject_2stim_asymm_v5,2020.2.10,Win32,60,61025ae37ef11b136ea224fe,,,,,,,,,4013,55.20001227,96.79999501,1,0,0,response1disk,,7,4.000011504,2.399993598,1,0,0,rectangle,4.000011504,2.399993598,1,0,0,4.000011504,2.399993598,1,0,0,1,67,227,127,1,,,,,,,,
,,,,,,,,,,,,,FF,,,,,,,,1.615,,,,,,,,,,,,,,,,,,,,,,6103508e0a0d600eaac0a294,6103686938f9927b499bc0f9,2021-07-29_20h57.46.887,Simcolourproject_2stim_asymm_v5,2020.2.10,Win32,60,61025ae37ef11b136ea224fe,,,,,,,,,2847,83.20001268,-37.600007,1,0,0,response3disk,,5,5.600060356,10.39999372,1,0,0,rectangle,5.600060356,10.39999372,1,0,0,5.600060356,10.39999372,1,0,0,1,68,228,13,1,,,,,,,,
,,,,,,,,,,,,,FF,,,,,,,,1.249,,,,,,,,,,,,,,,,,,,,,,6103508e0a0d600eaac0a294,6103686938f9927b499bc0f9,2021-07-29_20h57.46.887,Simcolourproject_2stim_asymm_v5,2020.2.10,Win32,60,61025ae37ef11b136ea224fe,,,,,,,,,2433,68.00001246,26.39999396,1,0,0,response1disk,,6,1.600060296,5.599993646,1,0,0,rectangle,1.600060296,5.599993646,1,0,0,1.600060296,5.599993646,1,0,0,1,69,229,19,1,,,,,,,,
,,,,,,,,,,,,,FF,,,,,,,,2.4977,,,,,,,,,,,,,,,,,,,,,,6103508e0a0d600eaac0a294,6103686938f9927b499bc0f9,2021-07-29_20h57.46.887,Simcolourproject_2stim_asymm_v5,2020.2.10,Win32,60,61025ae37ef11b136ea224fe,,,,,,,,,59,38.40001202,94.39999497,1,0,0,response1disk,,7,-3.199988604,6.399993658,1,0,0,rectangle,-3.199988604,6.399993658,1,0,0,-3.199988604,6.399993658,1,0,0,1,70,230,6,1,,,,,,,,
,,,,,,,,,,,,,FF,,,,,,,,1.8314,,,,,,,,,,,,,,,,,,,,,,6103508e0a0d600eaac0a294,6103686938f9927b499bc0f9,2021-07-29_20h57.46.887,Simcolourproject_2stim_asymm_v5,2020.2.10,Win32,60,61025ae37ef11b136ea224fe,,,,,,,,,706,51.20001221,99.99999505,1,0,0,response1disk,,7,2.40001148,-4.800006509,1,0,0,rectangle,2.40001148,-4.800006509,1,0,0,2.40001148,-4.800006509,1,0,0,1,71,231,88,1,,,,,,,,
,,,,,,,,,,,,,FF,,,,,,,,0.9993,,,,,,,,,,,,,,,,,,,,,,6103508e0a0d600eaac0a294,6103686938f9927b499bc0f9,2021-07-29_20h57.46.887,Simcolourproject_2stim_asymm_v5,2020.2.10,Win32,60,61025ae37ef11b136ea224fe,,,,,,,,,2567,32.80001193,80.79999477,1,0,0,response1disk,,7,2.40001148,5.599993646,1,0,0,rectangle,2.40001148,5.599993646,1,0,0,2.40001148,5.599993646,1,0,0,1,72,232,137,1,,,,,,,,
,,,,,,,,,,,,,FF,,,,,,,,0.7825,,,,,,,,,,,,,,,,,,,,,,6103508e0a0d600eaac0a294,6103686938f9927b499bc0f9,2021-07-29_20h57.46.887,Simcolourproject_2stim_asymm_v5,2020.2.10,Win32,60,61025ae37ef11b136ea224fe,,,,,,,,,3588,75.20001256,40.79999417,1,0,0,response1disk,,6,8.800011575,-6.400006533,1,0,0,rectangle,8.800011575,-6.400006533,1,0,0,8.800011575,-6.400006533,1,0,0,1,73,233,112,1,,,,,,,,
,,,,,,,,,,,,,FF,,,,,,,,1.182,,,,,,,,,,,,,,,,,,,,,,6103508e0a0d600eaac0a294,6103686938f9927b499bc0f9,2021-07-29_20h57.46.887,Simcolourproject_2stim_asymm_v5,2020.2.10,Win32,60,61025ae37ef11b136ea224fe,,,,,,,,,2,-31.99998903,-110.4000081,1,0,0,response5disk,,3,14.40001166,-2.400006473,1,0,0,rectangle,14.40001166,-2.400006473,1,0,0,14.40001166,-2.400006473,1,0,0,1,74,234,75,1,,,,,,,,
,,,,,,,,,,,,,FF,,,,,,,,0.9491,,,,,,,,,,,,,,,,,,,,,,6103508e0a0d600eaac0a294,6103686938f9927b499bc0f9,2021-07-29_20h57.46.887,Simcolourproject_2stim_asymm_v5,2020.2.10,Win32,60,61025ae37ef11b136ea224fe,,,,,,,,,3526,51.20001221,60.79999447,1,0,0,response1disk,,7,9.600060415,3.19999361,1,0,0,rectangle,9.600060415,3.19999361,1,0,0,9.600060415,3.19999361,1,0,0,1,75,235,43,1,,,,,,,,
,,,,,,,,,,,,,FF,,,,,,,,0.7158,,,,,,,,,,,,,,,,,,,,,,6103508e0a0d600eaac0a294,6103686938f9927b499bc0f9,2021-07-29_20h57.46.887,Simcolourproject_2stim_asymm_v5,2020.2.10,Win32,60,61025ae37ef11b136ea224fe,,,,,,,,,2269,43.20001209,102.3999951,1,0,0,response1disk,,7,-3.199988604,0.799993575,1,0,0,rectangle,-3.199988604,0.799993575,1,0,0,-3.199988604,0.799993575,1,0,0,1,76,236,86,1,,,,,,,,
,,,,,,,,,,,,,FF,,,,,,,,0.8992,,,,,,,,,,,,,,,,,,,,,,6103508e0a0d600eaac0a294,6103686938f9927b499bc0f9,2021-07-29_20h57.46.887,Simcolourproject_2stim_asymm_v5,2020.2.10,Win32,60,61025ae37ef11b136ea224fe,,,,,,,,,1037,24.0000118,60.79999447,1,0,0,response1disk,,7,-7.199988663,2.399993598,1,0,0,rectangle,-7.199988663,2.399993598,1,0,0,-7.199988663,2.399993598,1,0,0,1,77,237,94,1,,,,,,,,
,,,,,,,,,,,,,FF,,,,,,,,0.533,,,,,,,,,,,,,,,,,,,,,,6103508e0a0d600eaac0a294,6103686938f9927b499bc0f9,2021-07-29_20h57.46.887,Simcolourproject_2stim_asymm_v5,2020.2.10,Win32,60,61025ae37ef11b136ea224fe,,,,,,,,,3018,49.60006101,90.39999491,1,0,0,response1disk,,7,17.60006053,7.19999367,1,0,0,rectangle,17.60006053,7.19999367,1,0,0,17.60006053,7.19999367,1,0,0,1,78,238,93,1,,,,,,,,
,,,,,,,,,,,,,FF,,,,,,,,0.4826,,,,,,,,,,,,,,,,,,,,,,6103508e0a0d600eaac0a294,6103686938f9927b499bc0f9,2021-07-29_20h57.46.887,Simcolourproject_2stim_asymm_v5,2020.2.10,Win32,60,61025ae37ef11b136ea224fe,,,,,,,,,2953,45.60006095,86.39999485,1,0,0,response1disk,,7,9.600060415,3.19999361,1,0,0,rectangle,9.600060415,3.19999361,1,0,0,9.600060415,3.19999361,1,0,0,1,79,239,40,1,,,,,,,,
,,,,,,,,,,,,,FF,,,,,,,,3.4138,,,,,,,,,,,,,,,,,,,,,,6103508e0a0d600eaac0a294,6103686938f9927b499bc0f9,2021-07-29_20h57.46.887,Simcolourproject_2stim_asymm_v5,2020.2.10,Win32,60,61025ae37ef11b136ea224fe,,,,,,,,,1055,68.00001246,51.99999434,1,0,0,response1disk,,6,20.80001175,8.799993694,1,0,0,rectangle,20.80001175,8.799993694,1,0,0,20.80001175,8.799993694,1,0,0,1,80,240,17,1,,,,,,,,
,,,,,,,,,,,,,FF,,,,,,,,1.4652,,,,,,,,,,,,,,,,,,,,,,6103508e0a0d600eaac0a294,6103686938f9927b499bc0f9,2021-07-29_20h57.46.887,Simcolourproject_2stim_asymm_v5,2020.2.10,Win32,60,61025ae37ef11b136ea224fe,,,,,,,,,740,54.40001225,-92.80000782,1,0,0,response3disk,,4,-1.59998858,6.399993658,1,0,0,rectangle,-1.59998858,6.399993658,1,0,0,-1.59998858,6.399993658,1,0,0,1,81,241,98,1,,,,,,,,
,,,,,,,,,,,,,FF,,,,,,,,1.9483,,,,,,,,,,,,,,,,,,,,,,6103508e0a0d600eaac0a294,6103686938f9927b499bc0f9,2021-07-29_20h57.46.887,Simcolourproject_2stim_asymm_v5,2020.2.10,Win32,60,61025ae37ef11b136ea224fe,,,,,,,,,3126,39.20001203,87.19997045,1,0,0,response1disk,,7,0.800011456,11.99999374,1,0,0,rectangle,0.800011456,11.99999374,1,0,0,0.800011456,11.99999374,1,0,0,1,82,242,60,1,,,,,,,,
,,,,,,,,,,,,,FF,,,,,,,,1.2155,,,,,,,,,,,,,,,,,,,,,,6103508e0a0d600eaac0a294,6103686938f9927b499bc0f9,2021-07-29_20h57.46.887,Simcolourproject_2stim_asymm_v5,2020.2.10,Win32,60,61025ae37ef11b136ea224fe,,,,,,,,,76,40.00001204,77.59999472,1,0,0,response1disk,,7,4.800011516,7.19999367,1,0,0,rectangle,4.800011516,7.19999367,1,0,0,4.800011516,7.19999367,1,0,0,1,83,243,139,1,,,,,,,,
