key_resp.keys,key_resp.rt,key_resp_14.keys,key_resp_14.rt,key_resp_15.keys,key_resp_15.rt,key_resp_17.keys,key_resp_17.rt,key_resp_9.keys,key_resp_9.rt,key_resp_10.keys,key_resp_10.rt,practice_comparison,Ecc,mouse_5.x,mouse_5.y,mouse_5.leftButton,mouse_5.midButton,mouse_5.rightButton,mouse_5.clicked_name,pracsimilarity,response_time,mouse_10.x,mouse_10.y,mouse_10.leftButton,mouse_10.midButton,mouse_10.rightButton,mouse_10.clicked_name,mouse_7.x,mouse_7.y,mouse_7.leftButton,mouse_7.midButton,mouse_7.rightButton,mouse_6.x,mouse_6.y,mouse_6.leftButton,mouse_6.midButton,mouse_6.rightButton,duringprac.thisRepN,duringprac.thisTrialN,duringprac.thisN,duringprac.thisIndex,duringprac.ran,participant,session,date,expName,psychopyVersion,OS,frameRate,study_id,mouse_7.clicked_name,catchpracsimilarity,catch_response_time,catchnumberprac,catchtrialorderprac,mouse_6.clicked_name,key_resp_22.keys,key_resp_22.rt,realcomparison,mouse.x,mouse.y,mouse.leftButton,mouse.midButton,mouse.rightButton,mouse.clicked_name,Colour2,similarity,mouse_2.x,mouse_2.y,mouse_2.leftButton,mouse_2.midButton,mouse_2.rightButton,mouse_2.clicked_name,mouse_3.x,mouse_3.y,mouse_3.leftButton,mouse_3.midButton,mouse_3.rightButton,mouse_11.x,mouse_11.y,mouse_11.leftButton,mouse_11.midButton,mouse_11.rightButton,trials_2.thisRepN,trials_2.thisTrialN,trials_2.thisN,trials_2.thisIndex,trials_2.ran,Colour1,mouse_3.clicked_name,catchornah,catchsimilarity,catchnumber,catchtrialorder,catchRT,mouse_11.clicked_name
space,3.0435,space,16.5984,space,19.398,space,7.0583,space,5.7933,space,4.5991,39,PF,54,-80,1,0,0,response3disk_5,4,12.945,5,-7,1,0,0,rectangle_8,5,-7,1,0,0,5,-7,1,0,0,0,0,0,6,1,61033b09439a14035d77fc22,61036ba57baab5273ba77caf,2021-07-29_23h02.23.271,Simcolourproject_2stim_asymm_v5,2020.2.10,Win32,60,61025ae37ef11b136ea224fe,,,,,,,,,,,,,,,,,,,,,,,,,,,,,,,,,,,,,,,,,,,,,,
,,,,,,,,,,,,157,PF,44,-79,1,0,0,response3disk_5,4,4.277,12,-12,1,0,0,rectangle_8,-28,-74,1,0,0,-11,5,1,0,0,0,1,1,2,1,61033b09439a14035d77fc22,61036ba57baab5273ba77caf,2021-07-29_23h02.23.271,Simcolourproject_2stim_asymm_v5,2020.2.10,Win32,60,61025ae37ef11b136ea224fe,response5disk_7,3,5.9609,3,"[2,5]",rectangle_4,,,,,,,,,,,,,,,,,,,,,,,,,,,,,,,,,,,,,,,,
,,,,,,,,,,,,56,PF,79,47,1,0,0,response1disk_5,6,9.8563,20,11,1,0,0,rectangle_8,20,11,1,0,0,20,11,1,0,0,0,2,2,1,1,61033b09439a14035d77fc22,61036ba57baab5273ba77caf,2021-07-29_23h02.23.271,Simcolourproject_2stim_asymm_v5,2020.2.10,Win32,60,61025ae37ef11b136ea224fe,,,,,,,,,,,,,,,,,,,,,,,,,,,,,,,,,,,,,,,,,,,,,,
,,,,,,,,,,,,123,FF,-87,33,1,0,0,response7disk_5,1,4.6621,4,-6,1,0,0,rectangle_8,4,-6,1,0,0,4,-6,1,0,0,0,3,3,5,1,61033b09439a14035d77fc22,61036ba57baab5273ba77caf,2021-07-29_23h02.23.271,Simcolourproject_2stim_asymm_v5,2020.2.10,Win32,60,61025ae37ef11b136ea224fe,,,,,,,,,,,,,,,,,,,,,,,,,,,,,,,,,,,,,,,,,,,,,,
,,,,,,,,,,,,13,FF,-79,-57,1,0,0,response5disk_5,2,1.8477,3,5,1,0,0,rectangle_8,-41,-89,1,0,0,-8,-6,1,0,0,0,4,4,0,1,61033b09439a14035d77fc22,61036ba57baab5273ba77caf,2021-07-29_23h02.23.271,Simcolourproject_2stim_asymm_v5,2020.2.10,Win32,60,61025ae37ef11b136ea224fe,response5disk_7,3,2.4643,3,"[2,5]",rectangle_4,,,,,,,,,,,,,,,,,,,,,,,,,,,,,,,,,,,,,,,,
,,,,,,,,,,,,32,FF,89,-33,1,0,0,response3disk_5,5,2.6638,10,-7,1,0,0,rectangle_8,10,-7,1,0,0,10,-7,1,0,0,0,5,5,3,1,61033b09439a14035d77fc22,61036ba57baab5273ba77caf,2021-07-29_23h02.23.271,Simcolourproject_2stim_asymm_v5,2020.2.10,Win32,60,61025ae37ef11b136ea224fe,,,,,,,,,,,,,,,,,,,,,,,,,,,,,,,,,,,,,,,,,,,,,,
,,,,,,,,,,,,143,PF,-52,-72,1,0,0,response5disk_5,3,1.1659,-1,3,1,0,0,rectangle_8,-1,3,1,0,0,-1,3,1,0,0,0,6,6,4,1,61033b09439a14035d77fc22,61036ba57baab5273ba77caf,2021-07-29_23h02.23.271,Simcolourproject_2stim_asymm_v5,2020.2.10,Win32,60,61025ae37ef11b136ea224fe,,,,,,,,,,,,,,,,,,,,,,,,,,,,,,,,,,,,,,,,,,,,,,
,,,,,,,,,,,,,FF,,,,,,,,1.6489,,,,,,,,,,,,,,,,,,,,,,61033b09439a14035d77fc22,61036ba57baab5273ba77caf,2021-07-29_23h02.23.271,Simcolourproject_2stim_asymm_v5,2020.2.10,Win32,60,61025ae37ef11b136ea224fe,,,,,,,space,3.9933,3882,111,46,1,0,0,response1disk,,6,1,-4,1,0,0,rectangle,1,-4,1,0,0,1,-4,1,0,0,0,0,0,20,1,,,,,,,,
,,,,,,,,,,,,,FF,,,,,,,,1.4302,,,,,,,,,,,,,,,,,,,,,,61033b09439a14035d77fc22,61036ba57baab5273ba77caf,2021-07-29_23h02.23.271,Simcolourproject_2stim_asymm_v5,2020.2.10,Win32,60,61025ae37ef11b136ea224fe,,,,,,,,,304,38,-65,1,0,0,response3disk,,4,4,7,1,0,0,rectangle,4,7,1,0,0,4,7,1,0,0,0,1,1,151,1,,,,,,,,
,,,,,,,,,,,,,FF,,,,,,,,1.8325,,,,,,,,,,,,,,,,,,,,,,61033b09439a14035d77fc22,61036ba57baab5273ba77caf,2021-07-29_23h02.23.271,Simcolourproject_2stim_asymm_v5,2020.2.10,Win32,60,61025ae37ef11b136ea224fe,,,,,,,,,228,63,23,1,0,0,response1disk,,6,19,-8,1,0,0,rectangle,19,-8,1,0,0,19,-8,1,0,0,0,2,2,54,1,,,,,,,,
,,,,,,,,,,,,,FF,,,,,,,,0.8794,,,,,,,,,,,,,,,,,,,,,,61033b09439a14035d77fc22,61036ba57baab5273ba77caf,2021-07-29_23h02.23.271,Simcolourproject_2stim_asymm_v5,2020.2.10,Win32,60,61025ae37ef11b136ea224fe,,,,,,,,,4114,-53,-26,1,0,0,response5disk,,2,-3,13,1,0,0,rectangle,-3,13,1,0,0,-3,13,1,0,0,0,3,3,64,1,,,,,,,,
,,,,,,,,,,,,,FF,,,,,,,,0.6815,,,,,,,,,,,,,,,,,,,,,,61033b09439a14035d77fc22,61036ba57baab5273ba77caf,2021-07-29_23h02.23.271,Simcolourproject_2stim_asymm_v5,2020.2.10,Win32,60,61025ae37ef11b136ea224fe,,,,,,,,,2925,85,23,1,0,0,response1disk,,6,10,-1,1,0,0,rectangle,10,-1,1,0,0,10,-1,1,0,0,0,4,4,111,1,,,,,,,,
,,,,,,,,,,,,,FF,,,,,,,,0.8478,,,,,,,,,,,,,,,,,,,,,,61033b09439a14035d77fc22,61036ba57baab5273ba77caf,2021-07-29_23h02.23.271,Simcolourproject_2stim_asymm_v5,2020.2.10,Win32,60,61025ae37ef11b136ea224fe,,,,,,,,,3144,-42,-68,1,0,0,response5disk,,3,-7,-8,1,0,0,rectangle,-7,-8,1,0,0,-7,-8,1,0,0,0,5,5,12,1,,,,,,,,
,,,,,,,,,,,,,FF,,,,,,,,1.4185,,,,,,,,,,,,,,,,,,,,,,61033b09439a14035d77fc22,61036ba57baab5273ba77caf,2021-07-29_23h02.23.271,Simcolourproject_2stim_asymm_v5,2020.2.10,Win32,60,61025ae37ef11b136ea224fe,,,,,,,,,3473,-37,40,1,0,0,response7disk,,0,1,7,1,0,0,rectangle,1,7,1,0,0,1,7,1,0,0,0,6,6,108,1,,,,,,,,
,,,,,,,,,,,,,FF,,,,,,,,0.8666,,,,,,,,,,,,,,,,,,,,,,61033b09439a14035d77fc22,61036ba57baab5273ba77caf,2021-07-29_23h02.23.271,Simcolourproject_2stim_asymm_v5,2020.2.10,Win32,60,61025ae37ef11b136ea224fe,,,,,,,,,3769,-44,-46,1,0,0,response5disk,,3,-6,-1,1,0,0,rectangle,73,-48,1,0,0,16,-10,1,0,0,0,7,7,78,1,,response3disk_3,TRUE,5,5,"[138,8,123,96,60,110,94,180,47,279,271,234,191,207,279,176,232,160,110,225]",3.8176,rectangle
,,,,,,,,,,,,,FF,,,,,,,,1.132,,,,,,,,,,,,,,,,,,,,,,61033b09439a14035d77fc22,61036ba57baab5273ba77caf,2021-07-29_23h02.23.271,Simcolourproject_2stim_asymm_v5,2020.2.10,Win32,60,61025ae37ef11b136ea224fe,,,,,,,,,2666,103,39,1,0,0,response1disk,,6,7,-7,1,0,0,rectangle,7,-7,1,0,0,7,-7,1,0,0,0,8,8,141,1,,,,,,,,
,,,,,,,,,,,,,FF,,,,,,,,0.8482,,,,,,,,,,,,,,,,,,,,,,61033b09439a14035d77fc22,61036ba57baab5273ba77caf,2021-07-29_23h02.23.271,Simcolourproject_2stim_asymm_v5,2020.2.10,Win32,60,61025ae37ef11b136ea224fe,,,,,,,,,1065,50,84,1,0,0,response1disk,,7,10,4,1,0,0,rectangle,10,4,1,0,0,10,4,1,0,0,0,9,9,158,1,,,,,,,,
,,,,,,,,,,,,,FF,,,,,,,,1.0465,,,,,,,,,,,,,,,,,,,,,,61033b09439a14035d77fc22,61036ba57baab5273ba77caf,2021-07-29_23h02.23.271,Simcolourproject_2stim_asymm_v5,2020.2.10,Win32,60,61025ae37ef11b136ea224fe,,,,,,,,,1173,88,36,1,0,0,response1disk,,6,7,0,1,0,0,rectangle,7,0,1,0,0,7,0,1,0,0,0,10,10,30,1,,,,,,,,
,,,,,,,,,,,,,FF,,,,,,,,1.1513,,,,,,,,,,,,,,,,,,,,,,61033b09439a14035d77fc22,61036ba57baab5273ba77caf,2021-07-29_23h02.23.271,Simcolourproject_2stim_asymm_v5,2020.2.10,Win32,60,61025ae37ef11b136ea224fe,,,,,,,,,3173,50,-90,1,0,0,response3disk,,4,9,-7,1,0,0,rectangle,9,-7,1,0,0,9,-7,1,0,0,0,11,11,129,1,,,,,,,,
,,,,,,,,,,,,,FF,,,,,,,,0.616,,,,,,,,,,,,,,,,,,,,,,61033b09439a14035d77fc22,61036ba57baab5273ba77caf,2021-07-29_23h02.23.271,Simcolourproject_2stim_asymm_v5,2020.2.10,Win32,60,61025ae37ef11b136ea224fe,,,,,,,,,2974,83,-45,1,0,0,response3disk,,5,12,-7,1,0,0,rectangle,12,-7,1,0,0,12,-7,1,0,0,0,12,12,143,1,,,,,,,,
,,,,,,,,,,,,,FF,,,,,,,,0.78,,,,,,,,,,,,,,,,,,,,,,61033b09439a14035d77fc22,61036ba57baab5273ba77caf,2021-07-29_23h02.23.271,Simcolourproject_2stim_asymm_v5,2020.2.10,Win32,60,61025ae37ef11b136ea224fe,,,,,,,,,3201,-37,-81,1,0,0,response5disk,,3,11,-7,1,0,0,rectangle,11,-7,1,0,0,11,-7,1,0,0,0,13,13,21,1,,,,,,,,
,,,,,,,,,,,,,FF,,,,,,,,0.9164,,,,,,,,,,,,,,,,,,,,,,61033b09439a14035d77fc22,61036ba57baab5273ba77caf,2021-07-29_23h02.23.271,Simcolourproject_2stim_asymm_v5,2020.2.10,Win32,60,61025ae37ef11b136ea224fe,,,,,,,,,2831,-75,46,1,0,0,response7disk,,1,-4,3,1,0,0,rectangle,-4,3,1,0,0,-4,3,1,0,0,0,14,14,74,1,,,,,,,,
,,,,,,,,,,,,,FF,,,,,,,,1.3508,,,,,,,,,,,,,,,,,,,,,,61033b09439a14035d77fc22,61036ba57baab5273ba77caf,2021-07-29_23h02.23.271,Simcolourproject_2stim_asymm_v5,2020.2.10,Win32,60,61025ae37ef11b136ea224fe,,,,,,,,,2056,95,26,1,0,0,response1disk,,6,4,0,1,0,0,rectangle,4,0,1,0,0,4,0,1,0,0,0,15,15,95,1,,,,,,,,
,,,,,,,,,,,,,FF,,,,,,,,0.733,,,,,,,,,,,,,,,,,,,,,,61033b09439a14035d77fc22,61036ba57baab5273ba77caf,2021-07-29_23h02.23.271,Simcolourproject_2stim_asymm_v5,2020.2.10,Win32,60,61025ae37ef11b136ea224fe,,,,,,,,,3596,-29,-70,1,0,0,response5disk,,3,20,1,1,0,0,rectangle,20,1,1,0,0,20,1,1,0,0,0,16,16,155,1,,,,,,,,
,,,,,,,,,,,,,FF,,,,,,,,0.9657,,,,,,,,,,,,,,,,,,,,,,61033b09439a14035d77fc22,61036ba57baab5273ba77caf,2021-07-29_23h02.23.271,Simcolourproject_2stim_asymm_v5,2020.2.10,Win32,60,61025ae37ef11b136ea224fe,,,,,,,,,4174,99,42,1,0,0,response1disk,,6,7,1,1,0,0,rectangle,7,1,1,0,0,7,1,1,0,0,0,17,17,123,1,,,,,,,,
,,,,,,,,,,,,,FF,,,,,,,,0.7664,,,,,,,,,,,,,,,,,,,,,,61033b09439a14035d77fc22,61036ba57baab5273ba77caf,2021-07-29_23h02.23.271,Simcolourproject_2stim_asymm_v5,2020.2.10,Win32,60,61025ae37ef11b136ea224fe,,,,,,,,,3257,87,-51,1,0,0,response3disk,,5,-4,4,1,0,0,rectangle,-4,4,1,0,0,-4,4,1,0,0,0,18,18,60,1,,,,,,,,
,,,,,,,,,,,,,FF,,,,,,,,1.2301,,,,,,,,,,,,,,,,,,,,,,61033b09439a14035d77fc22,61036ba57baab5273ba77caf,2021-07-29_23h02.23.271,Simcolourproject_2stim_asymm_v5,2020.2.10,Win32,60,61025ae37ef11b136ea224fe,,,,,,,,,2618,86,-48,1,0,0,response3disk,,5,-1,-4,1,0,0,rectangle,-1,-4,1,0,0,-1,-4,1,0,0,0,19,19,43,1,,,,,,,,
,,,,,,,,,,,,,FF,,,,,,,,0.7669,,,,,,,,,,,,,,,,,,,,,,61033b09439a14035d77fc22,61036ba57baab5273ba77caf,2021-07-29_23h02.23.271,Simcolourproject_2stim_asymm_v5,2020.2.10,Win32,60,61025ae37ef11b136ea224fe,,,,,,,,,2981,91,61,1,0,0,response1disk,,6,17,1,1,0,0,rectangle,17,1,1,0,0,17,1,1,0,0,0,20,20,73,1,,,,,,,,
,,,,,,,,,,,,,FF,,,,,,,,2.6814,,,,,,,,,,,,,,,,,,,,,,61033b09439a14035d77fc22,61036ba57baab5273ba77caf,2021-07-29_23h02.23.271,Simcolourproject_2stim_asymm_v5,2020.2.10,Win32,60,61025ae37ef11b136ea224fe,,,,,,,,,3995,98,-48,1,0,0,response3disk,,5,6,-2,1,0,0,rectangle,6,-2,1,0,0,6,-2,1,0,0,0,21,21,65,1,,,,,,,,
,,,,,,,,,,,,,FF,,,,,,,,1.8461,,,,,,,,,,,,,,,,,,,,,,61033b09439a14035d77fc22,61036ba57baab5273ba77caf,2021-07-29_23h02.23.271,Simcolourproject_2stim_asymm_v5,2020.2.10,Win32,60,61025ae37ef11b136ea224fe,,,,,,,,,2409,62,90,1,0,0,response1disk,,7,3,4,1,0,0,rectangle,3,4,1,0,0,3,4,1,0,0,0,22,22,128,1,,,,,,,,
,,,,,,,,,,,,,FF,,,,,,,,0.8633,,,,,,,,,,,,,,,,,,,,,,61033b09439a14035d77fc22,61036ba57baab5273ba77caf,2021-07-29_23h02.23.271,Simcolourproject_2stim_asymm_v5,2020.2.10,Win32,60,61025ae37ef11b136ea224fe,,,,,,,,,2538,-23,74,1,0,0,response7disk,,0,18,1,1,0,0,rectangle,18,1,1,0,0,18,1,1,0,0,0,23,23,135,1,,,,,,,,
,,,,,,,,,,,,,FF,,,,,,,,1.6984,,,,,,,,,,,,,,,,,,,,,,61033b09439a14035d77fc22,61036ba57baab5273ba77caf,2021-07-29_23h02.23.271,Simcolourproject_2stim_asymm_v5,2020.2.10,Win32,60,61025ae37ef11b136ea224fe,,,,,,,,,278,-37,-70,1,0,0,response5disk,,3,8,1,1,0,0,rectangle,8,1,1,0,0,8,1,1,0,0,0,24,24,101,1,,,,,,,,
,,,,,,,,,,,,,FF,,,,,,,,1.8979,,,,,,,,,,,,,,,,,,,,,,61033b09439a14035d77fc22,61036ba57baab5273ba77caf,2021-07-29_23h02.23.271,Simcolourproject_2stim_asymm_v5,2020.2.10,Win32,60,61025ae37ef11b136ea224fe,,,,,,,,,4081,84,-40,1,0,0,response3disk,,5,11,-2,1,0,0,rectangle,11,-2,1,0,0,11,-2,1,0,0,0,25,25,103,1,,,,,,,,
,,,,,,,,,,,,,FF,,,,,,,,1.6977,,,,,,,,,,,,,,,,,,,,,,61033b09439a14035d77fc22,61036ba57baab5273ba77caf,2021-07-29_23h02.23.271,Simcolourproject_2stim_asymm_v5,2020.2.10,Win32,60,61025ae37ef11b136ea224fe,,,,,,,,,892,44,-91,1,0,0,response3disk,,4,7,-15,1,0,0,rectangle,7,-15,1,0,0,7,-15,1,0,0,0,26,26,96,1,,,,,,,,
,,,,,,,,,,,,,FF,,,,,,,,0.8951,,,,,,,,,,,,,,,,,,,,,,61033b09439a14035d77fc22,61036ba57baab5273ba77caf,2021-07-29_23h02.23.271,Simcolourproject_2stim_asymm_v5,2020.2.10,Win32,60,61025ae37ef11b136ea224fe,,,,,,,,,2697,69,-45,1,0,0,response3disk,,5,5,0,1,0,0,rectangle,5,0,1,0,0,5,0,1,0,0,0,27,27,18,1,,,,,,,,
,,,,,,,,,,,,,FF,,,,,,,,1.4818,,,,,,,,,,,,,,,,,,,,,,61033b09439a14035d77fc22,61036ba57baab5273ba77caf,2021-07-29_23h02.23.271,Simcolourproject_2stim_asymm_v5,2020.2.10,Win32,60,61025ae37ef11b136ea224fe,,,,,,,,,1334,93,-42,1,0,0,response3disk,,5,-2,-4,1,0,0,rectangle,-2,-4,1,0,0,-2,-4,1,0,0,0,28,28,110,1,,,,,,,,
,,,,,,,,,,,,,FF,,,,,,,,2.1664,,,,,,,,,,,,,,,,,,,,,,61033b09439a14035d77fc22,61036ba57baab5273ba77caf,2021-07-29_23h02.23.271,Simcolourproject_2stim_asymm_v5,2020.2.10,Win32,60,61025ae37ef11b136ea224fe,,,,,,,,,2656,90,47,1,0,0,response1disk,,6,-1,-1,1,0,0,rectangle,-1,-1,1,0,0,-1,-1,1,0,0,0,29,29,14,1,,,,,,,,
,,,,,,,,,,,,,FF,,,,,,,,0.8328,,,,,,,,,,,,,,,,,,,,,,61033b09439a14035d77fc22,61036ba57baab5273ba77caf,2021-07-29_23h02.23.271,Simcolourproject_2stim_asymm_v5,2020.2.10,Win32,60,61025ae37ef11b136ea224fe,,,,,,,,,1021,95,47,1,0,0,response1disk,,6,-2,-3,1,0,0,rectangle,-2,-3,1,0,0,-2,-3,1,0,0,0,30,30,62,1,,,,,,,,
,,,,,,,,,,,,,FF,,,,,,,,1.3487,,,,,,,,,,,,,,,,,,,,,,61033b09439a14035d77fc22,61036ba57baab5273ba77caf,2021-07-29_23h02.23.271,Simcolourproject_2stim_asymm_v5,2020.2.10,Win32,60,61025ae37ef11b136ea224fe,,,,,,,,,956,40,-78,1,0,0,response3disk,,4,-4,-3,1,0,0,rectangle,-4,-3,1,0,0,-4,-3,1,0,0,0,31,31,124,1,,,,,,,,
,,,,,,,,,,,,,FF,,,,,,,,0.714,,,,,,,,,,,,,,,,,,,,,,61033b09439a14035d77fc22,61036ba57baab5273ba77caf,2021-07-29_23h02.23.271,Simcolourproject_2stim_asymm_v5,2020.2.10,Win32,60,61025ae37ef11b136ea224fe,,,,,,,,,540,-45,-91,1,0,0,response5disk,,3,4,-2,1,0,0,rectangle,4,-2,1,0,0,4,-2,1,0,0,0,32,32,120,1,,,,,,,,
,,,,,,,,,,,,,FF,,,,,,,,5.3919,,,,,,,,,,,,,,,,,,,,,,61033b09439a14035d77fc22,61036ba57baab5273ba77caf,2021-07-29_23h02.23.271,Simcolourproject_2stim_asymm_v5,2020.2.10,Win32,60,61025ae37ef11b136ea224fe,,,,,,,,,1309,48,-91,1,0,0,response3disk,,4,-16,13,1,0,0,rectangle,-16,13,1,0,0,-16,13,1,0,0,0,33,33,105,1,,,,,,,,
,,,,,,,,,,,,,FF,,,,,,,,1.4677,,,,,,,,,,,,,,,,,,,,,,61033b09439a14035d77fc22,61036ba57baab5273ba77caf,2021-07-29_23h02.23.271,Simcolourproject_2stim_asymm_v5,2020.2.10,Win32,60,61025ae37ef11b136ea224fe,,,,,,,,,2489,85,-44,1,0,0,response3disk,,5,-1,-4,1,0,0,rectangle,-1,-4,1,0,0,-1,-4,1,0,0,0,34,34,61,1,,,,,,,,
,,,,,,,,,,,,,FF,,,,,,,,0.6478,,,,,,,,,,,,,,,,,,,,,,61033b09439a14035d77fc22,61036ba57baab5273ba77caf,2021-07-29_23h02.23.271,Simcolourproject_2stim_asymm_v5,2020.2.10,Win32,60,61025ae37ef11b136ea224fe,,,,,,,,,930,94,47,1,0,0,response1disk,,6,-2,-13,1,0,0,rectangle,-2,-13,1,0,0,-2,-13,1,0,0,0,35,35,56,1,,,,,,,,
,,,,,,,,,,,,,FF,,,,,,,,0.6294,,,,,,,,,,,,,,,,,,,,,,61033b09439a14035d77fc22,61036ba57baab5273ba77caf,2021-07-29_23h02.23.271,Simcolourproject_2stim_asymm_v5,2020.2.10,Win32,60,61025ae37ef11b136ea224fe,,,,,,,,,1003,98,-47,1,0,0,response3disk,,5,0,-10,1,0,0,rectangle,0,-10,1,0,0,0,-10,1,0,0,0,36,36,66,1,,,,,,,,
,,,,,,,,,,,,,FF,,,,,,,,0.9314,,,,,,,,,,,,,,,,,,,,,,61033b09439a14035d77fc22,61036ba57baab5273ba77caf,2021-07-29_23h02.23.271,Simcolourproject_2stim_asymm_v5,2020.2.10,Win32,60,61025ae37ef11b136ea224fe,,,,,,,,,3780,-80,-46,1,0,0,response5disk,,2,-9,-15,1,0,0,rectangle,-9,-15,1,0,0,-9,-15,1,0,0,0,37,37,24,1,,,,,,,,
,,,,,,,,,,,,,FF,,,,,,,,0.4491,,,,,,,,,,,,,,,,,,,,,,61033b09439a14035d77fc22,61036ba57baab5273ba77caf,2021-07-29_23h02.23.271,Simcolourproject_2stim_asymm_v5,2020.2.10,Win32,60,61025ae37ef11b136ea224fe,,,,,,,,,2628,88,-45,1,0,0,response3disk,,5,-2,-4,1,0,0,rectangle,-2,-4,1,0,0,-2,-4,1,0,0,0,38,38,4,1,,,,,,,,
,,,,,,,,,,,,,FF,,,,,,,,0.5648,,,,,,,,,,,,,,,,,,,,,,61033b09439a14035d77fc22,61036ba57baab5273ba77caf,2021-07-29_23h02.23.271,Simcolourproject_2stim_asymm_v5,2020.2.10,Win32,60,61025ae37ef11b136ea224fe,,,,,,,,,219,52,-97,1,0,0,response3disk,,4,-3,-1,1,0,0,rectangle,-3,-1,1,0,0,-3,-1,1,0,0,0,39,39,99,1,,,,,,,,
,,,,,,,,,,,,,FF,,,,,,,,0.6001,,,,,,,,,,,,,,,,,,,,,,61033b09439a14035d77fc22,61036ba57baab5273ba77caf,2021-07-29_23h02.23.271,Simcolourproject_2stim_asymm_v5,2020.2.10,Win32,60,61025ae37ef11b136ea224fe,,,,,,,,,226,83,-52,1,0,0,response3disk,,5,1,-4,1,0,0,rectangle,1,-4,1,0,0,1,-4,1,0,0,0,40,40,127,1,,,,,,,,
,,,,,,,,,,,,,FF,,,,,,,,0.9826,,,,,,,,,,,,,,,,,,,,,,61033b09439a14035d77fc22,61036ba57baab5273ba77caf,2021-07-29_23h02.23.271,Simcolourproject_2stim_asymm_v5,2020.2.10,Win32,60,61025ae37ef11b136ea224fe,,,,,,,,,525,46,88,1,0,0,response1disk,,7,-7,-12,1,0,0,rectangle,-7,-12,1,0,0,-7,-12,1,0,0,0,41,41,94,1,,,,,,,,
,,,,,,,,,,,,,FF,,,,,,,,10.0592,,,,,,,,,,,,,,,,,,,,,,61033b09439a14035d77fc22,61036ba57baab5273ba77caf,2021-07-29_23h02.23.271,Simcolourproject_2stim_asymm_v5,2020.2.10,Win32,60,61025ae37ef11b136ea224fe,,,,,,,,,1487,-46,-112,1,0,0,response5disk,,3,-2,-3,1,0,0,rectangle,-2,-3,1,0,0,-2,-3,1,0,0,0,42,42,79,1,,,,,,,,
,,,,,,,,,,,,,FF,,,,,,,,0.9504,,,,,,,,,,,,,,,,,,,,,,61033b09439a14035d77fc22,61036ba57baab5273ba77caf,2021-07-29_23h02.23.271,Simcolourproject_2stim_asymm_v5,2020.2.10,Win32,60,61025ae37ef11b136ea224fe,,,,,,,,,2190,82,29,1,0,0,response1disk,,6,-2,-13,1,0,0,rectangle,-2,-13,1,0,0,-2,-13,1,0,0,0,43,43,117,1,,,,,,,,
,,,,,,,,,,,,,FF,,,,,,,,1.4143,,,,,,,,,,,,,,,,,,,,,,61033b09439a14035d77fc22,61036ba57baab5273ba77caf,2021-07-29_23h02.23.271,Simcolourproject_2stim_asymm_v5,2020.2.10,Win32,60,61025ae37ef11b136ea224fe,,,,,,,,,4137,-41,-92,1,0,0,response5disk,,3,-2,-8,1,0,0,rectangle,-2,-8,1,0,0,-2,-8,1,0,0,0,44,44,26,1,,,,,,,,
,,,,,,,,,,,,,FF,,,,,,,,1.2311,,,,,,,,,,,,,,,,,,,,,,61033b09439a14035d77fc22,61036ba57baab5273ba77caf,2021-07-29_23h02.23.271,Simcolourproject_2stim_asymm_v5,2020.2.10,Win32,60,61025ae37ef11b136ea224fe,,,,,,,,,2506,64,-37,1,0,0,response3disk,,5,0,0,1,0,0,rectangle,0,0,1,0,0,0,0,1,0,0,0,45,45,22,1,,,,,,,,
,,,,,,,,,,,,,FF,,,,,,,,1.5115,,,,,,,,,,,,,,,,,,,,,,61033b09439a14035d77fc22,61036ba57baab5273ba77caf,2021-07-29_23h02.23.271,Simcolourproject_2stim_asymm_v5,2020.2.10,Win32,60,61025ae37ef11b136ea224fe,,,,,,,,,2032,-94,32,1,0,0,response7disk,,1,-5,-7,1,0,0,rectangle,-83,-45,1,0,0,7,8,1,0,0,0,46,46,140,1,,response5disk_3,TRUE,2,2,"[138,8,123,96,60,110,94,180,47,279,271,234,191,207,279,176,232,160,110,225]",1.613,rectangle
,,,,,,,,,,,,,FF,,,,,,,,0.8626,,,,,,,,,,,,,,,,,,,,,,61033b09439a14035d77fc22,61036ba57baab5273ba77caf,2021-07-29_23h02.23.271,Simcolourproject_2stim_asymm_v5,2020.2.10,Win32,60,61025ae37ef11b136ea224fe,,,,,,,,,1713,41,-85,1,0,0,response3disk,,4,5,-14,1,0,0,rectangle,5,-14,1,0,0,5,-14,1,0,0,0,47,47,112,1,,,,,,,,
,,,,,,,,,,,,,FF,,,,,,,,1.0201,,,,,,,,,,,,,,,,,,,,,,61033b09439a14035d77fc22,61036ba57baab5273ba77caf,2021-07-29_23h02.23.271,Simcolourproject_2stim_asymm_v5,2020.2.10,Win32,60,61025ae37ef11b136ea224fe,,,,,,,,,3300,-42,-84,1,0,0,response5disk,,3,-1,-11,1,0,0,rectangle,-1,-11,1,0,0,-1,-11,1,0,0,0,48,48,152,1,,,,,,,,
,,,,,,,,,,,,,FF,,,,,,,,1.2272,,,,,,,,,,,,,,,,,,,,,,61033b09439a14035d77fc22,61036ba57baab5273ba77caf,2021-07-29_23h02.23.271,Simcolourproject_2stim_asymm_v5,2020.2.10,Win32,60,61025ae37ef11b136ea224fe,,,,,,,,,3388,-87,-49,1,0,0,response5disk,,2,-7,-2,1,0,0,rectangle,-7,-2,1,0,0,-7,-2,1,0,0,0,49,49,50,1,,,,,,,,
,,,,,,,,,,,,,FF,,,,,,,,0.7446,,,,,,,,,,,,,,,,,,,,,,61033b09439a14035d77fc22,61036ba57baab5273ba77caf,2021-07-29_23h02.23.271,Simcolourproject_2stim_asymm_v5,2020.2.10,Win32,60,61025ae37ef11b136ea224fe,,,,,,,,,3777,-83,-35,1,0,0,response5disk,,2,4,-8,1,0,0,rectangle,4,-8,1,0,0,4,-8,1,0,0,0,50,50,102,1,,,,,,,,
,,,,,,,,,,,,,FF,,,,,,,,0.8137,,,,,,,,,,,,,,,,,,,,,,61033b09439a14035d77fc22,61036ba57baab5273ba77caf,2021-07-29_23h02.23.271,Simcolourproject_2stim_asymm_v5,2020.2.10,Win32,60,61025ae37ef11b136ea224fe,,,,,,,,,2879,40,-82,1,0,0,response3disk,,4,7,-8,1,0,0,rectangle,7,-8,1,0,0,7,-8,1,0,0,0,51,51,10,1,,,,,,,,
,,,,,,,,,,,,,FF,,,,,,,,0.8659,,,,,,,,,,,,,,,,,,,,,,61033b09439a14035d77fc22,61036ba57baab5273ba77caf,2021-07-29_23h02.23.271,Simcolourproject_2stim_asymm_v5,2020.2.10,Win32,60,61025ae37ef11b136ea224fe,,,,,,,,,1142,82,-50,1,0,0,response3disk,,5,2,-7,1,0,0,rectangle,2,-7,1,0,0,2,-7,1,0,0,0,52,52,118,1,,,,,,,,
,,,,,,,,,,,,,FF,,,,,,,,0.6647,,,,,,,,,,,,,,,,,,,,,,61033b09439a14035d77fc22,61036ba57baab5273ba77caf,2021-07-29_23h02.23.271,Simcolourproject_2stim_asymm_v5,2020.2.10,Win32,60,61025ae37ef11b136ea224fe,,,,,,,,,3517,-36,-86,1,0,0,response5disk,,3,-6,1,1,0,0,rectangle,-6,1,1,0,0,-6,1,1,0,0,0,53,53,36,1,,,,,,,,
,,,,,,,,,,,,,FF,,,,,,,,0.9315,,,,,,,,,,,,,,,,,,,,,,61033b09439a14035d77fc22,61036ba57baab5273ba77caf,2021-07-29_23h02.23.271,Simcolourproject_2stim_asymm_v5,2020.2.10,Win32,60,61025ae37ef11b136ea224fe,,,,,,,,,2449,35,78,1,0,0,response1disk,,7,0,-8,1,0,0,rectangle,0,-8,1,0,0,0,-8,1,0,0,0,54,54,87,1,,,,,,,,
,,,,,,,,,,,,,FF,,,,,,,,0.5659,,,,,,,,,,,,,,,,,,,,,,61033b09439a14035d77fc22,61036ba57baab5273ba77caf,2021-07-29_23h02.23.271,Simcolourproject_2stim_asymm_v5,2020.2.10,Win32,60,61025ae37ef11b136ea224fe,,,,,,,,,1266,39,92,1,0,0,response1disk,,7,-7,-8,1,0,0,rectangle,-7,-8,1,0,0,-7,-8,1,0,0,0,55,55,49,1,,,,,,,,
,,,,,,,,,,,,,FF,,,,,,,,0.8166,,,,,,,,,,,,,,,,,,,,,,61033b09439a14035d77fc22,61036ba57baab5273ba77caf,2021-07-29_23h02.23.271,Simcolourproject_2stim_asymm_v5,2020.2.10,Win32,60,61025ae37ef11b136ea224fe,,,,,,,,,450,42,86,1,0,0,response1disk,,7,-9,-9,1,0,0,rectangle,-9,-9,1,0,0,-9,-9,1,0,0,0,56,56,88,1,,,,,,,,
,,,,,,,,,,,,,FF,,,,,,,,0.5645,,,,,,,,,,,,,,,,,,,,,,61033b09439a14035d77fc22,61036ba57baab5273ba77caf,2021-07-29_23h02.23.271,Simcolourproject_2stim_asymm_v5,2020.2.10,Win32,60,61025ae37ef11b136ea224fe,,,,,,,,,2609,41,69,1,0,0,response1disk,,7,2,-12,1,0,0,rectangle,2,-12,1,0,0,2,-12,1,0,0,0,57,57,52,1,,,,,,,,
,,,,,,,,,,,,,FF,,,,,,,,0.6306,,,,,,,,,,,,,,,,,,,,,,61033b09439a14035d77fc22,61036ba57baab5273ba77caf,2021-07-29_23h02.23.271,Simcolourproject_2stim_asymm_v5,2020.2.10,Win32,60,61025ae37ef11b136ea224fe,,,,,,,,,1196,83,-56,1,0,0,response3disk,,5,2,-6,1,0,0,rectangle,2,-6,1,0,0,2,-6,1,0,0,0,58,58,17,1,,,,,,,,
,,,,,,,,,,,,,FF,,,,,,,,0.7494,,,,,,,,,,,,,,,,,,,,,,61033b09439a14035d77fc22,61036ba57baab5273ba77caf,2021-07-29_23h02.23.271,Simcolourproject_2stim_asymm_v5,2020.2.10,Win32,60,61025ae37ef11b136ea224fe,,,,,,,,,524,46,-93,1,0,0,response3disk,,4,1,-14,1,0,0,rectangle,40,-101,1,0,0,2,-1,1,0,0,0,59,59,37,1,,response3disk_3,TRUE,4,4,"[138,8,123,96,60,110,94,180,47,279,271,234,191,207,279,176,232,160,110,225]",1.1812,rectangle
,,,,,,,,,,,,,FF,,,,,,,,1.6116,,,,,,,,,,,,,,,,,,,,,,61033b09439a14035d77fc22,61036ba57baab5273ba77caf,2021-07-29_23h02.23.271,Simcolourproject_2stim_asymm_v5,2020.2.10,Win32,60,61025ae37ef11b136ea224fe,,,,,,,,,1170,80,-46,1,0,0,response3disk,,5,0,0,1,0,0,rectangle,0,0,1,0,0,0,0,1,0,0,0,60,60,39,1,,,,,,,,
,,,,,,,,,,,,,FF,,,,,,,,1.7459,,,,,,,,,,,,,,,,,,,,,,61033b09439a14035d77fc22,61036ba57baab5273ba77caf,2021-07-29_23h02.23.271,Simcolourproject_2stim_asymm_v5,2020.2.10,Win32,60,61025ae37ef11b136ea224fe,,,,,,,,,1041,77,-44,1,0,0,response3disk,,5,17,-2,1,0,0,rectangle,17,-2,1,0,0,17,-2,1,0,0,0,61,61,98,1,,,,,,,,
,,,,,,,,,,,,,FF,,,,,,,,0.5998,,,,,,,,,,,,,,,,,,,,,,61033b09439a14035d77fc22,61036ba57baab5273ba77caf,2021-07-29_23h02.23.271,Simcolourproject_2stim_asymm_v5,2020.2.10,Win32,60,61025ae37ef11b136ea224fe,,,,,,,,,2575,61,34,1,0,0,response1disk,,6,2,-5,1,0,0,rectangle,2,-5,1,0,0,2,-5,1,0,0,0,62,62,131,1,,,,,,,,
,,,,,,,,,,,,,FF,,,,,,,,0.8826,,,,,,,,,,,,,,,,,,,,,,61033b09439a14035d77fc22,61036ba57baab5273ba77caf,2021-07-29_23h02.23.271,Simcolourproject_2stim_asymm_v5,2020.2.10,Win32,60,61025ae37ef11b136ea224fe,,,,,,,,,53,-35,-73,1,0,0,response5disk,,3,-6,-8,1,0,0,rectangle,-6,-8,1,0,0,-6,-8,1,0,0,0,63,63,77,1,,,,,,,,
,,,,,,,,,,,,,FF,,,,,,,,0.6833,,,,,,,,,,,,,,,,,,,,,,61033b09439a14035d77fc22,61036ba57baab5273ba77caf,2021-07-29_23h02.23.271,Simcolourproject_2stim_asymm_v5,2020.2.10,Win32,60,61025ae37ef11b136ea224fe,,,,,,,,,3332,-41,-73,1,0,0,response5disk,,3,-15,-8,1,0,0,rectangle,-15,-8,1,0,0,-15,-8,1,0,0,0,64,64,9,1,,,,,,,,
,,,,,,,,,,,,,FF,,,,,,,,0.6984,,,,,,,,,,,,,,,,,,,,,,61033b09439a14035d77fc22,61036ba57baab5273ba77caf,2021-07-29_23h02.23.271,Simcolourproject_2stim_asymm_v5,2020.2.10,Win32,60,61025ae37ef11b136ea224fe,,,,,,,,,1796,97,-73,1,0,0,response3disk,,5,10,-4,1,0,0,rectangle,10,-4,1,0,0,10,-4,1,0,0,0,65,65,113,1,,,,,,,,
,,,,,,,,,,,,,FF,,,,,,,,0.7989,,,,,,,,,,,,,,,,,,,,,,61033b09439a14035d77fc22,61036ba57baab5273ba77caf,2021-07-29_23h02.23.271,Simcolourproject_2stim_asymm_v5,2020.2.10,Win32,60,61025ae37ef11b136ea224fe,,,,,,,,,427,-34,-92,1,0,0,response5disk,,3,-7,-7,1,0,0,rectangle,-7,-7,1,0,0,-7,-7,1,0,0,0,66,66,5,1,,,,,,,,
,,,,,,,,,,,,,FF,,,,,,,,1.2682,,,,,,,,,,,,,,,,,,,,,,61033b09439a14035d77fc22,61036ba57baab5273ba77caf,2021-07-29_23h02.23.271,Simcolourproject_2stim_asymm_v5,2020.2.10,Win32,60,61025ae37ef11b136ea224fe,,,,,,,,,2094,-65,-24,1,0,0,response5disk,,2,-26,12,1,0,0,rectangle,-26,12,1,0,0,-26,12,1,0,0,0,67,67,116,1,,,,,,,,
,,,,,,,,,,,,,FF,,,,,,,,0.7011,,,,,,,,,,,,,,,,,,,,,,61033b09439a14035d77fc22,61036ba57baab5273ba77caf,2021-07-29_23h02.23.271,Simcolourproject_2stim_asymm_v5,2020.2.10,Win32,60,61025ae37ef11b136ea224fe,,,,,,,,,3437,82,-54,1,0,0,response3disk,,5,22,-4,1,0,0,rectangle,22,-4,1,0,0,22,-4,1,0,0,0,68,68,59,1,,,,,,,,
,,,,,,,,,,,,,FF,,,,,,,,0.7171,,,,,,,,,,,,,,,,,,,,,,61033b09439a14035d77fc22,61036ba57baab5273ba77caf,2021-07-29_23h02.23.271,Simcolourproject_2stim_asymm_v5,2020.2.10,Win32,60,61025ae37ef11b136ea224fe,,,,,,,,,2672,-100,-43,1,0,0,response5disk,,2,-6,5,1,0,0,rectangle,-6,5,1,0,0,-6,5,1,0,0,0,69,69,109,1,,,,,,,,
,,,,,,,,,,,,,FF,,,,,,,,0.6137,,,,,,,,,,,,,,,,,,,,,,61033b09439a14035d77fc22,61036ba57baab5273ba77caf,2021-07-29_23h02.23.271,Simcolourproject_2stim_asymm_v5,2020.2.10,Win32,60,61025ae37ef11b136ea224fe,,,,,,,,,95,87,-48,1,0,0,response3disk,,5,2,-7,1,0,0,rectangle,2,-7,1,0,0,2,-7,1,0,0,0,70,70,85,1,,,,,,,,
,,,,,,,,,,,,,FF,,,,,,,,0.6465,,,,,,,,,,,,,,,,,,,,,,61033b09439a14035d77fc22,61036ba57baab5273ba77caf,2021-07-29_23h02.23.271,Simcolourproject_2stim_asymm_v5,2020.2.10,Win32,60,61025ae37ef11b136ea224fe,,,,,,,,,4297,72,-58,1,0,0,response3disk,,5,12,-3,1,0,0,rectangle,12,-3,1,0,0,12,-3,1,0,0,0,71,71,90,1,,,,,,,,
,,,,,,,,,,,,,FF,,,,,,,,0.5161,,,,,,,,,,,,,,,,,,,,,,61033b09439a14035d77fc22,61036ba57baab5273ba77caf,2021-07-29_23h02.23.271,Simcolourproject_2stim_asymm_v5,2020.2.10,Win32,60,61025ae37ef11b136ea224fe,,,,,,,,,2679,-43,-83,1,0,0,response5disk,,3,-1,-3,1,0,0,rectangle,-1,-3,1,0,0,-1,-3,1,0,0,0,72,72,53,1,,,,,,,,
,,,,,,,,,,,,,FF,,,,,,,,0.9445,,,,,,,,,,,,,,,,,,,,,,61033b09439a14035d77fc22,61036ba57baab5273ba77caf,2021-07-29_23h02.23.271,Simcolourproject_2stim_asymm_v5,2020.2.10,Win32,60,61025ae37ef11b136ea224fe,,,,,,,,,3631,33,-111,1,0,0,response3disk,,4,2,-5,1,0,0,rectangle,2,-5,1,0,0,2,-5,1,0,0,0,73,73,13,1,,,,,,,,
,,,,,,,,,,,,,FF,,,,,,,,1.7779,,,,,,,,,,,,,,,,,,,,,,61033b09439a14035d77fc22,61036ba57baab5273ba77caf,2021-07-29_23h02.23.271,Simcolourproject_2stim_asymm_v5,2020.2.10,Win32,60,61025ae37ef11b136ea224fe,,,,,,,,,3037,-36,-95,1,0,0,response5disk,,3,10,-4,1,0,0,rectangle,10,-4,1,0,0,10,-4,1,0,0,0,74,74,38,1,,,,,,,,
,,,,,,,,,,,,,FF,,,,,,,,0.8141,,,,,,,,,,,,,,,,,,,,,,61033b09439a14035d77fc22,61036ba57baab5273ba77caf,2021-07-29_23h02.23.271,Simcolourproject_2stim_asymm_v5,2020.2.10,Win32,60,61025ae37ef11b136ea224fe,,,,,,,,,4144,-64,-45,1,0,0,response5disk,,2,-8,0,1,0,0,rectangle,-8,0,1,0,0,-8,0,1,0,0,0,75,75,42,1,,,,,,,,
,,,,,,,,,,,,,FF,,,,,,,,0.5834,,,,,,,,,,,,,,,,,,,,,,61033b09439a14035d77fc22,61036ba57baab5273ba77caf,2021-07-29_23h02.23.271,Simcolourproject_2stim_asymm_v5,2020.2.10,Win32,60,61025ae37ef11b136ea224fe,,,,,,,,,1605,-40,-103,1,0,0,response5disk,,3,9,-4,1,0,0,rectangle,9,-4,1,0,0,9,-4,1,0,0,0,76,76,80,1,,,,,,,,
,,,,,,,,,,,,,FF,,,,,,,,0.6023,,,,,,,,,,,,,,,,,,,,,,61033b09439a14035d77fc22,61036ba57baab5273ba77caf,2021-07-29_23h02.23.271,Simcolourproject_2stim_asymm_v5,2020.2.10,Win32,60,61025ae37ef11b136ea224fe,,,,,,,,,3268,45,-90,1,0,0,response3disk,,4,7,-5,1,0,0,rectangle,7,-5,1,0,0,7,-5,1,0,0,0,77,77,81,1,,,,,,,,
,,,,,,,,,,,,,FF,,,,,,,,1.4325,,,,,,,,,,,,,,,,,,,,,,61033b09439a14035d77fc22,61036ba57baab5273ba77caf,2021-07-29_23h02.23.271,Simcolourproject_2stim_asymm_v5,2020.2.10,Win32,60,61025ae37ef11b136ea224fe,,,,,,,,,885,-73,31,1,0,0,response7disk,,1,6,1,1,0,0,rectangle,6,1,1,0,0,6,1,1,0,0,0,78,78,15,1,,,,,,,,
,,,,,,,,,,,,,FF,,,,,,,,0.6614,,,,,,,,,,,,,,,,,,,,,,61033b09439a14035d77fc22,61036ba57baab5273ba77caf,2021-07-29_23h02.23.271,Simcolourproject_2stim_asymm_v5,2020.2.10,Win32,60,61025ae37ef11b136ea224fe,,,,,,,,,615,48,-92,1,0,0,response3disk,,4,2,13,1,0,0,rectangle,2,13,1,0,0,2,13,1,0,0,0,79,79,44,1,,,,,,,,
,,,,,,,,,,,,,FF,,,,,,,,0.6304,,,,,,,,,,,,,,,,,,,,,,61033b09439a14035d77fc22,61036ba57baab5273ba77caf,2021-07-29_23h02.23.271,Simcolourproject_2stim_asymm_v5,2020.2.10,Win32,60,61025ae37ef11b136ea224fe,,,,,,,,,4147,-48,-77,1,0,0,response5disk,,3,1,-1,1,0,0,rectangle,1,-1,1,0,0,1,-1,1,0,0,0,80,80,159,1,,,,,,,,
,,,,,,,,,,,,,FF,,,,,,,,1.002,,,,,,,,,,,,,,,,,,,,,,61033b09439a14035d77fc22,61036ba57baab5273ba77caf,2021-07-29_23h02.23.271,Simcolourproject_2stim_asymm_v5,2020.2.10,Win32,60,61025ae37ef11b136ea224fe,,,,,,,,,3876,88,-36,1,0,0,response3disk,,5,14,-8,1,0,0,rectangle,14,-8,1,0,0,14,-8,1,0,0,0,81,81,154,1,,,,,,,,
,,,,,,,,,,,,,FF,,,,,,,,0.7523,,,,,,,,,,,,,,,,,,,,,,61033b09439a14035d77fc22,61036ba57baab5273ba77caf,2021-07-29_23h02.23.271,Simcolourproject_2stim_asymm_v5,2020.2.10,Win32,60,61025ae37ef11b136ea224fe,,,,,,,,,2171,42,-94,1,0,0,response3disk,,4,-3,-6,1,0,0,rectangle,-3,-6,1,0,0,-3,-6,1,0,0,0,82,82,136,1,,,,,,,,
,,,,,,,,,,,,,FF,,,,,,,,0.7176,,,,,,,,,,,,,,,,,,,,,,61033b09439a14035d77fc22,61036ba57baab5273ba77caf,2021-07-29_23h02.23.271,Simcolourproject_2stim_asymm_v5,2020.2.10,Win32,60,61025ae37ef11b136ea224fe,,,,,,,,,3953,-48,-90,1,0,0,response5disk,,3,4,-7,1,0,0,rectangle,4,-7,1,0,0,4,-7,1,0,0,0,83,83,27,1,,,,,,,,
,,,,,,,,,,,,,FF,,,,,,,,0.6663,,,,,,,,,,,,,,,,,,,,,,61033b09439a14035d77fc22,61036ba57baab5273ba77caf,2021-07-29_23h02.23.271,Simcolourproject_2stim_asymm_v5,2020.2.10,Win32,60,61025ae37ef11b136ea224fe,,,,,,,,,549,82,-39,1,0,0,response3disk,,5,2,6,1,0,0,rectangle,2,6,1,0,0,2,6,1,0,0,0,84,84,132,1,,,,,,,,
,,,,,,,,,,,,,FF,,,,,,,,2.1672,,,,,,,,,,,,,,,,,,,,,,61033b09439a14035d77fc22,61036ba57baab5273ba77caf,2021-07-29_23h02.23.271,Simcolourproject_2stim_asymm_v5,2020.2.10,Win32,60,61025ae37ef11b136ea224fe,,,,,,,,,995,97,40,1,0,0,response1disk,,6,5,-5,1,0,0,rectangle,5,-5,1,0,0,5,-5,1,0,0,0,85,85,7,1,,,,,,,,
,,,,,,,,,,,,,FF,,,,,,,,4.4954,,,,,,,,,,,,,,,,,,,,,,61033b09439a14035d77fc22,61036ba57baab5273ba77caf,2021-07-29_23h02.23.271,Simcolourproject_2stim_asymm_v5,2020.2.10,Win32,60,61025ae37ef11b136ea224fe,,,,,,,,,2743,-50,-70,1,0,0,response5disk,,3,2,2,1,0,0,rectangle,2,2,1,0,0,2,2,1,0,0,0,86,86,121,1,,,,,,,,
,,,,,,,,,,,,,FF,,,,,,,,0.6002,,,,,,,,,,,,,,,,,,,,,,61033b09439a14035d77fc22,61036ba57baab5273ba77caf,2021-07-29_23h02.23.271,Simcolourproject_2stim_asymm_v5,2020.2.10,Win32,60,61025ae37ef11b136ea224fe,,,,,,,,,3247,-58,-97,1,0,0,response5disk,,3,5,-1,1,0,0,rectangle,5,-1,1,0,0,5,-1,1,0,0,0,87,87,34,1,,,,,,,,
,,,,,,,,,,,,,FF,,,,,,,,0.4974,,,,,,,,,,,,,,,,,,,,,,61033b09439a14035d77fc22,61036ba57baab5273ba77caf,2021-07-29_23h02.23.271,Simcolourproject_2stim_asymm_v5,2020.2.10,Win32,60,61025ae37ef11b136ea224fe,,,,,,,,,3573,75,-46,1,0,0,response3disk,,5,-2,0,1,0,0,rectangle,-2,0,1,0,0,-2,0,1,0,0,0,88,88,150,1,,,,,,,,
,,,,,,,,,,,,,FF,,,,,,,,0.8999,,,,,,,,,,,,,,,,,,,,,,61033b09439a14035d77fc22,61036ba57baab5273ba77caf,2021-07-29_23h02.23.271,Simcolourproject_2stim_asymm_v5,2020.2.10,Win32,60,61025ae37ef11b136ea224fe,,,,,,,,,672,84,37,1,0,0,response1disk,,6,-1,-2,1,0,0,rectangle,-1,-2,1,0,0,-1,-2,1,0,0,0,89,89,6,1,,,,,,,,
,,,,,,,,,,,,,FF,,,,,,,,0.6474,,,,,,,,,,,,,,,,,,,,,,61033b09439a14035d77fc22,61036ba57baab5273ba77caf,2021-07-29_23h02.23.271,Simcolourproject_2stim_asymm_v5,2020.2.10,Win32,60,61025ae37ef11b136ea224fe,,,,,,,,,1999,43,-92,1,0,0,response3disk,,4,7,2,1,0,0,rectangle,7,2,1,0,0,7,2,1,0,0,0,90,90,28,1,,,,,,,,
,,,,,,,,,,,,,FF,,,,,,,,2.2653,,,,,,,,,,,,,,,,,,,,,,61033b09439a14035d77fc22,61036ba57baab5273ba77caf,2021-07-29_23h02.23.271,Simcolourproject_2stim_asymm_v5,2020.2.10,Win32,60,61025ae37ef11b136ea224fe,,,,,,,,,1714,91,39,1,0,0,response1disk,,6,2,-5,1,0,0,rectangle,2,-5,1,0,0,2,-5,1,0,0,0,91,91,148,1,,,,,,,,
,,,,,,,,,,,,,FF,,,,,,,,0.5692,,,,,,,,,,,,,,,,,,,,,,61033b09439a14035d77fc22,61036ba57baab5273ba77caf,2021-07-29_23h02.23.271,Simcolourproject_2stim_asymm_v5,2020.2.10,Win32,60,61025ae37ef11b136ea224fe,,,,,,,,,2851,-34,-82,1,0,0,response5disk,,3,7,0,1,0,0,rectangle,7,0,1,0,0,7,0,1,0,0,0,92,92,142,1,,,,,,,,
,,,,,,,,,,,,,FF,,,,,,,,0.4824,,,,,,,,,,,,,,,,,,,,,,61033b09439a14035d77fc22,61036ba57baab5273ba77caf,2021-07-29_23h02.23.271,Simcolourproject_2stim_asymm_v5,2020.2.10,Win32,60,61025ae37ef11b136ea224fe,,,,,,,,,1636,80,-62,1,0,0,response3disk,,5,5,14,1,0,0,rectangle,-92,46,1,0,0,-8,5,1,0,0,0,93,93,114,1,,response7disk_3,TRUE,1,1,"[138,8,123,96,60,110,94,180,47,279,271,234,191,207,279,176,232,160,110,225]",1.329,rectangle
,,,,,,,,,,,,,FF,,,,,,,,0.6999,,,,,,,,,,,,,,,,,,,,,,61033b09439a14035d77fc22,61036ba57baab5273ba77caf,2021-07-29_23h02.23.271,Simcolourproject_2stim_asymm_v5,2020.2.10,Win32,60,61025ae37ef11b136ea224fe,,,,,,,,,5,43,-80,1,0,0,response3disk,,4,9,0,1,0,0,rectangle,9,0,1,0,0,9,0,1,0,0,0,94,94,41,1,,,,,,,,
,,,,,,,,,,,,,FF,,,,,,,,0.6339,,,,,,,,,,,,,,,,,,,,,,61033b09439a14035d77fc22,61036ba57baab5273ba77caf,2021-07-29_23h02.23.271,Simcolourproject_2stim_asymm_v5,2020.2.10,Win32,60,61025ae37ef11b136ea224fe,,,,,,,,,2509,83,-52,1,0,0,response3disk,,5,13,6,1,0,0,rectangle,50,-88,1,0,0,-5,1,1,0,0,0,95,95,72,1,,response3disk_3,TRUE,4,4,"[138,8,123,96,60,110,94,180,47,279,271,234,191,207,279,176,232,160,110,225]",1.5635,rectangle
,,,,,,,,,,,,,FF,,,,,,,,1.4999,,,,,,,,,,,,,,,,,,,,,,61033b09439a14035d77fc22,61036ba57baab5273ba77caf,2021-07-29_23h02.23.271,Simcolourproject_2stim_asymm_v5,2020.2.10,Win32,60,61025ae37ef11b136ea224fe,,,,,,,,,1625,78,-39,1,0,0,response3disk,,5,17,-7,1,0,0,rectangle,17,-7,1,0,0,17,-7,1,0,0,0,96,96,55,1,,,,,,,,
,,,,,,,,,,,,,FF,,,,,,,,0.9518,,,,,,,,,,,,,,,,,,,,,,61033b09439a14035d77fc22,61036ba57baab5273ba77caf,2021-07-29_23h02.23.271,Simcolourproject_2stim_asymm_v5,2020.2.10,Win32,60,61025ae37ef11b136ea224fe,,,,,,,,,1251,41,-93,1,0,0,response3disk,,4,5,2,1,0,0,rectangle,5,2,1,0,0,5,2,1,0,0,0,97,97,157,1,,,,,,,,
,,,,,,,,,,,,,FF,,,,,,,,1.8645,,,,,,,,,,,,,,,,,,,,,,61033b09439a14035d77fc22,61036ba57baab5273ba77caf,2021-07-29_23h02.23.271,Simcolourproject_2stim_asymm_v5,2020.2.10,Win32,60,61025ae37ef11b136ea224fe,,,,,,,,,2068,74,-39,1,0,0,response3disk,,5,-1,-3,1,0,0,rectangle,-1,-3,1,0,0,-1,-3,1,0,0,0,98,98,125,1,,,,,,,,
,,,,,,,,,,,,,FF,,,,,,,,0.7008,,,,,,,,,,,,,,,,,,,,,,61033b09439a14035d77fc22,61036ba57baab5273ba77caf,2021-07-29_23h02.23.271,Simcolourproject_2stim_asymm_v5,2020.2.10,Win32,60,61025ae37ef11b136ea224fe,,,,,,,,,1720,31,103,1,0,0,response1disk,,7,4,-14,1,0,0,rectangle,4,-14,1,0,0,4,-14,1,0,0,0,99,99,70,1,,,,,,,,
,,,,,,,,,,,,,FF,,,,,,,,1.5991,,,,,,,,,,,,,,,,,,,,,,61033b09439a14035d77fc22,61036ba57baab5273ba77caf,2021-07-29_23h02.23.271,Simcolourproject_2stim_asymm_v5,2020.2.10,Win32,60,61025ae37ef11b136ea224fe,,,,,,,,,3194,-32,-87,1,0,0,response5disk,,3,-2,-3,1,0,0,rectangle,-2,-3,1,0,0,-2,-3,1,0,0,0,100,100,69,1,,,,,,,,
,,,,,,,,,,,,,FF,,,,,,,,0.619,,,,,,,,,,,,,,,,,,,,,,61033b09439a14035d77fc22,61036ba57baab5273ba77caf,2021-07-29_23h02.23.271,Simcolourproject_2stim_asymm_v5,2020.2.10,Win32,60,61025ae37ef11b136ea224fe,,,,,,,,,2846,81,-44,1,0,0,response3disk,,5,-6,3,1,0,0,rectangle,-6,3,1,0,0,-6,3,1,0,0,0,101,101,63,1,,,,,,,,
,,,,,,,,,,,,,FF,,,,,,,,1.8979,,,,,,,,,,,,,,,,,,,,,,61033b09439a14035d77fc22,61036ba57baab5273ba77caf,2021-07-29_23h02.23.271,Simcolourproject_2stim_asymm_v5,2020.2.10,Win32,60,61025ae37ef11b136ea224fe,,,,,,,,,2220,-37,-87,1,0,0,response5disk,,3,1,0,1,0,0,rectangle,1,0,1,0,0,1,0,1,0,0,0,102,102,40,1,,,,,,,,
,,,,,,,,,,,,,FF,,,,,,,,0.6647,,,,,,,,,,,,,,,,,,,,,,61033b09439a14035d77fc22,61036ba57baab5273ba77caf,2021-07-29_23h02.23.271,Simcolourproject_2stim_asymm_v5,2020.2.10,Win32,60,61025ae37ef11b136ea224fe,,,,,,,,,2033,-65,-58,1,0,0,response5disk,,2,2,2,1,0,0,rectangle,2,2,1,0,0,2,2,1,0,0,0,103,103,45,1,,,,,,,,
,,,,,,,,,,,,,FF,,,,,,,,1.0328,,,,,,,,,,,,,,,,,,,,,,61033b09439a14035d77fc22,61036ba57baab5273ba77caf,2021-07-29_23h02.23.271,Simcolourproject_2stim_asymm_v5,2020.2.10,Win32,60,61025ae37ef11b136ea224fe,,,,,,,,,2824,-36,-110,1,0,0,response5disk,,3,-2,-11,1,0,0,rectangle,-2,-11,1,0,0,-2,-11,1,0,0,0,104,104,156,1,,,,,,,,
,,,,,,,,,,,,,FF,,,,,,,,0.4337,,,,,,,,,,,,,,,,,,,,,,61033b09439a14035d77fc22,61036ba57baab5273ba77caf,2021-07-29_23h02.23.271,Simcolourproject_2stim_asymm_v5,2020.2.10,Win32,60,61025ae37ef11b136ea224fe,,,,,,,,,2611,33,-91,1,0,0,response3disk,,4,19,5,1,0,0,rectangle,19,5,1,0,0,19,5,1,0,0,0,105,105,146,1,,,,,,,,
,,,,,,,,,,,,,FF,,,,,,,,0.5116,,,,,,,,,,,,,,,,,,,,,,61033b09439a14035d77fc22,61036ba57baab5273ba77caf,2021-07-29_23h02.23.271,Simcolourproject_2stim_asymm_v5,2020.2.10,Win32,60,61025ae37ef11b136ea224fe,,,,,,,,,4208,72,-38,1,0,0,response3disk,,5,9,3,1,0,0,rectangle,9,3,1,0,0,9,3,1,0,0,0,106,106,1,1,,,,,,,,
,,,,,,,,,,,,,FF,,,,,,,,0.4993,,,,,,,,,,,,,,,,,,,,,,61033b09439a14035d77fc22,61036ba57baab5273ba77caf,2021-07-29_23h02.23.271,Simcolourproject_2stim_asymm_v5,2020.2.10,Win32,60,61025ae37ef11b136ea224fe,,,,,,,,,797,28,-92,1,0,0,response3disk,,4,-6,-2,1,0,0,rectangle,-6,-2,1,0,0,-6,-2,1,0,0,0,107,107,46,1,,,,,,,,
,,,,,,,,,,,,,FF,,,,,,,,0.6512,,,,,,,,,,,,,,,,,,,,,,61033b09439a14035d77fc22,61036ba57baab5273ba77caf,2021-07-29_23h02.23.271,Simcolourproject_2stim_asymm_v5,2020.2.10,Win32,60,61025ae37ef11b136ea224fe,,,,,,,,,1424,78,36,1,0,0,response1disk,,6,5,13,1,0,0,rectangle,5,13,1,0,0,5,13,1,0,0,0,108,108,68,1,,,,,,,,
,,,,,,,,,,,,,FF,,,,,,,,1.199,,,,,,,,,,,,,,,,,,,,,,61033b09439a14035d77fc22,61036ba57baab5273ba77caf,2021-07-29_23h02.23.271,Simcolourproject_2stim_asymm_v5,2020.2.10,Win32,60,61025ae37ef11b136ea224fe,,,,,,,,,3340,40,-90,1,0,0,response3disk,,4,6,-14,1,0,0,rectangle,-82,37,1,0,0,-1,2,1,0,0,0,109,109,48,1,,response7disk_3,TRUE,1,2,"[138,8,123,96,60,110,94,180,47,279,271,234,191,207,279,176,232,160,110,225]",1.2637,rectangle
,,,,,,,,,,,,,FF,,,,,,,,3.5974,,,,,,,,,,,,,,,,,,,,,,61033b09439a14035d77fc22,61036ba57baab5273ba77caf,2021-07-29_23h02.23.271,Simcolourproject_2stim_asymm_v5,2020.2.10,Win32,60,61025ae37ef11b136ea224fe,,,,,,,,,1906,91,-76,1,0,0,response3disk,,5,10,-7,1,0,0,rectangle,10,-7,1,0,0,10,-7,1,0,0,0,110,110,71,1,,,,,,,,
,,,,,,,,,,,,,FF,,,,,,,,0.9206,,,,,,,,,,,,,,,,,,,,,,61033b09439a14035d77fc22,61036ba57baab5273ba77caf,2021-07-29_23h02.23.271,Simcolourproject_2stim_asymm_v5,2020.2.10,Win32,60,61025ae37ef11b136ea224fe,,,,,,,,,3030,72,40,1,0,0,response1disk,,6,-3,-2,1,0,0,rectangle,-3,-2,1,0,0,-3,-2,1,0,0,0,111,111,32,1,,,,,,,,
,,,,,,,,,,,,,FF,,,,,,,,0.994,,,,,,,,,,,,,,,,,,,,,,61033b09439a14035d77fc22,61036ba57baab5273ba77caf,2021-07-29_23h02.23.271,Simcolourproject_2stim_asymm_v5,2020.2.10,Win32,60,61025ae37ef11b136ea224fe,,,,,,,,,464,86,-42,1,0,0,response3disk,,5,-9,6,1,0,0,rectangle,-9,6,1,0,0,-9,6,1,0,0,0,112,112,2,1,,,,,,,,
,,,,,,,,,,,,,FF,,,,,,,,0.801,,,,,,,,,,,,,,,,,,,,,,61033b09439a14035d77fc22,61036ba57baab5273ba77caf,2021-07-29_23h02.23.271,Simcolourproject_2stim_asymm_v5,2020.2.10,Win32,60,61025ae37ef11b136ea224fe,,,,,,,,,3714,-41,-69,1,0,0,response5disk,,3,-10,15,1,0,0,rectangle,-10,15,1,0,0,-10,15,1,0,0,0,113,113,51,1,,,,,,,,
,,,,,,,,,,,,,FF,,,,,,,,1.4679,,,,,,,,,,,,,,,,,,,,,,61033b09439a14035d77fc22,61036ba57baab5273ba77caf,2021-07-29_23h02.23.271,Simcolourproject_2stim_asymm_v5,2020.2.10,Win32,60,61025ae37ef11b136ea224fe,,,,,,,,,2513,39,73,1,0,0,response1disk,,7,22,12,1,0,0,rectangle,22,12,1,0,0,22,12,1,0,0,0,114,114,119,1,,,,,,,,
,,,,,,,,,,,,,FF,,,,,,,,0.9049,,,,,,,,,,,,,,,,,,,,,,61033b09439a14035d77fc22,61036ba57baab5273ba77caf,2021-07-29_23h02.23.271,Simcolourproject_2stim_asymm_v5,2020.2.10,Win32,60,61025ae37ef11b136ea224fe,,,,,,,,,2060,61,41,1,0,0,response1disk,,6,15,2,1,0,0,rectangle,15,2,1,0,0,15,2,1,0,0,0,115,115,122,1,,,,,,,,
,,,,,,,,,,,,,FF,,,,,,,,0.9193,,,,,,,,,,,,,,,,,,,,,,61033b09439a14035d77fc22,61036ba57baab5273ba77caf,2021-07-29_23h02.23.271,Simcolourproject_2stim_asymm_v5,2020.2.10,Win32,60,61025ae37ef11b136ea224fe,,,,,,,,,4358,-38,-83,1,0,0,response5disk,,3,-3,0,1,0,0,rectangle,-3,0,1,0,0,-3,0,1,0,0,0,116,116,106,1,,,,,,,,
,,,,,,,,,,,,,FF,,,,,,,,0.8322,,,,,,,,,,,,,,,,,,,,,,61033b09439a14035d77fc22,61036ba57baab5273ba77caf,2021-07-29_23h02.23.271,Simcolourproject_2stim_asymm_v5,2020.2.10,Win32,60,61025ae37ef11b136ea224fe,,,,,,,,,19,94,-23,1,0,0,response3disk,,5,14,1,1,0,0,rectangle,14,1,1,0,0,14,1,1,0,0,0,117,117,134,1,,,,,,,,
,,,,,,,,,,,,,FF,,,,,,,,0.9323,,,,,,,,,,,,,,,,,,,,,,61033b09439a14035d77fc22,61036ba57baab5273ba77caf,2021-07-29_23h02.23.271,Simcolourproject_2stim_asymm_v5,2020.2.10,Win32,60,61025ae37ef11b136ea224fe,,,,,,,,,4252,-44,-87,1,0,0,response5disk,,3,-13,-3,1,0,0,rectangle,-13,-3,1,0,0,-13,-3,1,0,0,0,118,118,76,1,,,,,,,,
,,,,,,,,,,,,,FF,,,,,,,,0.6706,,,,,,,,,,,,,,,,,,,,,,61033b09439a14035d77fc22,61036ba57baab5273ba77caf,2021-07-29_23h02.23.271,Simcolourproject_2stim_asymm_v5,2020.2.10,Win32,60,61025ae37ef11b136ea224fe,,,,,,,,,3137,29,62,1,0,0,response1disk,,7,14,0,1,0,0,rectangle,14,0,1,0,0,14,0,1,0,0,0,119,119,104,1,,,,,,,,
,,,,,,,,,,,,,FF,,,,,,,,2.4312,,,,,,,,,,,,,,,,,,,,,,61033b09439a14035d77fc22,61036ba57baab5273ba77caf,2021-07-29_23h02.23.271,Simcolourproject_2stim_asymm_v5,2020.2.10,Win32,60,61025ae37ef11b136ea224fe,,,,,,,,,3407,72,-42,1,0,0,response3disk,,5,1,10,1,0,0,rectangle,1,10,1,0,0,1,10,1,0,0,0,120,120,23,1,,,,,,,,
,,,,,,,,,,,,,FF,,,,,,,,0.6149,,,,,,,,,,,,,,,,,,,,,,61033b09439a14035d77fc22,61036ba57baab5273ba77caf,2021-07-29_23h02.23.271,Simcolourproject_2stim_asymm_v5,2020.2.10,Win32,60,61025ae37ef11b136ea224fe,,,,,,,,,2871,15,63,1,0,0,response1disk,,7,3,3,1,0,0,rectangle,3,3,1,0,0,3,3,1,0,0,0,121,121,83,1,,,,,,,,
,,,,,,,,,,,,,FF,,,,,,,,0.6998,,,,,,,,,,,,,,,,,,,,,,61033b09439a14035d77fc22,61036ba57baab5273ba77caf,2021-07-29_23h02.23.271,Simcolourproject_2stim_asymm_v5,2020.2.10,Win32,60,61025ae37ef11b136ea224fe,,,,,,,,,3630,-76,36,1,0,0,response7disk,,1,9,2,1,0,0,rectangle,-61,29,1,0,0,1,-3,1,0,0,0,122,122,145,1,,response7disk_3,TRUE,1,1,"[138,8,123,96,60,110,94,180,47,279,271,234,191,207,279,176,232,160,110,225]",1.3509,rectangle
,,,,,,,,,,,,,FF,,,,,,,,1.2825,,,,,,,,,,,,,,,,,,,,,,61033b09439a14035d77fc22,61036ba57baab5273ba77caf,2021-07-29_23h02.23.271,Simcolourproject_2stim_asymm_v5,2020.2.10,Win32,60,61025ae37ef11b136ea224fe,,,,,,,,,3914,-24,-53,1,0,0,response5disk,,3,-3,-9,1,0,0,rectangle,-3,-9,1,0,0,-3,-9,1,0,0,0,123,123,144,1,,,,,,,,
,,,,,,,,,,,,,FF,,,,,,,,0.6661,,,,,,,,,,,,,,,,,,,,,,61033b09439a14035d77fc22,61036ba57baab5273ba77caf,2021-07-29_23h02.23.271,Simcolourproject_2stim_asymm_v5,2020.2.10,Win32,60,61025ae37ef11b136ea224fe,,,,,,,,,2682,50,-69,1,0,0,response3disk,,4,12,-6,1,0,0,rectangle,12,-6,1,0,0,12,-6,1,0,0,0,124,124,130,1,,,,,,,,
,,,,,,,,,,,,,FF,,,,,,,,0.8825,,,,,,,,,,,,,,,,,,,,,,61033b09439a14035d77fc22,61036ba57baab5273ba77caf,2021-07-29_23h02.23.271,Simcolourproject_2stim_asymm_v5,2020.2.10,Win32,60,61025ae37ef11b136ea224fe,,,,,,,,,174,-29,-58,1,0,0,response5disk,,3,-10,-10,1,0,0,rectangle,-10,-10,1,0,0,-10,-10,1,0,0,0,125,125,11,1,,,,,,,,
,,,,,,,,,,,,,FF,,,,,,,,0.7684,,,,,,,,,,,,,,,,,,,,,,61033b09439a14035d77fc22,61036ba57baab5273ba77caf,2021-07-29_23h02.23.271,Simcolourproject_2stim_asymm_v5,2020.2.10,Win32,60,61025ae37ef11b136ea224fe,,,,,,,,,2241,-18,-85,1,0,0,response5disk,,3,4,-4,1,0,0,rectangle,4,-4,1,0,0,4,-4,1,0,0,0,126,126,3,1,,,,,,,,
,,,,,,,,,,,,,FF,,,,,,,,0.7648,,,,,,,,,,,,,,,,,,,,,,61033b09439a14035d77fc22,61036ba57baab5273ba77caf,2021-07-29_23h02.23.271,Simcolourproject_2stim_asymm_v5,2020.2.10,Win32,60,61025ae37ef11b136ea224fe,,,,,,,,,2704,90,-43,1,0,0,response3disk,,5,24,3,1,0,0,rectangle,24,3,1,0,0,24,3,1,0,0,0,127,127,58,1,,,,,,,,
,,,,,,,,,,,,,FF,,,,,,,,0.6967,,,,,,,,,,,,,,,,,,,,,,61033b09439a14035d77fc22,61036ba57baab5273ba77caf,2021-07-29_23h02.23.271,Simcolourproject_2stim_asymm_v5,2020.2.10,Win32,60,61025ae37ef11b136ea224fe,,,,,,,,,3413,61,-19,1,0,0,response3disk,,5,-5,10,1,0,0,rectangle,-5,10,1,0,0,-5,10,1,0,0,0,128,128,19,1,,,,,,,,
,,,,,,,,,,,,,FF,,,,,,,,1.2991,,,,,,,,,,,,,,,,,,,,,,61033b09439a14035d77fc22,61036ba57baab5273ba77caf,2021-07-29_23h02.23.271,Simcolourproject_2stim_asymm_v5,2020.2.10,Win32,60,61025ae37ef11b136ea224fe,,,,,,,,,3919,44,26,1,0,0,response1disk,,6,5,-15,1,0,0,rectangle,5,-15,1,0,0,5,-15,1,0,0,0,129,129,47,1,,,,,,,,
,,,,,,,,,,,,,FF,,,,,,,,0.6312,,,,,,,,,,,,,,,,,,,,,,61033b09439a14035d77fc22,61036ba57baab5273ba77caf,2021-07-29_23h02.23.271,Simcolourproject_2stim_asymm_v5,2020.2.10,Win32,60,61025ae37ef11b136ea224fe,,,,,,,,,603,15,35,1,0,0,response1disk,,7,6,5,1,0,0,rectangle,6,5,1,0,0,6,5,1,0,0,0,130,130,0,1,,,,,,,,
,,,,,,,,,,,,,FF,,,,,,,,0.5338,,,,,,,,,,,,,,,,,,,,,,61033b09439a14035d77fc22,61036ba57baab5273ba77caf,2021-07-29_23h02.23.271,Simcolourproject_2stim_asymm_v5,2020.2.10,Win32,60,61025ae37ef11b136ea224fe,,,,,,,,,2263,26,52,1,0,0,response1disk,,7,10,2,1,0,0,rectangle,10,2,1,0,0,10,2,1,0,0,0,131,131,57,1,,,,,,,,
,,,,,,,,,,,,,FF,,,,,,,,1.6153,,,,,,,,,,,,,,,,,,,,,,61033b09439a14035d77fc22,61036ba57baab5273ba77caf,2021-07-29_23h02.23.271,Simcolourproject_2stim_asymm_v5,2020.2.10,Win32,60,61025ae37ef11b136ea224fe,,,,,,,,,578,39,-50,1,0,0,response3disk,,4,12,-4,1,0,0,rectangle,12,-4,1,0,0,12,-4,1,0,0,0,132,132,86,1,,,,,,,,
,,,,,,,,,,,,,FF,,,,,,,,1.2493,,,,,,,,,,,,,,,,,,,,,,61033b09439a14035d77fc22,61036ba57baab5273ba77caf,2021-07-29_23h02.23.271,Simcolourproject_2stim_asymm_v5,2020.2.10,Win32,60,61025ae37ef11b136ea224fe,,,,,,,,,13,38,28,1,0,0,response1disk,,6,6,0,1,0,0,rectangle,6,0,1,0,0,6,0,1,0,0,0,133,133,8,1,,,,,,,,
,,,,,,,,,,,,,FF,,,,,,,,0.6819,,,,,,,,,,,,,,,,,,,,,,61033b09439a14035d77fc22,61036ba57baab5273ba77caf,2021-07-29_23h02.23.271,Simcolourproject_2stim_asymm_v5,2020.2.10,Win32,60,61025ae37ef11b136ea224fe,,,,,,,,,4177,31,59,1,0,0,response1disk,,7,14,13,1,0,0,rectangle,14,13,1,0,0,14,13,1,0,0,0,134,134,93,1,,,,,,,,
,,,,,,,,,,,,,FF,,,,,,,,0.8991,,,,,,,,,,,,,,,,,,,,,,61033b09439a14035d77fc22,61036ba57baab5273ba77caf,2021-07-29_23h02.23.271,Simcolourproject_2stim_asymm_v5,2020.2.10,Win32,60,61025ae37ef11b136ea224fe,,,,,,,,,526,66,-72,1,0,0,response3disk,,4,13,6,1,0,0,rectangle,13,6,1,0,0,13,6,1,0,0,0,135,135,126,1,,,,,,,,
,,,,,,,,,,,,,FF,,,,,,,,0.6163,,,,,,,,,,,,,,,,,,,,,,61033b09439a14035d77fc22,61036ba57baab5273ba77caf,2021-07-29_23h02.23.271,Simcolourproject_2stim_asymm_v5,2020.2.10,Win32,60,61025ae37ef11b136ea224fe,,,,,,,,,3669,-33,-57,1,0,0,response5disk,,3,-8,1,1,0,0,rectangle,-8,1,1,0,0,-8,1,1,0,0,0,136,136,97,1,,,,,,,,
,,,,,,,,,,,,,FF,,,,,,,,0.7669,,,,,,,,,,,,,,,,,,,,,,61033b09439a14035d77fc22,61036ba57baab5273ba77caf,2021-07-29_23h02.23.271,Simcolourproject_2stim_asymm_v5,2020.2.10,Win32,60,61025ae37ef11b136ea224fe,,,,,,,,,1546,65,31,1,0,0,response1disk,,6,9,-5,1,0,0,rectangle,55,-28,1,0,0,12,-9,1,0,0,0,137,137,31,1,,response3disk_3,TRUE,5,5,"[138,8,123,96,60,110,94,180,47,279,271,234,191,207,279,176,232,160,110,225]",2.2879,rectangle
,,,,,,,,,,,,,FF,,,,,,,,0.9993,,,,,,,,,,,,,,,,,,,,,,61033b09439a14035d77fc22,61036ba57baab5273ba77caf,2021-07-29_23h02.23.271,Simcolourproject_2stim_asymm_v5,2020.2.10,Win32,60,61025ae37ef11b136ea224fe,,,,,,,,,396,84,-38,1,0,0,response3disk,,5,11,-9,1,0,0,rectangle,11,-9,1,0,0,11,-9,1,0,0,0,138,138,149,1,,,,,,,,
,,,,,,,,,,,,,FF,,,,,,,,0.6349,,,,,,,,,,,,,,,,,,,,,,61033b09439a14035d77fc22,61036ba57baab5273ba77caf,2021-07-29_23h02.23.271,Simcolourproject_2stim_asymm_v5,2020.2.10,Win32,60,61025ae37ef11b136ea224fe,,,,,,,,,2734,44,-43,1,0,0,response3disk,,5,15,-6,1,0,0,rectangle,15,-6,1,0,0,15,-6,1,0,0,0,139,139,89,1,,,,,,,,
,,,,,,,,,,,,,FF,,,,,,,,2.3969,,,,,,,,,,,,,,,,,,,,,,61033b09439a14035d77fc22,61036ba57baab5273ba77caf,2021-07-29_23h02.23.271,Simcolourproject_2stim_asymm_v5,2020.2.10,Win32,60,61025ae37ef11b136ea224fe,,,,,,,,,3145,83,-65,1,0,0,response3disk,,5,8,1,1,0,0,rectangle,8,1,1,0,0,8,1,1,0,0,0,140,140,107,1,,,,,,,,
,,,,,,,,,,,,,FF,,,,,,,,2.4982,,,,,,,,,,,,,,,,,,,,,,61033b09439a14035d77fc22,61036ba57baab5273ba77caf,2021-07-29_23h02.23.271,Simcolourproject_2stim_asymm_v5,2020.2.10,Win32,60,61025ae37ef11b136ea224fe,,,,,,,,,2900,32,-27,1,0,0,response3disk,,5,-7,-7,1,0,0,rectangle,-7,-7,1,0,0,-7,-7,1,0,0,0,141,141,133,1,,,,,,,,
,,,,,,,,,,,,,FF,,,,,,,,0.7831,,,,,,,,,,,,,,,,,,,,,,61033b09439a14035d77fc22,61036ba57baab5273ba77caf,2021-07-29_23h02.23.271,Simcolourproject_2stim_asymm_v5,2020.2.10,Win32,60,61025ae37ef11b136ea224fe,,,,,,,,,2924,48,41,1,0,0,response1disk,,6,13,8,1,0,0,rectangle,13,8,1,0,0,13,8,1,0,0,0,142,142,82,1,,,,,,,,
,,,,,,,,,,,,,FF,,,,,,,,0.5665,,,,,,,,,,,,,,,,,,,,,,61033b09439a14035d77fc22,61036ba57baab5273ba77caf,2021-07-29_23h02.23.271,Simcolourproject_2stim_asymm_v5,2020.2.10,Win32,60,61025ae37ef11b136ea224fe,,,,,,,,,828,57,-30,1,0,0,response3disk,,5,-4,2,1,0,0,rectangle,-4,2,1,0,0,-4,2,1,0,0,0,143,143,139,1,,,,,,,,
,,,,,,,,,,,,,FF,,,,,,,,0.7993,,,,,,,,,,,,,,,,,,,,,,61033b09439a14035d77fc22,61036ba57baab5273ba77caf,2021-07-29_23h02.23.271,Simcolourproject_2stim_asymm_v5,2020.2.10,Win32,60,61025ae37ef11b136ea224fe,,,,,,,,,2945,-28,-52,1,0,0,response5disk,,3,15,15,1,0,0,rectangle,15,15,1,0,0,15,15,1,0,0,0,144,144,29,1,,,,,,,,
,,,,,,,,,,,,,FF,,,,,,,,0.6146,,,,,,,,,,,,,,,,,,,,,,61033b09439a14035d77fc22,61036ba57baab5273ba77caf,2021-07-29_23h02.23.271,Simcolourproject_2stim_asymm_v5,2020.2.10,Win32,60,61025ae37ef11b136ea224fe,,,,,,,,,2670,-31,-42,1,0,0,response5disk,,3,2,3,1,0,0,rectangle,2,3,1,0,0,2,3,1,0,0,0,145,145,147,1,,,,,,,,
,,,,,,,,,,,,,FF,,,,,,,,0.6194,,,,,,,,,,,,,,,,,,,,,,61033b09439a14035d77fc22,61036ba57baab5273ba77caf,2021-07-29_23h02.23.271,Simcolourproject_2stim_asymm_v5,2020.2.10,Win32,60,61025ae37ef11b136ea224fe,,,,,,,,,1231,25,-38,1,0,0,response3disk,,4,12,7,1,0,0,rectangle,12,7,1,0,0,12,7,1,0,0,0,146,146,67,1,,,,,,,,
,,,,,,,,,,,,,FF,,,,,,,,0.7026,,,,,,,,,,,,,,,,,,,,,,61033b09439a14035d77fc22,61036ba57baab5273ba77caf,2021-07-29_23h02.23.271,Simcolourproject_2stim_asymm_v5,2020.2.10,Win32,60,61025ae37ef11b136ea224fe,,,,,,,,,190,-24,-34,1,0,0,response5disk,,3,15,12,1,0,0,rectangle,15,12,1,0,0,15,12,1,0,0,0,147,147,92,1,,,,,,,,
,,,,,,,,,,,,,FF,,,,,,,,0.8496,,,,,,,,,,,,,,,,,,,,,,61033b09439a14035d77fc22,61036ba57baab5273ba77caf,2021-07-29_23h02.23.271,Simcolourproject_2stim_asymm_v5,2020.2.10,Win32,60,61025ae37ef11b136ea224fe,,,,,,,,,3353,44,36,1,0,0,response1disk,,6,7,6,1,0,0,rectangle,7,6,1,0,0,7,6,1,0,0,0,148,148,16,1,,,,,,,,
,,,,,,,,,,,,,FF,,,,,,,,0.549,,,,,,,,,,,,,,,,,,,,,,61033b09439a14035d77fc22,61036ba57baab5273ba77caf,2021-07-29_23h02.23.271,Simcolourproject_2stim_asymm_v5,2020.2.10,Win32,60,61025ae37ef11b136ea224fe,,,,,,,,,2465,35,32,1,0,0,response1disk,,6,2,2,1,0,0,rectangle,2,2,1,0,0,2,2,1,0,0,0,149,149,35,1,,,,,,,,
,,,,,,,,,,,,,FF,,,,,,,,0.5509,,,,,,,,,,,,,,,,,,,,,,61033b09439a14035d77fc22,61036ba57baab5273ba77caf,2021-07-29_23h02.23.271,Simcolourproject_2stim_asymm_v5,2020.2.10,Win32,60,61025ae37ef11b136ea224fe,,,,,,,,,1477,31,22,1,0,0,response1disk,,6,13,5,1,0,0,rectangle,13,5,1,0,0,13,5,1,0,0,0,150,150,33,1,,,,,,,,
,,,,,,,,,,,,,FF,,,,,,,,0.6512,,,,,,,,,,,,,,,,,,,,,,61033b09439a14035d77fc22,61036ba57baab5273ba77caf,2021-07-29_23h02.23.271,Simcolourproject_2stim_asymm_v5,2020.2.10,Win32,60,61025ae37ef11b136ea224fe,,,,,,,,,2934,-23,-53,1,0,0,response5disk,,3,14,-1,1,0,0,rectangle,14,-1,1,0,0,14,-1,1,0,0,0,151,151,138,1,,,,,,,,
,,,,,,,,,,,,,FF,,,,,,,,0.7026,,,,,,,,,,,,,,,,,,,,,,61033b09439a14035d77fc22,61036ba57baab5273ba77caf,2021-07-29_23h02.23.271,Simcolourproject_2stim_asymm_v5,2020.2.10,Win32,60,61025ae37ef11b136ea224fe,,,,,,,,,1437,36,25,1,0,0,response1disk,,6,17,-1,1,0,0,rectangle,17,-1,1,0,0,17,-1,1,0,0,0,152,152,115,1,,,,,,,,
,,,,,,,,,,,,,FF,,,,,,,,1.4663,,,,,,,,,,,,,,,,,,,,,,61033b09439a14035d77fc22,61036ba57baab5273ba77caf,2021-07-29_23h02.23.271,Simcolourproject_2stim_asymm_v5,2020.2.10,Win32,60,61025ae37ef11b136ea224fe,,,,,,,,,620,-55,-29,1,0,0,response5disk,,2,-20,-4,1,0,0,rectangle,-20,-4,1,0,0,-20,-4,1,0,0,0,153,153,137,1,,,,,,,,
,,,,,,,,,,,,,FF,,,,,,,,0.7134,,,,,,,,,,,,,,,,,,,,,,61033b09439a14035d77fc22,61036ba57baab5273ba77caf,2021-07-29_23h02.23.271,Simcolourproject_2stim_asymm_v5,2020.2.10,Win32,60,61025ae37ef11b136ea224fe,,,,,,,,,3092,21,-60,1,0,0,response3disk,,4,3,0,1,0,0,rectangle,3,0,1,0,0,3,0,1,0,0,0,154,154,84,1,,,,,,,,
,,,,,,,,,,,,,FF,,,,,,,,3.3465,,,,,,,,,,,,,,,,,,,,,,61033b09439a14035d77fc22,61036ba57baab5273ba77caf,2021-07-29_23h02.23.271,Simcolourproject_2stim_asymm_v5,2020.2.10,Win32,60,61025ae37ef11b136ea224fe,,,,,,,,,2272,49,-35,1,0,0,response3disk,,5,8,5,1,0,0,rectangle,8,5,1,0,0,8,5,1,0,0,0,155,155,75,1,,,,,,,,
,,,,,,,,,,,,,FF,,,,,,,,0.5671,,,,,,,,,,,,,,,,,,,,,,61033b09439a14035d77fc22,61036ba57baab5273ba77caf,2021-07-29_23h02.23.271,Simcolourproject_2stim_asymm_v5,2020.2.10,Win32,60,61025ae37ef11b136ea224fe,,,,,,,,,4155,24,21,1,0,0,response1disk,,6,7,1,1,0,0,rectangle,7,1,1,0,0,7,1,1,0,0,0,156,156,91,1,,,,,,,,
,,,,,,,,,,,,,FF,,,,,,,,0.5823,,,,,,,,,,,,,,,,,,,,,,61033b09439a14035d77fc22,61036ba57baab5273ba77caf,2021-07-29_23h02.23.271,Simcolourproject_2stim_asymm_v5,2020.2.10,Win32,60,61025ae37ef11b136ea224fe,,,,,,,,,1936,40,36,1,0,0,response1disk,,6,9,2,1,0,0,rectangle,9,2,1,0,0,9,2,1,0,0,0,157,157,25,1,,,,,,,,
,,,,,,,,,,,,,FF,,,,,,,,0.5162,,,,,,,,,,,,,,,,,,,,,,61033b09439a14035d77fc22,61036ba57baab5273ba77caf,2021-07-29_23h02.23.271,Simcolourproject_2stim_asymm_v5,2020.2.10,Win32,60,61025ae37ef11b136ea224fe,,,,,,,,,1263,41,37,1,0,0,response1disk,,6,11,7,1,0,0,rectangle,11,7,1,0,0,11,7,1,0,0,0,158,158,100,1,,,,,,,,
,,,,,,,,,,,,,FF,,,,,,,,0.5351,,,,,,,,,,,,,,,,,,,,,,61033b09439a14035d77fc22,61036ba57baab5273ba77caf,2021-07-29_23h02.23.271,Simcolourproject_2stim_asymm_v5,2020.2.10,Win32,60,61025ae37ef11b136ea224fe,,,,,,,,,841,36,37,1,0,0,response1disk,,7,6,2,1,0,0,rectangle,26,72,1,0,0,14,8,1,0,0,0,159,159,153,1,,response1disk_3,TRUE,7,7,"[138,8,123,96,60,110,94,180,47,279,271,234,191,207,279,176,232,160,110,225]",1.7636,rectangle
,,,,,,,,,,,,,FF,,,,,,,,0.8828,,,,,,,,,,,,,,,,,,,,,,61033b09439a14035d77fc22,61036ba57baab5273ba77caf,2021-07-29_23h02.23.271,Simcolourproject_2stim_asymm_v5,2020.2.10,Win32,60,61025ae37ef11b136ea224fe,,,,,,,,,3882,56,-70,1,0,0,response3disk,,4,3,3,1,0,0,rectangle,3,3,1,0,0,3,3,1,0,0,1,0,160,143,1,,,,,,,,
,,,,,,,,,,,,,FF,,,,,,,,0.5341,,,,,,,,,,,,,,,,,,,,,,61033b09439a14035d77fc22,61036ba57baab5273ba77caf,2021-07-29_23h02.23.271,Simcolourproject_2stim_asymm_v5,2020.2.10,Win32,60,61025ae37ef11b136ea224fe,,,,,,,,,304,34,31,1,0,0,response1disk,,6,8,-3,1,0,0,rectangle,8,-3,1,0,0,8,-3,1,0,0,1,1,161,1,1,,,,,,,,
,,,,,,,,,,,,,FF,,,,,,,,0.6488,,,,,,,,,,,,,,,,,,,,,,61033b09439a14035d77fc22,61036ba57baab5273ba77caf,2021-07-29_23h02.23.271,Simcolourproject_2stim_asymm_v5,2020.2.10,Win32,60,61025ae37ef11b136ea224fe,,,,,,,,,228,16,43,1,0,0,response1disk,,7,-6,1,1,0,0,rectangle,-6,1,1,0,0,-6,1,1,0,0,1,2,162,26,1,,,,,,,,
,,,,,,,,,,,,,FF,,,,,,,,0.9668,,,,,,,,,,,,,,,,,,,,,,61033b09439a14035d77fc22,61036ba57baab5273ba77caf,2021-07-29_23h02.23.271,Simcolourproject_2stim_asymm_v5,2020.2.10,Win32,60,61025ae37ef11b136ea224fe,,,,,,,,,4114,54,-86,1,0,0,response3disk,,4,12,14,1,0,0,rectangle,12,14,1,0,0,12,14,1,0,0,1,3,163,132,1,,,,,,,,
,,,,,,,,,,,,,FF,,,,,,,,0.7174,,,,,,,,,,,,,,,,,,,,,,61033b09439a14035d77fc22,61036ba57baab5273ba77caf,2021-07-29_23h02.23.271,Simcolourproject_2stim_asymm_v5,2020.2.10,Win32,60,61025ae37ef11b136ea224fe,,,,,,,,,2925,36,18,1,0,0,response1disk,,6,20,9,1,0,0,rectangle,20,9,1,0,0,20,9,1,0,0,1,4,164,106,1,,,,,,,,
,,,,,,,,,,,,,FF,,,,,,,,0.9169,,,,,,,,,,,,,,,,,,,,,,61033b09439a14035d77fc22,61036ba57baab5273ba77caf,2021-07-29_23h02.23.271,Simcolourproject_2stim_asymm_v5,2020.2.10,Win32,60,61025ae37ef11b136ea224fe,,,,,,,,,3144,54,-68,1,0,0,response3disk,,4,-1,-9,1,0,0,rectangle,-1,-9,1,0,0,-1,-9,1,0,0,1,5,165,31,1,,,,,,,,
,,,,,,,,,,,,,FF,,,,,,,,0.6829,,,,,,,,,,,,,,,,,,,,,,61033b09439a14035d77fc22,61036ba57baab5273ba77caf,2021-07-29_23h02.23.271,Simcolourproject_2stim_asymm_v5,2020.2.10,Win32,60,61025ae37ef11b136ea224fe,,,,,,,,,3473,-41,-37,1,0,0,response5disk,,2,-9,4,1,0,0,rectangle,-9,4,1,0,0,-9,4,1,0,0,1,6,166,25,1,,,,,,,,
,,,,,,,,,,,,,FF,,,,,,,,0.7657,,,,,,,,,,,,,,,,,,,,,,61033b09439a14035d77fc22,61036ba57baab5273ba77caf,2021-07-29_23h02.23.271,Simcolourproject_2stim_asymm_v5,2020.2.10,Win32,60,61025ae37ef11b136ea224fe,,,,,,,,,3769,37,39,1,0,0,response1disk,,7,-5,4,1,0,0,rectangle,-5,4,1,0,0,-5,4,1,0,0,1,7,167,10,1,,,,,,,,
,,,,,,,,,,,,,FF,,,,,,,,0.6045,,,,,,,,,,,,,,,,,,,,,,61033b09439a14035d77fc22,61036ba57baab5273ba77caf,2021-07-29_23h02.23.271,Simcolourproject_2stim_asymm_v5,2020.2.10,Win32,60,61025ae37ef11b136ea224fe,,,,,,,,,2666,41,-29,1,0,0,response3disk,,5,15,5,1,0,0,rectangle,15,5,1,0,0,15,5,1,0,0,1,8,168,33,1,,,,,,,,
,,,,,,,,,,,,,FF,,,,,,,,0.7177,,,,,,,,,,,,,,,,,,,,,,61033b09439a14035d77fc22,61036ba57baab5273ba77caf,2021-07-29_23h02.23.271,Simcolourproject_2stim_asymm_v5,2020.2.10,Win32,60,61025ae37ef11b136ea224fe,,,,,,,,,1065,27,-34,1,0,0,response3disk,,4,6,5,1,0,0,rectangle,6,5,1,0,0,6,5,1,0,0,1,9,169,126,1,,,,,,,,
,,,,,,,,,,,,,FF,,,,,,,,1.6026,,,,,,,,,,,,,,,,,,,,,,61033b09439a14035d77fc22,61036ba57baab5273ba77caf,2021-07-29_23h02.23.271,Simcolourproject_2stim_asymm_v5,2020.2.10,Win32,60,61025ae37ef11b136ea224fe,,,,,,,,,1173,34,22,1,0,0,response1disk,,6,-2,-6,1,0,0,rectangle,-2,-6,1,0,0,-2,-6,1,0,0,1,10,170,2,1,,,,,,,,
,,,,,,,,,,,,,FF,,,,,,,,0.6318,,,,,,,,,,,,,,,,,,,,,,61033b09439a14035d77fc22,61036ba57baab5273ba77caf,2021-07-29_23h02.23.271,Simcolourproject_2stim_asymm_v5,2020.2.10,Win32,60,61025ae37ef11b136ea224fe,,,,,,,,,3173,47,-41,1,0,0,response3disk,,5,22,-11,1,0,0,rectangle,22,-11,1,0,0,22,-11,1,0,0,1,11,171,82,1,,,,,,,,
,,,,,,,,,,,,,FF,,,,,,,,0.7851,,,,,,,,,,,,,,,,,,,,,,61033b09439a14035d77fc22,61036ba57baab5273ba77caf,2021-07-29_23h02.23.271,Simcolourproject_2stim_asymm_v5,2020.2.10,Win32,60,61025ae37ef11b136ea224fe,,,,,,,,,2974,43,23,1,0,0,response1disk,,6,28,13,1,0,0,rectangle,28,13,1,0,0,28,13,1,0,0,1,12,172,86,1,,,,,,,,
,,,,,,,,,,,,,FF,,,,,,,,0.7074,,,,,,,,,,,,,,,,,,,,,,61033b09439a14035d77fc22,61036ba57baab5273ba77caf,2021-07-29_23h02.23.271,Simcolourproject_2stim_asymm_v5,2020.2.10,Win32,60,61025ae37ef11b136ea224fe,,,,,,,,,3201,-50,-51,1,0,0,response5disk,,3,5,10,1,0,0,rectangle,5,10,1,0,0,5,10,1,0,0,1,13,173,117,1,,,,,,,,
,,,,,,,,,,,,,FF,,,,,,,,0.7233,,,,,,,,,,,,,,,,,,,,,,61033b09439a14035d77fc22,61036ba57baab5273ba77caf,2021-07-29_23h02.23.271,Simcolourproject_2stim_asymm_v5,2020.2.10,Win32,60,61025ae37ef11b136ea224fe,,,,,,,,,2831,-48,21,1,0,0,response7disk,,1,7,-14,1,0,0,rectangle,7,-14,1,0,0,7,-14,1,0,0,1,14,174,14,1,,,,,,,,
,,,,,,,,,,,,,FF,,,,,,,,0.5196,,,,,,,,,,,,,,,,,,,,,,61033b09439a14035d77fc22,61036ba57baab5273ba77caf,2021-07-29_23h02.23.271,Simcolourproject_2stim_asymm_v5,2020.2.10,Win32,60,61025ae37ef11b136ea224fe,,,,,,,,,2056,49,45,1,0,0,response1disk,,6,19,-1,1,0,0,rectangle,-54,42,1,0,0,-3,10,1,0,0,1,15,175,100,1,,response7disk_3,TRUE,1,1,"[138,8,123,96,60,110,94,180,47,279,271,234,191,207,279,176,232,160,110,225]",1.6436,rectangle
,,,,,,,,,,,,,FF,,,,,,,,0.7529,,,,,,,,,,,,,,,,,,,,,,61033b09439a14035d77fc22,61036ba57baab5273ba77caf,2021-07-29_23h02.23.271,Simcolourproject_2stim_asymm_v5,2020.2.10,Win32,60,61025ae37ef11b136ea224fe,,,,,,,,,3596,44,-32,1,0,0,response3disk,,5,23,11,1,0,0,rectangle,23,11,1,0,0,23,11,1,0,0,1,16,176,62,1,,,,,,,,
,,,,,,,,,,,,,FF,,,,,,,,0.5675,,,,,,,,,,,,,,,,,,,,,,61033b09439a14035d77fc22,61036ba57baab5273ba77caf,2021-07-29_23h02.23.271,Simcolourproject_2stim_asymm_v5,2020.2.10,Win32,60,61025ae37ef11b136ea224fe,,,,,,,,,4174,44,35,1,0,0,response1disk,,6,11,9,1,0,0,rectangle,11,9,1,0,0,11,9,1,0,0,1,17,177,72,1,,,,,,,,
,,,,,,,,,,,,,FF,,,,,,,,4.3119,,,,,,,,,,,,,,,,,,,,,,61033b09439a14035d77fc22,61036ba57baab5273ba77caf,2021-07-29_23h02.23.271,Simcolourproject_2stim_asymm_v5,2020.2.10,Win32,60,61025ae37ef11b136ea224fe,,,,,,,,,3257,38,-92,1,0,0,response3disk,,4,21,-9,1,0,0,rectangle,21,-9,1,0,0,21,-9,1,0,0,1,18,178,90,1,,,,,,,,
,,,,,,,,,,,,,FF,,,,,,,,0.716,,,,,,,,,,,,,,,,,,,,,,61033b09439a14035d77fc22,61036ba57baab5273ba77caf,2021-07-29_23h02.23.271,Simcolourproject_2stim_asymm_v5,2020.2.10,Win32,60,61025ae37ef11b136ea224fe,,,,,,,,,2618,34,58,1,0,0,response1disk,,7,26,3,1,0,0,rectangle,32,-59,1,0,0,-6,2,1,0,0,1,19,179,116,1,,response3disk_3,TRUE,4,4,"[138,8,123,96,60,110,94,180,47,279,271,234,191,207,279,176,232,160,110,225]",2.1053,rectangle
,,,,,,,,,,,,,FF,,,,,,,,0.9,,,,,,,,,,,,,,,,,,,,,,61033b09439a14035d77fc22,61036ba57baab5273ba77caf,2021-07-29_23h02.23.271,Simcolourproject_2stim_asymm_v5,2020.2.10,Win32,60,61025ae37ef11b136ea224fe,,,,,,,,,2981,18,59,1,0,0,response1disk,,7,3,15,1,0,0,rectangle,3,15,1,0,0,3,15,1,0,0,1,20,180,8,1,,,,,,,,
,,,,,,,,,,,,,FF,,,,,,,,0.7968,,,,,,,,,,,,,,,,,,,,,,61033b09439a14035d77fc22,61036ba57baab5273ba77caf,2021-07-29_23h02.23.271,Simcolourproject_2stim_asymm_v5,2020.2.10,Win32,60,61025ae37ef11b136ea224fe,,,,,,,,,3995,-44,-57,1,0,0,response5disk,,3,-22,7,1,0,0,rectangle,-22,7,1,0,0,-22,7,1,0,0,1,21,181,54,1,,,,,,,,
,,,,,,,,,,,,,FF,,,,,,,,0.5985,,,,,,,,,,,,,,,,,,,,,,61033b09439a14035d77fc22,61036ba57baab5273ba77caf,2021-07-29_23h02.23.271,Simcolourproject_2stim_asymm_v5,2020.2.10,Win32,60,61025ae37ef11b136ea224fe,,,,,,,,,2409,18,57,1,0,0,response1disk,,7,5,-2,1,0,0,rectangle,5,-2,1,0,0,5,-2,1,0,0,1,22,182,157,1,,,,,,,,
,,,,,,,,,,,,,FF,,,,,,,,0.4666,,,,,,,,,,,,,,,,,,,,,,61033b09439a14035d77fc22,61036ba57baab5273ba77caf,2021-07-29_23h02.23.271,Simcolourproject_2stim_asymm_v5,2020.2.10,Win32,60,61025ae37ef11b136ea224fe,,,,,,,,,2538,29,47,1,0,0,response1disk,,7,15,-5,1,0,0,rectangle,15,-5,1,0,0,15,-5,1,0,0,1,23,183,50,1,,,,,,,,
,,,,,,,,,,,,,FF,,,,,,,,1.3487,,,,,,,,,,,,,,,,,,,,,,61033b09439a14035d77fc22,61036ba57baab5273ba77caf,2021-07-29_23h02.23.271,Simcolourproject_2stim_asymm_v5,2020.2.10,Win32,60,61025ae37ef11b136ea224fe,,,,,,,,,278,42,-23,1,0,0,response3disk,,5,17,2,1,0,0,rectangle,17,2,1,0,0,17,2,1,0,0,1,24,184,41,1,,,,,,,,
,,,,,,,,,,,,,FF,,,,,,,,0.5996,,,,,,,,,,,,,,,,,,,,,,61033b09439a14035d77fc22,61036ba57baab5273ba77caf,2021-07-29_23h02.23.271,Simcolourproject_2stim_asymm_v5,2020.2.10,Win32,60,61025ae37ef11b136ea224fe,,,,,,,,,4081,32,59,1,0,0,response1disk,,7,8,0,1,0,0,rectangle,8,0,1,0,0,8,0,1,0,0,1,25,185,108,1,,,,,,,,
,,,,,,,,,,,,,FF,,,,,,,,0.969,,,,,,,,,,,,,,,,,,,,,,61033b09439a14035d77fc22,61036ba57baab5273ba77caf,2021-07-29_23h02.23.271,Simcolourproject_2stim_asymm_v5,2020.2.10,Win32,60,61025ae37ef11b136ea224fe,,,,,,,,,892,27,-45,1,0,0,response3disk,,4,26,8,1,0,0,rectangle,26,8,1,0,0,26,8,1,0,0,1,26,186,142,1,,,,,,,,
,,,,,,,,,,,,,FF,,,,,,,,0.7005,,,,,,,,,,,,,,,,,,,,,,61033b09439a14035d77fc22,61036ba57baab5273ba77caf,2021-07-29_23h02.23.271,Simcolourproject_2stim_asymm_v5,2020.2.10,Win32,60,61025ae37ef11b136ea224fe,,,,,,,,,2697,30,49,1,0,0,response1disk,,7,-8,-2,1,0,0,rectangle,-8,-2,1,0,0,-8,-2,1,0,0,1,27,187,89,1,,,,,,,,
,,,,,,,,,,,,,FF,,,,,,,,1.1506,,,,,,,,,,,,,,,,,,,,,,61033b09439a14035d77fc22,61036ba57baab5273ba77caf,2021-07-29_23h02.23.271,Simcolourproject_2stim_asymm_v5,2020.2.10,Win32,60,61025ae37ef11b136ea224fe,,,,,,,,,1334,20,43,1,0,0,response1disk,,7,-3,6,1,0,0,rectangle,-3,6,1,0,0,-3,6,1,0,0,1,28,188,40,1,,,,,,,,
,,,,,,,,,,,,,FF,,,,,,,,0.5505,,,,,,,,,,,,,,,,,,,,,,61033b09439a14035d77fc22,61036ba57baab5273ba77caf,2021-07-29_23h02.23.271,Simcolourproject_2stim_asymm_v5,2020.2.10,Win32,60,61025ae37ef11b136ea224fe,,,,,,,,,2656,24,46,1,0,0,response1disk,,7,23,3,1,0,0,rectangle,23,3,1,0,0,23,3,1,0,0,1,29,189,99,1,,,,,,,,
,,,,,,,,,,,,,FF,,,,,,,,0.7835,,,,,,,,,,,,,,,,,,,,,,61033b09439a14035d77fc22,61036ba57baab5273ba77caf,2021-07-29_23h02.23.271,Simcolourproject_2stim_asymm_v5,2020.2.10,Win32,60,61025ae37ef11b136ea224fe,,,,,,,,,1021,44,48,1,0,0,response1disk,,7,-1,-6,1,0,0,rectangle,18,-80,0,0,1,4,2,1,0,0,1,30,190,145,1,,response3disk_3,TRUE,4,4,"[138,8,123,96,60,110,94,180,47,279,271,234,191,207,279,176,232,160,110,225]",1.0205,rectangle
,,,,,,,,,,,,,FF,,,,,,,,1.0994,,,,,,,,,,,,,,,,,,,,,,61033b09439a14035d77fc22,61036ba57baab5273ba77caf,2021-07-29_23h02.23.271,Simcolourproject_2stim_asymm_v5,2020.2.10,Win32,60,61025ae37ef11b136ea224fe,,,,,,,,,956,55,-39,1,0,0,response3disk,,5,10,-5,1,0,0,rectangle,10,-5,1,0,0,10,-5,1,0,0,1,31,191,67,1,,,,,,,,
,,,,,,,,,,,,,FF,,,,,,,,0.7814,,,,,,,,,,,,,,,,,,,,,,61033b09439a14035d77fc22,61036ba57baab5273ba77caf,2021-07-29_23h02.23.271,Simcolourproject_2stim_asymm_v5,2020.2.10,Win32,60,61025ae37ef11b136ea224fe,,,,,,,,,540,52,30,1,0,0,response1disk,,6,13,7,1,0,0,rectangle,13,7,1,0,0,13,7,1,0,0,1,32,192,137,1,,,,,,,,
,,,,,,,,,,,,,FF,,,,,,,,0.8281,,,,,,,,,,,,,,,,,,,,,,61033b09439a14035d77fc22,61036ba57baab5273ba77caf,2021-07-29_23h02.23.271,Simcolourproject_2stim_asymm_v5,2020.2.10,Win32,60,61025ae37ef11b136ea224fe,,,,,,,,,1309,35,-40,1,0,0,response3disk,,4,22,13,1,0,0,rectangle,22,13,1,0,0,22,13,1,0,0,1,33,193,139,1,,,,,,,,
,,,,,,,,,,,,,FF,,,,,,,,1.0349,,,,,,,,,,,,,,,,,,,,,,61033b09439a14035d77fc22,61036ba57baab5273ba77caf,2021-07-29_23h02.23.271,Simcolourproject_2stim_asymm_v5,2020.2.10,Win32,60,61025ae37ef11b136ea224fe,,,,,,,,,2489,-16,-68,1,0,0,response5disk,,3,13,2,1,0,0,rectangle,13,2,1,0,0,13,2,1,0,0,1,34,194,58,1,,,,,,,,
,,,,,,,,,,,,,FF,,,,,,,,0.7661,,,,,,,,,,,,,,,,,,,,,,61033b09439a14035d77fc22,61036ba57baab5273ba77caf,2021-07-29_23h02.23.271,Simcolourproject_2stim_asymm_v5,2020.2.10,Win32,60,61025ae37ef11b136ea224fe,,,,,,,,,930,84,-36,1,0,0,response3disk,,5,24,-4,1,0,0,rectangle,24,-4,1,0,0,24,-4,1,0,0,1,35,195,144,1,,,,,,,,
,,,,,,,,,,,,,FF,,,,,,,,0.8985,,,,,,,,,,,,,,,,,,,,,,61033b09439a14035d77fc22,61036ba57baab5273ba77caf,2021-07-29_23h02.23.271,Simcolourproject_2stim_asymm_v5,2020.2.10,Win32,60,61025ae37ef11b136ea224fe,,,,,,,,,1003,35,48,1,0,0,response1disk,,7,24,4,1,0,0,rectangle,24,4,1,0,0,24,4,1,0,0,1,36,196,120,1,,,,,,,,
,,,,,,,,,,,,,FF,,,,,,,,0.7346,,,,,,,,,,,,,,,,,,,,,,61033b09439a14035d77fc22,61036ba57baab5273ba77caf,2021-07-29_23h02.23.271,Simcolourproject_2stim_asymm_v5,2020.2.10,Win32,60,61025ae37ef11b136ea224fe,,,,,,,,,3780,-23,-54,1,0,0,response5disk,,3,-1,-1,1,0,0,rectangle,-1,-1,1,0,0,-1,-1,1,0,0,1,37,197,35,1,,,,,,,,
,,,,,,,,,,,,,FF,,,,,,,,0.9819,,,,,,,,,,,,,,,,,,,,,,61033b09439a14035d77fc22,61036ba57baab5273ba77caf,2021-07-29_23h02.23.271,Simcolourproject_2stim_asymm_v5,2020.2.10,Win32,60,61025ae37ef11b136ea224fe,,,,,,,,,2628,24,48,1,0,0,response1disk,,7,15,10,1,0,0,rectangle,15,10,1,0,0,15,10,1,0,0,1,38,198,51,1,,,,,,,,
,,,,,,,,,,,,,FF,,,,,,,,0.8301,,,,,,,,,,,,,,,,,,,,,,61033b09439a14035d77fc22,61036ba57baab5273ba77caf,2021-07-29_23h02.23.271,Simcolourproject_2stim_asymm_v5,2020.2.10,Win32,60,61025ae37ef11b136ea224fe,,,,,,,,,219,16,44,1,0,0,response1disk,,7,20,3,1,0,0,rectangle,20,3,1,0,0,20,3,1,0,0,1,39,199,135,1,,,,,,,,
,,,,,,,,,,,,,FF,,,,,,,,1.0186,,,,,,,,,,,,,,,,,,,,,,61033b09439a14035d77fc22,61036ba57baab5273ba77caf,2021-07-29_23h02.23.271,Simcolourproject_2stim_asymm_v5,2020.2.10,Win32,60,61025ae37ef11b136ea224fe,,,,,,,,,226,49,-40,1,0,0,response3disk,,5,4,-10,1,0,0,rectangle,4,-10,1,0,0,4,-10,1,0,0,1,40,200,136,1,,,,,,,,
,,,,,,,,,,,,,FF,,,,,,,,1.2498,,,,,,,,,,,,,,,,,,,,,,61033b09439a14035d77fc22,61036ba57baab5273ba77caf,2021-07-29_23h02.23.271,Simcolourproject_2stim_asymm_v5,2020.2.10,Win32,60,61025ae37ef11b136ea224fe,,,,,,,,,525,46,-91,0,0,1,response3disk,,4,5,-5,1,0,0,rectangle,5,-5,1,0,0,5,-5,1,0,0,1,41,201,49,1,,,,,,,,
,,,,,,,,,,,,,FF,,,,,,,,0.9119,,,,,,,,,,,,,,,,,,,,,,61033b09439a14035d77fc22,61036ba57baab5273ba77caf,2021-07-29_23h02.23.271,Simcolourproject_2stim_asymm_v5,2020.2.10,Win32,60,61025ae37ef11b136ea224fe,,,,,,,,,1487,23,40,1,0,0,response1disk,,7,14,-2,1,0,0,rectangle,14,-2,1,0,0,14,-2,1,0,0,1,42,202,155,1,,,,,,,,
,,,,,,,,,,,,,FF,,,,,,,,0.7323,,,,,,,,,,,,,,,,,,,,,,61033b09439a14035d77fc22,61036ba57baab5273ba77caf,2021-07-29_23h02.23.271,Simcolourproject_2stim_asymm_v5,2020.2.10,Win32,60,61025ae37ef11b136ea224fe,,,,,,,,,2190,24,57,1,0,0,response1disk,,7,20,0,1,0,0,rectangle,20,0,1,0,0,20,0,1,0,0,1,43,203,96,1,,,,,,,,
,,,,,,,,,,,,,FF,,,,,,,,1.6313,,,,,,,,,,,,,,,,,,,,,,61033b09439a14035d77fc22,61036ba57baab5273ba77caf,2021-07-29_23h02.23.271,Simcolourproject_2stim_asymm_v5,2020.2.10,Win32,60,61025ae37ef11b136ea224fe,,,,,,,,,4137,46,37,1,0,0,response1disk,,6,11,3,1,0,0,rectangle,11,3,1,0,0,11,3,1,0,0,1,44,204,29,1,,,,,,,,
,,,,,,,,,,,,,FF,,,,,,,,0.7498,,,,,,,,,,,,,,,,,,,,,,61033b09439a14035d77fc22,61036ba57baab5273ba77caf,2021-07-29_23h02.23.271,Simcolourproject_2stim_asymm_v5,2020.2.10,Win32,60,61025ae37ef11b136ea224fe,,,,,,,,,2506,15,35,1,0,0,response1disk,,7,5,-3,1,0,0,rectangle,5,-3,1,0,0,5,-3,1,0,0,1,45,205,59,1,,,,,,,,
,,,,,,,,,,,,,FF,,,,,,,,1.3985,,,,,,,,,,,,,,,,,,,,,,61033b09439a14035d77fc22,61036ba57baab5273ba77caf,2021-07-29_23h02.23.271,Simcolourproject_2stim_asymm_v5,2020.2.10,Win32,60,61025ae37ef11b136ea224fe,,,,,,,,,2032,-40,-47,1,0,0,response5disk,,3,-24,0,1,0,0,rectangle,-68,38,1,0,0,20,-5,1,0,0,1,46,206,85,1,,response7disk_3,TRUE,1,1,"[138,8,123,96,60,110,94,180,47,279,271,234,191,207,279,176,232,160,110,225]",1.1332,rectangle
,,,,,,,,,,,,,FF,,,,,,,,0.6999,,,,,,,,,,,,,,,,,,,,,,61033b09439a14035d77fc22,61036ba57baab5273ba77caf,2021-07-29_23h02.23.271,Simcolourproject_2stim_asymm_v5,2020.2.10,Win32,60,61025ae37ef11b136ea224fe,,,,,,,,,1713,28,37,1,0,0,response1disk,,7,10,-9,1,0,0,rectangle,10,-9,1,0,0,10,-9,1,0,0,1,47,207,68,1,,,,,,,,
,,,,,,,,,,,,,FF,,,,,,,,0.6824,,,,,,,,,,,,,,,,,,,,,,61033b09439a14035d77fc22,61036ba57baab5273ba77caf,2021-07-29_23h02.23.271,Simcolourproject_2stim_asymm_v5,2020.2.10,Win32,60,61025ae37ef11b136ea224fe,,,,,,,,,3300,25,40,1,0,0,response1disk,,7,13,-11,1,0,0,rectangle,13,-11,1,0,0,13,-11,1,0,0,1,48,208,95,1,,,,,,,,
,,,,,,,,,,,,,FF,,,,,,,,1.1001,,,,,,,,,,,,,,,,,,,,,,61033b09439a14035d77fc22,61036ba57baab5273ba77caf,2021-07-29_23h02.23.271,Simcolourproject_2stim_asymm_v5,2020.2.10,Win32,60,61025ae37ef11b136ea224fe,,,,,,,,,3388,-66,-39,1,0,0,response5disk,,2,-11,-4,1,0,0,rectangle,-11,-4,1,0,0,-11,-4,1,0,0,1,49,209,122,1,,,,,,,,
,,,,,,,,,,,,,FF,,,,,,,,0.7331,,,,,,,,,,,,,,,,,,,,,,61033b09439a14035d77fc22,61036ba57baab5273ba77caf,2021-07-29_23h02.23.271,Simcolourproject_2stim_asymm_v5,2020.2.10,Win32,60,61025ae37ef11b136ea224fe,,,,,,,,,3777,-45,-80,1,0,0,response5disk,,3,-5,-1,1,0,0,rectangle,-5,-1,1,0,0,-5,-1,1,0,0,1,50,210,70,1,,,,,,,,
,,,,,,,,,,,,,FF,,,,,,,,1.0808,,,,,,,,,,,,,,,,,,,,,,61033b09439a14035d77fc22,61036ba57baab5273ba77caf,2021-07-29_23h02.23.271,Simcolourproject_2stim_asymm_v5,2020.2.10,Win32,60,61025ae37ef11b136ea224fe,,,,,,,,,2879,59,-39,1,0,0,response3disk,,5,13,-6,1,0,0,rectangle,13,-6,1,0,0,13,-6,1,0,0,1,51,211,64,1,,,,,,,,
,,,,,,,,,,,,,FF,,,,,,,,1.1626,,,,,,,,,,,,,,,,,,,,,,61033b09439a14035d77fc22,61036ba57baab5273ba77caf,2021-07-29_23h02.23.271,Simcolourproject_2stim_asymm_v5,2020.2.10,Win32,60,61025ae37ef11b136ea224fe,,,,,,,,,1142,59,31,1,0,0,response1disk,,6,18,-12,1,0,0,rectangle,18,-12,1,0,0,18,-12,1,0,0,1,52,212,32,1,,,,,,,,
,,,,,,,,,,,,,FF,,,,,,,,0.6364,,,,,,,,,,,,,,,,,,,,,,61033b09439a14035d77fc22,61036ba57baab5273ba77caf,2021-07-29_23h02.23.271,Simcolourproject_2stim_asymm_v5,2020.2.10,Win32,60,61025ae37ef11b136ea224fe,,,,,,,,,3517,-26,-52,1,0,0,response5disk,,3,-4,4,1,0,0,rectangle,-4,4,1,0,0,-4,4,1,0,0,1,53,213,121,1,,,,,,,,
,,,,,,,,,,,,,FF,,,,,,,,1.5153,,,,,,,,,,,,,,,,,,,,,,61033b09439a14035d77fc22,61036ba57baab5273ba77caf,2021-07-29_23h02.23.271,Simcolourproject_2stim_asymm_v5,2020.2.10,Win32,60,61025ae37ef11b136ea224fe,,,,,,,,,2449,36,46,1,0,0,response1disk,,7,16,-3,1,0,0,rectangle,16,-3,1,0,0,16,-3,1,0,0,1,54,214,66,1,,,,,,,,
,,,,,,,,,,,,,FF,,,,,,,,1.1868,,,,,,,,,,,,,,,,,,,,,,61033b09439a14035d77fc22,61036ba57baab5273ba77caf,2021-07-29_23h02.23.271,Simcolourproject_2stim_asymm_v5,2020.2.10,Win32,60,61025ae37ef11b136ea224fe,,,,,,,,,1266,43,-35,1,0,0,response3disk,,5,-15,-1,1,0,0,rectangle,-15,-1,1,0,0,-15,-1,1,0,0,1,55,215,93,1,,,,,,,,
,,,,,,,,,,,,,FF,,,,,,,,0.7197,,,,,,,,,,,,,,,,,,,,,,61033b09439a14035d77fc22,61036ba57baab5273ba77caf,2021-07-29_23h02.23.271,Simcolourproject_2stim_asymm_v5,2020.2.10,Win32,60,61025ae37ef11b136ea224fe,,,,,,,,,450,37,-62,1,0,0,response3disk,,4,7,-2,1,0,0,rectangle,7,-2,1,0,0,7,-2,1,0,0,1,56,216,7,1,,,,,,,,
,,,,,,,,,,,,,FF,,,,,,,,0.7683,,,,,,,,,,,,,,,,,,,,,,61033b09439a14035d77fc22,61036ba57baab5273ba77caf,2021-07-29_23h02.23.271,Simcolourproject_2stim_asymm_v5,2020.2.10,Win32,60,61025ae37ef11b136ea224fe,,,,,,,,,2609,70,-16,1,0,0,response3disk,,5,22,10,1,0,0,rectangle,22,10,1,0,0,22,10,1,0,0,1,57,217,34,1,,,,,,,,
,,,,,,,,,,,,,FF,,,,,,,,0.7331,,,,,,,,,,,,,,,,,,,,,,61033b09439a14035d77fc22,61036ba57baab5273ba77caf,2021-07-29_23h02.23.271,Simcolourproject_2stim_asymm_v5,2020.2.10,Win32,60,61025ae37ef11b136ea224fe,,,,,,,,,1196,16,56,1,0,0,response1disk,,7,0,-5,1,0,0,rectangle,0,-5,1,0,0,0,-5,1,0,0,1,58,218,20,1,,,,,,,,
,,,,,,,,,,,,,FF,,,,,,,,0.9492,,,,,,,,,,,,,,,,,,,,,,61033b09439a14035d77fc22,61036ba57baab5273ba77caf,2021-07-29_23h02.23.271,Simcolourproject_2stim_asymm_v5,2020.2.10,Win32,60,61025ae37ef11b136ea224fe,,,,,,,,,524,40,22,1,0,0,response1disk,,6,13,-2,1,0,0,rectangle,13,-2,1,0,0,13,-2,1,0,0,1,59,219,19,1,,,,,,,,
,,,,,,,,,,,,,FF,,,,,,,,0.6173,,,,,,,,,,,,,,,,,,,,,,61033b09439a14035d77fc22,61036ba57baab5273ba77caf,2021-07-29_23h02.23.271,Simcolourproject_2stim_asymm_v5,2020.2.10,Win32,60,61025ae37ef11b136ea224fe,,,,,,,,,1170,24,47,1,0,0,response1disk,,7,15,8,1,0,0,rectangle,15,8,1,0,0,15,8,1,0,0,1,60,220,76,1,,,,,,,,
,,,,,,,,,,,,,FF,,,,,,,,2.5311,,,,,,,,,,,,,,,,,,,,,,61033b09439a14035d77fc22,61036ba57baab5273ba77caf,2021-07-29_23h02.23.271,Simcolourproject_2stim_asymm_v5,2020.2.10,Win32,60,61025ae37ef11b136ea224fe,,,,,,,,,1041,25,82,1,0,0,response1disk,,7,8,10,1,0,0,rectangle,8,10,1,0,0,8,10,1,0,0,1,61,221,107,1,,,,,,,,
,,,,,,,,,,,,,FF,,,,,,,,2.4301,,,,,,,,,,,,,,,,,,,,,,61033b09439a14035d77fc22,61036ba57baab5273ba77caf,2021-07-29_23h02.23.271,Simcolourproject_2stim_asymm_v5,2020.2.10,Win32,60,61025ae37ef11b136ea224fe,,,,,,,,,2575,88,28,1,0,0,response1disk,,6,1,-9,1,0,0,rectangle,1,-9,1,0,0,1,-9,1,0,0,1,62,222,152,1,,,,,,,,
,,,,,,,,,,,,,FF,,,,,,,,1.727,,,,,,,,,,,,,,,,,,,,,,61033b09439a14035d77fc22,61036ba57baab5273ba77caf,2021-07-29_23h02.23.271,Simcolourproject_2stim_asymm_v5,2020.2.10,Win32,60,61025ae37ef11b136ea224fe,,,,,,,,,53,57,89,1,0,0,response1disk,,7,14,5,1,0,0,rectangle,14,5,1,0,0,14,5,1,0,0,1,63,223,148,1,,,,,,,,
,,,,,,,,,,,,,FF,,,,,,,,1.0649,,,,,,,,,,,,,,,,,,,,,,61033b09439a14035d77fc22,61036ba57baab5273ba77caf,2021-07-29_23h02.23.271,Simcolourproject_2stim_asymm_v5,2020.2.10,Win32,60,61025ae37ef11b136ea224fe,,,,,,,,,3332,94,-41,1,0,0,response3disk,,5,18,2,1,0,0,rectangle,-91,-53,1,0,0,-5,-5,1,0,0,1,64,224,130,1,,response5disk_3,TRUE,2,2,"[138,8,123,96,60,110,94,180,47,279,271,234,191,207,279,176,232,160,110,225]",1.3446,rectangle
,,,,,,,,,,,,,FF,,,,,,,,0.8327,,,,,,,,,,,,,,,,,,,,,,61033b09439a14035d77fc22,61036ba57baab5273ba77caf,2021-07-29_23h02.23.271,Simcolourproject_2stim_asymm_v5,2020.2.10,Win32,60,61025ae37ef11b136ea224fe,,,,,,,,,1796,43,83,1,0,0,response1disk,,7,9,-3,1,0,0,rectangle,9,-3,1,0,0,9,-3,1,0,0,1,65,225,18,1,,,,,,,,
,,,,,,,,,,,,,FF,,,,,,,,0.4319,,,,,,,,,,,,,,,,,,,,,,61033b09439a14035d77fc22,61036ba57baab5273ba77caf,2021-07-29_23h02.23.271,Simcolourproject_2stim_asymm_v5,2020.2.10,Win32,60,61025ae37ef11b136ea224fe,,,,,,,,,427,39,85,1,0,0,response1disk,,7,11,2,1,0,0,rectangle,11,2,1,0,0,11,2,1,0,0,1,66,226,87,1,,,,,,,,
,,,,,,,,,,,,,FF,,,,,,,,0.8465,,,,,,,,,,,,,,,,,,,,,,61033b09439a14035d77fc22,61036ba57baab5273ba77caf,2021-07-29_23h02.23.271,Simcolourproject_2stim_asymm_v5,2020.2.10,Win32,60,61025ae37ef11b136ea224fe,,,,,,,,,2094,81,-39,1,0,0,response3disk,,5,-5,3,1,0,0,rectangle,-5,3,1,0,0,-5,3,1,0,0,1,67,227,69,1,,,,,,,,
,,,,,,,,,,,,,FF,,,,,,,,0.8317,,,,,,,,,,,,,,,,,,,,,,61033b09439a14035d77fc22,61036ba57baab5273ba77caf,2021-07-29_23h02.23.271,Simcolourproject_2stim_asymm_v5,2020.2.10,Win32,60,61025ae37ef11b136ea224fe,,,,,,,,,3437,45,-78,1,0,0,response3disk,,4,0,-6,1,0,0,rectangle,0,-6,1,0,0,0,-6,1,0,0,1,68,228,114,1,,,,,,,,
,,,,,,,,,,,,,FF,,,,,,,,1.1313,,,,,,,,,,,,,,,,,,,,,,61033b09439a14035d77fc22,61036ba57baab5273ba77caf,2021-07-29_23h02.23.271,Simcolourproject_2stim_asymm_v5,2020.2.10,Win32,60,61025ae37ef11b136ea224fe,,,,,,,,,2672,50,-87,1,0,0,response3disk,,4,3,8,1,0,0,rectangle,3,8,1,0,0,3,8,1,0,0,1,69,229,94,1,,,,,,,,
,,,,,,,,,,,,,FF,,,,,,,,0.8147,,,,,,,,,,,,,,,,,,,,,,61033b09439a14035d77fc22,61036ba57baab5273ba77caf,2021-07-29_23h02.23.271,Simcolourproject_2stim_asymm_v5,2020.2.10,Win32,60,61025ae37ef11b136ea224fe,,,,,,,,,95,-30,-81,1,0,0,response5disk,,3,18,-3,1,0,0,rectangle,18,-3,1,0,0,18,-3,1,0,0,1,70,230,92,1,,,,,,,,
,,,,,,,,,,,,,FF,,,,,,,,0.5528,,,,,,,,,,,,,,,,,,,,,,61033b09439a14035d77fc22,61036ba57baab5273ba77caf,2021-07-29_23h02.23.271,Simcolourproject_2stim_asymm_v5,2020.2.10,Win32,60,61025ae37ef11b136ea224fe,,,,,,,,,4297,40,86,1,0,0,response1disk,,7,6,-6,1,0,0,rectangle,-91,31,1,0,0,8,-3,1,0,0,1,71,231,4,1,,response7disk_3,TRUE,1,1,"[138,8,123,96,60,110,94,180,47,279,271,234,191,207,279,176,232,160,110,225]",1.0954,rectangle
,,,,,,,,,,,,,FF,,,,,,,,0.7511,,,,,,,,,,,,,,,,,,,,,,61033b09439a14035d77fc22,61036ba57baab5273ba77caf,2021-07-29_23h02.23.271,Simcolourproject_2stim_asymm_v5,2020.2.10,Win32,60,61025ae37ef11b136ea224fe,,,,,,,,,2679,88,43,1,0,0,response1disk,,6,4,-3,1,0,0,rectangle,4,-3,1,0,0,4,-3,1,0,0,1,72,232,110,1,,,,,,,,
,,,,,,,,,,,,,FF,,,,,,,,0.8857,,,,,,,,,,,,,,,,,,,,,,61033b09439a14035d77fc22,61036ba57baab5273ba77caf,2021-07-29_23h02.23.271,Simcolourproject_2stim_asymm_v5,2020.2.10,Win32,60,61025ae37ef11b136ea224fe,,,,,,,,,3631,89,-46,1,0,0,response3disk,,5,1,-9,1,0,0,rectangle,31,-88,1,0,0,-1,-2,1,0,0,1,73,233,133,1,,response3disk_3,TRUE,4,4,"[138,8,123,96,60,110,94,180,47,279,271,234,191,207,279,176,232,160,110,225]",1.2761,rectangle
,,,,,,,,,,,,,FF,,,,,,,,1.8322,,,,,,,,,,,,,,,,,,,,,,61033b09439a14035d77fc22,61036ba57baab5273ba77caf,2021-07-29_23h02.23.271,Simcolourproject_2stim_asymm_v5,2020.2.10,Win32,60,61025ae37ef11b136ea224fe,,,,,,,,,3037,-33,-71,1,0,0,response5disk,,3,5,-1,1,0,0,rectangle,5,-1,1,0,0,5,-1,1,0,0,1,74,234,37,1,,,,,,,,
,,,,,,,,,,,,,FF,,,,,,,,0.8499,,,,,,,,,,,,,,,,,,,,,,61033b09439a14035d77fc22,61036ba57baab5273ba77caf,2021-07-29_23h02.23.271,Simcolourproject_2stim_asymm_v5,2020.2.10,Win32,60,61025ae37ef11b136ea224fe,,,,,,,,,4144,55,-75,1,0,0,response3disk,,4,7,-2,1,0,0,rectangle,7,-2,1,0,0,7,-2,1,0,0,1,75,235,61,1,,,,,,,,
,,,,,,,,,,,,,FF,,,,,,,,0.6865,,,,,,,,,,,,,,,,,,,,,,61033b09439a14035d77fc22,61036ba57baab5273ba77caf,2021-07-29_23h02.23.271,Simcolourproject_2stim_asymm_v5,2020.2.10,Win32,60,61025ae37ef11b136ea224fe,,,,,,,,,1605,81,-38,1,0,0,response3disk,,5,-1,-10,1,0,0,rectangle,-1,-10,1,0,0,-1,-10,1,0,0,1,76,236,0,1,,,,,,,,
,,,,,,,,,,,,,FF,,,,,,,,0.5977,,,,,,,,,,,,,,,,,,,,,,61033b09439a14035d77fc22,61036ba57baab5273ba77caf,2021-07-29_23h02.23.271,Simcolourproject_2stim_asymm_v5,2020.2.10,Win32,60,61025ae37ef11b136ea224fe,,,,,,,,,3268,55,-91,1,0,0,response3disk,,4,-6,-3,1,0,0,rectangle,-6,-3,1,0,0,-6,-3,1,0,0,1,77,237,83,1,,,,,,,,
,,,,,,,,,,,,,FF,,,,,,,,0.8125,,,,,,,,,,,,,,,,,,,,,,61033b09439a14035d77fc22,61036ba57baab5273ba77caf,2021-07-29_23h02.23.271,Simcolourproject_2stim_asymm_v5,2020.2.10,Win32,60,61025ae37ef11b136ea224fe,,,,,,,,,885,-70,20,1,0,0,response7disk,,1,8,1,1,0,0,rectangle,8,1,1,0,0,8,1,1,0,0,1,78,238,42,1,,,,,,,,
,,,,,,,,,,,,,FF,,,,,,,,1.3456,,,,,,,,,,,,,,,,,,,,,,61033b09439a14035d77fc22,61036ba57baab5273ba77caf,2021-07-29_23h02.23.271,Simcolourproject_2stim_asymm_v5,2020.2.10,Win32,60,61025ae37ef11b136ea224fe,,,,,,,,,615,80,-34,1,0,0,response3disk,,5,7,-4,1,0,0,rectangle,7,-4,1,0,0,7,-4,1,0,0,1,79,239,74,1,,,,,,,,
,,,,,,,,,,,,,FF,,,,,,,,0.7476,,,,,,,,,,,,,,,,,,,,,,61033b09439a14035d77fc22,61036ba57baab5273ba77caf,2021-07-29_23h02.23.271,Simcolourproject_2stim_asymm_v5,2020.2.10,Win32,60,61025ae37ef11b136ea224fe,,,,,,,,,4147,-38,-86,1,0,0,response5disk,,3,-2,-11,1,0,0,rectangle,-2,-11,1,0,0,-2,-11,1,0,0,1,80,240,102,1,,,,,,,,
,,,,,,,,,,,,,FF,,,,,,,,0.8012,,,,,,,,,,,,,,,,,,,,,,61033b09439a14035d77fc22,61036ba57baab5273ba77caf,2021-07-29_23h02.23.271,Simcolourproject_2stim_asymm_v5,2020.2.10,Win32,60,61025ae37ef11b136ea224fe,,,,,,,,,3876,38,73,1,0,0,response1disk,,7,0,-14,1,0,0,rectangle,0,-14,1,0,0,0,-14,1,0,0,1,81,241,11,1,,,,,,,,
,,,,,,,,,,,,,FF,,,,,,,,0.669,,,,,,,,,,,,,,,,,,,,,,61033b09439a14035d77fc22,61036ba57baab5273ba77caf,2021-07-29_23h02.23.271,Simcolourproject_2stim_asymm_v5,2020.2.10,Win32,60,61025ae37ef11b136ea224fe,,,,,,,,,2171,74,21,1,0,0,response1disk,,6,7,-4,1,0,0,rectangle,7,-4,1,0,0,7,-4,1,0,0,1,82,242,147,1,,,,,,,,
,,,,,,,,,,,,,FF,,,,,,,,0.7005,,,,,,,,,,,,,,,,,,,,,,61033b09439a14035d77fc22,61036ba57baab5273ba77caf,2021-07-29_23h02.23.271,Simcolourproject_2stim_asymm_v5,2020.2.10,Win32,60,61025ae37ef11b136ea224fe,,,,,,,,,3953,70,-38,1,0,0,response3disk,,5,-5,-3,1,0,0,rectangle,-5,-3,1,0,0,-5,-3,1,0,0,1,83,243,15,1,,,,,,,,
,,,,,,,,,,,,,FF,,,,,,,,0.63,,,,,,,,,,,,,,,,,,,,,,61033b09439a14035d77fc22,61036ba57baab5273ba77caf,2021-07-29_23h02.23.271,Simcolourproject_2stim_asymm_v5,2020.2.10,Win32,60,61025ae37ef11b136ea224fe,,,,,,,,,549,75,32,1,0,0,response1disk,,6,0,-2,1,0,0,rectangle,0,-2,1,0,0,0,-2,1,0,0,1,84,244,17,1,,,,,,,,
,,,,,,,,,,,,,FF,,,,,,,,2.5974,,,,,,,,,,,,,,,,,,,,,,61033b09439a14035d77fc22,61036ba57baab5273ba77caf,2021-07-29_23h02.23.271,Simcolourproject_2stim_asymm_v5,2020.2.10,Win32,60,61025ae37ef11b136ea224fe,,,,,,,,,995,77,-46,1,0,0,response3disk,,5,13,-9,1,0,0,rectangle,13,-9,1,0,0,13,-9,1,0,0,1,85,245,156,1,,,,,,,,
,,,,,,,,,,,,,FF,,,,,,,,0.5697,,,,,,,,,,,,,,,,,,,,,,61033b09439a14035d77fc22,61036ba57baab5273ba77caf,2021-07-29_23h02.23.271,Simcolourproject_2stim_asymm_v5,2020.2.10,Win32,60,61025ae37ef11b136ea224fe,,,,,,,,,2743,54,-71,1,0,0,response3disk,,4,5,0,1,0,0,rectangle,5,0,1,0,0,5,0,1,0,0,1,86,246,57,1,,,,,,,,
,,,,,,,,,,,,,FF,,,,,,,,1.2154,,,,,,,,,,,,,,,,,,,,,,61033b09439a14035d77fc22,61036ba57baab5273ba77caf,2021-07-29_23h02.23.271,Simcolourproject_2stim_asymm_v5,2020.2.10,Win32,60,61025ae37ef11b136ea224fe,,,,,,,,,3247,36,-66,1,0,0,response3disk,,4,6,0,1,0,0,rectangle,6,0,1,0,0,6,0,1,0,0,1,87,247,105,1,,,,,,,,
,,,,,,,,,,,,,FF,,,,,,,,0.7513,,,,,,,,,,,,,,,,,,,,,,61033b09439a14035d77fc22,61036ba57baab5273ba77caf,2021-07-29_23h02.23.271,Simcolourproject_2stim_asymm_v5,2020.2.10,Win32,60,61025ae37ef11b136ea224fe,,,,,,,,,3573,48,93,1,0,0,response1disk,,7,7,-2,1,0,0,rectangle,7,-2,1,0,0,7,-2,1,0,0,1,88,248,153,1,,,,,,,,
,,,,,,,,,,,,,FF,,,,,,,,0.6138,,,,,,,,,,,,,,,,,,,,,,61033b09439a14035d77fc22,61036ba57baab5273ba77caf,2021-07-29_23h02.23.271,Simcolourproject_2stim_asymm_v5,2020.2.10,Win32,60,61025ae37ef11b136ea224fe,,,,,,,,,672,49,92,1,0,0,response1disk,,7,5,0,1,0,0,rectangle,5,0,1,0,0,5,0,1,0,0,1,89,249,150,1,,,,,,,,
,,,,,,,,,,,,,FF,,,,,,,,0.6328,,,,,,,,,,,,,,,,,,,,,,61033b09439a14035d77fc22,61036ba57baab5273ba77caf,2021-07-29_23h02.23.271,Simcolourproject_2stim_asymm_v5,2020.2.10,Win32,60,61025ae37ef11b136ea224fe,,,,,,,,,1999,44,90,1,0,0,response1disk,,7,-2,-12,1,0,0,rectangle,-2,-12,1,0,0,-2,-12,1,0,0,1,90,250,131,1,,,,,,,,
,,,,,,,,,,,,,FF,,,,,,,,0.5819,,,,,,,,,,,,,,,,,,,,,,61033b09439a14035d77fc22,61036ba57baab5273ba77caf,2021-07-29_23h02.23.271,Simcolourproject_2stim_asymm_v5,2020.2.10,Win32,60,61025ae37ef11b136ea224fe,,,,,,,,,1714,40,71,1,0,0,response1disk,,7,6,-4,1,0,0,rectangle,6,-4,1,0,0,6,-4,1,0,0,1,91,251,56,1,,,,,,,,
,,,,,,,,,,,,,FF,,,,,,,,1.7344,,,,,,,,,,,,,,,,,,,,,,61033b09439a14035d77fc22,61036ba57baab5273ba77caf,2021-07-29_23h02.23.271,Simcolourproject_2stim_asymm_v5,2020.2.10,Win32,60,61025ae37ef11b136ea224fe,,,,,,,,,2851,45,93,1,0,0,response1disk,,7,3,-8,1,0,0,rectangle,3,-8,1,0,0,3,-8,1,0,0,1,92,252,79,1,,,,,,,,
,,,,,,,,,,,,,FF,,,,,,,,0.5497,,,,,,,,,,,,,,,,,,,,,,61033b09439a14035d77fc22,61036ba57baab5273ba77caf,2021-07-29_23h02.23.271,Simcolourproject_2stim_asymm_v5,2020.2.10,Win32,60,61025ae37ef11b136ea224fe,,,,,,,,,1636,54,77,1,0,0,response1disk,,7,4,6,1,0,0,rectangle,4,6,1,0,0,4,6,1,0,0,1,93,253,138,1,,,,,,,,
,,,,,,,,,,,,,FF,,,,,,,,0.9469,,,,,,,,,,,,,,,,,,,,,,61033b09439a14035d77fc22,61036ba57baab5273ba77caf,2021-07-29_23h02.23.271,Simcolourproject_2stim_asymm_v5,2020.2.10,Win32,60,61025ae37ef11b136ea224fe,,,,,,,,,5,43,-82,1,0,0,response3disk,,4,4,-11,1,0,0,rectangle,4,-11,1,0,0,4,-11,1,0,0,1,94,254,98,1,,,,,,,,
,,,,,,,,,,,,,FF,,,,,,,,0.5163,,,,,,,,,,,,,,,,,,,,,,61033b09439a14035d77fc22,61036ba57baab5273ba77caf,2021-07-29_23h02.23.271,Simcolourproject_2stim_asymm_v5,2020.2.10,Win32,60,61025ae37ef11b136ea224fe,,,,,,,,,2509,45,85,1,0,0,response1disk,,7,5,12,1,0,0,rectangle,5,12,1,0,0,5,12,1,0,0,1,95,255,104,1,,,,,,,,
,,,,,,,,,,,,,FF,,,,,,,,0.9963,,,,,,,,,,,,,,,,,,,,,,61033b09439a14035d77fc22,61036ba57baab5273ba77caf,2021-07-29_23h02.23.271,Simcolourproject_2stim_asymm_v5,2020.2.10,Win32,60,61025ae37ef11b136ea224fe,,,,,,,,,1625,84,-39,1,0,0,response3disk,,5,18,0,1,0,0,rectangle,18,0,1,0,0,18,0,1,0,0,1,96,256,118,1,,,,,,,,
,,,,,,,,,,,,,FF,,,,,,,,0.6521,,,,,,,,,,,,,,,,,,,,,,61033b09439a14035d77fc22,61036ba57baab5273ba77caf,2021-07-29_23h02.23.271,Simcolourproject_2stim_asymm_v5,2020.2.10,Win32,60,61025ae37ef11b136ea224fe,,,,,,,,,1251,40,81,1,0,0,response1disk,,7,0,-5,1,0,0,rectangle,0,-5,1,0,0,0,-5,1,0,0,1,97,257,13,1,,,,,,,,
,,,,,,,,,,,,,FF,,,,,,,,0.9161,,,,,,,,,,,,,,,,,,,,,,61033b09439a14035d77fc22,61036ba57baab5273ba77caf,2021-07-29_23h02.23.271,Simcolourproject_2stim_asymm_v5,2020.2.10,Win32,60,61025ae37ef11b136ea224fe,,,,,,,,,2068,81,44,1,0,0,response1disk,,6,17,0,1,0,0,rectangle,17,0,1,0,0,17,0,1,0,0,1,98,258,23,1,,,,,,,,
,,,,,,,,,,,,,FF,,,,,,,,0.5992,,,,,,,,,,,,,,,,,,,,,,61033b09439a14035d77fc22,61036ba57baab5273ba77caf,2021-07-29_23h02.23.271,Simcolourproject_2stim_asymm_v5,2020.2.10,Win32,60,61025ae37ef11b136ea224fe,,,,,,,,,1720,37,79,1,0,0,response1disk,,7,-4,-9,1,0,0,rectangle,-4,-9,1,0,0,-4,-9,1,0,0,1,99,259,112,1,,,,,,,,
,,,,,,,,,,,,,FF,,,,,,,,0.935,,,,,,,,,,,,,,,,,,,,,,61033b09439a14035d77fc22,61036ba57baab5273ba77caf,2021-07-29_23h02.23.271,Simcolourproject_2stim_asymm_v5,2020.2.10,Win32,60,61025ae37ef11b136ea224fe,,,,,,,,,3194,39,-84,1,0,0,response3disk,,4,10,-7,1,0,0,rectangle,10,-7,1,0,0,10,-7,1,0,0,1,100,260,45,1,,,,,,,,
,,,,,,,,,,,,,FF,,,,,,,,0.6484,,,,,,,,,,,,,,,,,,,,,,61033b09439a14035d77fc22,61036ba57baab5273ba77caf,2021-07-29_23h02.23.271,Simcolourproject_2stim_asymm_v5,2020.2.10,Win32,60,61025ae37ef11b136ea224fe,,,,,,,,,2846,68,38,1,0,0,response1disk,,6,7,-12,1,0,0,rectangle,7,-12,1,0,0,7,-12,1,0,0,1,101,261,123,1,,,,,,,,
,,,,,,,,,,,,,FF,,,,,,,,1.9431,,,,,,,,,,,,,,,,,,,,,,61033b09439a14035d77fc22,61036ba57baab5273ba77caf,2021-07-29_23h02.23.271,Simcolourproject_2stim_asymm_v5,2020.2.10,Win32,60,61025ae37ef11b136ea224fe,,,,,,,,,2220,38,-83,1,0,0,response3disk,,4,7,1,1,0,0,rectangle,7,1,1,0,0,7,1,1,0,0,1,102,262,141,1,,,,,,,,
,,,,,,,,,,,,,FF,,,,,,,,0.7514,,,,,,,,,,,,,,,,,,,,,,61033b09439a14035d77fc22,61036ba57baab5273ba77caf,2021-07-29_23h02.23.271,Simcolourproject_2stim_asymm_v5,2020.2.10,Win32,60,61025ae37ef11b136ea224fe,,,,,,,,,2033,-45,-73,1,0,0,response5disk,,3,-16,-7,1,0,0,rectangle,-16,-7,1,0,0,-16,-7,1,0,0,1,103,263,140,1,,,,,,,,
,,,,,,,,,,,,,FF,,,,,,,,0.7516,,,,,,,,,,,,,,,,,,,,,,61033b09439a14035d77fc22,61036ba57baab5273ba77caf,2021-07-29_23h02.23.271,Simcolourproject_2stim_asymm_v5,2020.2.10,Win32,60,61025ae37ef11b136ea224fe,,,,,,,,,2824,39,-76,1,0,0,response3disk,,4,10,-2,1,0,0,rectangle,10,-2,1,0,0,10,-2,1,0,0,1,104,264,28,1,,,,,,,,
,,,,,,,,,,,,,FF,,,,,,,,0.985,,,,,,,,,,,,,,,,,,,,,,61033b09439a14035d77fc22,61036ba57baab5273ba77caf,2021-07-29_23h02.23.271,Simcolourproject_2stim_asymm_v5,2020.2.10,Win32,60,61025ae37ef11b136ea224fe,,,,,,,,,2611,76,-40,1,0,0,response3disk,,5,11,2,1,0,0,rectangle,11,2,1,0,0,11,2,1,0,0,1,105,265,103,1,,,,,,,,
,,,,,,,,,,,,,FF,,,,,,,,0.9976,,,,,,,,,,,,,,,,,,,,,,61033b09439a14035d77fc22,61036ba57baab5273ba77caf,2021-07-29_23h02.23.271,Simcolourproject_2stim_asymm_v5,2020.2.10,Win32,60,61025ae37ef11b136ea224fe,,,,,,,,,4208,39,-89,1,0,0,response3disk,,4,9,-10,1,0,0,rectangle,9,-10,1,0,0,9,-10,1,0,0,1,106,266,38,1,,,,,,,,
,,,,,,,,,,,,,FF,,,,,,,,0.6112,,,,,,,,,,,,,,,,,,,,,,61033b09439a14035d77fc22,61036ba57baab5273ba77caf,2021-07-29_23h02.23.271,Simcolourproject_2stim_asymm_v5,2020.2.10,Win32,60,61025ae37ef11b136ea224fe,,,,,,,,,797,34,83,1,0,0,response1disk,,7,3,1,1,0,0,rectangle,3,1,1,0,0,3,1,1,0,0,1,107,267,134,1,,,,,,,,
,,,,,,,,,,,,,FF,,,,,,,,0.4996,,,,,,,,,,,,,,,,,,,,,,61033b09439a14035d77fc22,61036ba57baab5273ba77caf,2021-07-29_23h02.23.271,Simcolourproject_2stim_asymm_v5,2020.2.10,Win32,60,61025ae37ef11b136ea224fe,,,,,,,,,1424,38,69,1,0,0,response1disk,,7,1,4,1,0,0,rectangle,1,4,1,0,0,1,4,1,0,0,1,108,268,88,1,,,,,,,,
,,,,,,,,,,,,,FF,,,,,,,,0.8996,,,,,,,,,,,,,,,,,,,,,,61033b09439a14035d77fc22,61036ba57baab5273ba77caf,2021-07-29_23h02.23.271,Simcolourproject_2stim_asymm_v5,2020.2.10,Win32,60,61025ae37ef11b136ea224fe,,,,,,,,,3340,88,-36,1,0,0,response3disk,,5,26,0,1,0,0,rectangle,26,0,1,0,0,26,0,1,0,0,1,109,269,22,1,,,,,,,,
,,,,,,,,,,,,,FF,,,,,,,,0.7011,,,,,,,,,,,,,,,,,,,,,,61033b09439a14035d77fc22,61036ba57baab5273ba77caf,2021-07-29_23h02.23.271,Simcolourproject_2stim_asymm_v5,2020.2.10,Win32,60,61025ae37ef11b136ea224fe,,,,,,,,,1906,41,76,1,0,0,response1disk,,7,1,-4,1,0,0,rectangle,93,44,1,0,0,10,0,1,0,0,1,110,270,78,1,,response1disk_3,TRUE,6,6,"[138,8,123,96,60,110,94,180,47,279,271,234,191,207,279,176,232,160,110,225]",1.43,rectangle
,,,,,,,,,,,,,FF,,,,,,,,0.949,,,,,,,,,,,,,,,,,,,,,,61033b09439a14035d77fc22,61036ba57baab5273ba77caf,2021-07-29_23h02.23.271,Simcolourproject_2stim_asymm_v5,2020.2.10,Win32,60,61025ae37ef11b136ea224fe,,,,,,,,,3030,35,84,1,0,0,response1disk,,7,9,3,1,0,0,rectangle,9,3,1,0,0,9,3,1,0,0,1,111,271,84,1,,,,,,,,
,,,,,,,,,,,,,FF,,,,,,,,1.1319,,,,,,,,,,,,,,,,,,,,,,61033b09439a14035d77fc22,61036ba57baab5273ba77caf,2021-07-29_23h02.23.271,Simcolourproject_2stim_asymm_v5,2020.2.10,Win32,60,61025ae37ef11b136ea224fe,,,,,,,,,464,87,21,1,0,0,response1disk,,6,3,5,1,0,0,rectangle,3,5,1,0,0,3,5,1,0,0,1,112,272,149,1,,,,,,,,
,,,,,,,,,,,,,FF,,,,,,,,0.7844,,,,,,,,,,,,,,,,,,,,,,61033b09439a14035d77fc22,61036ba57baab5273ba77caf,2021-07-29_23h02.23.271,Simcolourproject_2stim_asymm_v5,2020.2.10,Win32,60,61025ae37ef11b136ea224fe,,,,,,,,,3714,57,-90,1,0,0,response3disk,,4,7,-7,1,0,0,rectangle,7,-7,1,0,0,7,-7,1,0,0,1,113,273,71,1,,,,,,,,
,,,,,,,,,,,,,FF,,,,,,,,0.5794,,,,,,,,,,,,,,,,,,,,,,61033b09439a14035d77fc22,61036ba57baab5273ba77caf,2021-07-29_23h02.23.271,Simcolourproject_2stim_asymm_v5,2020.2.10,Win32,60,61025ae37ef11b136ea224fe,,,,,,,,,2513,40,90,1,0,0,response1disk,,7,4,-2,1,0,0,rectangle,4,-2,1,0,0,4,-2,1,0,0,1,114,274,30,1,,,,,,,,
,,,,,,,,,,,,,FF,,,,,,,,0.5002,,,,,,,,,,,,,,,,,,,,,,61033b09439a14035d77fc22,61036ba57baab5273ba77caf,2021-07-29_23h02.23.271,Simcolourproject_2stim_asymm_v5,2020.2.10,Win32,60,61025ae37ef11b136ea224fe,,,,,,,,,2060,34,71,1,0,0,response1disk,,7,3,-1,1,0,0,rectangle,3,-1,1,0,0,3,-1,1,0,0,1,115,275,48,1,,,,,,,,
,,,,,,,,,,,,,FF,,,,,,,,0.9626,,,,,,,,,,,,,,,,,,,,,,61033b09439a14035d77fc22,61036ba57baab5273ba77caf,2021-07-29_23h02.23.271,Simcolourproject_2stim_asymm_v5,2020.2.10,Win32,60,61025ae37ef11b136ea224fe,,,,,,,,,4358,-22,-84,1,0,0,response5disk,,3,-4,-6,1,0,0,rectangle,-4,-6,1,0,0,-4,-6,1,0,0,1,116,276,127,1,,,,,,,,
,,,,,,,,,,,,,FF,,,,,,,,0.6447,,,,,,,,,,,,,,,,,,,,,,61033b09439a14035d77fc22,61036ba57baab5273ba77caf,2021-07-29_23h02.23.271,Simcolourproject_2stim_asymm_v5,2020.2.10,Win32,60,61025ae37ef11b136ea224fe,,,,,,,,,19,42,80,1,0,0,response1disk,,7,0,0,1,0,0,rectangle,0,0,1,0,0,0,0,1,0,0,1,117,277,125,1,,,,,,,,
,,,,,,,,,,,,,FF,,,,,,,,0.6976,,,,,,,,,,,,,,,,,,,,,,61033b09439a14035d77fc22,61036ba57baab5273ba77caf,2021-07-29_23h02.23.271,Simcolourproject_2stim_asymm_v5,2020.2.10,Win32,60,61025ae37ef11b136ea224fe,,,,,,,,,4252,37,-85,1,0,0,response3disk,,4,8,3,1,0,0,rectangle,-44,87,1,0,0,4,2,1,0,0,1,118,278,44,1,,response7disk_3,TRUE,0,0,"[138,8,123,96,60,110,94,180,47,279,271,234,191,207,279,176,232,160,110,225]",2.6612,rectangle
,,,,,,,,,,,,,FF,,,,,,,,1.4316,,,,,,,,,,,,,,,,,,,,,,61033b09439a14035d77fc22,61036ba57baab5273ba77caf,2021-07-29_23h02.23.271,Simcolourproject_2stim_asymm_v5,2020.2.10,Win32,60,61025ae37ef11b136ea224fe,,,,,,,,,3137,46,82,1,0,0,response1disk,,7,2,-10,1,0,0,rectangle,2,-10,1,0,0,2,-10,1,0,0,1,119,279,63,1,,,,,,,,
,,,,,,,,,,,,,FF,,,,,,,,0.6517,,,,,,,,,,,,,,,,,,,,,,61033b09439a14035d77fc22,61036ba57baab5273ba77caf,2021-07-29_23h02.23.271,Simcolourproject_2stim_asymm_v5,2020.2.10,Win32,60,61025ae37ef11b136ea224fe,,,,,,,,,3407,80,-38,1,0,0,response3disk,,5,-2,-7,1,0,0,rectangle,-2,-7,1,0,0,-2,-7,1,0,0,1,120,280,75,1,,,,,,,,
,,,,,,,,,,,,,FF,,,,,,,,0.5988,,,,,,,,,,,,,,,,,,,,,,61033b09439a14035d77fc22,61036ba57baab5273ba77caf,2021-07-29_23h02.23.271,Simcolourproject_2stim_asymm_v5,2020.2.10,Win32,60,61025ae37ef11b136ea224fe,,,,,,,,,2871,44,73,1,0,0,response1disk,,7,3,0,1,0,0,rectangle,3,0,1,0,0,3,0,1,0,0,1,121,281,39,1,,,,,,,,
,,,,,,,,,,,,,FF,,,,,,,,0.9013,,,,,,,,,,,,,,,,,,,,,,61033b09439a14035d77fc22,61036ba57baab5273ba77caf,2021-07-29_23h02.23.271,Simcolourproject_2stim_asymm_v5,2020.2.10,Win32,60,61025ae37ef11b136ea224fe,,,,,,,,,3630,-44,80,1,0,0,response7disk,,0,0,-14,1,0,0,rectangle,0,-14,1,0,0,0,-14,1,0,0,1,122,282,12,1,,,,,,,,
,,,,,,,,,,,,,FF,,,,,,,,0.7155,,,,,,,,,,,,,,,,,,,,,,61033b09439a14035d77fc22,61036ba57baab5273ba77caf,2021-07-29_23h02.23.271,Simcolourproject_2stim_asymm_v5,2020.2.10,Win32,60,61025ae37ef11b136ea224fe,,,,,,,,,3914,-27,-93,1,0,0,response5disk,,3,7,0,1,0,0,rectangle,7,0,1,0,0,7,0,1,0,0,1,123,283,47,1,,,,,,,,
,,,,,,,,,,,,,FF,,,,,,,,0.7655,,,,,,,,,,,,,,,,,,,,,,61033b09439a14035d77fc22,61036ba57baab5273ba77caf,2021-07-29_23h02.23.271,Simcolourproject_2stim_asymm_v5,2020.2.10,Win32,60,61025ae37ef11b136ea224fe,,,,,,,,,2682,53,71,1,0,0,response1disk,,7,15,-11,1,0,0,rectangle,15,-11,1,0,0,15,-11,1,0,0,1,124,284,73,1,,,,,,,,
,,,,,,,,,,,,,FF,,,,,,,,0.6164,,,,,,,,,,,,,,,,,,,,,,61033b09439a14035d77fc22,61036ba57baab5273ba77caf,2021-07-29_23h02.23.271,Simcolourproject_2stim_asymm_v5,2020.2.10,Win32,60,61025ae37ef11b136ea224fe,,,,,,,,,174,41,-86,1,0,0,response3disk,,4,7,-7,1,0,0,rectangle,7,-7,1,0,0,7,-7,1,0,0,1,125,285,24,1,,,,,,,,
,,,,,,,,,,,,,FF,,,,,,,,0.7023,,,,,,,,,,,,,,,,,,,,,,61033b09439a14035d77fc22,61036ba57baab5273ba77caf,2021-07-29_23h02.23.271,Simcolourproject_2stim_asymm_v5,2020.2.10,Win32,60,61025ae37ef11b136ea224fe,,,,,,,,,2241,88,-49,1,0,0,response3disk,,5,1,-7,1,0,0,rectangle,1,-7,1,0,0,1,-7,1,0,0,1,126,286,129,1,,,,,,,,
,,,,,,,,,,,,,FF,,,,,,,,0.6135,,,,,,,,,,,,,,,,,,,,,,61033b09439a14035d77fc22,61036ba57baab5273ba77caf,2021-07-29_23h02.23.271,Simcolourproject_2stim_asymm_v5,2020.2.10,Win32,60,61025ae37ef11b136ea224fe,,,,,,,,,2704,32,72,1,0,0,response1disk,,7,-8,-7,1,0,0,rectangle,-8,-7,1,0,0,-8,-7,1,0,0,1,127,287,53,1,,,,,,,,
,,,,,,,,,,,,,FF,,,,,,,,1.3327,,,,,,,,,,,,,,,,,,,,,,61033b09439a14035d77fc22,61036ba57baab5273ba77caf,2021-07-29_23h02.23.271,Simcolourproject_2stim_asymm_v5,2020.2.10,Win32,60,61025ae37ef11b136ea224fe,,,,,,,,,3413,85,24,1,0,0,response1disk,,6,8,7,1,0,0,rectangle,8,7,1,0,0,8,7,1,0,0,1,128,288,109,1,,,,,,,,
,,,,,,,,,,,,,FF,,,,,,,,0.5026,,,,,,,,,,,,,,,,,,,,,,61033b09439a14035d77fc22,61036ba57baab5273ba77caf,2021-07-29_23h02.23.271,Simcolourproject_2stim_asymm_v5,2020.2.10,Win32,60,61025ae37ef11b136ea224fe,,,,,,,,,3919,46,77,1,0,0,response1disk,,7,3,-8,1,0,0,rectangle,3,-8,1,0,0,3,-8,1,0,0,1,129,289,128,1,,,,,,,,
,,,,,,,,,,,,,FF,,,,,,,,0.597,,,,,,,,,,,,,,,,,,,,,,61033b09439a14035d77fc22,61036ba57baab5273ba77caf,2021-07-29_23h02.23.271,Simcolourproject_2stim_asymm_v5,2020.2.10,Win32,60,61025ae37ef11b136ea224fe,,,,,,,,,603,93,39,1,0,0,response1disk,,6,16,6,1,0,0,rectangle,16,6,1,0,0,16,6,1,0,0,1,130,290,46,1,,,,,,,,
,,,,,,,,,,,,,FF,,,,,,,,0.5317,,,,,,,,,,,,,,,,,,,,,,61033b09439a14035d77fc22,61036ba57baab5273ba77caf,2021-07-29_23h02.23.271,Simcolourproject_2stim_asymm_v5,2020.2.10,Win32,60,61025ae37ef11b136ea224fe,,,,,,,,,2263,75,-28,1,0,0,response3disk,,5,12,11,1,0,0,rectangle,12,11,1,0,0,12,11,1,0,0,1,131,291,111,1,,,,,,,,
,,,,,,,,,,,,,FF,,,,,,,,1.6804,,,,,,,,,,,,,,,,,,,,,,61033b09439a14035d77fc22,61036ba57baab5273ba77caf,2021-07-29_23h02.23.271,Simcolourproject_2stim_asymm_v5,2020.2.10,Win32,60,61025ae37ef11b136ea224fe,,,,,,,,,578,84,-52,1,0,0,response3disk,,5,16,6,1,0,0,rectangle,16,6,1,0,0,16,6,1,0,0,1,132,292,27,1,,,,,,,,
,,,,,,,,,,,,,FF,,,,,,,,0.6796,,,,,,,,,,,,,,,,,,,,,,61033b09439a14035d77fc22,61036ba57baab5273ba77caf,2021-07-29_23h02.23.271,Simcolourproject_2stim_asymm_v5,2020.2.10,Win32,60,61025ae37ef11b136ea224fe,,,,,,,,,13,93,39,1,0,0,response1disk,,6,15,2,1,0,0,rectangle,15,2,1,0,0,15,2,1,0,0,1,133,293,5,1,,,,,,,,
,,,,,,,,,,,,,FF,,,,,,,,0.5128,,,,,,,,,,,,,,,,,,,,,,61033b09439a14035d77fc22,61036ba57baab5273ba77caf,2021-07-29_23h02.23.271,Simcolourproject_2stim_asymm_v5,2020.2.10,Win32,60,61025ae37ef11b136ea224fe,,,,,,,,,4177,34,59,1,0,0,response1disk,,7,9,-11,1,0,0,rectangle,9,-11,1,0,0,9,-11,1,0,0,1,134,294,60,1,,,,,,,,
,,,,,,,,,,,,,FF,,,,,,,,0.8326,,,,,,,,,,,,,,,,,,,,,,61033b09439a14035d77fc22,61036ba57baab5273ba77caf,2021-07-29_23h02.23.271,Simcolourproject_2stim_asymm_v5,2020.2.10,Win32,60,61025ae37ef11b136ea224fe,,,,,,,,,526,49,-89,1,0,0,response3disk,,4,18,-15,1,0,0,rectangle,18,-15,1,0,0,18,-15,1,0,0,1,135,295,159,1,,,,,,,,
,,,,,,,,,,,,,FF,,,,,,,,0.7486,,,,,,,,,,,,,,,,,,,,,,61033b09439a14035d77fc22,61036ba57baab5273ba77caf,2021-07-29_23h02.23.271,Simcolourproject_2stim_asymm_v5,2020.2.10,Win32,60,61025ae37ef11b136ea224fe,,,,,,,,,3669,-57,-43,1,0,0,response5disk,,2,-25,3,1,0,0,rectangle,-25,3,1,0,0,-25,3,1,0,0,1,136,296,158,1,,,,,,,,
,,,,,,,,,,,,,FF,,,,,,,,0.6344,,,,,,,,,,,,,,,,,,,,,,61033b09439a14035d77fc22,61036ba57baab5273ba77caf,2021-07-29_23h02.23.271,Simcolourproject_2stim_asymm_v5,2020.2.10,Win32,60,61025ae37ef11b136ea224fe,,,,,,,,,1546,51,82,1,0,0,response1disk,,7,9,-1,1,0,0,rectangle,9,-1,1,0,0,9,-1,1,0,0,1,137,297,119,1,,,,,,,,
,,,,,,,,,,,,,FF,,,,,,,,0.531,,,,,,,,,,,,,,,,,,,,,,61033b09439a14035d77fc22,61036ba57baab5273ba77caf,2021-07-29_23h02.23.271,Simcolourproject_2stim_asymm_v5,2020.2.10,Win32,60,61025ae37ef11b136ea224fe,,,,,,,,,396,37,62,1,0,0,response1disk,,7,1,-13,1,0,0,rectangle,1,-13,1,0,0,1,-13,1,0,0,1,138,298,97,1,,,,,,,,
,,,,,,,,,,,,,FF,,,,,,,,0.7484,,,,,,,,,,,,,,,,,,,,,,61033b09439a14035d77fc22,61036ba57baab5273ba77caf,2021-07-29_23h02.23.271,Simcolourproject_2stim_asymm_v5,2020.2.10,Win32,60,61025ae37ef11b136ea224fe,,,,,,,,,2734,85,44,1,0,0,response1disk,,6,21,0,1,0,0,rectangle,21,0,1,0,0,21,0,1,0,0,1,139,299,77,1,,,,,,,,
,,,,,,,,,,,,,FF,,,,,,,,1.2135,,,,,,,,,,,,,,,,,,,,,,61033b09439a14035d77fc22,61036ba57baab5273ba77caf,2021-07-29_23h02.23.271,Simcolourproject_2stim_asymm_v5,2020.2.10,Win32,60,61025ae37ef11b136ea224fe,,,,,,,,,3145,94,-61,1,0,0,response3disk,,5,17,-1,1,0,0,rectangle,17,-1,1,0,0,17,-1,1,0,0,1,140,300,21,1,,,,,,,,
,,,,,,,,,,,,,FF,,,,,,,,0.6951,,,,,,,,,,,,,,,,,,,,,,61033b09439a14035d77fc22,61036ba57baab5273ba77caf,2021-07-29_23h02.23.271,Simcolourproject_2stim_asymm_v5,2020.2.10,Win32,60,61025ae37ef11b136ea224fe,,,,,,,,,2900,88,29,1,0,0,response1disk,,6,20,-3,1,0,0,rectangle,20,-3,1,0,0,20,-3,1,0,0,1,141,301,81,1,,,,,,,,
,,,,,,,,,,,,,FF,,,,,,,,0.6163,,,,,,,,,,,,,,,,,,,,,,61033b09439a14035d77fc22,61036ba57baab5273ba77caf,2021-07-29_23h02.23.271,Simcolourproject_2stim_asymm_v5,2020.2.10,Win32,60,61025ae37ef11b136ea224fe,,,,,,,,,2924,68,-91,1,0,0,response3disk,,4,25,-3,1,0,0,rectangle,25,-3,1,0,0,25,-3,1,0,0,1,142,302,6,1,,,,,,,,
