key_resp.keys,key_resp.rt,key_resp_14.keys,key_resp_14.rt,key_resp_15.keys,key_resp_15.rt,key_resp_17.keys,key_resp_17.rt,key_resp_9.keys,key_resp_9.rt,key_resp_10.keys,key_resp_10.rt,practice_comparison,Ecc,mouse_5.x,mouse_5.y,mouse_5.leftButton,mouse_5.midButton,mouse_5.rightButton,mouse_5.clicked_name,pracsimilarity,response_time,mouse_10.x,mouse_10.y,mouse_10.leftButton,mouse_10.midButton,mouse_10.rightButton,mouse_10.clicked_name,mouse_7.x,mouse_7.y,mouse_7.leftButton,mouse_7.midButton,mouse_7.rightButton,mouse_6.x,mouse_6.y,mouse_6.leftButton,mouse_6.midButton,mouse_6.rightButton,duringprac.thisRepN,duringprac.thisTrialN,duringprac.thisN,duringprac.thisIndex,duringprac.ran,participant,session,date,expName,psychopyVersion,OS,frameRate,study_id,mouse_7.clicked_name,catchpracsimilarity,catch_response_time,catchnumberprac,catchtrialorderprac,mouse_6.clicked_name,key_resp_22.keys,key_resp_22.rt,realcomparison,mouse.x,mouse.y,mouse.leftButton,mouse.midButton,mouse.rightButton,mouse.clicked_name,Colour2,similarity,mouse_2.x,mouse_2.y,mouse_2.leftButton,mouse_2.midButton,mouse_2.rightButton,mouse_2.clicked_name,mouse_3.x,mouse_3.y,mouse_3.leftButton,mouse_3.midButton,mouse_3.rightButton,mouse_11.x,mouse_11.y,mouse_11.leftButton,mouse_11.midButton,mouse_11.rightButton,trials_2.thisRepN,trials_2.thisTrialN,trials_2.thisN,trials_2.thisIndex,trials_2.ran,Colour1,mouse_3.clicked_name,catchornah,catchsimilarity,catchnumber,catchtrialorder,catchRT,mouse_11.clicked_name
space,2.2701,space,7.2827,space,7.1168,space,3.4178,space,0.1176,space,1.3503,12,PF,-43,-118,1,0,0,response5disk_5,3,3.4338,-6,4,1,0,0,rectangle_8,-6,4,1,0,0,-6,4,1,0,0,0,0,0,1,1,6103583967377f29277e44ba,61036f113dc361aa68b5ee86,2021-07-30_04h16.53.392,Simcolourproject_2stim_asymm_v5,2020.2.10,Win32,60,61025ae37ef11b136ea224fe,,,,,,,,,,,,,,,,,,,,,,,,,,,,,,,,,,,,,,,,,,,,,,
,,,,,,,,,,,,44,FF,110,-38,1,0,0,response3disk_5,5,2.566,-6,1,1,0,0,rectangle_8,69,143,1,0,0,4,0,1,0,0,0,1,1,0,1,6103583967377f29277e44ba,61036f113dc361aa68b5ee86,2021-07-30_04h16.53.392,Simcolourproject_2stim_asymm_v5,2020.2.10,Win32,60,61025ae37ef11b136ea224fe,response1disk_7,7,2.3832,7,"[2,5]",rectangle_4,,,,,,,,,,,,,,,,,,,,,,,,,,,,,,,,,,,,,,,,
,,,,,,,,,,,,9,PF,-105,-51,1,0,0,response5disk_5,2,2.2663,-10,4,1,0,0,rectangle_8,-10,4,1,0,0,-10,4,1,0,0,0,2,2,2,1,6103583967377f29277e44ba,61036f113dc361aa68b5ee86,2021-07-30_04h16.53.392,Simcolourproject_2stim_asymm_v5,2020.2.10,Win32,60,61025ae37ef11b136ea224fe,,,,,,,,,,,,,,,,,,,,,,,,,,,,,,,,,,,,,,,,,,,,,,
,,,,,,,,,,,,16,PF,97,-61,1,0,0,response3disk_5,5,1.8156,-4,3,1,0,0,rectangle_8,-4,3,1,0,0,-4,3,1,0,0,0,3,3,6,1,6103583967377f29277e44ba,61036f113dc361aa68b5ee86,2021-07-30_04h16.53.392,Simcolourproject_2stim_asymm_v5,2020.2.10,Win32,60,61025ae37ef11b136ea224fe,,,,,,,,,,,,,,,,,,,,,,,,,,,,,,,,,,,,,,,,,,,,,,
,,,,,,,,,,,,23,PF,-71,-115,1,0,0,response5disk_5,3,2.0326,-6,2,1,0,0,rectangle_8,45,132,1,0,0,6,2,1,0,0,0,4,4,4,1,6103583967377f29277e44ba,61036f113dc361aa68b5ee86,2021-07-30_04h16.53.392,Simcolourproject_2stim_asymm_v5,2020.2.10,Win32,60,61025ae37ef11b136ea224fe,response1disk_7,7,1.4664,7,"[2,5]",rectangle_4,,,,,,,,,,,,,,,,,,,,,,,,,,,,,,,,,,,,,,,,
,,,,,,,,,,,,134,FF,56,-105,1,0,0,response3disk_5,4,1.6491,10,5,1,0,0,rectangle_8,10,5,1,0,0,10,5,1,0,0,0,5,5,5,1,6103583967377f29277e44ba,61036f113dc361aa68b5ee86,2021-07-30_04h16.53.392,Simcolourproject_2stim_asymm_v5,2020.2.10,Win32,60,61025ae37ef11b136ea224fe,,,,,,,,,,,,,,,,,,,,,,,,,,,,,,,,,,,,,,,,,,,,,,
,,,,,,,,,,,,110,FF,60,-129,1,0,0,response3disk_5,4,1.6835,18,13,1,0,0,rectangle_8,18,13,1,0,0,18,13,1,0,0,0,6,6,3,1,6103583967377f29277e44ba,61036f113dc361aa68b5ee86,2021-07-30_04h16.53.392,Simcolourproject_2stim_asymm_v5,2020.2.10,Win32,60,61025ae37ef11b136ea224fe,,,,,,,,,,,,,,,,,,,,,,,,,,,,,,,,,,,,,,,,,,,,,,
,,,,,,,,,,,,,FF,,,,,,,,2.2995,,,,,,,,,,,,,,,,,,,,,,6103583967377f29277e44ba,61036f113dc361aa68b5ee86,2021-07-30_04h16.53.392,Simcolourproject_2stim_asymm_v5,2020.2.10,Win32,60,61025ae37ef11b136ea224fe,,,,,,,space,1.3608,3046,-119,-52,1,0,0,response5disk,,2,-13,4,1,0,0,rectangle,-13,4,1,0,0,-13,4,1,0,0,0,0,0,3,1,,,,,,,,
,,,,,,,,,,,,,FF,,,,,,,,2.7328,,,,,,,,,,,,,,,,,,,,,,6103583967377f29277e44ba,61036f113dc361aa68b5ee86,2021-07-30_04h16.53.392,Simcolourproject_2stim_asymm_v5,2020.2.10,Win32,60,61025ae37ef11b136ea224fe,,,,,,,,,4120,-128,-61,1,0,0,response5disk,,2,-2,8,1,0,0,rectangle,-2,8,1,0,0,-2,8,1,0,0,0,1,1,34,1,,,,,,,,
,,,,,,,,,,,,,FF,,,,,,,,2.0354,,,,,,,,,,,,,,,,,,,,,,6103583967377f29277e44ba,61036f113dc361aa68b5ee86,2021-07-30_04h16.53.392,Simcolourproject_2stim_asymm_v5,2020.2.10,Win32,60,61025ae37ef11b136ea224fe,,,,,,,,,2035,-55,-100,1,0,0,response5disk,,3,23,10,1,0,0,rectangle,46,-128,1,0,0,-3,13,1,0,0,0,2,2,117,1,,response3disk_3,TRUE,4,4,"[170,107,170,20,269,248,3,134,153,6,280,94,75,210,259,172,156,101,90,286]",1.7057,rectangle
,,,,,,,,,,,,,FF,,,,,,,,1.8656,,,,,,,,,,,,,,,,,,,,,,6103583967377f29277e44ba,61036f113dc361aa68b5ee86,2021-07-30_04h16.53.392,Simcolourproject_2stim_asymm_v5,2020.2.10,Win32,60,61025ae37ef11b136ea224fe,,,,,,,,,2640,110,-47,1,0,0,response3disk,,5,-4,13,1,0,0,rectangle,-4,13,1,0,0,-4,13,1,0,0,0,3,3,126,1,,,,,,,,
,,,,,,,,,,,,,FF,,,,,,,,2.6349,,,,,,,,,,,,,,,,,,,,,,6103583967377f29277e44ba,61036f113dc361aa68b5ee86,2021-07-30_04h16.53.392,Simcolourproject_2stim_asymm_v5,2020.2.10,Win32,60,61025ae37ef11b136ea224fe,,,,,,,,,3773,40,-133,1,0,0,response3disk,,4,-2,1,1,0,0,rectangle,-2,1,1,0,0,-2,1,1,0,0,0,4,4,129,1,,,,,,,,
,,,,,,,,,,,,,FF,,,,,,,,1.1497,,,,,,,,,,,,,,,,,,,,,,6103583967377f29277e44ba,61036f113dc361aa68b5ee86,2021-07-30_04h16.53.392,Simcolourproject_2stim_asymm_v5,2020.2.10,Win32,60,61025ae37ef11b136ea224fe,,,,,,,,,2302,-61,-111,1,0,0,response5disk,,3,21,0,1,0,0,rectangle,45,-100,1,0,0,13,-8,1,0,0,0,5,5,125,1,,response3disk_3,TRUE,4,4,"[170,107,170,20,269,248,3,134,153,6,280,94,75,210,259,172,156,101,90,286]",1.3662,rectangle
,,,,,,,,,,,,,FF,,,,,,,,1.7334,,,,,,,,,,,,,,,,,,,,,,6103583967377f29277e44ba,61036f113dc361aa68b5ee86,2021-07-30_04h16.53.392,Simcolourproject_2stim_asymm_v5,2020.2.10,Win32,60,61025ae37ef11b136ea224fe,,,,,,,,,397,122,73,1,0,0,response1disk,,6,-11,7,1,0,0,rectangle,-11,7,1,0,0,-11,7,1,0,0,0,6,6,15,1,,,,,,,,
,,,,,,,,,,,,,FF,,,,,,,,1.2838,,,,,,,,,,,,,,,,,,,,,,6103583967377f29277e44ba,61036f113dc361aa68b5ee86,2021-07-30_04h16.53.392,Simcolourproject_2stim_asymm_v5,2020.2.10,Win32,60,61025ae37ef11b136ea224fe,,,,,,,,,2872,86,157,1,0,0,response1disk,,7,-10,5,1,0,0,rectangle,-10,5,1,0,0,-10,5,1,0,0,0,7,7,56,1,,,,,,,,
,,,,,,,,,,,,,FF,,,,,,,,1.5161,,,,,,,,,,,,,,,,,,,,,,6103583967377f29277e44ba,61036f113dc361aa68b5ee86,2021-07-30_04h16.53.392,Simcolourproject_2stim_asymm_v5,2020.2.10,Win32,60,61025ae37ef11b136ea224fe,,,,,,,,,666,117,-66,1,0,0,response3disk,,5,2,9,1,0,0,rectangle,2,9,1,0,0,2,9,1,0,0,0,8,8,57,1,,,,,,,,
,,,,,,,,,,,,,FF,,,,,,,,1.284,,,,,,,,,,,,,,,,,,,,,,6103583967377f29277e44ba,61036f113dc361aa68b5ee86,2021-07-30_04h16.53.392,Simcolourproject_2stim_asymm_v5,2020.2.10,Win32,60,61025ae37ef11b136ea224fe,,,,,,,,,4164,-119,-58,1,0,0,response5disk,,2,-7,-2,1,0,0,rectangle,-7,-2,1,0,0,-7,-2,1,0,0,0,9,9,89,1,,,,,,,,
,,,,,,,,,,,,,FF,,,,,,,,2.9839,,,,,,,,,,,,,,,,,,,,,,6103583967377f29277e44ba,61036f113dc361aa68b5ee86,2021-07-30_04h16.53.392,Simcolourproject_2stim_asymm_v5,2020.2.10,Win32,60,61025ae37ef11b136ea224fe,,,,,,,,,3259,97,-64,1,0,0,response3disk,,5,2,-12,1,0,0,rectangle,2,-12,1,0,0,2,-12,1,0,0,0,10,10,154,1,,,,,,,,
,,,,,,,,,,,,,FF,,,,,,,,1.2664,,,,,,,,,,,,,,,,,,,,,,6103583967377f29277e44ba,61036f113dc361aa68b5ee86,2021-07-30_04h16.53.392,Simcolourproject_2stim_asymm_v5,2020.2.10,Win32,60,61025ae37ef11b136ea224fe,,,,,,,,,2460,47,126,1,0,0,response1disk,,7,2,-2,1,0,0,rectangle,2,-2,1,0,0,2,-2,1,0,0,0,11,11,30,1,,,,,,,,
,,,,,,,,,,,,,FF,,,,,,,,7.8822,,,,,,,,,,,,,,,,,,,,,,6103583967377f29277e44ba,61036f113dc361aa68b5ee86,2021-07-30_04h16.53.392,Simcolourproject_2stim_asymm_v5,2020.2.10,Win32,60,61025ae37ef11b136ea224fe,,,,,,,,,275,69,-112,1,0,0,response3disk,,4,-22,8,1,0,0,rectangle,-22,8,1,0,0,-22,8,1,0,0,0,12,12,113,1,,,,,,,,
,,,,,,,,,,,,,FF,,,,,,,,1.2662,,,,,,,,,,,,,,,,,,,,,,6103583967377f29277e44ba,61036f113dc361aa68b5ee86,2021-07-30_04h16.53.392,Simcolourproject_2stim_asymm_v5,2020.2.10,Win32,60,61025ae37ef11b136ea224fe,,,,,,,,,202,94,-47,1,0,0,response3disk,,5,17,-2,1,0,0,rectangle,17,-2,1,0,0,17,-2,1,0,0,0,13,13,158,1,,,,,,,,
,,,,,,,,,,,,,FF,,,,,,,,1.7991,,,,,,,,,,,,,,,,,,,,,,6103583967377f29277e44ba,61036f113dc361aa68b5ee86,2021-07-30_04h16.53.392,Simcolourproject_2stim_asymm_v5,2020.2.10,Win32,60,61025ae37ef11b136ea224fe,,,,,,,,,2223,117,-45,1,0,0,response3disk,,5,-9,3,1,0,0,rectangle,-9,3,1,0,0,-9,3,1,0,0,0,14,14,35,1,,,,,,,,
,,,,,,,,,,,,,FF,,,,,,,,1.2843,,,,,,,,,,,,,,,,,,,,,,6103583967377f29277e44ba,61036f113dc361aa68b5ee86,2021-07-30_04h16.53.392,Simcolourproject_2stim_asymm_v5,2020.2.10,Win32,60,61025ae37ef11b136ea224fe,,,,,,,,,3708,-103,52,1,0,0,response7disk,,1,1,15,1,0,0,rectangle,1,15,1,0,0,1,15,1,0,0,0,15,15,132,1,,,,,,,,
,,,,,,,,,,,,,FF,,,,,,,,1.5001,,,,,,,,,,,,,,,,,,,,,,6103583967377f29277e44ba,61036f113dc361aa68b5ee86,2021-07-30_04h16.53.392,Simcolourproject_2stim_asymm_v5,2020.2.10,Win32,60,61025ae37ef11b136ea224fe,,,,,,,,,996,133,90,1,0,0,response1disk,,6,12,21,1,0,0,rectangle,12,21,1,0,0,12,21,1,0,0,0,16,16,41,1,,,,,,,,
,,,,,,,,,,,,,FF,,,,,,,,1.0662,,,,,,,,,,,,,,,,,,,,,,6103583967377f29277e44ba,61036f113dc361aa68b5ee86,2021-07-30_04h16.53.392,Simcolourproject_2stim_asymm_v5,2020.2.10,Win32,60,61025ae37ef11b136ea224fe,,,,,,,,,1447,-152,59,1,0,0,response7disk,,1,17,3,1,0,0,rectangle,17,3,1,0,0,17,3,1,0,0,0,17,17,1,1,,,,,,,,
,,,,,,,,,,,,,FF,,,,,,,,1.7675,,,,,,,,,,,,,,,,,,,,,,6103583967377f29277e44ba,61036f113dc361aa68b5ee86,2021-07-30_04h16.53.392,Simcolourproject_2stim_asymm_v5,2020.2.10,Win32,60,61025ae37ef11b136ea224fe,,,,,,,,,4022,96,52,1,0,0,response1disk,,6,7,-1,1,0,0,rectangle,7,-1,1,0,0,7,-1,1,0,0,0,18,18,100,1,,,,,,,,
,,,,,,,,,,,,,FF,,,,,,,,1.5838,,,,,,,,,,,,,,,,,,,,,,6103583967377f29277e44ba,61036f113dc361aa68b5ee86,2021-07-30_04h16.53.392,Simcolourproject_2stim_asymm_v5,2020.2.10,Win32,60,61025ae37ef11b136ea224fe,,,,,,,,,1545,115,36,1,0,0,response1disk,,6,-7,-11,1,0,0,rectangle,-127,-44,1,0,0,1,-5,1,0,0,0,19,19,128,1,,response5disk_3,TRUE,2,2,"[170,107,170,20,269,248,3,134,153,6,280,94,75,210,259,172,156,101,90,286]",1.7332,rectangle
,,,,,,,,,,,,,FF,,,,,,,,1.4334,,,,,,,,,,,,,,,,,,,,,,6103583967377f29277e44ba,61036f113dc361aa68b5ee86,2021-07-30_04h16.53.392,Simcolourproject_2stim_asymm_v5,2020.2.10,Win32,60,61025ae37ef11b136ea224fe,,,,,,,,,563,83,-48,1,0,0,response3disk,,5,18,4,1,0,0,rectangle,18,4,1,0,0,18,4,1,0,0,0,20,20,44,1,,,,,,,,
,,,,,,,,,,,,,FF,,,,,,,,1.217,,,,,,,,,,,,,,,,,,,,,,6103583967377f29277e44ba,61036f113dc361aa68b5ee86,2021-07-30_04h16.53.392,Simcolourproject_2stim_asymm_v5,2020.2.10,Win32,60,61025ae37ef11b136ea224fe,,,,,,,,,1533,43,-127,1,0,0,response3disk,,4,13,-18,1,0,0,rectangle,13,-18,1,0,0,13,-18,1,0,0,0,21,21,119,1,,,,,,,,
,,,,,,,,,,,,,FF,,,,,,,,2.4333,,,,,,,,,,,,,,,,,,,,,,6103583967377f29277e44ba,61036f113dc361aa68b5ee86,2021-07-30_04h16.53.392,Simcolourproject_2stim_asymm_v5,2020.2.10,Win32,60,61025ae37ef11b136ea224fe,,,,,,,,,129,104,-41,1,0,0,response3disk,,5,4,-10,1,0,0,rectangle,4,-10,1,0,0,4,-10,1,0,0,0,22,22,0,1,,,,,,,,
,,,,,,,,,,,,,FF,,,,,,,,2.7161,,,,,,,,,,,,,,,,,,,,,,6103583967377f29277e44ba,61036f113dc361aa68b5ee86,2021-07-30_04h16.53.392,Simcolourproject_2stim_asymm_v5,2020.2.10,Win32,60,61025ae37ef11b136ea224fe,,,,,,,,,1121,73,-119,1,0,0,response3disk,,4,7,-12,1,0,0,rectangle,7,-12,1,0,0,7,-12,1,0,0,0,23,23,101,1,,,,,,,,
,,,,,,,,,,,,,FF,,,,,,,,1.666,,,,,,,,,,,,,,,,,,,,,,6103583967377f29277e44ba,61036f113dc361aa68b5ee86,2021-07-30_04h16.53.392,Simcolourproject_2stim_asymm_v5,2020.2.10,Win32,60,61025ae37ef11b136ea224fe,,,,,,,,,1728,118,56,1,0,0,response1disk,,6,20,-2,1,0,0,rectangle,20,-2,1,0,0,20,-2,1,0,0,0,24,24,32,1,,,,,,,,
,,,,,,,,,,,,,FF,,,,,,,,1.2343,,,,,,,,,,,,,,,,,,,,,,6103583967377f29277e44ba,61036f113dc361aa68b5ee86,2021-07-30_04h16.53.392,Simcolourproject_2stim_asymm_v5,2020.2.10,Win32,60,61025ae37ef11b136ea224fe,,,,,,,,,3062,94,-124,1,0,0,response3disk,,4,21,10,1,0,0,rectangle,21,10,1,0,0,21,10,1,0,0,0,25,25,122,1,,,,,,,,
,,,,,,,,,,,,,FF,,,,,,,,1.099,,,,,,,,,,,,,,,,,,,,,,6103583967377f29277e44ba,61036f113dc361aa68b5ee86,2021-07-30_04h16.53.392,Simcolourproject_2stim_asymm_v5,2020.2.10,Win32,60,61025ae37ef11b136ea224fe,,,,,,,,,540,109,-56,1,0,0,response3disk,,5,21,13,1,0,0,rectangle,21,13,1,0,0,21,13,1,0,0,0,26,26,81,1,,,,,,,,
,,,,,,,,,,,,,FF,,,,,,,,1.5331,,,,,,,,,,,,,,,,,,,,,,6103583967377f29277e44ba,61036f113dc361aa68b5ee86,2021-07-30_04h16.53.392,Simcolourproject_2stim_asymm_v5,2020.2.10,Win32,60,61025ae37ef11b136ea224fe,,,,,,,,,4298,116,22,1,0,0,response1disk,,6,21,-17,1,0,0,rectangle,21,-17,1,0,0,21,-17,1,0,0,0,27,27,135,1,,,,,,,,
,,,,,,,,,,,,,FF,,,,,,,,3.5991,,,,,,,,,,,,,,,,,,,,,,6103583967377f29277e44ba,61036f113dc361aa68b5ee86,2021-07-30_04h16.53.392,Simcolourproject_2stim_asymm_v5,2020.2.10,Win32,60,61025ae37ef11b136ea224fe,,,,,,,,,2470,99,-54,1,0,0,response3disk,,5,-2,5,1,0,0,rectangle,-2,5,1,0,0,-2,5,1,0,0,0,28,28,50,1,,,,,,,,
,,,,,,,,,,,,,FF,,,,,,,,2.7669,,,,,,,,,,,,,,,,,,,,,,6103583967377f29277e44ba,61036f113dc361aa68b5ee86,2021-07-30_04h16.53.392,Simcolourproject_2stim_asymm_v5,2020.2.10,Win32,60,61025ae37ef11b136ea224fe,,,,,,,,,3717,-56,-129,1,0,0,response5disk,,3,-6,11,1,0,0,rectangle,-6,11,1,0,0,-6,11,1,0,0,0,29,29,110,1,,,,,,,,
,,,,,,,,,,,,,FF,,,,,,,,1.0992,,,,,,,,,,,,,,,,,,,,,,6103583967377f29277e44ba,61036f113dc361aa68b5ee86,2021-07-30_04h16.53.392,Simcolourproject_2stim_asymm_v5,2020.2.10,Win32,60,61025ae37ef11b136ea224fe,,,,,,,,,2504,55,93,1,0,0,response1disk,,7,8,10,1,0,0,rectangle,8,10,1,0,0,8,10,1,0,0,0,30,30,36,1,,,,,,,,
,,,,,,,,,,,,,FF,,,,,,,,2.6927,,,,,,,,,,,,,,,,,,,,,,6103583967377f29277e44ba,61036f113dc361aa68b5ee86,2021-07-30_04h16.53.392,Simcolourproject_2stim_asymm_v5,2020.2.10,Win32,60,61025ae37ef11b136ea224fe,,,,,,,,,3634,105,45,1,0,0,response1disk,,6,21,11,1,0,0,rectangle,21,11,1,0,0,21,11,1,0,0,0,31,31,151,1,,,,,,,,
,,,,,,,,,,,,,FF,,,,,,,,1.9831,,,,,,,,,,,,,,,,,,,,,,6103583967377f29277e44ba,61036f113dc361aa68b5ee86,2021-07-30_04h16.53.392,Simcolourproject_2stim_asymm_v5,2020.2.10,Win32,60,61025ae37ef11b136ea224fe,,,,,,,,,3079,97,-43,1,0,0,response3disk,,5,27,-10,1,0,0,rectangle,27,-10,1,0,0,27,-10,1,0,0,0,32,32,39,1,,,,,,,,
,,,,,,,,,,,,,FF,,,,,,,,1.9826,,,,,,,,,,,,,,,,,,,,,,6103583967377f29277e44ba,61036f113dc361aa68b5ee86,2021-07-30_04h16.53.392,Simcolourproject_2stim_asymm_v5,2020.2.10,Win32,60,61025ae37ef11b136ea224fe,,,,,,,,,112,95,45,1,0,0,response1disk,,6,12,-21,1,0,0,rectangle,12,-21,1,0,0,12,-21,1,0,0,0,33,33,14,1,,,,,,,,
,,,,,,,,,,,,,FF,,,,,,,,1.6494,,,,,,,,,,,,,,,,,,,,,,6103583967377f29277e44ba,61036f113dc361aa68b5ee86,2021-07-30_04h16.53.392,Simcolourproject_2stim_asymm_v5,2020.2.10,Win32,60,61025ae37ef11b136ea224fe,,,,,,,,,2008,99,-35,1,0,0,response3disk,,5,18,2,1,0,0,rectangle,18,2,1,0,0,18,2,1,0,0,0,34,34,60,1,,,,,,,,
,,,,,,,,,,,,,FF,,,,,,,,1.3653,,,,,,,,,,,,,,,,,,,,,,6103583967377f29277e44ba,61036f113dc361aa68b5ee86,2021-07-30_04h16.53.392,Simcolourproject_2stim_asymm_v5,2020.2.10,Win32,60,61025ae37ef11b136ea224fe,,,,,,,,,2267,105,83,1,0,0,response1disk,,6,17,4,1,0,0,rectangle,17,4,1,0,0,17,4,1,0,0,0,35,35,141,1,,,,,,,,
,,,,,,,,,,,,,FF,,,,,,,,4.001,,,,,,,,,,,,,,,,,,,,,,6103583967377f29277e44ba,61036f113dc361aa68b5ee86,2021-07-30_04h16.53.392,Simcolourproject_2stim_asymm_v5,2020.2.10,Win32,60,61025ae37ef11b136ea224fe,,,,,,,,,1365,107,42,1,0,0,response1disk,,6,-1,-11,1,0,0,rectangle,-1,-11,1,0,0,-1,-11,1,0,0,0,36,36,137,1,,,,,,,,
,,,,,,,,,,,,,FF,,,,,,,,1.2337,,,,,,,,,,,,,,,,,,,,,,6103583967377f29277e44ba,61036f113dc361aa68b5ee86,2021-07-30_04h16.53.392,Simcolourproject_2stim_asymm_v5,2020.2.10,Win32,60,61025ae37ef11b136ea224fe,,,,,,,,,1209,59,104,1,0,0,response1disk,,7,30,2,1,0,0,rectangle,30,2,1,0,0,30,2,1,0,0,0,37,37,58,1,,,,,,,,
,,,,,,,,,,,,,FF,,,,,,,,1.2336,,,,,,,,,,,,,,,,,,,,,,6103583967377f29277e44ba,61036f113dc361aa68b5ee86,2021-07-30_04h16.53.392,Simcolourproject_2stim_asymm_v5,2020.2.10,Win32,60,61025ae37ef11b136ea224fe,,,,,,,,,456,-113,39,1,0,0,response7disk,,1,3,6,1,0,0,rectangle,3,6,1,0,0,3,6,1,0,0,0,38,38,11,1,,,,,,,,
,,,,,,,,,,,,,FF,,,,,,,,1.75,,,,,,,,,,,,,,,,,,,,,,6103583967377f29277e44ba,61036f113dc361aa68b5ee86,2021-07-30_04h16.53.392,Simcolourproject_2stim_asymm_v5,2020.2.10,Win32,60,61025ae37ef11b136ea224fe,,,,,,,,,1107,121,-49,1,0,0,response3disk,,5,37,3,1,0,0,rectangle,37,3,1,0,0,37,3,1,0,0,0,39,39,46,1,,,,,,,,
,,,,,,,,,,,,,FF,,,,,,,,2.5679,,,,,,,,,,,,,,,,,,,,,,6103583967377f29277e44ba,61036f113dc361aa68b5ee86,2021-07-30_04h16.53.392,Simcolourproject_2stim_asymm_v5,2020.2.10,Win32,60,61025ae37ef11b136ea224fe,,,,,,,,,3656,-103,39,1,0,0,response7disk,,1,0,2,1,0,0,rectangle,0,2,1,0,0,0,2,1,0,0,0,40,40,114,1,,,,,,,,
,,,,,,,,,,,,,FF,,,,,,,,1.3167,,,,,,,,,,,,,,,,,,,,,,6103583967377f29277e44ba,61036f113dc361aa68b5ee86,2021-07-30_04h16.53.392,Simcolourproject_2stim_asymm_v5,2020.2.10,Win32,60,61025ae37ef11b136ea224fe,,,,,,,,,3452,106,60,1,0,0,response1disk,,6,28,-9,1,0,0,rectangle,28,-9,1,0,0,28,-9,1,0,0,0,41,41,83,1,,,,,,,,
,,,,,,,,,,,,,FF,,,,,,,,1.4331,,,,,,,,,,,,,,,,,,,,,,6103583967377f29277e44ba,61036f113dc361aa68b5ee86,2021-07-30_04h16.53.392,Simcolourproject_2stim_asymm_v5,2020.2.10,Win32,60,61025ae37ef11b136ea224fe,,,,,,,,,2694,93,46,1,0,0,response1disk,,6,27,-1,1,0,0,rectangle,27,-1,1,0,0,27,-1,1,0,0,0,42,42,146,1,,,,,,,,
,,,,,,,,,,,,,FF,,,,,,,,0.9495,,,,,,,,,,,,,,,,,,,,,,6103583967377f29277e44ba,61036f113dc361aa68b5ee86,2021-07-30_04h16.53.392,Simcolourproject_2stim_asymm_v5,2020.2.10,Win32,60,61025ae37ef11b136ea224fe,,,,,,,,,496,104,53,1,0,0,response1disk,,6,18,4,1,0,0,rectangle,18,4,1,0,0,18,4,1,0,0,0,43,43,43,1,,,,,,,,
,,,,,,,,,,,,,FF,,,,,,,,2.8668,,,,,,,,,,,,,,,,,,,,,,6103583967377f29277e44ba,61036f113dc361aa68b5ee86,2021-07-30_04h16.53.392,Simcolourproject_2stim_asymm_v5,2020.2.10,Win32,60,61025ae37ef11b136ea224fe,,,,,,,,,2390,103,-80,1,0,0,response3disk,,5,30,14,1,0,0,rectangle,30,14,1,0,0,30,14,1,0,0,0,44,44,155,1,,,,,,,,
,,,,,,,,,,,,,FF,,,,,,,,1.8829,,,,,,,,,,,,,,,,,,,,,,6103583967377f29277e44ba,61036f113dc361aa68b5ee86,2021-07-30_04h16.53.392,Simcolourproject_2stim_asymm_v5,2020.2.10,Win32,60,61025ae37ef11b136ea224fe,,,,,,,,,1120,78,-43,1,0,0,response3disk,,5,30,-11,1,0,0,rectangle,30,-11,1,0,0,30,-11,1,0,0,0,45,45,69,1,,,,,,,,
,,,,,,,,,,,,,FF,,,,,,,,2.0836,,,,,,,,,,,,,,,,,,,,,,6103583967377f29277e44ba,61036f113dc361aa68b5ee86,2021-07-30_04h16.53.392,Simcolourproject_2stim_asymm_v5,2020.2.10,Win32,60,61025ae37ef11b136ea224fe,,,,,,,,,675,107,44,1,0,0,response1disk,,6,21,-18,1,0,0,rectangle,21,-18,1,0,0,21,-18,1,0,0,0,46,46,77,1,,,,,,,,
,,,,,,,,,,,,,FF,,,,,,,,1.4328,,,,,,,,,,,,,,,,,,,,,,6103583967377f29277e44ba,61036f113dc361aa68b5ee86,2021-07-30_04h16.53.392,Simcolourproject_2stim_asymm_v5,2020.2.10,Win32,60,61025ae37ef11b136ea224fe,,,,,,,,,140,114,54,1,0,0,response1disk,,6,34,-1,1,0,0,rectangle,34,-1,1,0,0,34,-1,1,0,0,0,47,47,73,1,,,,,,,,
,,,,,,,,,,,,,FF,,,,,,,,1.4006,,,,,,,,,,,,,,,,,,,,,,6103583967377f29277e44ba,61036f113dc361aa68b5ee86,2021-07-30_04h16.53.392,Simcolourproject_2stim_asymm_v5,2020.2.10,Win32,60,61025ae37ef11b136ea224fe,,,,,,,,,3126,112,54,1,0,0,response1disk,,6,33,-3,1,0,0,rectangle,33,-3,1,0,0,33,-3,1,0,0,0,48,48,40,1,,,,,,,,
,,,,,,,,,,,,,FF,,,,,,,,1.166,,,,,,,,,,,,,,,,,,,,,,6103583967377f29277e44ba,61036f113dc361aa68b5ee86,2021-07-30_04h16.53.392,Simcolourproject_2stim_asymm_v5,2020.2.10,Win32,60,61025ae37ef11b136ea224fe,,,,,,,,,3516,-126,-54,1,0,0,response5disk,,2,-8,-5,1,0,0,rectangle,-8,-5,1,0,0,-8,-5,1,0,0,0,49,49,156,1,,,,,,,,
,,,,,,,,,,,,,FF,,,,,,,,0.8496,,,,,,,,,,,,,,,,,,,,,,6103583967377f29277e44ba,61036f113dc361aa68b5ee86,2021-07-30_04h16.53.392,Simcolourproject_2stim_asymm_v5,2020.2.10,Win32,60,61025ae37ef11b136ea224fe,,,,,,,,,3277,69,46,1,0,0,response1disk,,6,-5,8,1,0,0,rectangle,-5,8,1,0,0,-5,8,1,0,0,0,50,50,29,1,,,,,,,,
,,,,,,,,,,,,,FF,,,,,,,,1.3497,,,,,,,,,,,,,,,,,,,,,,6103583967377f29277e44ba,61036f113dc361aa68b5ee86,2021-07-30_04h16.53.392,Simcolourproject_2stim_asymm_v5,2020.2.10,Win32,60,61025ae37ef11b136ea224fe,,,,,,,,,2337,90,58,1,0,0,response1disk,,6,16,-9,1,0,0,rectangle,16,-9,1,0,0,16,-9,1,0,0,0,51,51,124,1,,,,,,,,
,,,,,,,,,,,,,FF,,,,,,,,1.4821,,,,,,,,,,,,,,,,,,,,,,6103583967377f29277e44ba,61036f113dc361aa68b5ee86,2021-07-30_04h16.53.392,Simcolourproject_2stim_asymm_v5,2020.2.10,Win32,60,61025ae37ef11b136ea224fe,,,,,,,,,2603,-81,-118,1,0,0,response5disk,,3,-16,-18,1,0,0,rectangle,-16,-18,1,0,0,-16,-18,1,0,0,0,52,52,12,1,,,,,,,,
,,,,,,,,,,,,,FF,,,,,,,,0.9327,,,,,,,,,,,,,,,,,,,,,,6103583967377f29277e44ba,61036f113dc361aa68b5ee86,2021-07-30_04h16.53.392,Simcolourproject_2stim_asymm_v5,2020.2.10,Win32,60,61025ae37ef11b136ea224fe,,,,,,,,,1079,100,65,1,0,0,response1disk,,6,-30,-11,1,0,0,rectangle,-30,-11,1,0,0,-30,-11,1,0,0,0,53,53,118,1,,,,,,,,
,,,,,,,,,,,,,FF,,,,,,,,1.4502,,,,,,,,,,,,,,,,,,,,,,6103583967377f29277e44ba,61036f113dc361aa68b5ee86,2021-07-30_04h16.53.392,Simcolourproject_2stim_asymm_v5,2020.2.10,Win32,60,61025ae37ef11b136ea224fe,,,,,,,,,3593,36,-115,1,0,0,response3disk,,4,6,5,1,0,0,rectangle,6,5,1,0,0,6,5,1,0,0,0,54,54,5,1,,,,,,,,
,,,,,,,,,,,,,FF,,,,,,,,2.0671,,,,,,,,,,,,,,,,,,,,,,6103583967377f29277e44ba,61036f113dc361aa68b5ee86,2021-07-30_04h16.53.392,Simcolourproject_2stim_asymm_v5,2020.2.10,Win32,60,61025ae37ef11b136ea224fe,,,,,,,,,2897,55,-110,1,0,0,response3disk,,4,10,-2,1,0,0,rectangle,10,-2,1,0,0,10,-2,1,0,0,0,55,55,80,1,,,,,,,,
,,,,,,,,,,,,,FF,,,,,,,,1.2669,,,,,,,,,,,,,,,,,,,,,,6103583967377f29277e44ba,61036f113dc361aa68b5ee86,2021-07-30_04h16.53.392,Simcolourproject_2stim_asymm_v5,2020.2.10,Win32,60,61025ae37ef11b136ea224fe,,,,,,,,,494,119,57,1,0,0,response1disk,,6,-18,-2,1,0,0,rectangle,-18,-2,1,0,0,-18,-2,1,0,0,0,56,56,18,1,,,,,,,,
,,,,,,,,,,,,,FF,,,,,,,,1.2497,,,,,,,,,,,,,,,,,,,,,,6103583967377f29277e44ba,61036f113dc361aa68b5ee86,2021-07-30_04h16.53.392,Simcolourproject_2stim_asymm_v5,2020.2.10,Win32,60,61025ae37ef11b136ea224fe,,,,,,,,,3592,-111,-57,1,0,0,response5disk,,2,-17,-12,1,0,0,rectangle,-17,-12,1,0,0,-17,-12,1,0,0,0,57,57,71,1,,,,,,,,
,,,,,,,,,,,,,FF,,,,,,,,1.7337,,,,,,,,,,,,,,,,,,,,,,6103583967377f29277e44ba,61036f113dc361aa68b5ee86,2021-07-30_04h16.53.392,Simcolourproject_2stim_asymm_v5,2020.2.10,Win32,60,61025ae37ef11b136ea224fe,,,,,,,,,2622,62,-137,1,0,0,response3disk,,4,-13,-1,1,0,0,rectangle,-13,-1,1,0,0,-13,-1,1,0,0,0,58,58,2,1,,,,,,,,
,,,,,,,,,,,,,FF,,,,,,,,2.849,,,,,,,,,,,,,,,,,,,,,,6103583967377f29277e44ba,61036f113dc361aa68b5ee86,2021-07-30_04h16.53.392,Simcolourproject_2stim_asymm_v5,2020.2.10,Win32,60,61025ae37ef11b136ea224fe,,,,,,,,,2188,42,-141,1,0,0,response3disk,,4,-19,4,1,0,0,rectangle,-19,4,1,0,0,-19,4,1,0,0,0,59,59,88,1,,,,,,,,
,,,,,,,,,,,,,FF,,,,,,,,1.0508,,,,,,,,,,,,,,,,,,,,,,6103583967377f29277e44ba,61036f113dc361aa68b5ee86,2021-07-30_04h16.53.392,Simcolourproject_2stim_asymm_v5,2020.2.10,Win32,60,61025ae37ef11b136ea224fe,,,,,,,,,4127,-62,-121,1,0,0,response5disk,,3,-6,-7,1,0,0,rectangle,-6,-7,1,0,0,-6,-7,1,0,0,0,60,60,107,1,,,,,,,,
,,,,,,,,,,,,,FF,,,,,,,,2.7891,,,,,,,,,,,,,,,,,,,,,,6103583967377f29277e44ba,61036f113dc361aa68b5ee86,2021-07-30_04h16.53.392,Simcolourproject_2stim_asymm_v5,2020.2.10,Win32,60,61025ae37ef11b136ea224fe,,,,,,,,,1036,146,-29,1,0,0,response3disk,,5,-3,4,1,0,0,rectangle,-3,4,1,0,0,-3,4,1,0,0,0,61,61,25,1,,,,,,,,
,,,,,,,,,,,,,FF,,,,,,,,1.8834,,,,,,,,,,,,,,,,,,,,,,6103583967377f29277e44ba,61036f113dc361aa68b5ee86,2021-07-30_04h16.53.392,Simcolourproject_2stim_asymm_v5,2020.2.10,Win32,60,61025ae37ef11b136ea224fe,,,,,,,,,2626,56,118,1,0,0,response1disk,,7,8,10,1,0,0,rectangle,8,10,1,0,0,8,10,1,0,0,0,62,62,97,1,,,,,,,,
,,,,,,,,,,,,,FF,,,,,,,,1.4441,,,,,,,,,,,,,,,,,,,,,,6103583967377f29277e44ba,61036f113dc361aa68b5ee86,2021-07-30_04h16.53.392,Simcolourproject_2stim_asymm_v5,2020.2.10,Win32,60,61025ae37ef11b136ea224fe,,,,,,,,,1317,44,-121,1,0,0,response3disk,,4,6,-8,1,0,0,rectangle,6,-8,1,0,0,6,-8,1,0,0,0,63,63,62,1,,,,,,,,
,,,,,,,,,,,,,FF,,,,,,,,0.9993,,,,,,,,,,,,,,,,,,,,,,6103583967377f29277e44ba,61036f113dc361aa68b5ee86,2021-07-30_04h16.53.392,Simcolourproject_2stim_asymm_v5,2020.2.10,Win32,60,61025ae37ef11b136ea224fe,,,,,,,,,1819,-128,-66,1,0,0,response5disk,,2,-21,0,1,0,0,rectangle,-21,0,1,0,0,-21,0,1,0,0,0,64,64,19,1,,,,,,,,
,,,,,,,,,,,,,FF,,,,,,,,1.6768,,,,,,,,,,,,,,,,,,,,,,6103583967377f29277e44ba,61036f113dc361aa68b5ee86,2021-07-30_04h16.53.392,Simcolourproject_2stim_asymm_v5,2020.2.10,Win32,60,61025ae37ef11b136ea224fe,,,,,,,,,4158,126,51,1,0,0,response1disk,,6,0,-2,1,0,0,rectangle,0,-2,1,0,0,0,-2,1,0,0,0,65,65,139,1,,,,,,,,
,,,,,,,,,,,,,FF,,,,,,,,2.6814,,,,,,,,,,,,,,,,,,,,,,6103583967377f29277e44ba,61036f113dc361aa68b5ee86,2021-07-30_04h16.53.392,Simcolourproject_2stim_asymm_v5,2020.2.10,Win32,60,61025ae37ef11b136ea224fe,,,,,,,,,1644,-122,-63,1,0,0,response5disk,,2,1,-4,1,0,0,rectangle,1,-4,1,0,0,1,-4,1,0,0,0,66,66,109,1,,,,,,,,
,,,,,,,,,,,,,FF,,,,,,,,1.1823,,,,,,,,,,,,,,,,,,,,,,6103583967377f29277e44ba,61036f113dc361aa68b5ee86,2021-07-30_04h16.53.392,Simcolourproject_2stim_asymm_v5,2020.2.10,Win32,60,61025ae37ef11b136ea224fe,,,,,,,,,3360,126,50,1,0,0,response1disk,,6,-2,-13,1,0,0,rectangle,-2,-13,1,0,0,-2,-13,1,0,0,0,67,67,66,1,,,,,,,,
,,,,,,,,,,,,,FF,,,,,,,,1.2488,,,,,,,,,,,,,,,,,,,,,,6103583967377f29277e44ba,61036f113dc361aa68b5ee86,2021-07-30_04h16.53.392,Simcolourproject_2stim_asymm_v5,2020.2.10,Win32,60,61025ae37ef11b136ea224fe,,,,,,,,,1538,110,-64,1,0,0,response3disk,,5,32,-15,1,0,0,rectangle,32,-15,1,0,0,32,-15,1,0,0,0,68,68,38,1,,,,,,,,
,,,,,,,,,,,,,FF,,,,,,,,1.2166,,,,,,,,,,,,,,,,,,,,,,6103583967377f29277e44ba,61036f113dc361aa68b5ee86,2021-07-30_04h16.53.392,Simcolourproject_2stim_asymm_v5,2020.2.10,Win32,60,61025ae37ef11b136ea224fe,,,,,,,,,2763,86,38,1,0,0,response1disk,,6,28,14,1,0,0,rectangle,28,14,1,0,0,28,14,1,0,0,0,69,69,22,1,,,,,,,,
,,,,,,,,,,,,,FF,,,,,,,,1.0835,,,,,,,,,,,,,,,,,,,,,,6103583967377f29277e44ba,61036f113dc361aa68b5ee86,2021-07-30_04h16.53.392,Simcolourproject_2stim_asymm_v5,2020.2.10,Win32,60,61025ae37ef11b136ea224fe,,,,,,,,,3924,-60,-128,1,0,0,response5disk,,3,3,-6,1,0,0,rectangle,3,-6,1,0,0,3,-6,1,0,0,0,70,70,134,1,,,,,,,,
,,,,,,,,,,,,,FF,,,,,,,,1.299,,,,,,,,,,,,,,,,,,,,,,6103583967377f29277e44ba,61036f113dc361aa68b5ee86,2021-07-30_04h16.53.392,Simcolourproject_2stim_asymm_v5,2020.2.10,Win32,60,61025ae37ef11b136ea224fe,,,,,,,,,3508,-44,-117,1,0,0,response5disk,,3,13,14,1,0,0,rectangle,13,14,1,0,0,13,14,1,0,0,0,71,71,55,1,,,,,,,,
,,,,,,,,,,,,,FF,,,,,,,,0.9826,,,,,,,,,,,,,,,,,,,,,,6103583967377f29277e44ba,61036f113dc361aa68b5ee86,2021-07-30_04h16.53.392,Simcolourproject_2stim_asymm_v5,2020.2.10,Win32,60,61025ae37ef11b136ea224fe,,,,,,,,,2846,75,-115,1,0,0,response3disk,,4,-4,-8,1,0,0,rectangle,-4,-8,1,0,0,-4,-8,1,0,0,0,72,72,47,1,,,,,,,,
,,,,,,,,,,,,,FF,,,,,,,,1.0996,,,,,,,,,,,,,,,,,,,,,,6103583967377f29277e44ba,61036f113dc361aa68b5ee86,2021-07-30_04h16.53.392,Simcolourproject_2stim_asymm_v5,2020.2.10,Win32,60,61025ae37ef11b136ea224fe,,,,,,,,,3880,54,-93,1,0,0,response3disk,,4,-29,-5,1,0,0,rectangle,-29,-5,1,0,0,-29,-5,1,0,0,0,73,73,93,1,,,,,,,,
,,,,,,,,,,,,,FF,,,,,,,,1.1673,,,,,,,,,,,,,,,,,,,,,,6103583967377f29277e44ba,61036f113dc361aa68b5ee86,2021-07-30_04h16.53.392,Simcolourproject_2stim_asymm_v5,2020.2.10,Win32,60,61025ae37ef11b136ea224fe,,,,,,,,,3051,-66,-126,1,0,0,response5disk,,3,-25,-19,1,0,0,rectangle,-81,-129,1,0,0,-13,-12,1,0,0,0,74,74,67,1,,response5disk_3,TRUE,3,3,"[170,107,170,20,269,248,3,134,153,6,280,94,75,210,259,172,156,101,90,286]",1.6664,rectangle
,,,,,,,,,,,,,FF,,,,,,,,0.9485,,,,,,,,,,,,,,,,,,,,,,6103583967377f29277e44ba,61036f113dc361aa68b5ee86,2021-07-30_04h16.53.392,Simcolourproject_2stim_asymm_v5,2020.2.10,Win32,60,61025ae37ef11b136ea224fe,,,,,,,,,3982,35,-102,1,0,0,response3disk,,4,-7,-4,1,0,0,rectangle,-7,-4,1,0,0,-7,-4,1,0,0,0,75,75,45,1,,,,,,,,
,,,,,,,,,,,,,FF,,,,,,,,1.2991,,,,,,,,,,,,,,,,,,,,,,6103583967377f29277e44ba,61036f113dc361aa68b5ee86,2021-07-30_04h16.53.392,Simcolourproject_2stim_asymm_v5,2020.2.10,Win32,60,61025ae37ef11b136ea224fe,,,,,,,,,1243,74,32,1,0,0,response1disk,,6,-15,-6,1,0,0,rectangle,-15,-6,1,0,0,-15,-6,1,0,0,0,76,76,150,1,,,,,,,,
,,,,,,,,,,,,,FF,,,,,,,,1.133,,,,,,,,,,,,,,,,,,,,,,6103583967377f29277e44ba,61036f113dc361aa68b5ee86,2021-07-30_04h16.53.392,Simcolourproject_2stim_asymm_v5,2020.2.10,Win32,60,61025ae37ef11b136ea224fe,,,,,,,,,349,-116,49,1,0,0,response7disk,,1,6,-13,1,0,0,rectangle,6,-13,1,0,0,6,-13,1,0,0,0,77,77,105,1,,,,,,,,
,,,,,,,,,,,,,FF,,,,,,,,0.8158,,,,,,,,,,,,,,,,,,,,,,6103583967377f29277e44ba,61036f113dc361aa68b5ee86,2021-07-30_04h16.53.392,Simcolourproject_2stim_asymm_v5,2020.2.10,Win32,60,61025ae37ef11b136ea224fe,,,,,,,,,3973,-88,-46,1,0,0,response5disk,,2,-18,-13,1,0,0,rectangle,-18,-13,1,0,0,-18,-13,1,0,0,0,78,78,94,1,,,,,,,,
,,,,,,,,,,,,,FF,,,,,,,,0.9665,,,,,,,,,,,,,,,,,,,,,,6103583967377f29277e44ba,61036f113dc361aa68b5ee86,2021-07-30_04h16.53.392,Simcolourproject_2stim_asymm_v5,2020.2.10,Win32,60,61025ae37ef11b136ea224fe,,,,,,,,,1495,74,36,1,0,0,response1disk,,6,4,-3,1,0,0,rectangle,4,-3,1,0,0,4,-3,1,0,0,0,79,79,116,1,,,,,,,,
,,,,,,,,,,,,,FF,,,,,,,,1.1492,,,,,,,,,,,,,,,,,,,,,,6103583967377f29277e44ba,61036f113dc361aa68b5ee86,2021-07-30_04h16.53.392,Simcolourproject_2stim_asymm_v5,2020.2.10,Win32,60,61025ae37ef11b136ea224fe,,,,,,,,,1405,65,-132,1,0,0,response3disk,,4,12,5,1,0,0,rectangle,12,5,1,0,0,12,5,1,0,0,0,80,80,48,1,,,,,,,,
,,,,,,,,,,,,,FF,,,,,,,,1.1164,,,,,,,,,,,,,,,,,,,,,,6103583967377f29277e44ba,61036f113dc361aa68b5ee86,2021-07-30_04h16.53.392,Simcolourproject_2stim_asymm_v5,2020.2.10,Win32,60,61025ae37ef11b136ea224fe,,,,,,,,,2167,-78,96,1,0,0,response7disk,,0,-33,-3,1,0,0,rectangle,-33,-3,1,0,0,-33,-3,1,0,0,0,81,81,127,1,,,,,,,,
,,,,,,,,,,,,,FF,,,,,,,,0.8323,,,,,,,,,,,,,,,,,,,,,,6103583967377f29277e44ba,61036f113dc361aa68b5ee86,2021-07-30_04h16.53.392,Simcolourproject_2stim_asymm_v5,2020.2.10,Win32,60,61025ae37ef11b136ea224fe,,,,,,,,,4350,-41,98,1,0,0,response7disk,,0,-8,6,1,0,0,rectangle,-8,6,1,0,0,-8,6,1,0,0,0,82,82,147,1,,,,,,,,
,,,,,,,,,,,,,FF,,,,,,,,1.1332,,,,,,,,,,,,,,,,,,,,,,6103583967377f29277e44ba,61036f113dc361aa68b5ee86,2021-07-30_04h16.53.392,Simcolourproject_2stim_asymm_v5,2020.2.10,Win32,60,61025ae37ef11b136ea224fe,,,,,,,,,1912,107,49,1,0,0,response1disk,,6,-14,-18,1,0,0,rectangle,-14,-18,1,0,0,-14,-18,1,0,0,0,83,83,76,1,,,,,,,,
,,,,,,,,,,,,,FF,,,,,,,,0.9163,,,,,,,,,,,,,,,,,,,,,,6103583967377f29277e44ba,61036f113dc361aa68b5ee86,2021-07-30_04h16.53.392,Simcolourproject_2stim_asymm_v5,2020.2.10,Win32,60,61025ae37ef11b136ea224fe,,,,,,,,,3149,-104,-56,1,0,0,response5disk,,2,4,-17,1,0,0,rectangle,4,-17,1,0,0,4,-17,1,0,0,0,84,84,7,1,,,,,,,,
,,,,,,,,,,,,,FF,,,,,,,,0.9834,,,,,,,,,,,,,,,,,,,,,,6103583967377f29277e44ba,61036f113dc361aa68b5ee86,2021-07-30_04h16.53.392,Simcolourproject_2stim_asymm_v5,2020.2.10,Win32,60,61025ae37ef11b136ea224fe,,,,,,,,,1422,121,-59,1,0,0,response3disk,,5,20,-10,1,0,0,rectangle,20,-10,1,0,0,20,-10,1,0,0,0,85,85,138,1,,,,,,,,
,,,,,,,,,,,,,FF,,,,,,,,2.7837,,,,,,,,,,,,,,,,,,,,,,6103583967377f29277e44ba,61036f113dc361aa68b5ee86,2021-07-30_04h16.53.392,Simcolourproject_2stim_asymm_v5,2020.2.10,Win32,60,61025ae37ef11b136ea224fe,,,,,,,,,361,108,-81,1,0,0,response3disk,,5,13,-11,1,0,0,rectangle,13,-11,1,0,0,13,-11,1,0,0,0,86,86,133,1,,,,,,,,
,,,,,,,,,,,,,FF,,,,,,,,1.0665,,,,,,,,,,,,,,,,,,,,,,6103583967377f29277e44ba,61036f113dc361aa68b5ee86,2021-07-30_04h16.53.392,Simcolourproject_2stim_asymm_v5,2020.2.10,Win32,60,61025ae37ef11b136ea224fe,,,,,,,,,1486,34,103,1,0,0,response1disk,,7,5,-5,1,0,0,rectangle,5,-5,1,0,0,5,-5,1,0,0,0,87,87,70,1,,,,,,,,
,,,,,,,,,,,,,FF,,,,,,,,4.1305,,,,,,,,,,,,,,,,,,,,,,6103583967377f29277e44ba,61036f113dc361aa68b5ee86,2021-07-30_04h16.53.392,Simcolourproject_2stim_asymm_v5,2020.2.10,Win32,60,61025ae37ef11b136ea224fe,,,,,,,,,1129,63,-99,1,0,0,response3disk,,4,-14,14,1,0,0,rectangle,-14,14,1,0,0,-14,14,1,0,0,0,88,88,16,1,,,,,,,,
,,,,,,,,,,,,,FF,,,,,,,,0.9658,,,,,,,,,,,,,,,,,,,,,,6103583967377f29277e44ba,61036f113dc361aa68b5ee86,2021-07-30_04h16.53.392,Simcolourproject_2stim_asymm_v5,2020.2.10,Win32,60,61025ae37ef11b136ea224fe,,,,,,,,,2138,39,108,1,0,0,response1disk,,7,-15,-7,1,0,0,rectangle,125,54,1,0,0,-10,-4,1,0,0,0,89,89,136,1,,response1disk_3,TRUE,6,6,"[170,107,170,20,269,248,3,134,153,6,280,94,75,210,259,172,156,101,90,286]",1.8334,rectangle
,,,,,,,,,,,,,FF,,,,,,,,1.3501,,,,,,,,,,,,,,,,,,,,,,6103583967377f29277e44ba,61036f113dc361aa68b5ee86,2021-07-30_04h16.53.392,Simcolourproject_2stim_asymm_v5,2020.2.10,Win32,60,61025ae37ef11b136ea224fe,,,,,,,,,824,-68,-112,1,0,0,response5disk,,3,27,11,1,0,0,rectangle,27,11,1,0,0,27,11,1,0,0,0,90,90,115,1,,,,,,,,
,,,,,,,,,,,,,FF,,,,,,,,1.1332,,,,,,,,,,,,,,,,,,,,,,6103583967377f29277e44ba,61036f113dc361aa68b5ee86,2021-07-30_04h16.53.392,Simcolourproject_2stim_asymm_v5,2020.2.10,Win32,60,61025ae37ef11b136ea224fe,,,,,,,,,3894,110,-54,1,0,0,response3disk,,5,10,6,1,0,0,rectangle,10,6,1,0,0,10,6,1,0,0,0,91,91,108,1,,,,,,,,
,,,,,,,,,,,,,FF,,,,,,,,1.35,,,,,,,,,,,,,,,,,,,,,,6103583967377f29277e44ba,61036f113dc361aa68b5ee86,2021-07-30_04h16.53.392,Simcolourproject_2stim_asymm_v5,2020.2.10,Win32,60,61025ae37ef11b136ea224fe,,,,,,,,,2908,71,116,1,0,0,response1disk,,7,-6,-13,1,0,0,rectangle,-6,-13,1,0,0,-6,-13,1,0,0,0,92,92,52,1,,,,,,,,
,,,,,,,,,,,,,FF,,,,,,,,0.7508,,,,,,,,,,,,,,,,,,,,,,6103583967377f29277e44ba,61036f113dc361aa68b5ee86,2021-07-30_04h16.53.392,Simcolourproject_2stim_asymm_v5,2020.2.10,Win32,60,61025ae37ef11b136ea224fe,,,,,,,,,2958,64,99,1,0,0,response1disk,,7,19,9,1,0,0,rectangle,-36,-110,1,0,0,6,-1,1,0,0,0,93,93,87,1,,response5disk_3,TRUE,3,3,"[170,107,170,20,269,248,3,134,153,6,280,94,75,210,259,172,156,101,90,286]",1.6333,rectangle
,,,,,,,,,,,,,FF,,,,,,,,0.9994,,,,,,,,,,,,,,,,,,,,,,6103583967377f29277e44ba,61036f113dc361aa68b5ee86,2021-07-30_04h16.53.392,Simcolourproject_2stim_asymm_v5,2020.2.10,Win32,60,61025ae37ef11b136ea224fe,,,,,,,,,3035,138,75,1,0,0,response1disk,,6,-13,-9,1,0,0,rectangle,-13,-9,1,0,0,-13,-9,1,0,0,0,94,94,121,1,,,,,,,,
,,,,,,,,,,,,,FF,,,,,,,,3.1507,,,,,,,,,,,,,,,,,,,,,,6103583967377f29277e44ba,61036f113dc361aa68b5ee86,2021-07-30_04h16.53.392,Simcolourproject_2stim_asymm_v5,2020.2.10,Win32,60,61025ae37ef11b136ea224fe,,,,,,,,,711,105,-67,1,0,0,response3disk,,5,12,-11,1,0,0,rectangle,12,-11,1,0,0,12,-11,1,0,0,0,95,95,102,1,,,,,,,,
,,,,,,,,,,,,,FF,,,,,,,,0.9154,,,,,,,,,,,,,,,,,,,,,,6103583967377f29277e44ba,61036f113dc361aa68b5ee86,2021-07-30_04h16.53.392,Simcolourproject_2stim_asymm_v5,2020.2.10,Win32,60,61025ae37ef11b136ea224fe,,,,,,,,,2034,-115,-67,1,0,0,response5disk,,2,-25,-19,1,0,0,rectangle,-25,-19,1,0,0,-25,-19,1,0,0,0,96,96,149,1,,,,,,,,
,,,,,,,,,,,,,FF,,,,,,,,1.4092,,,,,,,,,,,,,,,,,,,,,,6103583967377f29277e44ba,61036f113dc361aa68b5ee86,2021-07-30_04h16.53.392,Simcolourproject_2stim_asymm_v5,2020.2.10,Win32,60,61025ae37ef11b136ea224fe,,,,,,,,,3495,53,88,1,0,0,response1disk,,7,5,0,1,0,0,rectangle,5,0,1,0,0,5,0,1,0,0,0,97,97,27,1,,,,,,,,
,,,,,,,,,,,,,FF,,,,,,,,3.2325,,,,,,,,,,,,,,,,,,,,,,6103583967377f29277e44ba,61036f113dc361aa68b5ee86,2021-07-30_04h16.53.392,Simcolourproject_2stim_asymm_v5,2020.2.10,Win32,60,61025ae37ef11b136ea224fe,,,,,,,,,1786,75,-129,1,0,0,response3disk,,4,8,-21,1,0,0,rectangle,8,-21,1,0,0,8,-21,1,0,0,0,98,98,8,1,,,,,,,,
,,,,,,,,,,,,,FF,,,,,,,,1,,,,,,,,,,,,,,,,,,,,,,6103583967377f29277e44ba,61036f113dc361aa68b5ee86,2021-07-30_04h16.53.392,Simcolourproject_2stim_asymm_v5,2020.2.10,Win32,60,61025ae37ef11b136ea224fe,,,,,,,,,3808,-45,-127,1,0,0,response5disk,,3,17,-16,1,0,0,rectangle,17,-16,1,0,0,17,-16,1,0,0,0,99,99,99,1,,,,,,,,
,,,,,,,,,,,,,FF,,,,,,,,1.8835,,,,,,,,,,,,,,,,,,,,,,6103583967377f29277e44ba,61036f113dc361aa68b5ee86,2021-07-30_04h16.53.392,Simcolourproject_2stim_asymm_v5,2020.2.10,Win32,60,61025ae37ef11b136ea224fe,,,,,,,,,3123,82,120,1,0,0,response1disk,,7,9,5,1,0,0,rectangle,-132,71,1,0,0,-10,6,1,0,0,0,100,100,42,1,,response7disk_3,TRUE,1,1,"[170,107,170,20,269,248,3,134,153,6,280,94,75,210,259,172,156,101,90,286]",1.4331,rectangle
,,,,,,,,,,,,,FF,,,,,,,,1.5012,,,,,,,,,,,,,,,,,,,,,,6103583967377f29277e44ba,61036f113dc361aa68b5ee86,2021-07-30_04h16.53.392,Simcolourproject_2stim_asymm_v5,2020.2.10,Win32,60,61025ae37ef11b136ea224fe,,,,,,,,,2687,63,108,1,0,0,response1disk,,7,19,9,1,0,0,rectangle,19,9,1,0,0,19,9,1,0,0,0,101,101,54,1,,,,,,,,
,,,,,,,,,,,,,FF,,,,,,,,1.9505,,,,,,,,,,,,,,,,,,,,,,6103583967377f29277e44ba,61036f113dc361aa68b5ee86,2021-07-30_04h16.53.392,Simcolourproject_2stim_asymm_v5,2020.2.10,Win32,60,61025ae37ef11b136ea224fe,,,,,,,,,2289,51,-117,1,0,0,response3disk,,4,3,-10,1,0,0,rectangle,3,-10,1,0,0,3,-10,1,0,0,0,102,102,92,1,,,,,,,,
,,,,,,,,,,,,,FF,,,,,,,,23.6234,,,,,,,,,,,,,,,,,,,,,,6103583967377f29277e44ba,61036f113dc361aa68b5ee86,2021-07-30_04h16.53.392,Simcolourproject_2stim_asymm_v5,2020.2.10,Win32,60,61025ae37ef11b136ea224fe,,,,,,,,,1352,63,-105,1,0,0,response3disk,,4,11,9,1,0,0,rectangle,11,9,1,0,0,11,9,1,0,0,0,103,103,85,1,,,,,,,,
,,,,,,,,,,,,,FF,,,,,,,,4.0158,,,,,,,,,,,,,,,,,,,,,,6103583967377f29277e44ba,61036f113dc361aa68b5ee86,2021-07-30_04h16.53.392,Simcolourproject_2stim_asymm_v5,2020.2.10,Win32,60,61025ae37ef11b136ea224fe,,,,,,,,,2029,-74,-131,1,0,0,response5disk,,3,12,-4,1,0,0,rectangle,12,-4,1,0,0,12,-4,1,0,0,0,104,104,9,1,,,,,,,,
,,,,,,,,,,,,,FF,,,,,,,,1.5894,,,,,,,,,,,,,,,,,,,,,,6103583967377f29277e44ba,61036f113dc361aa68b5ee86,2021-07-30_04h16.53.392,Simcolourproject_2stim_asymm_v5,2020.2.10,Win32,60,61025ae37ef11b136ea224fe,,,,,,,,,851,116,74,1,0,0,response1disk,,6,2,-15,1,0,0,rectangle,2,-15,1,0,0,2,-15,1,0,0,0,105,105,91,1,,,,,,,,
,,,,,,,,,,,,,FF,,,,,,,,1.4497,,,,,,,,,,,,,,,,,,,,,,6103583967377f29277e44ba,61036f113dc361aa68b5ee86,2021-07-30_04h16.53.392,Simcolourproject_2stim_asymm_v5,2020.2.10,Win32,60,61025ae37ef11b136ea224fe,,,,,,,,,3681,41,-126,1,0,0,response3disk,,4,-1,-12,1,0,0,rectangle,-110,-26,1,0,0,20,19,1,0,0,0,106,106,82,1,,response5disk_3,TRUE,2,2,"[170,107,170,20,269,248,3,134,153,6,280,94,75,210,259,172,156,101,90,286]",46.951,rectangle
,,,,,,,,,,,,,FF,,,,,,,,2.6493,,,,,,,,,,,,,,,,,,,,,,6103583967377f29277e44ba,61036f113dc361aa68b5ee86,2021-07-30_04h16.53.392,Simcolourproject_2stim_asymm_v5,2020.2.10,Win32,60,61025ae37ef11b136ea224fe,,,,,,,,,1206,-70,-131,1,0,0,response5disk,,3,-19,3,1,0,0,rectangle,-19,3,1,0,0,-19,3,1,0,0,0,107,107,21,1,,,,,,,,
,,,,,,,,,,,,,FF,,,,,,,,1.8001,,,,,,,,,,,,,,,,,,,,,,6103583967377f29277e44ba,61036f113dc361aa68b5ee86,2021-07-30_04h16.53.392,Simcolourproject_2stim_asymm_v5,2020.2.10,Win32,60,61025ae37ef11b136ea224fe,,,,,,,,,2209,55,-121,1,0,0,response3disk,,4,-2,4,1,0,0,rectangle,-2,4,1,0,0,-2,4,1,0,0,0,108,108,24,1,,,,,,,,
,,,,,,,,,,,,,FF,,,,,,,,0.9996,,,,,,,,,,,,,,,,,,,,,,6103583967377f29277e44ba,61036f113dc361aa68b5ee86,2021-07-30_04h16.53.392,Simcolourproject_2stim_asymm_v5,2020.2.10,Win32,60,61025ae37ef11b136ea224fe,,,,,,,,,771,100,-36,1,0,0,response3disk,,5,8,2,1,0,0,rectangle,8,2,1,0,0,8,2,1,0,0,0,109,109,10,1,,,,,,,,
,,,,,,,,,,,,,FF,,,,,,,,2.0663,,,,,,,,,,,,,,,,,,,,,,6103583967377f29277e44ba,61036f113dc361aa68b5ee86,2021-07-30_04h16.53.392,Simcolourproject_2stim_asymm_v5,2020.2.10,Win32,60,61025ae37ef11b136ea224fe,,,,,,,,,1257,89,-51,1,0,0,response3disk,,5,33,-8,1,0,0,rectangle,33,-8,1,0,0,33,-8,1,0,0,0,110,110,17,1,,,,,,,,
,,,,,,,,,,,,,FF,,,,,,,,1.2339,,,,,,,,,,,,,,,,,,,,,,6103583967377f29277e44ba,61036f113dc361aa68b5ee86,2021-07-30_04h16.53.392,Simcolourproject_2stim_asymm_v5,2020.2.10,Win32,60,61025ae37ef11b136ea224fe,,,,,,,,,2703,116,76,1,0,0,response1disk,,6,-17,18,1,0,0,rectangle,-17,18,1,0,0,-17,18,1,0,0,0,111,111,26,1,,,,,,,,
,,,,,,,,,,,,,FF,,,,,,,,1.4334,,,,,,,,,,,,,,,,,,,,,,6103583967377f29277e44ba,61036f113dc361aa68b5ee86,2021-07-30_04h16.53.392,Simcolourproject_2stim_asymm_v5,2020.2.10,Win32,60,61025ae37ef11b136ea224fe,,,,,,,,,2649,150,77,1,0,0,response1disk,,6,5,6,1,0,0,rectangle,5,6,1,0,0,5,6,1,0,0,0,112,112,157,1,,,,,,,,
,,,,,,,,,,,,,FF,,,,,,,,0.967,,,,,,,,,,,,,,,,,,,,,,6103583967377f29277e44ba,61036f113dc361aa68b5ee86,2021-07-30_04h16.53.392,Simcolourproject_2stim_asymm_v5,2020.2.10,Win32,60,61025ae37ef11b136ea224fe,,,,,,,,,172,-106,-48,1,0,0,response5disk,,2,39,-12,1,0,0,rectangle,39,-12,1,0,0,39,-12,1,0,0,0,113,113,75,1,,,,,,,,
,,,,,,,,,,,,,FF,,,,,,,,0.85,,,,,,,,,,,,,,,,,,,,,,6103583967377f29277e44ba,61036f113dc361aa68b5ee86,2021-07-30_04h16.53.392,Simcolourproject_2stim_asymm_v5,2020.2.10,Win32,60,61025ae37ef11b136ea224fe,,,,,,,,,3097,-82,-26,1,0,0,response5disk,,2,1,-10,1,0,0,rectangle,1,-10,1,0,0,1,-10,1,0,0,0,114,114,63,1,,,,,,,,
,,,,,,,,,,,,,FF,,,,,,,,0.7996,,,,,,,,,,,,,,,,,,,,,,6103583967377f29277e44ba,61036f113dc361aa68b5ee86,2021-07-30_04h16.53.392,Simcolourproject_2stim_asymm_v5,2020.2.10,Win32,60,61025ae37ef11b136ea224fe,,,,,,,,,1565,126,45,1,0,0,response1disk,,6,2,-21,1,0,0,rectangle,2,-21,1,0,0,2,-21,1,0,0,0,115,115,86,1,,,,,,,,
,,,,,,,,,,,,,FF,,,,,,,,0.6665,,,,,,,,,,,,,,,,,,,,,,6103583967377f29277e44ba,61036f113dc361aa68b5ee86,2021-07-30_04h16.53.392,Simcolourproject_2stim_asymm_v5,2020.2.10,Win32,60,61025ae37ef11b136ea224fe,,,,,,,,,4020,-35,109,1,0,0,response7disk,,0,0,8,1,0,0,rectangle,0,8,1,0,0,0,8,1,0,0,0,116,116,144,1,,,,,,,,
,,,,,,,,,,,,,FF,,,,,,,,1.6994,,,,,,,,,,,,,,,,,,,,,,6103583967377f29277e44ba,61036f113dc361aa68b5ee86,2021-07-30_04h16.53.392,Simcolourproject_2stim_asymm_v5,2020.2.10,Win32,60,61025ae37ef11b136ea224fe,,,,,,,,,508,56,124,1,0,0,response1disk,,7,9,-4,1,0,0,rectangle,9,-4,1,0,0,9,-4,1,0,0,0,117,117,74,1,,,,,,,,
,,,,,,,,,,,,,FF,,,,,,,,1.1996,,,,,,,,,,,,,,,,,,,,,,6103583967377f29277e44ba,61036f113dc361aa68b5ee86,2021-07-30_04h16.53.392,Simcolourproject_2stim_asymm_v5,2020.2.10,Win32,60,61025ae37ef11b136ea224fe,,,,,,,,,4025,120,60,1,0,0,response1disk,,6,26,5,1,0,0,rectangle,26,5,1,0,0,26,5,1,0,0,0,118,118,145,1,,,,,,,,
,,,,,,,,,,,,,FF,,,,,,,,1.385,,,,,,,,,,,,,,,,,,,,,,6103583967377f29277e44ba,61036f113dc361aa68b5ee86,2021-07-30_04h16.53.392,Simcolourproject_2stim_asymm_v5,2020.2.10,Win32,60,61025ae37ef11b136ea224fe,,,,,,,,,2928,70,101,1,0,0,response1disk,,7,30,17,1,0,0,rectangle,30,17,1,0,0,30,17,1,0,0,0,119,119,106,1,,,,,,,,
,,,,,,,,,,,,,FF,,,,,,,,0.8343,,,,,,,,,,,,,,,,,,,,,,6103583967377f29277e44ba,61036f113dc361aa68b5ee86,2021-07-30_04h16.53.392,Simcolourproject_2stim_asymm_v5,2020.2.10,Win32,60,61025ae37ef11b136ea224fe,,,,,,,,,2395,56,110,1,0,0,response1disk,,7,17,-4,1,0,0,rectangle,17,-4,1,0,0,17,-4,1,0,0,0,120,120,61,1,,,,,,,,
,,,,,,,,,,,,,FF,,,,,,,,1.0829,,,,,,,,,,,,,,,,,,,,,,6103583967377f29277e44ba,61036f113dc361aa68b5ee86,2021-07-30_04h16.53.392,Simcolourproject_2stim_asymm_v5,2020.2.10,Win32,60,61025ae37ef11b136ea224fe,,,,,,,,,2404,68,117,1,0,0,response1disk,,7,22,-19,1,0,0,rectangle,22,-19,1,0,0,22,-19,1,0,0,0,121,121,159,1,,,,,,,,
,,,,,,,,,,,,,FF,,,,,,,,0.8168,,,,,,,,,,,,,,,,,,,,,,6103583967377f29277e44ba,61036f113dc361aa68b5ee86,2021-07-30_04h16.53.392,Simcolourproject_2stim_asymm_v5,2020.2.10,Win32,60,61025ae37ef11b136ea224fe,,,,,,,,,212,90,53,1,0,0,response1disk,,6,38,8,1,0,0,rectangle,38,8,1,0,0,38,8,1,0,0,0,122,122,13,1,,,,,,,,
,,,,,,,,,,,,,FF,,,,,,,,0.9162,,,,,,,,,,,,,,,,,,,,,,6103583967377f29277e44ba,61036f113dc361aa68b5ee86,2021-07-30_04h16.53.392,Simcolourproject_2stim_asymm_v5,2020.2.10,Win32,60,61025ae37ef11b136ea224fe,,,,,,,,,2005,58,118,1,0,0,response1disk,,7,31,11,1,0,0,rectangle,31,11,1,0,0,31,11,1,0,0,0,123,123,6,1,,,,,,,,
,,,,,,,,,,,,,FF,,,,,,,,0.8998,,,,,,,,,,,,,,,,,,,,,,6103583967377f29277e44ba,61036f113dc361aa68b5ee86,2021-07-30_04h16.53.392,Simcolourproject_2stim_asymm_v5,2020.2.10,Win32,60,61025ae37ef11b136ea224fe,,,,,,,,,2948,-122,48,1,0,0,response7disk,,1,15,2,1,0,0,rectangle,15,2,1,0,0,15,2,1,0,0,0,124,124,68,1,,,,,,,,
,,,,,,,,,,,,,FF,,,,,,,,1.2829,,,,,,,,,,,,,,,,,,,,,,6103583967377f29277e44ba,61036f113dc361aa68b5ee86,2021-07-30_04h16.53.392,Simcolourproject_2stim_asymm_v5,2020.2.10,Win32,60,61025ae37ef11b136ea224fe,,,,,,,,,2193,81,47,1,0,0,response1disk,,6,11,-9,1,0,0,rectangle,11,-9,1,0,0,11,-9,1,0,0,0,125,125,4,1,,,,,,,,
,,,,,,,,,,,,,FF,,,,,,,,4.4829,,,,,,,,,,,,,,,,,,,,,,6103583967377f29277e44ba,61036f113dc361aa68b5ee86,2021-07-30_04h16.53.392,Simcolourproject_2stim_asymm_v5,2020.2.10,Win32,60,61025ae37ef11b136ea224fe,,,,,,,,,754,62,-89,1,0,0,response3disk,,4,-7,4,1,0,0,rectangle,-7,4,1,0,0,-7,4,1,0,0,0,126,126,153,1,,,,,,,,
,,,,,,,,,,,,,FF,,,,,,,,0.9175,,,,,,,,,,,,,,,,,,,,,,6103583967377f29277e44ba,61036f113dc361aa68b5ee86,2021-07-30_04h16.53.392,Simcolourproject_2stim_asymm_v5,2020.2.10,Win32,60,61025ae37ef11b136ea224fe,,,,,,,,,2274,89,49,1,0,0,response1disk,,6,24,11,1,0,0,rectangle,24,11,1,0,0,24,11,1,0,0,0,127,127,142,1,,,,,,,,
,,,,,,,,,,,,,FF,,,,,,,,0.6174,,,,,,,,,,,,,,,,,,,,,,6103583967377f29277e44ba,61036f113dc361aa68b5ee86,2021-07-30_04h16.53.392,Simcolourproject_2stim_asymm_v5,2020.2.10,Win32,60,61025ae37ef11b136ea224fe,,,,,,,,,125,85,41,1,0,0,response1disk,,6,11,-3,1,0,0,rectangle,11,-3,1,0,0,11,-3,1,0,0,0,128,128,37,1,,,,,,,,
,,,,,,,,,,,,,FF,,,,,,,,1.1333,,,,,,,,,,,,,,,,,,,,,,6103583967377f29277e44ba,61036f113dc361aa68b5ee86,2021-07-30_04h16.53.392,Simcolourproject_2stim_asymm_v5,2020.2.10,Win32,60,61025ae37ef11b136ea224fe,,,,,,,,,2277,81,114,1,0,0,response1disk,,7,20,0,1,0,0,rectangle,20,0,1,0,0,20,0,1,0,0,0,129,129,20,1,,,,,,,,
,,,,,,,,,,,,,FF,,,,,,,,0.7656,,,,,,,,,,,,,,,,,,,,,,6103583967377f29277e44ba,61036f113dc361aa68b5ee86,2021-07-30_04h16.53.392,Simcolourproject_2stim_asymm_v5,2020.2.10,Win32,60,61025ae37ef11b136ea224fe,,,,,,,,,1782,59,120,1,0,0,response1disk,,7,21,11,1,0,0,rectangle,21,11,1,0,0,21,11,1,0,0,0,130,130,65,1,,,,,,,,
,,,,,,,,,,,,,FF,,,,,,,,0.8164,,,,,,,,,,,,,,,,,,,,,,6103583967377f29277e44ba,61036f113dc361aa68b5ee86,2021-07-30_04h16.53.392,Simcolourproject_2stim_asymm_v5,2020.2.10,Win32,60,61025ae37ef11b136ea224fe,,,,,,,,,247,122,41,1,0,0,response1disk,,6,10,-10,1,0,0,rectangle,10,-10,1,0,0,10,-10,1,0,0,0,131,131,103,1,,,,,,,,
,,,,,,,,,,,,,FF,,,,,,,,1.0328,,,,,,,,,,,,,,,,,,,,,,6103583967377f29277e44ba,61036f113dc361aa68b5ee86,2021-07-30_04h16.53.392,Simcolourproject_2stim_asymm_v5,2020.2.10,Win32,60,61025ae37ef11b136ea224fe,,,,,,,,,3093,-132,-57,1,0,0,response5disk,,2,-9,-7,1,0,0,rectangle,-9,-7,1,0,0,-9,-7,1,0,0,0,132,132,53,1,,,,,,,,
,,,,,,,,,,,,,FF,,,,,,,,1.1488,,,,,,,,,,,,,,,,,,,,,,6103583967377f29277e44ba,61036f113dc361aa68b5ee86,2021-07-30_04h16.53.392,Simcolourproject_2stim_asymm_v5,2020.2.10,Win32,60,61025ae37ef11b136ea224fe,,,,,,,,,1527,-97,-47,1,0,0,response5disk,,2,9,9,1,0,0,rectangle,112,63,1,0,0,-8,-19,1,0,0,0,133,133,95,1,,response1disk_3,TRUE,6,6,"[170,107,170,20,269,248,3,134,153,6,280,94,75,210,259,172,156,101,90,286]",1.1663,rectangle
,,,,,,,,,,,,,FF,,,,,,,,1.0661,,,,,,,,,,,,,,,,,,,,,,6103583967377f29277e44ba,61036f113dc361aa68b5ee86,2021-07-30_04h16.53.392,Simcolourproject_2stim_asymm_v5,2020.2.10,Win32,60,61025ae37ef11b136ea224fe,,,,,,,,,3122,62,120,1,0,0,response1disk,,7,4,-1,1,0,0,rectangle,4,-1,1,0,0,4,-1,1,0,0,0,134,134,51,1,,,,,,,,
,,,,,,,,,,,,,FF,,,,,,,,0.6668,,,,,,,,,,,,,,,,,,,,,,6103583967377f29277e44ba,61036f113dc361aa68b5ee86,2021-07-30_04h16.53.392,Simcolourproject_2stim_asymm_v5,2020.2.10,Win32,60,61025ae37ef11b136ea224fe,,,,,,,,,543,-54,106,1,0,0,response7disk,,0,2,-7,1,0,0,rectangle,2,-7,1,0,0,2,-7,1,0,0,0,135,135,120,1,,,,,,,,
,,,,,,,,,,,,,FF,,,,,,,,1.2171,,,,,,,,,,,,,,,,,,,,,,6103583967377f29277e44ba,61036f113dc361aa68b5ee86,2021-07-30_04h16.53.392,Simcolourproject_2stim_asymm_v5,2020.2.10,Win32,60,61025ae37ef11b136ea224fe,,,,,,,,,623,132,65,1,0,0,response1disk,,6,6,20,1,0,0,rectangle,6,20,1,0,0,6,20,1,0,0,0,136,136,123,1,,,,,,,,
,,,,,,,,,,,,,FF,,,,,,,,0.7336,,,,,,,,,,,,,,,,,,,,,,6103583967377f29277e44ba,61036f113dc361aa68b5ee86,2021-07-30_04h16.53.392,Simcolourproject_2stim_asymm_v5,2020.2.10,Win32,60,61025ae37ef11b136ea224fe,,,,,,,,,966,100,42,1,0,0,response1disk,,6,-14,-5,1,0,0,rectangle,-14,-5,1,0,0,-14,-5,1,0,0,0,137,137,31,1,,,,,,,,
,,,,,,,,,,,,,FF,,,,,,,,0.8325,,,,,,,,,,,,,,,,,,,,,,6103583967377f29277e44ba,61036f113dc361aa68b5ee86,2021-07-30_04h16.53.392,Simcolourproject_2stim_asymm_v5,2020.2.10,Win32,60,61025ae37ef11b136ea224fe,,,,,,,,,507,132,59,1,0,0,response1disk,,6,10,-19,1,0,0,rectangle,10,-19,1,0,0,10,-19,1,0,0,0,138,138,84,1,,,,,,,,
,,,,,,,,,,,,,FF,,,,,,,,1.2165,,,,,,,,,,,,,,,,,,,,,,6103583967377f29277e44ba,61036f113dc361aa68b5ee86,2021-07-30_04h16.53.392,Simcolourproject_2stim_asymm_v5,2020.2.10,Win32,60,61025ae37ef11b136ea224fe,,,,,,,,,2976,99,56,1,0,0,response1disk,,6,-23,-19,1,0,0,rectangle,-23,-19,1,0,0,-23,-19,1,0,0,0,139,139,59,1,,,,,,,,
,,,,,,,,,,,,,FF,,,,,,,,0.6492,,,,,,,,,,,,,,,,,,,,,,6103583967377f29277e44ba,61036f113dc361aa68b5ee86,2021-07-30_04h16.53.392,Simcolourproject_2stim_asymm_v5,2020.2.10,Win32,60,61025ae37ef11b136ea224fe,,,,,,,,,3228,111,-58,1,0,0,response3disk,,5,7,18,1,0,0,rectangle,7,18,1,0,0,7,18,1,0,0,0,140,140,23,1,,,,,,,,
,,,,,,,,,,,,,FF,,,,,,,,1.0334,,,,,,,,,,,,,,,,,,,,,,6103583967377f29277e44ba,61036f113dc361aa68b5ee86,2021-07-30_04h16.53.392,Simcolourproject_2stim_asymm_v5,2020.2.10,Win32,60,61025ae37ef11b136ea224fe,,,,,,,,,2527,94,-43,1,0,0,response3disk,,5,-8,-14,1,0,0,rectangle,-8,-14,1,0,0,-8,-14,1,0,0,0,141,141,90,1,,,,,,,,
,,,,,,,,,,,,,FF,,,,,,,,0.8497,,,,,,,,,,,,,,,,,,,,,,6103583967377f29277e44ba,61036f113dc361aa68b5ee86,2021-07-30_04h16.53.392,Simcolourproject_2stim_asymm_v5,2020.2.10,Win32,60,61025ae37ef11b136ea224fe,,,,,,,,,2416,54,112,1,0,0,response1disk,,7,-6,5,1,0,0,rectangle,-6,5,1,0,0,-6,5,1,0,0,0,142,142,72,1,,,,,,,,
,,,,,,,,,,,,,FF,,,,,,,,0.968,,,,,,,,,,,,,,,,,,,,,,6103583967377f29277e44ba,61036f113dc361aa68b5ee86,2021-07-30_04h16.53.392,Simcolourproject_2stim_asymm_v5,2020.2.10,Win32,60,61025ae37ef11b136ea224fe,,,,,,,,,1855,60,111,1,0,0,response1disk,,7,-4,-6,1,0,0,rectangle,-4,-6,1,0,0,-4,-6,1,0,0,0,143,143,148,1,,,,,,,,
,,,,,,,,,,,,,FF,,,,,,,,1.0827,,,,,,,,,,,,,,,,,,,,,,6103583967377f29277e44ba,61036f113dc361aa68b5ee86,2021-07-30_04h16.53.392,Simcolourproject_2stim_asymm_v5,2020.2.10,Win32,60,61025ae37ef11b136ea224fe,,,,,,,,,618,-104,-53,1,0,0,response5disk,,2,19,-5,1,0,0,rectangle,19,-5,1,0,0,19,-5,1,0,0,0,144,144,79,1,,,,,,,,
,,,,,,,,,,,,,FF,,,,,,,,1.084,,,,,,,,,,,,,,,,,,,,,,6103583967377f29277e44ba,61036f113dc361aa68b5ee86,2021-07-30_04h16.53.392,Simcolourproject_2stim_asymm_v5,2020.2.10,Win32,60,61025ae37ef11b136ea224fe,,,,,,,,,647,97,28,1,0,0,response1disk,,6,10,-11,1,0,0,rectangle,10,-11,1,0,0,10,-11,1,0,0,0,145,145,98,1,,,,,,,,
,,,,,,,,,,,,,FF,,,,,,,,0.6499,,,,,,,,,,,,,,,,,,,,,,6103583967377f29277e44ba,61036f113dc361aa68b5ee86,2021-07-30_04h16.53.392,Simcolourproject_2stim_asymm_v5,2020.2.10,Win32,60,61025ae37ef11b136ea224fe,,,,,,,,,1427,115,50,1,0,0,response1disk,,6,9,4,1,0,0,rectangle,9,4,1,0,0,9,4,1,0,0,0,146,146,78,1,,,,,,,,
,,,,,,,,,,,,,FF,,,,,,,,1.8505,,,,,,,,,,,,,,,,,,,,,,6103583967377f29277e44ba,61036f113dc361aa68b5ee86,2021-07-30_04h16.53.392,Simcolourproject_2stim_asymm_v5,2020.2.10,Win32,60,61025ae37ef11b136ea224fe,,,,,,,,,3755,-57,-129,1,0,0,response5disk,,3,4,7,1,0,0,rectangle,4,7,1,0,0,4,7,1,0,0,0,147,147,33,1,,,,,,,,
,,,,,,,,,,,,,FF,,,,,,,,1.1326,,,,,,,,,,,,,,,,,,,,,,6103583967377f29277e44ba,61036f113dc361aa68b5ee86,2021-07-30_04h16.53.392,Simcolourproject_2stim_asymm_v5,2020.2.10,Win32,60,61025ae37ef11b136ea224fe,,,,,,,,,1364,104,-51,1,0,0,response3disk,,5,19,-3,1,0,0,rectangle,19,-3,1,0,0,19,-3,1,0,0,0,148,148,111,1,,,,,,,,
,,,,,,,,,,,,,FF,,,,,,,,0.7503,,,,,,,,,,,,,,,,,,,,,,6103583967377f29277e44ba,61036f113dc361aa68b5ee86,2021-07-30_04h16.53.392,Simcolourproject_2stim_asymm_v5,2020.2.10,Win32,60,61025ae37ef11b136ea224fe,,,,,,,,,837,139,58,1,0,0,response1disk,,6,34,0,1,0,0,rectangle,34,0,1,0,0,34,0,1,0,0,0,149,149,140,1,,,,,,,,
,,,,,,,,,,,,,FF,,,,,,,,0.5004,,,,,,,,,,,,,,,,,,,,,,6103583967377f29277e44ba,61036f113dc361aa68b5ee86,2021-07-30_04h16.53.392,Simcolourproject_2stim_asymm_v5,2020.2.10,Win32,60,61025ae37ef11b136ea224fe,,,,,,,,,587,50,64,1,0,0,response1disk,,7,-6,-18,1,0,0,rectangle,-6,-18,1,0,0,-6,-18,1,0,0,0,150,150,96,1,,,,,,,,
,,,,,,,,,,,,,FF,,,,,,,,1.116,,,,,,,,,,,,,,,,,,,,,,6103583967377f29277e44ba,61036f113dc361aa68b5ee86,2021-07-30_04h16.53.392,Simcolourproject_2stim_asymm_v5,2020.2.10,Win32,60,61025ae37ef11b136ea224fe,,,,,,,,,3181,110,59,1,0,0,response1disk,,6,8,-18,1,0,0,rectangle,8,-18,1,0,0,8,-18,1,0,0,0,151,151,104,1,,,,,,,,
,,,,,,,,,,,,,FF,,,,,,,,0.967,,,,,,,,,,,,,,,,,,,,,,6103583967377f29277e44ba,61036f113dc361aa68b5ee86,2021-07-30_04h16.53.392,Simcolourproject_2stim_asymm_v5,2020.2.10,Win32,60,61025ae37ef11b136ea224fe,,,,,,,,,3471,-70,-131,1,0,0,response5disk,,3,-10,-3,1,0,0,rectangle,-136,-61,1,0,0,-1,-2,1,0,0,0,152,152,28,1,,response5disk_3,TRUE,2,2,"[170,107,170,20,269,248,3,134,153,6,280,94,75,210,259,172,156,101,90,286]",1.4988,rectangle
,,,,,,,,,,,,,FF,,,,,,,,0.8335,,,,,,,,,,,,,,,,,,,,,,6103583967377f29277e44ba,61036f113dc361aa68b5ee86,2021-07-30_04h16.53.392,Simcolourproject_2stim_asymm_v5,2020.2.10,Win32,60,61025ae37ef11b136ea224fe,,,,,,,,,2489,81,-48,1,0,0,response3disk,,5,16,5,1,0,0,rectangle,16,5,1,0,0,16,5,1,0,0,0,153,153,143,1,,,,,,,,
,,,,,,,,,,,,,FF,,,,,,,,0.5492,,,,,,,,,,,,,,,,,,,,,,6103583967377f29277e44ba,61036f113dc361aa68b5ee86,2021-07-30_04h16.53.392,Simcolourproject_2stim_asymm_v5,2020.2.10,Win32,60,61025ae37ef11b136ea224fe,,,,,,,,,2853,99,-40,1,0,0,response3disk,,5,0,-5,1,0,0,rectangle,0,-5,1,0,0,0,-5,1,0,0,0,154,154,131,1,,,,,,,,
,,,,,,,,,,,,,FF,,,,,,,,0.6839,,,,,,,,,,,,,,,,,,,,,,6103583967377f29277e44ba,61036f113dc361aa68b5ee86,2021-07-30_04h16.53.392,Simcolourproject_2stim_asymm_v5,2020.2.10,Win32,60,61025ae37ef11b136ea224fe,,,,,,,,,4065,116,54,1,0,0,response1disk,,6,-31,-11,1,0,0,rectangle,-49,-124,1,0,0,-4,2,1,0,0,0,155,155,64,1,,response5disk_3,TRUE,3,3,"[170,107,170,20,269,248,3,134,153,6,280,94,75,210,259,172,156,101,90,286]",1.4168,rectangle
,,,,,,,,,,,,,FF,,,,,,,,1.1493,,,,,,,,,,,,,,,,,,,,,,6103583967377f29277e44ba,61036f113dc361aa68b5ee86,2021-07-30_04h16.53.392,Simcolourproject_2stim_asymm_v5,2020.2.10,Win32,60,61025ae37ef11b136ea224fe,,,,,,,,,2027,-108,-54,1,0,0,response5disk,,2,-5,-5,1,0,0,rectangle,-5,-5,1,0,0,-5,-5,1,0,0,0,156,156,49,1,,,,,,,,
,,,,,,,,,,,,,FF,,,,,,,,0.9817,,,,,,,,,,,,,,,,,,,,,,6103583967377f29277e44ba,61036f113dc361aa68b5ee86,2021-07-30_04h16.53.392,Simcolourproject_2stim_asymm_v5,2020.2.10,Win32,60,61025ae37ef11b136ea224fe,,,,,,,,,3411,129,71,1,0,0,response1disk,,6,17,-9,1,0,0,rectangle,17,-9,1,0,0,17,-9,1,0,0,0,157,157,152,1,,,,,,,,
,,,,,,,,,,,,,FF,,,,,,,,0.6819,,,,,,,,,,,,,,,,,,,,,,6103583967377f29277e44ba,61036f113dc361aa68b5ee86,2021-07-30_04h16.53.392,Simcolourproject_2stim_asymm_v5,2020.2.10,Win32,60,61025ae37ef11b136ea224fe,,,,,,,,,2332,110,45,1,0,0,response1disk,,6,-5,-9,1,0,0,rectangle,-5,-9,1,0,0,-5,-9,1,0,0,0,158,158,112,1,,,,,,,,
,,,,,,,,,,,,,FF,,,,,,,,3.1001,,,,,,,,,,,,,,,,,,,,,,6103583967377f29277e44ba,61036f113dc361aa68b5ee86,2021-07-30_04h16.53.392,Simcolourproject_2stim_asymm_v5,2020.2.10,Win32,60,61025ae37ef11b136ea224fe,,,,,,,,,2980,123,41,1,0,0,response1disk,,6,24,-5,1,0,0,rectangle,24,-5,1,0,0,24,-5,1,0,0,0,159,159,130,1,,,,,,,,
,,,,,,,,,,,,,FF,,,,,,,,0.8173,,,,,,,,,,,,,,,,,,,,,,6103583967377f29277e44ba,61036f113dc361aa68b5ee86,2021-07-30_04h16.53.392,Simcolourproject_2stim_asymm_v5,2020.2.10,Win32,60,61025ae37ef11b136ea224fe,,,,,,,,,3046,-98,-40,1,0,0,response5disk,,2,31,6,1,0,0,rectangle,31,6,1,0,0,31,6,1,0,0,1,0,160,115,1,,,,,,,,
,,,,,,,,,,,,,FF,,,,,,,,0.916,,,,,,,,,,,,,,,,,,,,,,6103583967377f29277e44ba,61036f113dc361aa68b5ee86,2021-07-30_04h16.53.392,Simcolourproject_2stim_asymm_v5,2020.2.10,Win32,60,61025ae37ef11b136ea224fe,,,,,,,,,4120,-128,48,1,0,0,response7disk,,1,8,13,1,0,0,rectangle,8,13,1,0,0,8,13,1,0,0,1,1,161,5,1,,,,,,,,
,,,,,,,,,,,,,FF,,,,,,,,1.1332,,,,,,,,,,,,,,,,,,,,,,6103583967377f29277e44ba,61036f113dc361aa68b5ee86,2021-07-30_04h16.53.392,Simcolourproject_2stim_asymm_v5,2020.2.10,Win32,60,61025ae37ef11b136ea224fe,,,,,,,,,2035,110,64,1,0,0,response1disk,,6,7,2,1,0,0,rectangle,7,2,1,0,0,7,2,1,0,0,1,2,162,152,1,,,,,,,,
,,,,,,,,,,,,,FF,,,,,,,,0.9162,,,,,,,,,,,,,,,,,,,,,,6103583967377f29277e44ba,61036f113dc361aa68b5ee86,2021-07-30_04h16.53.392,Simcolourproject_2stim_asymm_v5,2020.2.10,Win32,60,61025ae37ef11b136ea224fe,,,,,,,,,2640,64,127,1,0,0,response1disk,,7,31,9,1,0,0,rectangle,31,9,1,0,0,31,9,1,0,0,1,3,163,82,1,,,,,,,,
,,,,,,,,,,,,,FF,,,,,,,,1.6004,,,,,,,,,,,,,,,,,,,,,,6103583967377f29277e44ba,61036f113dc361aa68b5ee86,2021-07-30_04h16.53.392,Simcolourproject_2stim_asymm_v5,2020.2.10,Win32,60,61025ae37ef11b136ea224fe,,,,,,,,,3773,-114,-54,1,0,0,response5disk,,2,15,8,1,0,0,rectangle,15,8,1,0,0,15,8,1,0,0,1,4,164,16,1,,,,,,,,
,,,,,,,,,,,,,FF,,,,,,,,0.9824,,,,,,,,,,,,,,,,,,,,,,6103583967377f29277e44ba,61036f113dc361aa68b5ee86,2021-07-30_04h16.53.392,Simcolourproject_2stim_asymm_v5,2020.2.10,Win32,60,61025ae37ef11b136ea224fe,,,,,,,,,2302,-105,-43,1,0,0,response5disk,,2,0,15,1,0,0,rectangle,0,15,1,0,0,0,15,1,0,0,1,5,165,30,1,,,,,,,,
,,,,,,,,,,,,,FF,,,,,,,,1.4155,,,,,,,,,,,,,,,,,,,,,,6103583967377f29277e44ba,61036f113dc361aa68b5ee86,2021-07-30_04h16.53.392,Simcolourproject_2stim_asymm_v5,2020.2.10,Win32,60,61025ae37ef11b136ea224fe,,,,,,,,,397,75,37,1,0,0,response1disk,,6,24,-6,1,0,0,rectangle,24,-6,1,0,0,24,-6,1,0,0,1,6,166,42,1,,,,,,,,
,,,,,,,,,,,,,FF,,,,,,,,2.9157,,,,,,,,,,,,,,,,,,,,,,6103583967377f29277e44ba,61036f113dc361aa68b5ee86,2021-07-30_04h16.53.392,Simcolourproject_2stim_asymm_v5,2020.2.10,Win32,60,61025ae37ef11b136ea224fe,,,,,,,,,2872,91,41,1,0,0,response1disk,,6,11,10,1,0,0,rectangle,11,10,1,0,0,11,10,1,0,0,1,7,167,133,1,,,,,,,,
,,,,,,,,,,,,,FF,,,,,,,,1.5,,,,,,,,,,,,,,,,,,,,,,6103583967377f29277e44ba,61036f113dc361aa68b5ee86,2021-07-30_04h16.53.392,Simcolourproject_2stim_asymm_v5,2020.2.10,Win32,60,61025ae37ef11b136ea224fe,,,,,,,,,666,67,105,1,0,0,response1disk,,7,13,-12,1,0,0,rectangle,13,-12,1,0,0,13,-12,1,0,0,1,8,168,159,1,,,,,,,,
,,,,,,,,,,,,,FF,,,,,,,,0.8997,,,,,,,,,,,,,,,,,,,,,,6103583967377f29277e44ba,61036f113dc361aa68b5ee86,2021-07-30_04h16.53.392,Simcolourproject_2stim_asymm_v5,2020.2.10,Win32,60,61025ae37ef11b136ea224fe,,,,,,,,,4164,-97,-27,1,0,0,response5disk,,2,23,5,1,0,0,rectangle,-140,64,1,0,0,-20,-8,1,0,0,1,9,169,34,1,,response7disk_3,TRUE,1,1,"[170,107,170,20,269,248,3,134,153,6,280,94,75,210,259,172,156,101,90,286]",1.2115,rectangle
,,,,,,,,,,,,,FF,,,,,,,,0.7017,,,,,,,,,,,,,,,,,,,,,,6103583967377f29277e44ba,61036f113dc361aa68b5ee86,2021-07-30_04h16.53.392,Simcolourproject_2stim_asymm_v5,2020.2.10,Win32,60,61025ae37ef11b136ea224fe,,,,,,,,,3259,105,55,1,0,0,response1disk,,6,23,8,1,0,0,rectangle,23,8,1,0,0,23,8,1,0,0,1,10,170,102,1,,,,,,,,
,,,,,,,,,,,,,FF,,,,,,,,0.5828,,,,,,,,,,,,,,,,,,,,,,6103583967377f29277e44ba,61036f113dc361aa68b5ee86,2021-07-30_04h16.53.392,Simcolourproject_2stim_asymm_v5,2020.2.10,Win32,60,61025ae37ef11b136ea224fe,,,,,,,,,2460,62,106,1,0,0,response1disk,,7,13,-17,1,0,0,rectangle,115,71,1,0,0,29,12,1,0,0,1,11,171,35,1,,response1disk_3,TRUE,6,6,"[170,107,170,20,269,248,3,134,153,6,280,94,75,210,259,172,156,101,90,286]",1.2829,rectangle
,,,,,,,,,,,,,FF,,,,,,,,1.5002,,,,,,,,,,,,,,,,,,,,,,6103583967377f29277e44ba,61036f113dc361aa68b5ee86,2021-07-30_04h16.53.392,Simcolourproject_2stim_asymm_v5,2020.2.10,Win32,60,61025ae37ef11b136ea224fe,,,,,,,,,275,57,116,1,0,0,response1disk,,7,8,-4,1,0,0,rectangle,8,-4,1,0,0,8,-4,1,0,0,1,12,172,55,1,,,,,,,,
,,,,,,,,,,,,,FF,,,,,,,,1.4177,,,,,,,,,,,,,,,,,,,,,,6103583967377f29277e44ba,61036f113dc361aa68b5ee86,2021-07-30_04h16.53.392,Simcolourproject_2stim_asymm_v5,2020.2.10,Win32,60,61025ae37ef11b136ea224fe,,,,,,,,,202,103,63,1,0,0,response1disk,,6,36,21,1,0,0,rectangle,36,21,1,0,0,36,21,1,0,0,1,13,173,100,1,,,,,,,,
,,,,,,,,,,,,,FF,,,,,,,,0.5833,,,,,,,,,,,,,,,,,,,,,,6103583967377f29277e44ba,61036f113dc361aa68b5ee86,2021-07-30_04h16.53.392,Simcolourproject_2stim_asymm_v5,2020.2.10,Win32,60,61025ae37ef11b136ea224fe,,,,,,,,,2223,117,57,1,0,0,response1disk,,6,18,2,1,0,0,rectangle,18,2,1,0,0,18,2,1,0,0,1,14,174,31,1,,,,,,,,
,,,,,,,,,,,,,FF,,,,,,,,0.7838,,,,,,,,,,,,,,,,,,,,,,6103583967377f29277e44ba,61036f113dc361aa68b5ee86,2021-07-30_04h16.53.392,Simcolourproject_2stim_asymm_v5,2020.2.10,Win32,60,61025ae37ef11b136ea224fe,,,,,,,,,3708,-93,44,1,0,0,response7disk,,1,-6,9,1,0,0,rectangle,-6,9,1,0,0,-6,9,1,0,0,1,15,175,89,1,,,,,,,,
,,,,,,,,,,,,,FF,,,,,,,,1.0498,,,,,,,,,,,,,,,,,,,,,,6103583967377f29277e44ba,61036f113dc361aa68b5ee86,2021-07-30_04h16.53.392,Simcolourproject_2stim_asymm_v5,2020.2.10,Win32,60,61025ae37ef11b136ea224fe,,,,,,,,,996,44,121,1,0,0,response1disk,,7,-5,11,1,0,0,rectangle,-5,11,1,0,0,-5,11,1,0,0,1,16,176,23,1,,,,,,,,
,,,,,,,,,,,,,FF,,,,,,,,0.7499,,,,,,,,,,,,,,,,,,,,,,6103583967377f29277e44ba,61036f113dc361aa68b5ee86,2021-07-30_04h16.53.392,Simcolourproject_2stim_asymm_v5,2020.2.10,Win32,60,61025ae37ef11b136ea224fe,,,,,,,,,1447,-100,-48,1,0,0,response5disk,,2,-6,2,1,0,0,rectangle,-6,2,1,0,0,-6,2,1,0,0,1,17,177,155,1,,,,,,,,
,,,,,,,,,,,,,FF,,,,,,,,0.8012,,,,,,,,,,,,,,,,,,,,,,6103583967377f29277e44ba,61036f113dc361aa68b5ee86,2021-07-30_04h16.53.392,Simcolourproject_2stim_asymm_v5,2020.2.10,Win32,60,61025ae37ef11b136ea224fe,,,,,,,,,4022,-69,62,1,0,0,response7disk,,1,12,-10,1,0,0,rectangle,12,-10,1,0,0,12,-10,1,0,0,1,18,178,37,1,,,,,,,,
,,,,,,,,,,,,,FF,,,,,,,,0.7702,,,,,,,,,,,,,,,,,,,,,,6103583967377f29277e44ba,61036f113dc361aa68b5ee86,2021-07-30_04h16.53.392,Simcolourproject_2stim_asymm_v5,2020.2.10,Win32,60,61025ae37ef11b136ea224fe,,,,,,,,,1545,76,50,1,0,0,response1disk,,6,-28,-9,1,0,0,rectangle,-28,-9,1,0,0,-28,-9,1,0,0,1,19,179,19,1,,,,,,,,
,,,,,,,,,,,,,FF,,,,,,,,0.7832,,,,,,,,,,,,,,,,,,,,,,6103583967377f29277e44ba,61036f113dc361aa68b5ee86,2021-07-30_04h16.53.392,Simcolourproject_2stim_asymm_v5,2020.2.10,Win32,60,61025ae37ef11b136ea224fe,,,,,,,,,563,45,95,1,0,0,response1disk,,7,16,5,1,0,0,rectangle,16,5,1,0,0,16,5,1,0,0,1,20,180,49,1,,,,,,,,
,,,,,,,,,,,,,FF,,,,,,,,0.6337,,,,,,,,,,,,,,,,,,,,,,6103583967377f29277e44ba,61036f113dc361aa68b5ee86,2021-07-30_04h16.53.392,Simcolourproject_2stim_asymm_v5,2020.2.10,Win32,60,61025ae37ef11b136ea224fe,,,,,,,,,1533,87,47,1,0,0,response1disk,,6,13,9,1,0,0,rectangle,13,9,1,0,0,13,9,1,0,0,1,21,181,11,1,,,,,,,,
,,,,,,,,,,,,,FF,,,,,,,,0.6674,,,,,,,,,,,,,,,,,,,,,,6103583967377f29277e44ba,61036f113dc361aa68b5ee86,2021-07-30_04h16.53.392,Simcolourproject_2stim_asymm_v5,2020.2.10,Win32,60,61025ae37ef11b136ea224fe,,,,,,,,,129,111,45,1,0,0,response1disk,,6,10,-7,1,0,0,rectangle,10,-7,1,0,0,10,-7,1,0,0,1,22,182,111,1,,,,,,,,
,,,,,,,,,,,,,FF,,,,,,,,1.2161,,,,,,,,,,,,,,,,,,,,,,6103583967377f29277e44ba,61036f113dc361aa68b5ee86,2021-07-30_04h16.53.392,Simcolourproject_2stim_asymm_v5,2020.2.10,Win32,60,61025ae37ef11b136ea224fe,,,,,,,,,1121,-66,-94,1,0,0,response5disk,,3,5,-16,1,0,0,rectangle,5,-16,1,0,0,5,-16,1,0,0,1,23,183,80,1,,,,,,,,
,,,,,,,,,,,,,FF,,,,,,,,0.7331,,,,,,,,,,,,,,,,,,,,,,6103583967377f29277e44ba,61036f113dc361aa68b5ee86,2021-07-30_04h16.53.392,Simcolourproject_2stim_asymm_v5,2020.2.10,Win32,60,61025ae37ef11b136ea224fe,,,,,,,,,1728,93,53,1,0,0,response1disk,,6,18,-5,1,0,0,rectangle,18,-5,1,0,0,18,-5,1,0,0,1,24,184,4,1,,,,,,,,
,,,,,,,,,,,,,FF,,,,,,,,0.8485,,,,,,,,,,,,,,,,,,,,,,6103583967377f29277e44ba,61036f113dc361aa68b5ee86,2021-07-30_04h16.53.392,Simcolourproject_2stim_asymm_v5,2020.2.10,Win32,60,61025ae37ef11b136ea224fe,,,,,,,,,3062,71,103,1,0,0,response1disk,,7,16,7,1,0,0,rectangle,16,7,1,0,0,16,7,1,0,0,1,25,185,132,1,,,,,,,,
,,,,,,,,,,,,,FF,,,,,,,,0.6159,,,,,,,,,,,,,,,,,,,,,,6103583967377f29277e44ba,61036f113dc361aa68b5ee86,2021-07-30_04h16.53.392,Simcolourproject_2stim_asymm_v5,2020.2.10,Win32,60,61025ae37ef11b136ea224fe,,,,,,,,,540,96,53,1,0,0,response1disk,,6,10,-3,1,0,0,rectangle,10,-3,1,0,0,10,-3,1,0,0,1,26,186,109,1,,,,,,,,
,,,,,,,,,,,,,FF,,,,,,,,0.5338,,,,,,,,,,,,,,,,,,,,,,6103583967377f29277e44ba,61036f113dc361aa68b5ee86,2021-07-30_04h16.53.392,Simcolourproject_2stim_asymm_v5,2020.2.10,Win32,60,61025ae37ef11b136ea224fe,,,,,,,,,4298,120,55,1,0,0,response1disk,,6,12,0,1,0,0,rectangle,12,0,1,0,0,12,0,1,0,0,1,27,187,113,1,,,,,,,,
,,,,,,,,,,,,,FF,,,,,,,,0.9659,,,,,,,,,,,,,,,,,,,,,,6103583967377f29277e44ba,61036f113dc361aa68b5ee86,2021-07-30_04h16.53.392,Simcolourproject_2stim_asymm_v5,2020.2.10,Win32,60,61025ae37ef11b136ea224fe,,,,,,,,,2470,75,41,1,0,0,response1disk,,6,19,8,1,0,0,rectangle,19,8,1,0,0,19,8,1,0,0,1,28,188,32,1,,,,,,,,
,,,,,,,,,,,,,FF,,,,,,,,0.7329,,,,,,,,,,,,,,,,,,,,,,6103583967377f29277e44ba,61036f113dc361aa68b5ee86,2021-07-30_04h16.53.392,Simcolourproject_2stim_asymm_v5,2020.2.10,Win32,60,61025ae37ef11b136ea224fe,,,,,,,,,3717,-54,-110,1,0,0,response5disk,,3,31,5,1,0,0,rectangle,31,5,1,0,0,31,5,1,0,0,1,29,189,122,1,,,,,,,,
,,,,,,,,,,,,,FF,,,,,,,,0.7992,,,,,,,,,,,,,,,,,,,,,,6103583967377f29277e44ba,61036f113dc361aa68b5ee86,2021-07-30_04h16.53.392,Simcolourproject_2stim_asymm_v5,2020.2.10,Win32,60,61025ae37ef11b136ea224fe,,,,,,,,,2504,57,102,1,0,0,response1disk,,7,16,-15,1,0,0,rectangle,16,-15,1,0,0,16,-15,1,0,0,1,30,190,41,1,,,,,,,,
,,,,,,,,,,,,,FF,,,,,,,,0.817,,,,,,,,,,,,,,,,,,,,,,6103583967377f29277e44ba,61036f113dc361aa68b5ee86,2021-07-30_04h16.53.392,Simcolourproject_2stim_asymm_v5,2020.2.10,Win32,60,61025ae37ef11b136ea224fe,,,,,,,,,3634,48,92,1,0,0,response1disk,,7,18,-8,1,0,0,rectangle,18,-8,1,0,0,18,-8,1,0,0,1,31,191,63,1,,,,,,,,
,,,,,,,,,,,,,FF,,,,,,,,0.7506,,,,,,,,,,,,,,,,,,,,,,6103583967377f29277e44ba,61036f113dc361aa68b5ee86,2021-07-30_04h16.53.392,Simcolourproject_2stim_asymm_v5,2020.2.10,Win32,60,61025ae37ef11b136ea224fe,,,,,,,,,3079,53,97,1,0,0,response1disk,,7,13,1,1,0,0,rectangle,13,1,1,0,0,13,1,1,0,0,1,32,192,91,1,,,,,,,,
,,,,,,,,,,,,,FF,,,,,,,,0.8668,,,,,,,,,,,,,,,,,,,,,,6103583967377f29277e44ba,61036f113dc361aa68b5ee86,2021-07-30_04h16.53.392,Simcolourproject_2stim_asymm_v5,2020.2.10,Win32,60,61025ae37ef11b136ea224fe,,,,,,,,,112,50,96,1,0,0,response1disk,,7,8,-14,1,0,0,rectangle,8,-14,1,0,0,8,-14,1,0,0,1,33,193,131,1,,,,,,,,
,,,,,,,,,,,,,FF,,,,,,,,1.2319,,,,,,,,,,,,,,,,,,,,,,6103583967377f29277e44ba,61036f113dc361aa68b5ee86,2021-07-30_04h16.53.392,Simcolourproject_2stim_asymm_v5,2020.2.10,Win32,60,61025ae37ef11b136ea224fe,,,,,,,,,2008,88,49,1,0,0,response1disk,,6,23,8,1,0,0,rectangle,23,8,1,0,0,23,8,1,0,0,1,34,194,66,1,,,,,,,,
,,,,,,,,,,,,,FF,,,,,,,,2.0015,,,,,,,,,,,,,,,,,,,,,,6103583967377f29277e44ba,61036f113dc361aa68b5ee86,2021-07-30_04h16.53.392,Simcolourproject_2stim_asymm_v5,2020.2.10,Win32,60,61025ae37ef11b136ea224fe,,,,,,,,,2267,43,82,1,0,0,response1disk,,7,14,-18,1,0,0,rectangle,14,-18,1,0,0,14,-18,1,0,0,1,35,195,118,1,,,,,,,,
,,,,,,,,,,,,,FF,,,,,,,,0.9496,,,,,,,,,,,,,,,,,,,,,,6103583967377f29277e44ba,61036f113dc361aa68b5ee86,2021-07-30_04h16.53.392,Simcolourproject_2stim_asymm_v5,2020.2.10,Win32,60,61025ae37ef11b136ea224fe,,,,,,,,,1365,47,-49,1,0,0,response3disk,,4,8,-8,1,0,0,rectangle,8,-8,1,0,0,8,-8,1,0,0,1,36,196,12,1,,,,,,,,
,,,,,,,,,,,,,FF,,,,,,,,0.6663,,,,,,,,,,,,,,,,,,,,,,6103583967377f29277e44ba,61036f113dc361aa68b5ee86,2021-07-30_04h16.53.392,Simcolourproject_2stim_asymm_v5,2020.2.10,Win32,60,61025ae37ef11b136ea224fe,,,,,,,,,1209,84,-53,1,0,0,response3disk,,5,-6,-4,1,0,0,rectangle,-6,-4,1,0,0,-6,-4,1,0,0,1,37,197,75,1,,,,,,,,
,,,,,,,,,,,,,FF,,,,,,,,0.9497,,,,,,,,,,,,,,,,,,,,,,6103583967377f29277e44ba,61036f113dc361aa68b5ee86,2021-07-30_04h16.53.392,Simcolourproject_2stim_asymm_v5,2020.2.10,Win32,60,61025ae37ef11b136ea224fe,,,,,,,,,456,-87,-57,1,0,0,response5disk,,2,5,15,1,0,0,rectangle,5,15,1,0,0,5,15,1,0,0,1,38,198,124,1,,,,,,,,
,,,,,,,,,,,,,FF,,,,,,,,0.8342,,,,,,,,,,,,,,,,,,,,,,6103583967377f29277e44ba,61036f113dc361aa68b5ee86,2021-07-30_04h16.53.392,Simcolourproject_2stim_asymm_v5,2020.2.10,Win32,60,61025ae37ef11b136ea224fe,,,,,,,,,1107,46,74,1,0,0,response1disk,,7,12,-5,1,0,0,rectangle,12,-5,1,0,0,12,-5,1,0,0,1,39,199,88,1,,,,,,,,
,,,,,,,,,,,,,FF,,,,,,,,0.6325,,,,,,,,,,,,,,,,,,,,,,6103583967377f29277e44ba,61036f113dc361aa68b5ee86,2021-07-30_04h16.53.392,Simcolourproject_2stim_asymm_v5,2020.2.10,Win32,60,61025ae37ef11b136ea224fe,,,,,,,,,3656,81,31,1,0,0,response1disk,,6,-17,-12,1,0,0,rectangle,-17,-12,1,0,0,-17,-12,1,0,0,1,40,200,130,1,,,,,,,,
,,,,,,,,,,,,,FF,,,,,,,,0.8337,,,,,,,,,,,,,,,,,,,,,,6103583967377f29277e44ba,61036f113dc361aa68b5ee86,2021-07-30_04h16.53.392,Simcolourproject_2stim_asymm_v5,2020.2.10,Win32,60,61025ae37ef11b136ea224fe,,,,,,,,,3452,99,-50,1,0,0,response3disk,,5,6,11,1,0,0,rectangle,6,11,1,0,0,6,11,1,0,0,1,41,201,142,1,,,,,,,,
,,,,,,,,,,,,,FF,,,,,,,,0.6989,,,,,,,,,,,,,,,,,,,,,,6103583967377f29277e44ba,61036f113dc361aa68b5ee86,2021-07-30_04h16.53.392,Simcolourproject_2stim_asymm_v5,2020.2.10,Win32,60,61025ae37ef11b136ea224fe,,,,,,,,,2694,82,49,1,0,0,response1disk,,6,-12,-16,1,0,0,rectangle,-12,-16,1,0,0,-12,-16,1,0,0,1,42,202,114,1,,,,,,,,
,,,,,,,,,,,,,FF,,,,,,,,0.7334,,,,,,,,,,,,,,,,,,,,,,6103583967377f29277e44ba,61036f113dc361aa68b5ee86,2021-07-30_04h16.53.392,Simcolourproject_2stim_asymm_v5,2020.2.10,Win32,60,61025ae37ef11b136ea224fe,,,,,,,,,496,41,84,1,0,0,response1disk,,7,12,0,1,0,0,rectangle,12,0,1,0,0,12,0,1,0,0,1,43,203,137,1,,,,,,,,
,,,,,,,,,,,,,FF,,,,,,,,0.5998,,,,,,,,,,,,,,,,,,,,,,6103583967377f29277e44ba,61036f113dc361aa68b5ee86,2021-07-30_04h16.53.392,Simcolourproject_2stim_asymm_v5,2020.2.10,Win32,60,61025ae37ef11b136ea224fe,,,,,,,,,2390,70,53,1,0,0,response1disk,,6,-4,6,1,0,0,rectangle,-4,6,1,0,0,-4,6,1,0,0,1,44,204,117,1,,,,,,,,
,,,,,,,,,,,,,FF,,,,,,,,0.5496,,,,,,,,,,,,,,,,,,,,,,6103583967377f29277e44ba,61036f113dc361aa68b5ee86,2021-07-30_04h16.53.392,Simcolourproject_2stim_asymm_v5,2020.2.10,Win32,60,61025ae37ef11b136ea224fe,,,,,,,,,1120,49,95,1,0,0,response1disk,,7,23,3,1,0,0,rectangle,23,3,1,0,0,23,3,1,0,0,1,45,205,74,1,,,,,,,,
,,,,,,,,,,,,,FF,,,,,,,,0.4999,,,,,,,,,,,,,,,,,,,,,,6103583967377f29277e44ba,61036f113dc361aa68b5ee86,2021-07-30_04h16.53.392,Simcolourproject_2stim_asymm_v5,2020.2.10,Win32,60,61025ae37ef11b136ea224fe,,,,,,,,,675,74,31,1,0,0,response1disk,,6,-8,-8,1,0,0,rectangle,-8,-8,1,0,0,-8,-8,1,0,0,1,46,206,110,1,,,,,,,,
,,,,,,,,,,,,,FF,,,,,,,,0.6491,,,,,,,,,,,,,,,,,,,,,,6103583967377f29277e44ba,61036f113dc361aa68b5ee86,2021-07-30_04h16.53.392,Simcolourproject_2stim_asymm_v5,2020.2.10,Win32,60,61025ae37ef11b136ea224fe,,,,,,,,,140,65,109,1,0,0,response1disk,,7,26,10,1,0,0,rectangle,26,10,1,0,0,26,10,1,0,0,1,47,207,140,1,,,,,,,,
,,,,,,,,,,,,,FF,,,,,,,,0.899,,,,,,,,,,,,,,,,,,,,,,6103583967377f29277e44ba,61036f113dc361aa68b5ee86,2021-07-30_04h16.53.392,Simcolourproject_2stim_asymm_v5,2020.2.10,Win32,60,61025ae37ef11b136ea224fe,,,,,,,,,3126,63,90,1,0,0,response1disk,,7,14,-4,1,0,0,rectangle,14,-4,1,0,0,14,-4,1,0,0,1,48,208,29,1,,,,,,,,
,,,,,,,,,,,,,FF,,,,,,,,0.7485,,,,,,,,,,,,,,,,,,,,,,6103583967377f29277e44ba,61036f113dc361aa68b5ee86,2021-07-30_04h16.53.392,Simcolourproject_2stim_asymm_v5,2020.2.10,Win32,60,61025ae37ef11b136ea224fe,,,,,,,,,3516,-86,-49,1,0,0,response5disk,,2,-11,-7,1,0,0,rectangle,47,-109,1,0,0,-9,0,1,0,0,1,49,209,68,1,,response3disk_3,TRUE,4,4,"[170,107,170,20,269,248,3,134,153,6,280,94,75,210,259,172,156,101,90,286]",1.0847,rectangle
,,,,,,,,,,,,,FF,,,,,,,,0.5336,,,,,,,,,,,,,,,,,,,,,,6103583967377f29277e44ba,61036f113dc361aa68b5ee86,2021-07-30_04h16.53.392,Simcolourproject_2stim_asymm_v5,2020.2.10,Win32,60,61025ae37ef11b136ea224fe,,,,,,,,,3277,48,85,1,0,0,response1disk,,7,16,10,1,0,0,rectangle,16,10,1,0,0,16,10,1,0,0,1,50,210,47,1,,,,,,,,
,,,,,,,,,,,,,FF,,,,,,,,0.5831,,,,,,,,,,,,,,,,,,,,,,6103583967377f29277e44ba,61036f113dc361aa68b5ee86,2021-07-30_04h16.53.392,Simcolourproject_2stim_asymm_v5,2020.2.10,Win32,60,61025ae37ef11b136ea224fe,,,,,,,,,2337,98,35,1,0,0,response1disk,,6,1,-13,1,0,0,rectangle,1,-13,1,0,0,1,-13,1,0,0,1,51,211,136,1,,,,,,,,
,,,,,,,,,,,,,FF,,,,,,,,0.965,,,,,,,,,,,,,,,,,,,,,,6103583967377f29277e44ba,61036f113dc361aa68b5ee86,2021-07-30_04h16.53.392,Simcolourproject_2stim_asymm_v5,2020.2.10,Win32,60,61025ae37ef11b136ea224fe,,,,,,,,,2603,-102,-59,1,0,0,response5disk,,2,-16,-1,1,0,0,rectangle,-16,-1,1,0,0,-16,-1,1,0,0,1,52,212,76,1,,,,,,,,
,,,,,,,,,,,,,FF,,,,,,,,0.8505,,,,,,,,,,,,,,,,,,,,,,6103583967377f29277e44ba,61036f113dc361aa68b5ee86,2021-07-30_04h16.53.392,Simcolourproject_2stim_asymm_v5,2020.2.10,Win32,60,61025ae37ef11b136ea224fe,,,,,,,,,1079,69,103,1,0,0,response1disk,,7,24,19,1,0,0,rectangle,24,19,1,0,0,24,19,1,0,0,1,53,213,21,1,,,,,,,,
,,,,,,,,,,,,,FF,,,,,,,,0.9167,,,,,,,,,,,,,,,,,,,,,,6103583967377f29277e44ba,61036f113dc361aa68b5ee86,2021-07-30_04h16.53.392,Simcolourproject_2stim_asymm_v5,2020.2.10,Win32,60,61025ae37ef11b136ea224fe,,,,,,,,,3593,-66,-125,1,0,0,response5disk,,3,4,1,1,0,0,rectangle,4,1,1,0,0,4,1,1,0,0,1,54,214,53,1,,,,,,,,
,,,,,,,,,,,,,FF,,,,,,,,0.8416,,,,,,,,,,,,,,,,,,,,,,6103583967377f29277e44ba,61036f113dc361aa68b5ee86,2021-07-30_04h16.53.392,Simcolourproject_2stim_asymm_v5,2020.2.10,Win32,60,61025ae37ef11b136ea224fe,,,,,,,,,2897,35,-103,1,0,0,response3disk,,4,13,-16,1,0,0,rectangle,13,-16,1,0,0,13,-16,1,0,0,1,55,215,104,1,,,,,,,,
,,,,,,,,,,,,,FF,,,,,,,,0.9,,,,,,,,,,,,,,,,,,,,,,6103583967377f29277e44ba,61036f113dc361aa68b5ee86,2021-07-30_04h16.53.392,Simcolourproject_2stim_asymm_v5,2020.2.10,Win32,60,61025ae37ef11b136ea224fe,,,,,,,,,494,55,95,1,0,0,response1disk,,7,10,-4,1,0,0,rectangle,10,-4,1,0,0,10,-4,1,0,0,1,56,216,40,1,,,,,,,,
,,,,,,,,,,,,,FF,,,,,,,,1.2331,,,,,,,,,,,,,,,,,,,,,,6103583967377f29277e44ba,61036f113dc361aa68b5ee86,2021-07-30_04h16.53.392,Simcolourproject_2stim_asymm_v5,2020.2.10,Win32,60,61025ae37ef11b136ea224fe,,,,,,,,,3592,-106,-33,1,0,0,response5disk,,2,-16,5,1,0,0,rectangle,-16,5,1,0,0,-16,5,1,0,0,1,57,217,153,1,,,,,,,,
,,,,,,,,,,,,,FF,,,,,,,,1.334,,,,,,,,,,,,,,,,,,,,,,6103583967377f29277e44ba,61036f113dc361aa68b5ee86,2021-07-30_04h16.53.392,Simcolourproject_2stim_asymm_v5,2020.2.10,Win32,60,61025ae37ef11b136ea224fe,,,,,,,,,2622,95,-59,1,0,0,response3disk,,5,10,-14,1,0,0,rectangle,10,-14,1,0,0,10,-14,1,0,0,1,58,218,95,1,,,,,,,,
,,,,,,,,,,,,,FF,,,,,,,,0.9004,,,,,,,,,,,,,,,,,,,,,,6103583967377f29277e44ba,61036f113dc361aa68b5ee86,2021-07-30_04h16.53.392,Simcolourproject_2stim_asymm_v5,2020.2.10,Win32,60,61025ae37ef11b136ea224fe,,,,,,,,,2188,91,-53,1,0,0,response3disk,,5,-6,0,1,0,0,rectangle,-6,0,1,0,0,-6,0,1,0,0,1,59,219,86,1,,,,,,,,
,,,,,,,,,,,,,FF,,,,,,,,1.0322,,,,,,,,,,,,,,,,,,,,,,6103583967377f29277e44ba,61036f113dc361aa68b5ee86,2021-07-30_04h16.53.392,Simcolourproject_2stim_asymm_v5,2020.2.10,Win32,60,61025ae37ef11b136ea224fe,,,,,,,,,4127,-64,-125,1,0,0,response5disk,,3,11,3,1,0,0,rectangle,11,3,1,0,0,11,3,1,0,0,1,60,220,141,1,,,,,,,,
,,,,,,,,,,,,,FF,,,,,,,,1.0432,,,,,,,,,,,,,,,,,,,,,,6103583967377f29277e44ba,61036f113dc361aa68b5ee86,2021-07-30_04h16.53.392,Simcolourproject_2stim_asymm_v5,2020.2.10,Win32,60,61025ae37ef11b136ea224fe,,,,,,,,,1036,-64,-106,1,0,0,response5disk,,3,10,-2,1,0,0,rectangle,10,-2,1,0,0,10,-2,1,0,0,1,61,221,8,1,,,,,,,,
,,,,,,,,,,,,,FF,,,,,,,,3.0835,,,,,,,,,,,,,,,,,,,,,,6103583967377f29277e44ba,61036f113dc361aa68b5ee86,2021-07-30_04h16.53.392,Simcolourproject_2stim_asymm_v5,2020.2.10,Win32,60,61025ae37ef11b136ea224fe,,,,,,,,,2626,80,111,1,0,0,response1disk,,7,6,13,1,0,0,rectangle,6,13,1,0,0,6,13,1,0,0,1,62,222,17,1,,,,,,,,
,,,,,,,,,,,,,FF,,,,,,,,0.8499,,,,,,,,,,,,,,,,,,,,,,6103583967377f29277e44ba,61036f113dc361aa68b5ee86,2021-07-30_04h16.53.392,Simcolourproject_2stim_asymm_v5,2020.2.10,Win32,60,61025ae37ef11b136ea224fe,,,,,,,,,1317,73,-61,1,0,0,response3disk,,5,15,-7,1,0,0,rectangle,15,-7,1,0,0,15,-7,1,0,0,1,63,223,96,1,,,,,,,,
,,,,,,,,,,,,,FF,,,,,,,,1.1344,,,,,,,,,,,,,,,,,,,,,,6103583967377f29277e44ba,61036f113dc361aa68b5ee86,2021-07-30_04h16.53.392,Simcolourproject_2stim_asymm_v5,2020.2.10,Win32,60,61025ae37ef11b136ea224fe,,,,,,,,,1819,-26,-110,1,0,0,response5disk,,3,4,-1,1,0,0,rectangle,4,-1,1,0,0,4,-1,1,0,0,1,64,224,9,1,,,,,,,,
,,,,,,,,,,,,,FF,,,,,,,,0.8848,,,,,,,,,,,,,,,,,,,,,,6103583967377f29277e44ba,61036f113dc361aa68b5ee86,2021-07-30_04h16.53.392,Simcolourproject_2stim_asymm_v5,2020.2.10,Win32,60,61025ae37ef11b136ea224fe,,,,,,,,,4158,80,36,1,0,0,response1disk,,6,34,-7,1,0,0,rectangle,34,-7,1,0,0,34,-7,1,0,0,1,65,225,69,1,,,,,,,,
,,,,,,,,,,,,,FF,,,,,,,,0.6327,,,,,,,,,,,,,,,,,,,,,,6103583967377f29277e44ba,61036f113dc361aa68b5ee86,2021-07-30_04h16.53.392,Simcolourproject_2stim_asymm_v5,2020.2.10,Win32,60,61025ae37ef11b136ea224fe,,,,,,,,,1644,65,45,1,0,0,response1disk,,6,18,17,1,0,0,rectangle,18,17,1,0,0,18,17,1,0,0,1,66,226,116,1,,,,,,,,
,,,,,,,,,,,,,FF,,,,,,,,0.666,,,,,,,,,,,,,,,,,,,,,,6103583967377f29277e44ba,61036f113dc361aa68b5ee86,2021-07-30_04h16.53.392,Simcolourproject_2stim_asymm_v5,2020.2.10,Win32,60,61025ae37ef11b136ea224fe,,,,,,,,,3360,80,52,1,0,0,response1disk,,6,4,-2,1,0,0,rectangle,4,-2,1,0,0,4,-2,1,0,0,1,67,227,24,1,,,,,,,,
,,,,,,,,,,,,,FF,,,,,,,,0.799,,,,,,,,,,,,,,,,,,,,,,6103583967377f29277e44ba,61036f113dc361aa68b5ee86,2021-07-30_04h16.53.392,Simcolourproject_2stim_asymm_v5,2020.2.10,Win32,60,61025ae37ef11b136ea224fe,,,,,,,,,1538,101,-40,1,0,0,response3disk,,5,-18,2,1,0,0,rectangle,-18,2,1,0,0,-18,2,1,0,0,1,68,228,126,1,,,,,,,,
,,,,,,,,,,,,,FF,,,,,,,,1.1837,,,,,,,,,,,,,,,,,,,,,,6103583967377f29277e44ba,61036f113dc361aa68b5ee86,2021-07-30_04h16.53.392,Simcolourproject_2stim_asymm_v5,2020.2.10,Win32,60,61025ae37ef11b136ea224fe,,,,,,,,,2763,99,37,1,0,0,response1disk,,6,-8,-7,1,0,0,rectangle,-8,-7,1,0,0,-8,-7,1,0,0,1,69,229,112,1,,,,,,,,
,,,,,,,,,,,,,FF,,,,,,,,1.0878,,,,,,,,,,,,,,,,,,,,,,6103583967377f29277e44ba,61036f113dc361aa68b5ee86,2021-07-30_04h16.53.392,Simcolourproject_2stim_asymm_v5,2020.2.10,Win32,60,61025ae37ef11b136ea224fe,,,,,,,,,3924,66,-117,1,0,0,response3disk,,4,27,-20,1,0,0,rectangle,27,-20,1,0,0,27,-20,1,0,0,1,70,230,154,1,,,,,,,,
,,,,,,,,,,,,,FF,,,,,,,,0.8835,,,,,,,,,,,,,,,,,,,,,,6103583967377f29277e44ba,61036f113dc361aa68b5ee86,2021-07-30_04h16.53.392,Simcolourproject_2stim_asymm_v5,2020.2.10,Win32,60,61025ae37ef11b136ea224fe,,,,,,,,,3508,94,47,1,0,0,response1disk,,6,-13,8,1,0,0,rectangle,-13,8,1,0,0,-13,8,1,0,0,1,71,231,150,1,,,,,,,,
,,,,,,,,,,,,,FF,,,,,,,,0.8509,,,,,,,,,,,,,,,,,,,,,,6103583967377f29277e44ba,61036f113dc361aa68b5ee86,2021-07-30_04h16.53.392,Simcolourproject_2stim_asymm_v5,2020.2.10,Win32,60,61025ae37ef11b136ea224fe,,,,,,,,,2846,103,-50,1,0,0,response3disk,,5,15,-6,1,0,0,rectangle,15,-6,1,0,0,15,-6,1,0,0,1,72,232,127,1,,,,,,,,
,,,,,,,,,,,,,FF,,,,,,,,1.4153,,,,,,,,,,,,,,,,,,,,,,6103583967377f29277e44ba,61036f113dc361aa68b5ee86,2021-07-30_04h16.53.392,Simcolourproject_2stim_asymm_v5,2020.2.10,Win32,60,61025ae37ef11b136ea224fe,,,,,,,,,3880,48,95,1,0,0,response1disk,,7,31,12,1,0,0,rectangle,31,12,1,0,0,31,12,1,0,0,1,73,233,145,1,,,,,,,,
,,,,,,,,,,,,,FF,,,,,,,,1.3158,,,,,,,,,,,,,,,,,,,,,,6103583967377f29277e44ba,61036f113dc361aa68b5ee86,2021-07-30_04h16.53.392,Simcolourproject_2stim_asymm_v5,2020.2.10,Win32,60,61025ae37ef11b136ea224fe,,,,,,,,,3051,-58,-132,1,0,0,response5disk,,3,21,3,1,0,0,rectangle,21,3,1,0,0,21,3,1,0,0,1,74,234,158,1,,,,,,,,
,,,,,,,,,,,,,FF,,,,,,,,0.7822,,,,,,,,,,,,,,,,,,,,,,6103583967377f29277e44ba,61036f113dc361aa68b5ee86,2021-07-30_04h16.53.392,Simcolourproject_2stim_asymm_v5,2020.2.10,Win32,60,61025ae37ef11b136ea224fe,,,,,,,,,3982,37,-116,1,0,0,response3disk,,4,4,3,1,0,0,rectangle,4,3,1,0,0,4,3,1,0,0,1,75,235,148,1,,,,,,,,
,,,,,,,,,,,,,FF,,,,,,,,0.8659,,,,,,,,,,,,,,,,,,,,,,6103583967377f29277e44ba,61036f113dc361aa68b5ee86,2021-07-30_04h16.53.392,Simcolourproject_2stim_asymm_v5,2020.2.10,Win32,60,61025ae37ef11b136ea224fe,,,,,,,,,1243,44,92,1,0,0,response1disk,,7,33,17,1,0,0,rectangle,33,17,1,0,0,33,17,1,0,0,1,76,236,50,1,,,,,,,,
,,,,,,,,,,,,,FF,,,,,,,,1.1845,,,,,,,,,,,,,,,,,,,,,,6103583967377f29277e44ba,61036f113dc361aa68b5ee86,2021-07-30_04h16.53.392,Simcolourproject_2stim_asymm_v5,2020.2.10,Win32,60,61025ae37ef11b136ea224fe,,,,,,,,,349,-94,-40,1,0,0,response5disk,,2,-22,-1,1,0,0,rectangle,-22,-1,1,0,0,-22,-1,1,0,0,1,77,237,2,1,,,,,,,,
,,,,,,,,,,,,,FF,,,,,,,,0.7837,,,,,,,,,,,,,,,,,,,,,,6103583967377f29277e44ba,61036f113dc361aa68b5ee86,2021-07-30_04h16.53.392,Simcolourproject_2stim_asymm_v5,2020.2.10,Win32,60,61025ae37ef11b136ea224fe,,,,,,,,,3973,-107,-64,1,0,0,response5disk,,2,-22,-5,1,0,0,rectangle,-22,-5,1,0,0,-22,-5,1,0,0,1,78,238,129,1,,,,,,,,
,,,,,,,,,,,,,FF,,,,,,,,0.8177,,,,,,,,,,,,,,,,,,,,,,6103583967377f29277e44ba,61036f113dc361aa68b5ee86,2021-07-30_04h16.53.392,Simcolourproject_2stim_asymm_v5,2020.2.10,Win32,60,61025ae37ef11b136ea224fe,,,,,,,,,1495,57,34,1,0,0,response1disk,,6,-10,-2,1,0,0,rectangle,-10,-2,1,0,0,-10,-2,1,0,0,1,79,239,0,1,,,,,,,,
,,,,,,,,,,,,,FF,,,,,,,,0.8656,,,,,,,,,,,,,,,,,,,,,,6103583967377f29277e44ba,61036f113dc361aa68b5ee86,2021-07-30_04h16.53.392,Simcolourproject_2stim_asymm_v5,2020.2.10,Win32,60,61025ae37ef11b136ea224fe,,,,,,,,,1405,56,91,1,0,0,response1disk,,7,22,6,1,0,0,rectangle,22,6,1,0,0,22,6,1,0,0,1,80,240,73,1,,,,,,,,
,,,,,,,,,,,,,FF,,,,,,,,0.8663,,,,,,,,,,,,,,,,,,,,,,6103583967377f29277e44ba,61036f113dc361aa68b5ee86,2021-07-30_04h16.53.392,Simcolourproject_2stim_asymm_v5,2020.2.10,Win32,60,61025ae37ef11b136ea224fe,,,,,,,,,2167,-92,70,1,0,0,response7disk,,1,3,8,1,0,0,rectangle,3,8,1,0,0,3,8,1,0,0,1,81,241,57,1,,,,,,,,
,,,,,,,,,,,,,FF,,,,,,,,0.566,,,,,,,,,,,,,,,,,,,,,,6103583967377f29277e44ba,61036f113dc361aa68b5ee86,2021-07-30_04h16.53.392,Simcolourproject_2stim_asymm_v5,2020.2.10,Win32,60,61025ae37ef11b136ea224fe,,,,,,,,,4350,-37,98,1,0,0,response7disk,,0,-4,1,1,0,0,rectangle,-4,1,1,0,0,-4,1,1,0,0,1,82,242,106,1,,,,,,,,
,,,,,,,,,,,,,FF,,,,,,,,0.5994,,,,,,,,,,,,,,,,,,,,,,6103583967377f29277e44ba,61036f113dc361aa68b5ee86,2021-07-30_04h16.53.392,Simcolourproject_2stim_asymm_v5,2020.2.10,Win32,60,61025ae37ef11b136ea224fe,,,,,,,,,1912,75,53,1,0,0,response1disk,,6,-17,-7,1,0,0,rectangle,-17,-7,1,0,0,-17,-7,1,0,0,1,83,243,65,1,,,,,,,,
,,,,,,,,,,,,,FF,,,,,,,,1.2327,,,,,,,,,,,,,,,,,,,,,,6103583967377f29277e44ba,61036f113dc361aa68b5ee86,2021-07-30_04h16.53.392,Simcolourproject_2stim_asymm_v5,2020.2.10,Win32,60,61025ae37ef11b136ea224fe,,,,,,,,,3149,-97,-55,1,0,0,response5disk,,2,-15,-1,1,0,0,rectangle,-15,-1,1,0,0,-15,-1,1,0,0,1,84,244,94,1,,,,,,,,
,,,,,,,,,,,,,FF,,,,,,,,0.6664,,,,,,,,,,,,,,,,,,,,,,6103583967377f29277e44ba,61036f113dc361aa68b5ee86,2021-07-30_04h16.53.392,Simcolourproject_2stim_asymm_v5,2020.2.10,Win32,60,61025ae37ef11b136ea224fe,,,,,,,,,1422,44,89,1,0,0,response1disk,,7,2,-3,1,0,0,rectangle,2,-3,1,0,0,2,-3,1,0,0,1,85,245,81,1,,,,,,,,
,,,,,,,,,,,,,FF,,,,,,,,0.7822,,,,,,,,,,,,,,,,,,,,,,6103583967377f29277e44ba,61036f113dc361aa68b5ee86,2021-07-30_04h16.53.392,Simcolourproject_2stim_asymm_v5,2020.2.10,Win32,60,61025ae37ef11b136ea224fe,,,,,,,,,361,40,88,1,0,0,response1disk,,7,9,12,1,0,0,rectangle,9,12,1,0,0,9,12,1,0,0,1,86,246,85,1,,,,,,,,
,,,,,,,,,,,,,FF,,,,,,,,1.2171,,,,,,,,,,,,,,,,,,,,,,6103583967377f29277e44ba,61036f113dc361aa68b5ee86,2021-07-30_04h16.53.392,Simcolourproject_2stim_asymm_v5,2020.2.10,Win32,60,61025ae37ef11b136ea224fe,,,,,,,,,1486,34,101,1,0,0,response1disk,,7,4,19,1,0,0,rectangle,45,109,1,0,0,10,16,1,0,0,1,87,247,119,1,,response1disk_3,TRUE,7,7,"[170,107,170,20,269,248,3,134,153,6,280,94,75,210,259,172,156,101,90,286]",0.9842,rectangle
,,,,,,,,,,,,,FF,,,,,,,,0.7515,,,,,,,,,,,,,,,,,,,,,,6103583967377f29277e44ba,61036f113dc361aa68b5ee86,2021-07-30_04h16.53.392,Simcolourproject_2stim_asymm_v5,2020.2.10,Win32,60,61025ae37ef11b136ea224fe,,,,,,,,,1129,72,54,1,0,0,response1disk,,6,19,20,1,0,0,rectangle,19,20,1,0,0,19,20,1,0,0,1,88,248,72,1,,,,,,,,
,,,,,,,,,,,,,FF,,,,,,,,0.4847,,,,,,,,,,,,,,,,,,,,,,6103583967377f29277e44ba,61036f113dc361aa68b5ee86,2021-07-30_04h16.53.392,Simcolourproject_2stim_asymm_v5,2020.2.10,Win32,60,61025ae37ef11b136ea224fe,,,,,,,,,2138,91,57,1,0,0,response1disk,,6,21,21,1,0,0,rectangle,21,21,1,0,0,21,21,1,0,0,1,89,249,62,1,,,,,,,,
,,,,,,,,,,,,,FF,,,,,,,,1.4993,,,,,,,,,,,,,,,,,,,,,,6103583967377f29277e44ba,61036f113dc361aa68b5ee86,2021-07-30_04h16.53.392,Simcolourproject_2stim_asymm_v5,2020.2.10,Win32,60,61025ae37ef11b136ea224fe,,,,,,,,,824,73,-111,1,0,0,response3disk,,4,18,-6,1,0,0,rectangle,18,-6,1,0,0,18,-6,1,0,0,1,90,250,97,1,,,,,,,,
,,,,,,,,,,,,,FF,,,,,,,,0.8665,,,,,,,,,,,,,,,,,,,,,,6103583967377f29277e44ba,61036f113dc361aa68b5ee86,2021-07-30_04h16.53.392,Simcolourproject_2stim_asymm_v5,2020.2.10,Win32,60,61025ae37ef11b136ea224fe,,,,,,,,,3894,106,31,1,0,0,response1disk,,6,18,-13,1,0,0,rectangle,18,-13,1,0,0,18,-13,1,0,0,1,91,251,146,1,,,,,,,,
,,,,,,,,,,,,,FF,,,,,,,,0.6164,,,,,,,,,,,,,,,,,,,,,,6103583967377f29277e44ba,61036f113dc361aa68b5ee86,2021-07-30_04h16.53.392,Simcolourproject_2stim_asymm_v5,2020.2.10,Win32,60,61025ae37ef11b136ea224fe,,,,,,,,,2908,53,75,1,0,0,response1disk,,7,20,8,1,0,0,rectangle,20,8,1,0,0,20,8,1,0,0,1,92,252,20,1,,,,,,,,
,,,,,,,,,,,,,FF,,,,,,,,0.5654,,,,,,,,,,,,,,,,,,,,,,6103583967377f29277e44ba,61036f113dc361aa68b5ee86,2021-07-30_04h16.53.392,Simcolourproject_2stim_asymm_v5,2020.2.10,Win32,60,61025ae37ef11b136ea224fe,,,,,,,,,2958,53,90,1,0,0,response1disk,,7,14,1,1,0,0,rectangle,14,1,1,0,0,14,1,1,0,0,1,93,253,123,1,,,,,,,,
,,,,,,,,,,,,,FF,,,,,,,,0.5158,,,,,,,,,,,,,,,,,,,,,,6103583967377f29277e44ba,61036f113dc361aa68b5ee86,2021-07-30_04h16.53.392,Simcolourproject_2stim_asymm_v5,2020.2.10,Win32,60,61025ae37ef11b136ea224fe,,,,,,,,,3035,46,95,1,0,0,response1disk,,7,28,21,1,0,0,rectangle,28,21,1,0,0,28,21,1,0,0,1,94,254,78,1,,,,,,,,
,,,,,,,,,,,,,FF,,,,,,,,2.3995,,,,,,,,,,,,,,,,,,,,,,6103583967377f29277e44ba,61036f113dc361aa68b5ee86,2021-07-30_04h16.53.392,Simcolourproject_2stim_asymm_v5,2020.2.10,Win32,60,61025ae37ef11b136ea224fe,,,,,,,,,711,108,61,1,0,0,response1disk,,6,11,-15,1,0,0,rectangle,11,-15,1,0,0,11,-15,1,0,0,1,95,255,36,1,,,,,,,,
,,,,,,,,,,,,,FF,,,,,,,,1.1498,,,,,,,,,,,,,,,,,,,,,,6103583967377f29277e44ba,61036f113dc361aa68b5ee86,2021-07-30_04h16.53.392,Simcolourproject_2stim_asymm_v5,2020.2.10,Win32,60,61025ae37ef11b136ea224fe,,,,,,,,,2034,-116,-45,1,0,0,response5disk,,2,-20,-19,1,0,0,rectangle,-20,-19,1,0,0,-20,-19,1,0,0,1,96,256,125,1,,,,,,,,
,,,,,,,,,,,,,FF,,,,,,,,0.8164,,,,,,,,,,,,,,,,,,,,,,6103583967377f29277e44ba,61036f113dc361aa68b5ee86,2021-07-30_04h16.53.392,Simcolourproject_2stim_asymm_v5,2020.2.10,Win32,60,61025ae37ef11b136ea224fe,,,,,,,,,3495,72,26,1,0,0,response1disk,,6,2,-10,1,0,0,rectangle,2,-10,1,0,0,2,-10,1,0,0,1,97,257,156,1,,,,,,,,
,,,,,,,,,,,,,FF,,,,,,,,0.7319,,,,,,,,,,,,,,,,,,,,,,6103583967377f29277e44ba,61036f113dc361aa68b5ee86,2021-07-30_04h16.53.392,Simcolourproject_2stim_asymm_v5,2020.2.10,Win32,60,61025ae37ef11b136ea224fe,,,,,,,,,1786,47,89,1,0,0,response1disk,,7,14,0,1,0,0,rectangle,101,58,1,0,0,-2,6,1,0,0,1,98,258,93,1,,response1disk_3,TRUE,6,6,"[170,107,170,20,269,248,3,134,153,6,280,94,75,210,259,172,156,101,90,286]",1.1828,rectangle
,,,,,,,,,,,,,FF,,,,,,,,0.9828,,,,,,,,,,,,,,,,,,,,,,6103583967377f29277e44ba,61036f113dc361aa68b5ee86,2021-07-30_04h16.53.392,Simcolourproject_2stim_asymm_v5,2020.2.10,Win32,60,61025ae37ef11b136ea224fe,,,,,,,,,3808,80,25,1,0,0,response1disk,,6,-10,-9,1,0,0,rectangle,-10,-9,1,0,0,-10,-9,1,0,0,1,99,259,105,1,,,,,,,,
,,,,,,,,,,,,,FF,,,,,,,,0.8489,,,,,,,,,,,,,,,,,,,,,,6103583967377f29277e44ba,61036f113dc361aa68b5ee86,2021-07-30_04h16.53.392,Simcolourproject_2stim_asymm_v5,2020.2.10,Win32,60,61025ae37ef11b136ea224fe,,,,,,,,,3123,46,96,1,0,0,response1disk,,7,8,6,1,0,0,rectangle,8,6,1,0,0,8,6,1,0,0,1,100,260,67,1,,,,,,,,
,,,,,,,,,,,,,FF,,,,,,,,0.9177,,,,,,,,,,,,,,,,,,,,,,6103583967377f29277e44ba,61036f113dc361aa68b5ee86,2021-07-30_04h16.53.392,Simcolourproject_2stim_asymm_v5,2020.2.10,Win32,60,61025ae37ef11b136ea224fe,,,,,,,,,2687,41,97,1,0,0,response1disk,,7,34,1,1,0,0,rectangle,34,1,1,0,0,34,1,1,0,0,1,101,261,45,1,,,,,,,,
,,,,,,,,,,,,,FF,,,,,,,,0.6831,,,,,,,,,,,,,,,,,,,,,,6103583967377f29277e44ba,61036f113dc361aa68b5ee86,2021-07-30_04h16.53.392,Simcolourproject_2stim_asymm_v5,2020.2.10,Win32,60,61025ae37ef11b136ea224fe,,,,,,,,,2289,84,53,1,0,0,response1disk,,6,-41,-16,1,0,0,rectangle,-41,-16,1,0,0,-41,-16,1,0,0,1,102,262,61,1,,,,,,,,
,,,,,,,,,,,,,FF,,,,,,,,0.7331,,,,,,,,,,,,,,,,,,,,,,6103583967377f29277e44ba,61036f113dc361aa68b5ee86,2021-07-30_04h16.53.392,Simcolourproject_2stim_asymm_v5,2020.2.10,Win32,60,61025ae37ef11b136ea224fe,,,,,,,,,1352,54,102,1,0,0,response1disk,,7,7,1,1,0,0,rectangle,7,1,1,0,0,7,1,1,0,0,1,103,263,107,1,,,,,,,,
,,,,,,,,,,,,,FF,,,,,,,,0.7822,,,,,,,,,,,,,,,,,,,,,,6103583967377f29277e44ba,61036f113dc361aa68b5ee86,2021-07-30_04h16.53.392,Simcolourproject_2stim_asymm_v5,2020.2.10,Win32,60,61025ae37ef11b136ea224fe,,,,,,,,,2029,-51,-102,1,0,0,response5disk,,3,21,17,1,0,0,rectangle,21,17,1,0,0,21,17,1,0,0,1,104,264,13,1,,,,,,,,
,,,,,,,,,,,,,FF,,,,,,,,0.8488,,,,,,,,,,,,,,,,,,,,,,6103583967377f29277e44ba,61036f113dc361aa68b5ee86,2021-07-30_04h16.53.392,Simcolourproject_2stim_asymm_v5,2020.2.10,Win32,60,61025ae37ef11b136ea224fe,,,,,,,,,851,75,37,1,0,0,response1disk,,6,-23,-15,1,0,0,rectangle,-23,-15,1,0,0,-23,-15,1,0,0,1,105,265,70,1,,,,,,,,
,,,,,,,,,,,,,FF,,,,,,,,0.9164,,,,,,,,,,,,,,,,,,,,,,6103583967377f29277e44ba,61036f113dc361aa68b5ee86,2021-07-30_04h16.53.392,Simcolourproject_2stim_asymm_v5,2020.2.10,Win32,60,61025ae37ef11b136ea224fe,,,,,,,,,3681,94,-41,1,0,0,response3disk,,5,5,-5,1,0,0,rectangle,5,-5,1,0,0,5,-5,1,0,0,1,106,266,7,1,,,,,,,,
,,,,,,,,,,,,,FF,,,,,,,,0.75,,,,,,,,,,,,,,,,,,,,,,6103583967377f29277e44ba,61036f113dc361aa68b5ee86,2021-07-30_04h16.53.392,Simcolourproject_2stim_asymm_v5,2020.2.10,Win32,60,61025ae37ef11b136ea224fe,,,,,,,,,1206,51,86,1,0,0,response1disk,,7,13,10,1,0,0,rectangle,13,10,1,0,0,13,10,1,0,0,1,107,267,46,1,,,,,,,,
,,,,,,,,,,,,,FF,,,,,,,,0.7162,,,,,,,,,,,,,,,,,,,,,,6103583967377f29277e44ba,61036f113dc361aa68b5ee86,2021-07-30_04h16.53.392,Simcolourproject_2stim_asymm_v5,2020.2.10,Win32,60,61025ae37ef11b136ea224fe,,,,,,,,,2209,47,70,1,0,0,response1disk,,7,14,-14,1,0,0,rectangle,-52,-111,1,0,0,-6,-15,1,0,0,1,108,268,38,1,,response5disk_3,TRUE,3,3,"[170,107,170,20,269,248,3,134,153,6,280,94,75,210,259,172,156,101,90,286]",1.4157,rectangle
,,,,,,,,,,,,,FF,,,,,,,,0.5174,,,,,,,,,,,,,,,,,,,,,,6103583967377f29277e44ba,61036f113dc361aa68b5ee86,2021-07-30_04h16.53.392,Simcolourproject_2stim_asymm_v5,2020.2.10,Win32,60,61025ae37ef11b136ea224fe,,,,,,,,,771,27,48,1,0,0,response1disk,,7,12,6,1,0,0,rectangle,12,6,1,0,0,12,6,1,0,0,1,109,269,52,1,,,,,,,,
,,,,,,,,,,,,,FF,,,,,,,,0.784,,,,,,,,,,,,,,,,,,,,,,6103583967377f29277e44ba,61036f113dc361aa68b5ee86,2021-07-30_04h16.53.392,Simcolourproject_2stim_asymm_v5,2020.2.10,Win32,60,61025ae37ef11b136ea224fe,,,,,,,,,1257,89,43,1,0,0,response1disk,,6,8,-16,1,0,0,rectangle,8,-16,1,0,0,8,-16,1,0,0,1,110,270,54,1,,,,,,,,
,,,,,,,,,,,,,FF,,,,,,,,0.5832,,,,,,,,,,,,,,,,,,,,,,6103583967377f29277e44ba,61036f113dc361aa68b5ee86,2021-07-30_04h16.53.392,Simcolourproject_2stim_asymm_v5,2020.2.10,Win32,60,61025ae37ef11b136ea224fe,,,,,,,,,2703,54,85,1,0,0,response1disk,,7,7,-3,1,0,0,rectangle,7,-3,1,0,0,7,-3,1,0,0,1,111,271,101,1,,,,,,,,
,,,,,,,,,,,,,FF,,,,,,,,0.6327,,,,,,,,,,,,,,,,,,,,,,6103583967377f29277e44ba,61036f113dc361aa68b5ee86,2021-07-30_04h16.53.392,Simcolourproject_2stim_asymm_v5,2020.2.10,Win32,60,61025ae37ef11b136ea224fe,,,,,,,,,2649,38,71,1,0,0,response1disk,,7,7,0,1,0,0,rectangle,7,0,1,0,0,7,0,1,0,0,1,112,272,60,1,,,,,,,,
,,,,,,,,,,,,,FF,,,,,,,,0.9992,,,,,,,,,,,,,,,,,,,,,,6103583967377f29277e44ba,61036f113dc361aa68b5ee86,2021-07-30_04h16.53.392,Simcolourproject_2stim_asymm_v5,2020.2.10,Win32,60,61025ae37ef11b136ea224fe,,,,,,,,,172,-102,-51,1,0,0,response5disk,,2,-5,8,1,0,0,rectangle,-5,8,1,0,0,-5,8,1,0,0,1,113,273,64,1,,,,,,,,
,,,,,,,,,,,,,FF,,,,,,,,0.8342,,,,,,,,,,,,,,,,,,,,,,6103583967377f29277e44ba,61036f113dc361aa68b5ee86,2021-07-30_04h16.53.392,Simcolourproject_2stim_asymm_v5,2020.2.10,Win32,60,61025ae37ef11b136ea224fe,,,,,,,,,3097,-97,43,1,0,0,response7disk,,1,26,0,1,0,0,rectangle,26,0,1,0,0,26,0,1,0,0,1,114,274,71,1,,,,,,,,
,,,,,,,,,,,,,FF,,,,,,,,0.6491,,,,,,,,,,,,,,,,,,,,,,6103583967377f29277e44ba,61036f113dc361aa68b5ee86,2021-07-30_04h16.53.392,Simcolourproject_2stim_asymm_v5,2020.2.10,Win32,60,61025ae37ef11b136ea224fe,,,,,,,,,1565,30,90,1,0,0,response1disk,,7,-16,-18,1,0,0,rectangle,-16,-18,1,0,0,-16,-18,1,0,0,1,115,275,58,1,,,,,,,,
,,,,,,,,,,,,,FF,,,,,,,,0.782,,,,,,,,,,,,,,,,,,,,,,6103583967377f29277e44ba,61036f113dc361aa68b5ee86,2021-07-30_04h16.53.392,Simcolourproject_2stim_asymm_v5,2020.2.10,Win32,60,61025ae37ef11b136ea224fe,,,,,,,,,4020,-37,87,1,0,0,response7disk,,0,-5,-5,1,0,0,rectangle,-5,-5,1,0,0,-5,-5,1,0,0,1,116,276,147,1,,,,,,,,
,,,,,,,,,,,,,FF,,,,,,,,0.6997,,,,,,,,,,,,,,,,,,,,,,6103583967377f29277e44ba,61036f113dc361aa68b5ee86,2021-07-30_04h16.53.392,Simcolourproject_2stim_asymm_v5,2020.2.10,Win32,60,61025ae37ef11b136ea224fe,,,,,,,,,508,105,56,1,0,0,response1disk,,6,31,2,1,0,0,rectangle,31,2,1,0,0,31,2,1,0,0,1,117,277,48,1,,,,,,,,
,,,,,,,,,,,,,FF,,,,,,,,1.7491,,,,,,,,,,,,,,,,,,,,,,6103583967377f29277e44ba,61036f113dc361aa68b5ee86,2021-07-30_04h16.53.392,Simcolourproject_2stim_asymm_v5,2020.2.10,Win32,60,61025ae37ef11b136ea224fe,,,,,,,,,4025,71,-138,1,0,0,response3disk,,4,13,-18,1,0,0,rectangle,13,-18,1,0,0,13,-18,1,0,0,1,118,278,98,1,,,,,,,,
,,,,,,,,,,,,,FF,,,,,,,,0.784,,,,,,,,,,,,,,,,,,,,,,6103583967377f29277e44ba,61036f113dc361aa68b5ee86,2021-07-30_04h16.53.392,Simcolourproject_2stim_asymm_v5,2020.2.10,Win32,60,61025ae37ef11b136ea224fe,,,,,,,,,2928,41,85,1,0,0,response1disk,,7,8,-21,1,0,0,rectangle,-119,66,1,0,0,16,3,1,0,0,1,119,279,51,1,,response7disk_3,TRUE,1,1,"[170,107,170,20,269,248,3,134,153,6,280,94,75,210,259,172,156,101,90,286]",1.2323,rectangle
,,,,,,,,,,,,,FF,,,,,,,,0.5994,,,,,,,,,,,,,,,,,,,,,,6103583967377f29277e44ba,61036f113dc361aa68b5ee86,2021-07-30_04h16.53.392,Simcolourproject_2stim_asymm_v5,2020.2.10,Win32,60,61025ae37ef11b136ea224fe,,,,,,,,,2395,31,66,1,0,0,response1disk,,7,7,5,1,0,0,rectangle,7,5,1,0,0,7,5,1,0,0,1,120,280,77,1,,,,,,,,
,,,,,,,,,,,,,FF,,,,,,,,0.7664,,,,,,,,,,,,,,,,,,,,,,6103583967377f29277e44ba,61036f113dc361aa68b5ee86,2021-07-30_04h16.53.392,Simcolourproject_2stim_asymm_v5,2020.2.10,Win32,60,61025ae37ef11b136ea224fe,,,,,,,,,2404,98,26,1,0,0,response1disk,,6,21,-11,1,0,0,rectangle,21,-11,1,0,0,21,-11,1,0,0,1,121,281,22,1,,,,,,,,
,,,,,,,,,,,,,FF,,,,,,,,0.7172,,,,,,,,,,,,,,,,,,,,,,6103583967377f29277e44ba,61036f113dc361aa68b5ee86,2021-07-30_04h16.53.392,Simcolourproject_2stim_asymm_v5,2020.2.10,Win32,60,61025ae37ef11b136ea224fe,,,,,,,,,212,65,98,1,0,0,response1disk,,7,22,6,1,0,0,rectangle,22,6,1,0,0,22,6,1,0,0,1,122,282,83,1,,,,,,,,
,,,,,,,,,,,,,FF,,,,,,,,0.8495,,,,,,,,,,,,,,,,,,,,,,6103583967377f29277e44ba,61036f113dc361aa68b5ee86,2021-07-30_04h16.53.392,Simcolourproject_2stim_asymm_v5,2020.2.10,Win32,60,61025ae37ef11b136ea224fe,,,,,,,,,2005,42,87,1,0,0,response1disk,,7,22,1,1,0,0,rectangle,22,1,1,0,0,22,1,1,0,0,1,123,283,87,1,,,,,,,,
,,,,,,,,,,,,,FF,,,,,,,,1.0164,,,,,,,,,,,,,,,,,,,,,,6103583967377f29277e44ba,61036f113dc361aa68b5ee86,2021-07-30_04h16.53.392,Simcolourproject_2stim_asymm_v5,2020.2.10,Win32,60,61025ae37ef11b136ea224fe,,,,,,,,,2948,-93,39,1,0,0,response7disk,,1,10,-16,1,0,0,rectangle,10,-16,1,0,0,10,-16,1,0,0,1,124,284,56,1,,,,,,,,
,,,,,,,,,,,,,FF,,,,,,,,0.7333,,,,,,,,,,,,,,,,,,,,,,6103583967377f29277e44ba,61036f113dc361aa68b5ee86,2021-07-30_04h16.53.392,Simcolourproject_2stim_asymm_v5,2020.2.10,Win32,60,61025ae37ef11b136ea224fe,,,,,,,,,2193,75,28,1,0,0,response1disk,,6,-4,0,1,0,0,rectangle,-47,154,1,0,0,7,7,1,0,0,1,125,285,92,1,,response7disk_3,TRUE,0,0,"[170,107,170,20,269,248,3,134,153,6,280,94,75,210,259,172,156,101,90,286]",1.9,rectangle
,,,,,,,,,,,,,FF,,,,,,,,0.4996,,,,,,,,,,,,,,,,,,,,,,6103583967377f29277e44ba,61036f113dc361aa68b5ee86,2021-07-30_04h16.53.392,Simcolourproject_2stim_asymm_v5,2020.2.10,Win32,60,61025ae37ef11b136ea224fe,,,,,,,,,754,68,51,1,0,0,response1disk,,6,-4,-7,1,0,0,rectangle,-4,-7,1,0,0,-4,-7,1,0,0,1,126,286,151,1,,,,,,,,
,,,,,,,,,,,,,FF,,,,,,,,0.6828,,,,,,,,,,,,,,,,,,,,,,6103583967377f29277e44ba,61036f113dc361aa68b5ee86,2021-07-30_04h16.53.392,Simcolourproject_2stim_asymm_v5,2020.2.10,Win32,60,61025ae37ef11b136ea224fe,,,,,,,,,2274,42,112,1,0,0,response1disk,,7,5,18,1,0,0,rectangle,5,18,1,0,0,5,18,1,0,0,1,127,287,138,1,,,,,,,,
,,,,,,,,,,,,,FF,,,,,,,,0.7995,,,,,,,,,,,,,,,,,,,,,,6103583967377f29277e44ba,61036f113dc361aa68b5ee86,2021-07-30_04h16.53.392,Simcolourproject_2stim_asymm_v5,2020.2.10,Win32,60,61025ae37ef11b136ea224fe,,,,,,,,,125,35,90,1,0,0,response1disk,,7,0,3,1,0,0,rectangle,0,3,1,0,0,0,3,1,0,0,1,128,288,139,1,,,,,,,,
,,,,,,,,,,,,,FF,,,,,,,,0.7503,,,,,,,,,,,,,,,,,,,,,,6103583967377f29277e44ba,61036f113dc361aa68b5ee86,2021-07-30_04h16.53.392,Simcolourproject_2stim_asymm_v5,2020.2.10,Win32,60,61025ae37ef11b136ea224fe,,,,,,,,,2277,53,78,1,0,0,response1disk,,7,14,6,1,0,0,rectangle,14,6,1,0,0,14,6,1,0,0,1,129,289,79,1,,,,,,,,
,,,,,,,,,,,,,FF,,,,,,,,0.8334,,,,,,,,,,,,,,,,,,,,,,6103583967377f29277e44ba,61036f113dc361aa68b5ee86,2021-07-30_04h16.53.392,Simcolourproject_2stim_asymm_v5,2020.2.10,Win32,60,61025ae37ef11b136ea224fe,,,,,,,,,1782,52,63,1,0,0,response1disk,,7,17,-10,1,0,0,rectangle,17,-10,1,0,0,17,-10,1,0,0,1,130,290,33,1,,,,,,,,
,,,,,,,,,,,,,FF,,,,,,,,1.2331,,,,,,,,,,,,,,,,,,,,,,6103583967377f29277e44ba,61036f113dc361aa68b5ee86,2021-07-30_04h16.53.392,Simcolourproject_2stim_asymm_v5,2020.2.10,Win32,60,61025ae37ef11b136ea224fe,,,,,,,,,247,-47,-112,1,0,0,response5disk,,3,22,-2,1,0,0,rectangle,22,-2,1,0,0,22,-2,1,0,0,1,131,291,120,1,,,,,,,,
,,,,,,,,,,,,,FF,,,,,,,,0.9154,,,,,,,,,,,,,,,,,,,,,,6103583967377f29277e44ba,61036f113dc361aa68b5ee86,2021-07-30_04h16.53.392,Simcolourproject_2stim_asymm_v5,2020.2.10,Win32,60,61025ae37ef11b136ea224fe,,,,,,,,,3093,-96,-29,1,0,0,response5disk,,2,-37,-15,1,0,0,rectangle,-37,-15,1,0,0,-37,-15,1,0,0,1,132,292,144,1,,,,,,,,
,,,,,,,,,,,,,FF,,,,,,,,1.2156,,,,,,,,,,,,,,,,,,,,,,6103583967377f29277e44ba,61036f113dc361aa68b5ee86,2021-07-30_04h16.53.392,Simcolourproject_2stim_asymm_v5,2020.2.10,Win32,60,61025ae37ef11b136ea224fe,,,,,,,,,1527,-54,-99,1,0,0,response5disk,,3,-9,-14,1,0,0,rectangle,-9,-14,1,0,0,-9,-14,1,0,0,1,133,293,84,1,,,,,,,,
,,,,,,,,,,,,,FF,,,,,,,,0.8657,,,,,,,,,,,,,,,,,,,,,,6103583967377f29277e44ba,61036f113dc361aa68b5ee86,2021-07-30_04h16.53.392,Simcolourproject_2stim_asymm_v5,2020.2.10,Win32,60,61025ae37ef11b136ea224fe,,,,,,,,,3122,24,51,1,0,0,response1disk,,7,-15,-10,1,0,0,rectangle,-15,-10,1,0,0,-15,-10,1,0,0,1,134,294,3,1,,,,,,,,
,,,,,,,,,,,,,FF,,,,,,,,0.7503,,,,,,,,,,,,,,,,,,,,,,6103583967377f29277e44ba,61036f113dc361aa68b5ee86,2021-07-30_04h16.53.392,Simcolourproject_2stim_asymm_v5,2020.2.10,Win32,60,61025ae37ef11b136ea224fe,,,,,,,,,543,-48,75,1,0,0,response7disk,,0,-18,12,1,0,0,rectangle,-18,12,1,0,0,-18,12,1,0,0,1,135,295,103,1,,,,,,,,
,,,,,,,,,,,,,FF,,,,,,,,0.6342,,,,,,,,,,,,,,,,,,,,,,6103583967377f29277e44ba,61036f113dc361aa68b5ee86,2021-07-30_04h16.53.392,Simcolourproject_2stim_asymm_v5,2020.2.10,Win32,60,61025ae37ef11b136ea224fe,,,,,,,,,623,40,72,1,0,0,response1disk,,7,-12,-9,1,0,0,rectangle,-12,-9,1,0,0,-12,-9,1,0,0,1,136,296,90,1,,,,,,,,
,,,,,,,,,,,,,FF,,,,,,,,0.5355,,,,,,,,,,,,,,,,,,,,,,6103583967377f29277e44ba,61036f113dc361aa68b5ee86,2021-07-30_04h16.53.392,Simcolourproject_2stim_asymm_v5,2020.2.10,Win32,60,61025ae37ef11b136ea224fe,,,,,,,,,966,33,97,1,0,0,response1disk,,7,-7,8,1,0,0,rectangle,-7,8,1,0,0,-7,8,1,0,0,1,137,297,134,1,,,,,,,,
,,,,,,,,,,,,,FF,,,,,,,,0.5332,,,,,,,,,,,,,,,,,,,,,,6103583967377f29277e44ba,61036f113dc361aa68b5ee86,2021-07-30_04h16.53.392,Simcolourproject_2stim_asymm_v5,2020.2.10,Win32,60,61025ae37ef11b136ea224fe,,,,,,,,,507,36,80,1,0,0,response1disk,,7,-14,-6,1,0,0,rectangle,-14,-6,1,0,0,-14,-6,1,0,0,1,138,298,135,1,,,,,,,,
,,,,,,,,,,,,,FF,,,,,,,,0.5002,,,,,,,,,,,,,,,,,,,,,,6103583967377f29277e44ba,61036f113dc361aa68b5ee86,2021-07-30_04h16.53.392,Simcolourproject_2stim_asymm_v5,2020.2.10,Win32,60,61025ae37ef11b136ea224fe,,,,,,,,,2976,50,89,1,0,0,response1disk,,7,3,9,1,0,0,rectangle,3,9,1,0,0,3,9,1,0,0,1,139,299,149,1,,,,,,,,
,,,,,,,,,,,,,FF,,,,,,,,0.4822,,,,,,,,,,,,,,,,,,,,,,6103583967377f29277e44ba,61036f113dc361aa68b5ee86,2021-07-30_04h16.53.392,Simcolourproject_2stim_asymm_v5,2020.2.10,Win32,60,61025ae37ef11b136ea224fe,,,,,,,,,3228,56,90,1,0,0,response1disk,,7,6,2,1,0,0,rectangle,6,2,1,0,0,6,2,1,0,0,1,140,300,26,1,,,,,,,,
