key_resp.keys,key_resp.rt,key_resp_14.keys,key_resp_14.rt,key_resp_15.keys,key_resp_15.rt,key_resp_17.keys,key_resp_17.rt,key_resp_9.keys,key_resp_9.rt,key_resp_10.keys,key_resp_10.rt,practice_comparison,Ecc,mouse_5.x,mouse_5.y,mouse_5.leftButton,mouse_5.midButton,mouse_5.rightButton,mouse_5.clicked_name,pracsimilarity,response_time,mouse_10.x,mouse_10.y,mouse_10.leftButton,mouse_10.midButton,mouse_10.rightButton,mouse_10.clicked_name,mouse_7.x,mouse_7.y,mouse_7.leftButton,mouse_7.midButton,mouse_7.rightButton,mouse_6.x,mouse_6.y,mouse_6.leftButton,mouse_6.midButton,mouse_6.rightButton,duringprac.thisRepN,duringprac.thisTrialN,duringprac.thisN,duringprac.thisIndex,duringprac.ran,participant,session,date,expName,psychopyVersion,OS,frameRate,study_id,mouse_7.clicked_name,catchpracsimilarity,catch_response_time,catchnumberprac,catchtrialorderprac,mouse_6.clicked_name,key_resp_22.keys,key_resp_22.rt,realcomparison,mouse.x,mouse.y,mouse.leftButton,mouse.midButton,mouse.rightButton,mouse.clicked_name,Colour2,similarity,mouse_2.x,mouse_2.y,mouse_2.leftButton,mouse_2.midButton,mouse_2.rightButton,mouse_2.clicked_name,mouse_3.x,mouse_3.y,mouse_3.leftButton,mouse_3.midButton,mouse_3.rightButton,mouse_11.x,mouse_11.y,mouse_11.leftButton,mouse_11.midButton,mouse_11.rightButton,trials_2.thisRepN,trials_2.thisTrialN,trials_2.thisN,trials_2.thisIndex,trials_2.ran,Colour1,mouse_3.clicked_name,catchornah,catchsimilarity,catchnumber,catchtrialorder,catchRT,mouse_11.clicked_name
space,0.899,space,4.721,space,16.952,space,8.051,space,1.387,space,3.514,37,FF,-47,-84,1,0,0,response5disk_5,3,15.033,2,-1,1,0,0,rectangle_8,2,-1,1,0,0,2,-1,1,0,0,0,0,0,3,1,61031efd1da4a14d8e9a86af,61036de4dee18f65f98ca7d7,2021-07-29_23h12.32.896,Simcolourproject_2stim_asymm_v5,2020.2.10,MacIntel,60,61025ae37ef11b136ea224fe,,,,,,,,,,,,,,,,,,,,,,,,,,,,,,,,,,,,,,,,,,,,,,
,,,,,,,,,,,,54,PF,32,67,1,0,0,response1disk_5,7,4.465,2,2,1,0,0,rectangle_8,-98,-36,1,0,0,0,-2,1,0,0,0,1,1,6,1,61031efd1da4a14d8e9a86af,61036de4dee18f65f98ca7d7,2021-07-29_23h12.32.896,Simcolourproject_2stim_asymm_v5,2020.2.10,MacIntel,60,61025ae37ef11b136ea224fe,response5disk_7,2,2.716,2,"[2,5]",rectangle_4,,,,,,,,,,,,,,,,,,,,,,,,,,,,,,,,,,,,,,,,
,,,,,,,,,,,,127,FF,40,-65,1,0,0,response3disk_5,4,2.333,12,-2,1,0,0,rectangle_8,12,-2,1,0,0,12,-2,1,0,0,0,2,2,0,1,61031efd1da4a14d8e9a86af,61036de4dee18f65f98ca7d7,2021-07-29_23h12.32.896,Simcolourproject_2stim_asymm_v5,2020.2.10,MacIntel,60,61025ae37ef11b136ea224fe,,,,,,,,,,,,,,,,,,,,,,,,,,,,,,,,,,,,,,,,,,,,,,
,,,,,,,,,,,,16,PF,20,61,1,0,0,response1disk_5,7,3.384,10,-3,1,0,0,rectangle_8,10,-3,1,0,0,10,-3,1,0,0,0,3,3,1,1,61031efd1da4a14d8e9a86af,61036de4dee18f65f98ca7d7,2021-07-29_23h12.32.896,Simcolourproject_2stim_asymm_v5,2020.2.10,MacIntel,60,61025ae37ef11b136ea224fe,,,,,,,,,,,,,,,,,,,,,,,,,,,,,,,,,,,,,,,,,,,,,,
,,,,,,,,,,,,119,PF,41,-81,1,0,0,response3disk_5,4,2.683,-3,-3,1,0,0,rectangle_8,-85,-42,1,0,0,3,2,1,0,0,0,4,4,2,1,61031efd1da4a14d8e9a86af,61036de4dee18f65f98ca7d7,2021-07-29_23h12.32.896,Simcolourproject_2stim_asymm_v5,2020.2.10,MacIntel,60,61025ae37ef11b136ea224fe,response5disk_7,2,1.516,2,"[2,5]",rectangle_4,,,,,,,,,,,,,,,,,,,,,,,,,,,,,,,,,,,,,,,,
,,,,,,,,,,,,3,FF,79,-52,1,0,0,response3disk_5,5,4.6,13,-1,1,0,0,rectangle_8,13,-1,1,0,0,13,-1,1,0,0,0,5,5,5,1,61031efd1da4a14d8e9a86af,61036de4dee18f65f98ca7d7,2021-07-29_23h12.32.896,Simcolourproject_2stim_asymm_v5,2020.2.10,MacIntel,60,61025ae37ef11b136ea224fe,,,,,,,,,,,,,,,,,,,,,,,,,,,,,,,,,,,,,,,,,,,,,,
,,,,,,,,,,,,129,PF,63,-41,1,0,0,response3disk_5,5,1.717,0,-7,1,0,0,rectangle_8,0,-7,1,0,0,0,-7,1,0,0,0,6,6,4,1,61031efd1da4a14d8e9a86af,61036de4dee18f65f98ca7d7,2021-07-29_23h12.32.896,Simcolourproject_2stim_asymm_v5,2020.2.10,MacIntel,60,61025ae37ef11b136ea224fe,,,,,,,,,,,,,,,,,,,,,,,,,,,,,,,,,,,,,,,,,,,,,,
,,,,,,,,,,,,,FF,,,,,,,,1.966,,,,,,,,,,,,,,,,,,,,,,61031efd1da4a14d8e9a86af,61036de4dee18f65f98ca7d7,2021-07-29_23h12.32.896,Simcolourproject_2stim_asymm_v5,2020.2.10,MacIntel,60,61025ae37ef11b136ea224fe,,,,,,,space,1.674,3300,68,-41,1,0,0,response3disk,,5,-8,0,1,0,0,rectangle,-8,0,1,0,0,-8,0,1,0,0,0,0,0,71,1,,,,,,,,
,,,,,,,,,,,,,FF,,,,,,,,7.884,,,,,,,,,,,,,,,,,,,,,,61031efd1da4a14d8e9a86af,61036de4dee18f65f98ca7d7,2021-07-29_23h12.32.896,Simcolourproject_2stim_asymm_v5,2020.2.10,MacIntel,60,61025ae37ef11b136ea224fe,,,,,,,,,2128,38,-51,1,0,0,response3disk,,4,8,-13,1,0,0,rectangle,8,-13,1,0,0,8,-13,1,0,0,0,1,1,3,1,,,,,,,,
,,,,,,,,,,,,,FF,,,,,,,,1.25,,,,,,,,,,,,,,,,,,,,,,61031efd1da4a14d8e9a86af,61036de4dee18f65f98ca7d7,2021-07-29_23h12.32.896,Simcolourproject_2stim_asymm_v5,2020.2.10,MacIntel,60,61025ae37ef11b136ea224fe,,,,,,,,,2631,40,-63,1,0,0,response3disk,,4,2,-4,1,0,0,rectangle,2,-4,1,0,0,2,-4,1,0,0,0,2,2,138,1,,,,,,,,
,,,,,,,,,,,,,FF,,,,,,,,1.433,,,,,,,,,,,,,,,,,,,,,,61031efd1da4a14d8e9a86af,61036de4dee18f65f98ca7d7,2021-07-29_23h12.32.896,Simcolourproject_2stim_asymm_v5,2020.2.10,MacIntel,60,61025ae37ef11b136ea224fe,,,,,,,,,1401,-27,-67,1,0,0,response5disk,,3,4,2,1,0,0,rectangle,76,41,1,0,0,-4,-12,1,0,0,0,3,3,141,1,,response1disk_3,TRUE,6,5,"[88,82,122,264,162,103,169,204,132,314,197,154,287,0,4,74,44,136,159,168]",1.667,rectangle
,,,,,,,,,,,,,FF,,,,,,,,4.817,,,,,,,,,,,,,,,,,,,,,,61031efd1da4a14d8e9a86af,61036de4dee18f65f98ca7d7,2021-07-29_23h12.32.896,Simcolourproject_2stim_asymm_v5,2020.2.10,MacIntel,60,61025ae37ef11b136ea224fe,,,,,,,,,530,-87,-33,1,0,0,response5disk,,2,7,-5,1,0,0,rectangle,7,-5,1,0,0,7,-5,1,0,0,0,4,4,151,1,,,,,,,,
,,,,,,,,,,,,,FF,,,,,,,,2.617,,,,,,,,,,,,,,,,,,,,,,61031efd1da4a14d8e9a86af,61036de4dee18f65f98ca7d7,2021-07-29_23h12.32.896,Simcolourproject_2stim_asymm_v5,2020.2.10,MacIntel,60,61025ae37ef11b136ea224fe,,,,,,,,,1646,67,27,1,0,0,response1disk,,6,0,2,1,0,0,rectangle,0,2,1,0,0,0,2,1,0,0,0,5,5,54,1,,,,,,,,
,,,,,,,,,,,,,FF,,,,,,,,1.634,,,,,,,,,,,,,,,,,,,,,,61031efd1da4a14d8e9a86af,61036de4dee18f65f98ca7d7,2021-07-29_23h12.32.896,Simcolourproject_2stim_asymm_v5,2020.2.10,MacIntel,60,61025ae37ef11b136ea224fe,,,,,,,,,1234,-64,25,1,0,0,response7disk,,1,14,-4,1,0,0,rectangle,14,-4,1,0,0,14,-4,1,0,0,0,6,6,109,1,,,,,,,,
,,,,,,,,,,,,,FF,,,,,,,,1.034,,,,,,,,,,,,,,,,,,,,,,61031efd1da4a14d8e9a86af,61036de4dee18f65f98ca7d7,2021-07-29_23h12.32.896,Simcolourproject_2stim_asymm_v5,2020.2.10,MacIntel,60,61025ae37ef11b136ea224fe,,,,,,,,,2480,-29,64,1,0,0,response7disk,,0,11,1,1,0,0,rectangle,11,1,1,0,0,11,1,1,0,0,0,7,7,60,1,,,,,,,,
,,,,,,,,,,,,,FF,,,,,,,,1.201,,,,,,,,,,,,,,,,,,,,,,61031efd1da4a14d8e9a86af,61036de4dee18f65f98ca7d7,2021-07-29_23h12.32.896,Simcolourproject_2stim_asymm_v5,2020.2.10,MacIntel,60,61025ae37ef11b136ea224fe,,,,,,,,,1543,25,-84,1,0,0,response3disk,,4,-8,-2,1,0,0,rectangle,-8,-2,1,0,0,-8,-2,1,0,0,0,8,8,131,1,,,,,,,,
,,,,,,,,,,,,,FF,,,,,,,,1.165,,,,,,,,,,,,,,,,,,,,,,61031efd1da4a14d8e9a86af,61036de4dee18f65f98ca7d7,2021-07-29_23h12.32.896,Simcolourproject_2stim_asymm_v5,2020.2.10,MacIntel,60,61025ae37ef11b136ea224fe,,,,,,,,,2044,-82,-44,1,0,0,response5disk,,2,-13,-16,1,0,0,rectangle,-13,-16,1,0,0,-13,-16,1,0,0,0,9,9,27,1,,,,,,,,
,,,,,,,,,,,,,FF,,,,,,,,1.6,,,,,,,,,,,,,,,,,,,,,,61031efd1da4a14d8e9a86af,61036de4dee18f65f98ca7d7,2021-07-29_23h12.32.896,Simcolourproject_2stim_asymm_v5,2020.2.10,MacIntel,60,61025ae37ef11b136ea224fe,,,,,,,,,619,-88,-28,1,0,0,response5disk,,2,-16,0,1,0,0,rectangle,-16,0,1,0,0,-16,0,1,0,0,0,10,10,11,1,,,,,,,,
,,,,,,,,,,,,,FF,,,,,,,,2.216,,,,,,,,,,,,,,,,,,,,,,61031efd1da4a14d8e9a86af,61036de4dee18f65f98ca7d7,2021-07-29_23h12.32.896,Simcolourproject_2stim_asymm_v5,2020.2.10,MacIntel,60,61025ae37ef11b136ea224fe,,,,,,,,,1678,30,-80,1,0,0,response3disk,,4,10,-11,1,0,0,rectangle,10,-11,1,0,0,10,-11,1,0,0,0,11,11,59,1,,,,,,,,
,,,,,,,,,,,,,FF,,,,,,,,1.933,,,,,,,,,,,,,,,,,,,,,,61031efd1da4a14d8e9a86af,61036de4dee18f65f98ca7d7,2021-07-29_23h12.32.896,Simcolourproject_2stim_asymm_v5,2020.2.10,MacIntel,60,61025ae37ef11b136ea224fe,,,,,,,,,3458,67,35,1,0,0,response1disk,,6,16,-5,1,0,0,rectangle,16,-5,1,0,0,16,-5,1,0,0,0,12,12,0,1,,,,,,,,
,,,,,,,,,,,,,FF,,,,,,,,1.7,,,,,,,,,,,,,,,,,,,,,,61031efd1da4a14d8e9a86af,61036de4dee18f65f98ca7d7,2021-07-29_23h12.32.896,Simcolourproject_2stim_asymm_v5,2020.2.10,MacIntel,60,61025ae37ef11b136ea224fe,,,,,,,,,1301,-42,-84,1,0,0,response5disk,,3,4,1,1,0,0,rectangle,4,1,1,0,0,4,1,1,0,0,0,13,13,30,1,,,,,,,,
,,,,,,,,,,,,,FF,,,,,,,,1.184,,,,,,,,,,,,,,,,,,,,,,61031efd1da4a14d8e9a86af,61036de4dee18f65f98ca7d7,2021-07-29_23h12.32.896,Simcolourproject_2stim_asymm_v5,2020.2.10,MacIntel,60,61025ae37ef11b136ea224fe,,,,,,,,,1873,73,51,1,0,0,response1disk,,6,0,-1,1,0,0,rectangle,0,-1,1,0,0,0,-1,1,0,0,0,14,14,69,1,,,,,,,,
,,,,,,,,,,,,,FF,,,,,,,,1.582,,,,,,,,,,,,,,,,,,,,,,61031efd1da4a14d8e9a86af,61036de4dee18f65f98ca7d7,2021-07-29_23h12.32.896,Simcolourproject_2stim_asymm_v5,2020.2.10,MacIntel,60,61025ae37ef11b136ea224fe,,,,,,,,,1285,29,61,1,0,0,response1disk,,7,1,-4,1,0,0,rectangle,1,-4,1,0,0,1,-4,1,0,0,0,15,15,125,1,,,,,,,,
,,,,,,,,,,,,,FF,,,,,,,,1.566,,,,,,,,,,,,,,,,,,,,,,61031efd1da4a14d8e9a86af,61036de4dee18f65f98ca7d7,2021-07-29_23h12.32.896,Simcolourproject_2stim_asymm_v5,2020.2.10,MacIntel,60,61025ae37ef11b136ea224fe,,,,,,,,,1182,41,73,1,0,0,response1disk,,7,-7,1,1,0,0,rectangle,-7,1,1,0,0,-7,1,1,0,0,0,16,16,96,1,,,,,,,,
,,,,,,,,,,,,,FF,,,,,,,,1.301,,,,,,,,,,,,,,,,,,,,,,61031efd1da4a14d8e9a86af,61036de4dee18f65f98ca7d7,2021-07-29_23h12.32.896,Simcolourproject_2stim_asymm_v5,2020.2.10,MacIntel,60,61025ae37ef11b136ea224fe,,,,,,,,,4345,-60,34,1,0,0,response7disk,,1,1,-1,1,0,0,rectangle,1,-1,1,0,0,1,-1,1,0,0,0,17,17,90,1,,,,,,,,
,,,,,,,,,,,,,FF,,,,,,,,0.732,,,,,,,,,,,,,,,,,,,,,,61031efd1da4a14d8e9a86af,61036de4dee18f65f98ca7d7,2021-07-29_23h12.32.896,Simcolourproject_2stim_asymm_v5,2020.2.10,MacIntel,60,61025ae37ef11b136ea224fe,,,,,,,,,3935,38,79,1,0,0,response1disk,,7,14,-1,1,0,0,rectangle,14,-1,1,0,0,14,-1,1,0,0,0,18,18,84,1,,,,,,,,
,,,,,,,,,,,,,FF,,,,,,,,1.166,,,,,,,,,,,,,,,,,,,,,,61031efd1da4a14d8e9a86af,61036de4dee18f65f98ca7d7,2021-07-29_23h12.32.896,Simcolourproject_2stim_asymm_v5,2020.2.10,MacIntel,60,61025ae37ef11b136ea224fe,,,,,,,,,3514,-87,-44,1,0,0,response5disk,,2,-10,-12,1,0,0,rectangle,-10,-12,1,0,0,-10,-12,1,0,0,0,19,19,14,1,,,,,,,,
,,,,,,,,,,,,,FF,,,,,,,,2.599,,,,,,,,,,,,,,,,,,,,,,61031efd1da4a14d8e9a86af,61036de4dee18f65f98ca7d7,2021-07-29_23h12.32.896,Simcolourproject_2stim_asymm_v5,2020.2.10,MacIntel,60,61025ae37ef11b136ea224fe,,,,,,,,,2555,65,32,1,0,0,response1disk,,6,13,5,1,0,0,rectangle,13,5,1,0,0,13,5,1,0,0,0,20,20,63,1,,,,,,,,
,,,,,,,,,,,,,FF,,,,,,,,1.249,,,,,,,,,,,,,,,,,,,,,,61031efd1da4a14d8e9a86af,61036de4dee18f65f98ca7d7,2021-07-29_23h12.32.896,Simcolourproject_2stim_asymm_v5,2020.2.10,MacIntel,60,61025ae37ef11b136ea224fe,,,,,,,,,3270,33,64,1,0,0,response1disk,,7,-14,-8,1,0,0,rectangle,-14,-8,1,0,0,-14,-8,1,0,0,0,21,21,55,1,,,,,,,,
,,,,,,,,,,,,,FF,,,,,,,,1.233,,,,,,,,,,,,,,,,,,,,,,61031efd1da4a14d8e9a86af,61036de4dee18f65f98ca7d7,2021-07-29_23h12.32.896,Simcolourproject_2stim_asymm_v5,2020.2.10,MacIntel,60,61025ae37ef11b136ea224fe,,,,,,,,,2876,27,83,1,0,0,response1disk,,7,3,0,1,0,0,rectangle,3,0,1,0,0,3,0,1,0,0,0,22,22,42,1,,,,,,,,
,,,,,,,,,,,,,FF,,,,,,,,1.499,,,,,,,,,,,,,,,,,,,,,,61031efd1da4a14d8e9a86af,61036de4dee18f65f98ca7d7,2021-07-29_23h12.32.896,Simcolourproject_2stim_asymm_v5,2020.2.10,MacIntel,60,61025ae37ef11b136ea224fe,,,,,,,,,1514,31,65,1,0,0,response1disk,,7,2,1,1,0,0,rectangle,2,1,1,0,0,2,1,1,0,0,0,23,23,126,1,,,,,,,,
,,,,,,,,,,,,,FF,,,,,,,,1.117,,,,,,,,,,,,,,,,,,,,,,61031efd1da4a14d8e9a86af,61036de4dee18f65f98ca7d7,2021-07-29_23h12.32.896,Simcolourproject_2stim_asymm_v5,2020.2.10,MacIntel,60,61025ae37ef11b136ea224fe,,,,,,,,,1515,34,58,1,0,0,response1disk,,7,15,0,1,0,0,rectangle,15,0,1,0,0,15,0,1,0,0,0,24,24,68,1,,,,,,,,
,,,,,,,,,,,,,FF,,,,,,,,2.451,,,,,,,,,,,,,,,,,,,,,,61031efd1da4a14d8e9a86af,61036de4dee18f65f98ca7d7,2021-07-29_23h12.32.896,Simcolourproject_2stim_asymm_v5,2020.2.10,MacIntel,60,61025ae37ef11b136ea224fe,,,,,,,,,3453,27,78,1,0,0,response1disk,,7,6,-3,1,0,0,rectangle,6,-3,1,0,0,6,-3,1,0,0,0,25,25,98,1,,,,,,,,
,,,,,,,,,,,,,FF,,,,,,,,1.217,,,,,,,,,,,,,,,,,,,,,,61031efd1da4a14d8e9a86af,61036de4dee18f65f98ca7d7,2021-07-29_23h12.32.896,Simcolourproject_2stim_asymm_v5,2020.2.10,MacIntel,60,61025ae37ef11b136ea224fe,,,,,,,,,1959,-74,27,1,0,0,response7disk,,1,-14,7,1,0,0,rectangle,-14,7,1,0,0,-14,7,1,0,0,0,26,26,111,1,,,,,,,,
,,,,,,,,,,,,,FF,,,,,,,,0.866,,,,,,,,,,,,,,,,,,,,,,61031efd1da4a14d8e9a86af,61036de4dee18f65f98ca7d7,2021-07-29_23h12.32.896,Simcolourproject_2stim_asymm_v5,2020.2.10,MacIntel,60,61025ae37ef11b136ea224fe,,,,,,,,,3143,35,81,1,0,0,response1disk,,7,-8,-7,1,0,0,rectangle,-8,-7,1,0,0,-8,-7,1,0,0,0,27,27,40,1,,,,,,,,
,,,,,,,,,,,,,FF,,,,,,,,1.8,,,,,,,,,,,,,,,,,,,,,,61031efd1da4a14d8e9a86af,61036de4dee18f65f98ca7d7,2021-07-29_23h12.32.896,Simcolourproject_2stim_asymm_v5,2020.2.10,MacIntel,60,61025ae37ef11b136ea224fe,,,,,,,,,1231,67,-31,1,0,0,response3disk,,5,2,-2,1,0,0,rectangle,2,-2,1,0,0,2,-2,1,0,0,0,28,28,120,1,,,,,,,,
,,,,,,,,,,,,,FF,,,,,,,,1.05,,,,,,,,,,,,,,,,,,,,,,61031efd1da4a14d8e9a86af,61036de4dee18f65f98ca7d7,2021-07-29_23h12.32.896,Simcolourproject_2stim_asymm_v5,2020.2.10,MacIntel,60,61025ae37ef11b136ea224fe,,,,,,,,,3395,-30,-87,1,0,0,response5disk,,3,12,0,1,0,0,rectangle,12,0,1,0,0,12,0,1,0,0,0,29,29,83,1,,,,,,,,
,,,,,,,,,,,,,FF,,,,,,,,0.766,,,,,,,,,,,,,,,,,,,,,,61031efd1da4a14d8e9a86af,61036de4dee18f65f98ca7d7,2021-07-29_23h12.32.896,Simcolourproject_2stim_asymm_v5,2020.2.10,MacIntel,60,61025ae37ef11b136ea224fe,,,,,,,,,41,30,76,1,0,0,response1disk,,7,1,7,1,0,0,rectangle,1,7,1,0,0,1,7,1,0,0,0,30,30,80,1,,,,,,,,
,,,,,,,,,,,,,FF,,,,,,,,0.783,,,,,,,,,,,,,,,,,,,,,,61031efd1da4a14d8e9a86af,61036de4dee18f65f98ca7d7,2021-07-29_23h12.32.896,Simcolourproject_2stim_asymm_v5,2020.2.10,MacIntel,60,61025ae37ef11b136ea224fe,,,,,,,,,3536,28,67,1,0,0,response1disk,,7,-1,-2,1,0,0,rectangle,-1,-2,1,0,0,-1,-2,1,0,0,0,31,31,62,1,,,,,,,,
,,,,,,,,,,,,,FF,,,,,,,,1.167,,,,,,,,,,,,,,,,,,,,,,61031efd1da4a14d8e9a86af,61036de4dee18f65f98ca7d7,2021-07-29_23h12.32.896,Simcolourproject_2stim_asymm_v5,2020.2.10,MacIntel,60,61025ae37ef11b136ea224fe,,,,,,,,,843,35,84,1,0,0,response1disk,,7,-7,1,1,0,0,rectangle,-7,1,1,0,0,-7,1,1,0,0,0,32,32,39,1,,,,,,,,
,,,,,,,,,,,,,FF,,,,,,,,1.416,,,,,,,,,,,,,,,,,,,,,,61031efd1da4a14d8e9a86af,61036de4dee18f65f98ca7d7,2021-07-29_23h12.32.896,Simcolourproject_2stim_asymm_v5,2020.2.10,MacIntel,60,61025ae37ef11b136ea224fe,,,,,,,,,3605,33,-74,1,0,0,response3disk,,4,9,-4,1,0,0,rectangle,9,-4,1,0,0,9,-4,1,0,0,0,33,33,17,1,,,,,,,,
,,,,,,,,,,,,,FF,,,,,,,,1.299,,,,,,,,,,,,,,,,,,,,,,61031efd1da4a14d8e9a86af,61036de4dee18f65f98ca7d7,2021-07-29_23h12.32.896,Simcolourproject_2stim_asymm_v5,2020.2.10,MacIntel,60,61025ae37ef11b136ea224fe,,,,,,,,,2605,-52,-80,1,0,0,response5disk,,3,-7,-7,1,0,0,rectangle,-7,-7,1,0,0,-7,-7,1,0,0,0,34,34,72,1,,,,,,,,
,,,,,,,,,,,,,FF,,,,,,,,0.649,,,,,,,,,,,,,,,,,,,,,,61031efd1da4a14d8e9a86af,61036de4dee18f65f98ca7d7,2021-07-29_23h12.32.896,Simcolourproject_2stim_asymm_v5,2020.2.10,MacIntel,60,61025ae37ef11b136ea224fe,,,,,,,,,2458,87,49,1,0,0,response1disk,,6,19,10,1,0,0,rectangle,19,10,1,0,0,19,10,1,0,0,0,35,35,87,1,,,,,,,,
,,,,,,,,,,,,,FF,,,,,,,,0.984,,,,,,,,,,,,,,,,,,,,,,61031efd1da4a14d8e9a86af,61036de4dee18f65f98ca7d7,2021-07-29_23h12.32.896,Simcolourproject_2stim_asymm_v5,2020.2.10,MacIntel,60,61025ae37ef11b136ea224fe,,,,,,,,,1824,-77,-28,1,0,0,response5disk,,2,1,-2,1,0,0,rectangle,1,-2,1,0,0,1,-2,1,0,0,0,36,36,95,1,,,,,,,,
,,,,,,,,,,,,,FF,,,,,,,,1.867,,,,,,,,,,,,,,,,,,,,,,61031efd1da4a14d8e9a86af,61036de4dee18f65f98ca7d7,2021-07-29_23h12.32.896,Simcolourproject_2stim_asymm_v5,2020.2.10,MacIntel,60,61025ae37ef11b136ea224fe,,,,,,,,,3634,22,-76,1,0,0,response3disk,,4,1,-9,1,0,0,rectangle,1,-9,1,0,0,1,-9,1,0,0,0,37,37,21,1,,,,,,,,
,,,,,,,,,,,,,FF,,,,,,,,2.282,,,,,,,,,,,,,,,,,,,,,,61031efd1da4a14d8e9a86af,61036de4dee18f65f98ca7d7,2021-07-29_23h12.32.896,Simcolourproject_2stim_asymm_v5,2020.2.10,MacIntel,60,61025ae37ef11b136ea224fe,,,,,,,,,4108,64,-31,1,0,0,response3disk,,5,-10,3,1,0,0,rectangle,-10,3,1,0,0,-10,3,1,0,0,0,38,38,33,1,,,,,,,,
,,,,,,,,,,,,,FF,,,,,,,,0.966,,,,,,,,,,,,,,,,,,,,,,61031efd1da4a14d8e9a86af,61036de4dee18f65f98ca7d7,2021-07-29_23h12.32.896,Simcolourproject_2stim_asymm_v5,2020.2.10,MacIntel,60,61025ae37ef11b136ea224fe,,,,,,,,,3758,28,72,1,0,0,response1disk,,7,0,-9,1,0,0,rectangle,0,-9,1,0,0,0,-9,1,0,0,0,39,39,134,1,,,,,,,,
,,,,,,,,,,,,,FF,,,,,,,,0.951,,,,,,,,,,,,,,,,,,,,,,61031efd1da4a14d8e9a86af,61036de4dee18f65f98ca7d7,2021-07-29_23h12.32.896,Simcolourproject_2stim_asymm_v5,2020.2.10,MacIntel,60,61025ae37ef11b136ea224fe,,,,,,,,,2062,58,30,1,0,0,response1disk,,6,0,4,1,0,0,rectangle,0,4,1,0,0,0,4,1,0,0,0,40,40,105,1,,,,,,,,
,,,,,,,,,,,,,FF,,,,,,,,0.9,,,,,,,,,,,,,,,,,,,,,,61031efd1da4a14d8e9a86af,61036de4dee18f65f98ca7d7,2021-07-29_23h12.32.896,Simcolourproject_2stim_asymm_v5,2020.2.10,MacIntel,60,61025ae37ef11b136ea224fe,,,,,,,,,1805,28,-83,1,0,0,response3disk,,4,-1,-11,1,0,0,rectangle,-1,-11,1,0,0,-1,-11,1,0,0,0,41,41,6,1,,,,,,,,
,,,,,,,,,,,,,FF,,,,,,,,0.883,,,,,,,,,,,,,,,,,,,,,,61031efd1da4a14d8e9a86af,61036de4dee18f65f98ca7d7,2021-07-29_23h12.32.896,Simcolourproject_2stim_asymm_v5,2020.2.10,MacIntel,60,61025ae37ef11b136ea224fe,,,,,,,,,2587,36,66,1,0,0,response1disk,,7,6,4,1,0,0,rectangle,6,4,1,0,0,6,4,1,0,0,0,42,42,104,1,,,,,,,,
,,,,,,,,,,,,,FF,,,,,,,,1.216,,,,,,,,,,,,,,,,,,,,,,61031efd1da4a14d8e9a86af,61036de4dee18f65f98ca7d7,2021-07-29_23h12.32.896,Simcolourproject_2stim_asymm_v5,2020.2.10,MacIntel,60,61025ae37ef11b136ea224fe,,,,,,,,,1930,-48,-76,1,0,0,response5disk,,3,-7,-10,1,0,0,rectangle,82,-29,1,0,0,0,2,1,0,0,0,43,43,129,1,,response3disk_3,TRUE,5,5,"[88,82,122,264,162,103,169,204,132,314,197,154,287,0,4,74,44,136,159,168]",1.8,rectangle
,,,,,,,,,,,,,FF,,,,,,,,1.75,,,,,,,,,,,,,,,,,,,,,,61031efd1da4a14d8e9a86af,61036de4dee18f65f98ca7d7,2021-07-29_23h12.32.896,Simcolourproject_2stim_asymm_v5,2020.2.10,MacIntel,60,61025ae37ef11b136ea224fe,,,,,,,,,3197,-74,-31,1,0,0,response5disk,,2,-3,-4,1,0,0,rectangle,-3,-4,1,0,0,-3,-4,1,0,0,0,44,44,82,1,,,,,,,,
,,,,,,,,,,,,,FF,,,,,,,,0.749,,,,,,,,,,,,,,,,,,,,,,61031efd1da4a14d8e9a86af,61036de4dee18f65f98ca7d7,2021-07-29_23h12.32.896,Simcolourproject_2stim_asymm_v5,2020.2.10,MacIntel,60,61025ae37ef11b136ea224fe,,,,,,,,,2014,36,77,1,0,0,response1disk,,7,0,1,1,0,0,rectangle,0,1,1,0,0,0,1,1,0,0,0,45,45,149,1,,,,,,,,
,,,,,,,,,,,,,FF,,,,,,,,0.948,,,,,,,,,,,,,,,,,,,,,,61031efd1da4a14d8e9a86af,61036de4dee18f65f98ca7d7,2021-07-29_23h12.32.896,Simcolourproject_2stim_asymm_v5,2020.2.10,MacIntel,60,61025ae37ef11b136ea224fe,,,,,,,,,1346,29,-77,1,0,0,response3disk,,4,-6,-6,1,0,0,rectangle,-6,-6,1,0,0,-6,-6,1,0,0,0,46,46,112,1,,,,,,,,
,,,,,,,,,,,,,FF,,,,,,,,0.782,,,,,,,,,,,,,,,,,,,,,,61031efd1da4a14d8e9a86af,61036de4dee18f65f98ca7d7,2021-07-29_23h12.32.896,Simcolourproject_2stim_asymm_v5,2020.2.10,MacIntel,60,61025ae37ef11b136ea224fe,,,,,,,,,2324,28,71,1,0,0,response1disk,,7,-6,-15,1,0,0,rectangle,-6,-15,1,0,0,-6,-15,1,0,0,0,47,47,51,1,,,,,,,,
,,,,,,,,,,,,,FF,,,,,,,,0.684,,,,,,,,,,,,,,,,,,,,,,61031efd1da4a14d8e9a86af,61036de4dee18f65f98ca7d7,2021-07-29_23h12.32.896,Simcolourproject_2stim_asymm_v5,2020.2.10,MacIntel,60,61025ae37ef11b136ea224fe,,,,,,,,,2224,33,64,1,0,0,response1disk,,7,-9,12,1,0,0,rectangle,-9,12,1,0,0,-9,12,1,0,0,0,48,48,106,1,,,,,,,,
,,,,,,,,,,,,,FF,,,,,,,,1.034,,,,,,,,,,,,,,,,,,,,,,61031efd1da4a14d8e9a86af,61036de4dee18f65f98ca7d7,2021-07-29_23h12.32.896,Simcolourproject_2stim_asymm_v5,2020.2.10,MacIntel,60,61025ae37ef11b136ea224fe,,,,,,,,,1219,-33,-78,1,0,0,response5disk,,3,-3,-16,1,0,0,rectangle,-3,-16,1,0,0,-3,-16,1,0,0,0,49,49,57,1,,,,,,,,
,,,,,,,,,,,,,FF,,,,,,,,2.117,,,,,,,,,,,,,,,,,,,,,,61031efd1da4a14d8e9a86af,61036de4dee18f65f98ca7d7,2021-07-29_23h12.32.896,Simcolourproject_2stim_asymm_v5,2020.2.10,MacIntel,60,61025ae37ef11b136ea224fe,,,,,,,,,3543,19,-57,1,0,0,response3disk,,4,-7,8,1,0,0,rectangle,-7,8,1,0,0,-7,8,1,0,0,0,50,50,75,1,,,,,,,,
,,,,,,,,,,,,,FF,,,,,,,,1.367,,,,,,,,,,,,,,,,,,,,,,61031efd1da4a14d8e9a86af,61036de4dee18f65f98ca7d7,2021-07-29_23h12.32.896,Simcolourproject_2stim_asymm_v5,2020.2.10,MacIntel,60,61025ae37ef11b136ea224fe,,,,,,,,,1986,60,33,1,0,0,response1disk,,6,15,-13,1,0,0,rectangle,15,-13,1,0,0,15,-13,1,0,0,0,51,51,146,1,,,,,,,,
,,,,,,,,,,,,,FF,,,,,,,,0.683,,,,,,,,,,,,,,,,,,,,,,61031efd1da4a14d8e9a86af,61036de4dee18f65f98ca7d7,2021-07-29_23h12.32.896,Simcolourproject_2stim_asymm_v5,2020.2.10,MacIntel,60,61025ae37ef11b136ea224fe,,,,,,,,,1360,89,47,1,0,0,response1disk,,6,-11,4,1,0,0,rectangle,-11,4,1,0,0,-11,4,1,0,0,0,52,52,47,1,,,,,,,,
,,,,,,,,,,,,,FF,,,,,,,,0.617,,,,,,,,,,,,,,,,,,,,,,61031efd1da4a14d8e9a86af,61036de4dee18f65f98ca7d7,2021-07-29_23h12.32.896,Simcolourproject_2stim_asymm_v5,2020.2.10,MacIntel,60,61025ae37ef11b136ea224fe,,,,,,,,,2110,81,31,1,0,0,response1disk,,6,-6,0,1,0,0,rectangle,-6,0,1,0,0,-6,0,1,0,0,0,53,53,122,1,,,,,,,,
,,,,,,,,,,,,,FF,,,,,,,,0.783,,,,,,,,,,,,,,,,,,,,,,61031efd1da4a14d8e9a86af,61036de4dee18f65f98ca7d7,2021-07-29_23h12.32.896,Simcolourproject_2stim_asymm_v5,2020.2.10,MacIntel,60,61025ae37ef11b136ea224fe,,,,,,,,,1188,42,75,1,0,0,response1disk,,7,-3,12,1,0,0,rectangle,-3,12,1,0,0,-3,12,1,0,0,0,54,54,136,1,,,,,,,,
,,,,,,,,,,,,,FF,,,,,,,,0.6,,,,,,,,,,,,,,,,,,,,,,61031efd1da4a14d8e9a86af,61036de4dee18f65f98ca7d7,2021-07-29_23h12.32.896,Simcolourproject_2stim_asymm_v5,2020.2.10,MacIntel,60,61025ae37ef11b136ea224fe,,,,,,,,,3360,45,75,1,0,0,response1disk,,7,7,5,1,0,0,rectangle,7,5,1,0,0,7,5,1,0,0,0,55,55,41,1,,,,,,,,
,,,,,,,,,,,,,FF,,,,,,,,0.9,,,,,,,,,,,,,,,,,,,,,,61031efd1da4a14d8e9a86af,61036de4dee18f65f98ca7d7,2021-07-29_23h12.32.896,Simcolourproject_2stim_asymm_v5,2020.2.10,MacIntel,60,61025ae37ef11b136ea224fe,,,,,,,,,1906,-46,-89,1,0,0,response5disk,,3,2,14,1,0,0,rectangle,2,14,1,0,0,2,14,1,0,0,0,56,56,31,1,,,,,,,,
,,,,,,,,,,,,,FF,,,,,,,,0.55,,,,,,,,,,,,,,,,,,,,,,61031efd1da4a14d8e9a86af,61036de4dee18f65f98ca7d7,2021-07-29_23h12.32.896,Simcolourproject_2stim_asymm_v5,2020.2.10,MacIntel,60,61025ae37ef11b136ea224fe,,,,,,,,,381,42,78,1,0,0,response1disk,,7,4,-1,1,0,0,rectangle,4,-1,1,0,0,4,-1,1,0,0,0,57,57,13,1,,,,,,,,
,,,,,,,,,,,,,FF,,,,,,,,0.415,,,,,,,,,,,,,,,,,,,,,,61031efd1da4a14d8e9a86af,61036de4dee18f65f98ca7d7,2021-07-29_23h12.32.896,Simcolourproject_2stim_asymm_v5,2020.2.10,MacIntel,60,61025ae37ef11b136ea224fe,,,,,,,,,1344,48,71,1,0,0,response1disk,,7,9,-4,1,0,0,rectangle,9,-4,1,0,0,9,-4,1,0,0,0,58,58,23,1,,,,,,,,
,,,,,,,,,,,,,FF,,,,,,,,0.599,,,,,,,,,,,,,,,,,,,,,,61031efd1da4a14d8e9a86af,61036de4dee18f65f98ca7d7,2021-07-29_23h12.32.896,Simcolourproject_2stim_asymm_v5,2020.2.10,MacIntel,60,61025ae37ef11b136ea224fe,,,,,,,,,4107,-24,-64,1,0,0,response5disk,,3,-1,1,1,0,0,rectangle,-1,1,1,0,0,-1,1,1,0,0,0,59,59,147,1,,,,,,,,
,,,,,,,,,,,,,FF,,,,,,,,1.283,,,,,,,,,,,,,,,,,,,,,,61031efd1da4a14d8e9a86af,61036de4dee18f65f98ca7d7,2021-07-29_23h12.32.896,Simcolourproject_2stim_asymm_v5,2020.2.10,MacIntel,60,61025ae37ef11b136ea224fe,,,,,,,,,3569,59,-41,1,0,0,response3disk,,5,6,0,1,0,0,rectangle,6,0,1,0,0,6,0,1,0,0,0,60,60,50,1,,,,,,,,
,,,,,,,,,,,,,FF,,,,,,,,1.817,,,,,,,,,,,,,,,,,,,,,,61031efd1da4a14d8e9a86af,61036de4dee18f65f98ca7d7,2021-07-29_23h12.32.896,Simcolourproject_2stim_asymm_v5,2020.2.10,MacIntel,60,61025ae37ef11b136ea224fe,,,,,,,,,2287,-60,-28,1,0,0,response5disk,,2,-12,2,1,0,0,rectangle,-12,2,1,0,0,-12,2,1,0,0,0,61,61,121,1,,,,,,,,
,,,,,,,,,,,,,FF,,,,,,,,0.567,,,,,,,,,,,,,,,,,,,,,,61031efd1da4a14d8e9a86af,61036de4dee18f65f98ca7d7,2021-07-29_23h12.32.896,Simcolourproject_2stim_asymm_v5,2020.2.10,MacIntel,60,61025ae37ef11b136ea224fe,,,,,,,,,3218,28,54,1,0,0,response1disk,,7,-5,-3,1,0,0,rectangle,-5,-3,1,0,0,-5,-3,1,0,0,0,62,62,124,1,,,,,,,,
,,,,,,,,,,,,,FF,,,,,,,,0.6,,,,,,,,,,,,,,,,,,,,,,61031efd1da4a14d8e9a86af,61036de4dee18f65f98ca7d7,2021-07-29_23h12.32.896,Simcolourproject_2stim_asymm_v5,2020.2.10,MacIntel,60,61025ae37ef11b136ea224fe,,,,,,,,,2801,29,67,1,0,0,response1disk,,7,10,14,1,0,0,rectangle,10,14,1,0,0,10,14,1,0,0,0,63,63,85,1,,,,,,,,
,,,,,,,,,,,,,FF,,,,,,,,0.816,,,,,,,,,,,,,,,,,,,,,,61031efd1da4a14d8e9a86af,61036de4dee18f65f98ca7d7,2021-07-29_23h12.32.896,Simcolourproject_2stim_asymm_v5,2020.2.10,MacIntel,60,61025ae37ef11b136ea224fe,,,,,,,,,2402,-21,-72,1,0,0,response5disk,,3,11,10,1,0,0,rectangle,11,10,1,0,0,11,10,1,0,0,0,64,64,139,1,,,,,,,,
,,,,,,,,,,,,,FF,,,,,,,,0.95,,,,,,,,,,,,,,,,,,,,,,61031efd1da4a14d8e9a86af,61036de4dee18f65f98ca7d7,2021-07-29_23h12.32.896,Simcolourproject_2stim_asymm_v5,2020.2.10,MacIntel,60,61025ae37ef11b136ea224fe,,,,,,,,,265,-74,-38,1,0,0,response5disk,,2,-6,3,1,0,0,rectangle,-6,3,1,0,0,-6,3,1,0,0,0,65,65,132,1,,,,,,,,
,,,,,,,,,,,,,FF,,,,,,,,0.684,,,,,,,,,,,,,,,,,,,,,,61031efd1da4a14d8e9a86af,61036de4dee18f65f98ca7d7,2021-07-29_23h12.32.896,Simcolourproject_2stim_asymm_v5,2020.2.10,MacIntel,60,61025ae37ef11b136ea224fe,,,,,,,,,3445,29,51,1,0,0,response1disk,,7,-4,-10,1,0,0,rectangle,-4,-10,1,0,0,-4,-10,1,0,0,0,66,66,64,1,,,,,,,,
,,,,,,,,,,,,,FF,,,,,,,,0.783,,,,,,,,,,,,,,,,,,,,,,61031efd1da4a14d8e9a86af,61036de4dee18f65f98ca7d7,2021-07-29_23h12.32.896,Simcolourproject_2stim_asymm_v5,2020.2.10,MacIntel,60,61025ae37ef11b136ea224fe,,,,,,,,,4189,33,-92,1,0,0,response3disk,,4,-3,-7,1,0,0,rectangle,-3,-7,1,0,0,-3,-7,1,0,0,0,67,67,81,1,,,,,,,,
,,,,,,,,,,,,,FF,,,,,,,,1.116,,,,,,,,,,,,,,,,,,,,,,61031efd1da4a14d8e9a86af,61036de4dee18f65f98ca7d7,2021-07-29_23h12.32.896,Simcolourproject_2stim_asymm_v5,2020.2.10,MacIntel,60,61025ae37ef11b136ea224fe,,,,,,,,,1881,21,64,1,0,0,response1disk,,7,3,4,1,0,0,rectangle,3,4,1,0,0,3,4,1,0,0,0,68,68,16,1,,,,,,,,
,,,,,,,,,,,,,FF,,,,,,,,1.483,,,,,,,,,,,,,,,,,,,,,,61031efd1da4a14d8e9a86af,61036de4dee18f65f98ca7d7,2021-07-29_23h12.32.896,Simcolourproject_2stim_asymm_v5,2020.2.10,MacIntel,60,61025ae37ef11b136ea224fe,,,,,,,,,1355,89,-42,1,0,0,response3disk,,5,7,7,1,0,0,rectangle,7,7,1,0,0,7,7,1,0,0,0,69,69,25,1,,,,,,,,
,,,,,,,,,,,,,FF,,,,,,,,0.766,,,,,,,,,,,,,,,,,,,,,,61031efd1da4a14d8e9a86af,61036de4dee18f65f98ca7d7,2021-07-29_23h12.32.896,Simcolourproject_2stim_asymm_v5,2020.2.10,MacIntel,60,61025ae37ef11b136ea224fe,,,,,,,,,2348,28,-64,1,0,0,response3disk,,4,6,-1,1,0,0,rectangle,6,-1,1,0,0,6,-1,1,0,0,0,70,70,56,1,,,,,,,,
,,,,,,,,,,,,,FF,,,,,,,,1.384,,,,,,,,,,,,,,,,,,,,,,61031efd1da4a14d8e9a86af,61036de4dee18f65f98ca7d7,2021-07-29_23h12.32.896,Simcolourproject_2stim_asymm_v5,2020.2.10,MacIntel,60,61025ae37ef11b136ea224fe,,,,,,,,,684,15,-69,1,0,0,response3disk,,4,7,3,1,0,0,rectangle,7,3,1,0,0,7,3,1,0,0,0,71,71,2,1,,,,,,,,
,,,,,,,,,,,,,FF,,,,,,,,1.017,,,,,,,,,,,,,,,,,,,,,,61031efd1da4a14d8e9a86af,61036de4dee18f65f98ca7d7,2021-07-29_23h12.32.896,Simcolourproject_2stim_asymm_v5,2020.2.10,MacIntel,60,61025ae37ef11b136ea224fe,,,,,,,,,554,67,19,1,0,0,response1disk,,6,-6,-2,1,0,0,rectangle,-6,-2,1,0,0,-6,-2,1,0,0,0,72,72,135,1,,,,,,,,
,,,,,,,,,,,,,FF,,,,,,,,0.966,,,,,,,,,,,,,,,,,,,,,,61031efd1da4a14d8e9a86af,61036de4dee18f65f98ca7d7,2021-07-29_23h12.32.896,Simcolourproject_2stim_asymm_v5,2020.2.10,MacIntel,60,61025ae37ef11b136ea224fe,,,,,,,,,1584,31,-87,1,0,0,response3disk,,4,3,-6,1,0,0,rectangle,73,-42,1,0,0,-6,8,1,0,0,0,73,73,152,1,,response3disk_3,TRUE,5,5,"[88,82,122,264,162,103,169,204,132,314,197,154,287,0,4,74,44,136,159,168]",1.232,rectangle
,,,,,,,,,,,,,FF,,,,,,,,0.683,,,,,,,,,,,,,,,,,,,,,,61031efd1da4a14d8e9a86af,61036de4dee18f65f98ca7d7,2021-07-29_23h12.32.896,Simcolourproject_2stim_asymm_v5,2020.2.10,MacIntel,60,61025ae37ef11b136ea224fe,,,,,,,,,1524,-41,-76,1,0,0,response5disk,,3,-11,-10,1,0,0,rectangle,-11,-10,1,0,0,-11,-10,1,0,0,0,74,74,150,1,,,,,,,,
,,,,,,,,,,,,,FF,,,,,,,,1.3,,,,,,,,,,,,,,,,,,,,,,61031efd1da4a14d8e9a86af,61036de4dee18f65f98ca7d7,2021-07-29_23h12.32.896,Simcolourproject_2stim_asymm_v5,2020.2.10,MacIntel,60,61025ae37ef11b136ea224fe,,,,,,,,,2643,38,-78,1,0,0,response3disk,,4,1,6,1,0,0,rectangle,1,6,1,0,0,1,6,1,0,0,0,75,75,22,1,,,,,,,,
,,,,,,,,,,,,,FF,,,,,,,,0.885,,,,,,,,,,,,,,,,,,,,,,61031efd1da4a14d8e9a86af,61036de4dee18f65f98ca7d7,2021-07-29_23h12.32.896,Simcolourproject_2stim_asymm_v5,2020.2.10,MacIntel,60,61025ae37ef11b136ea224fe,,,,,,,,,4176,30,70,1,0,0,response1disk,,7,3,6,1,0,0,rectangle,3,6,1,0,0,3,6,1,0,0,0,76,76,159,1,,,,,,,,
,,,,,,,,,,,,,FF,,,,,,,,0.933,,,,,,,,,,,,,,,,,,,,,,61031efd1da4a14d8e9a86af,61036de4dee18f65f98ca7d7,2021-07-29_23h12.32.896,Simcolourproject_2stim_asymm_v5,2020.2.10,MacIntel,60,61025ae37ef11b136ea224fe,,,,,,,,,4199,37,112,1,0,0,response1disk,,7,8,12,1,0,0,rectangle,8,12,1,0,0,8,12,1,0,0,0,77,77,4,1,,,,,,,,
,,,,,,,,,,,,,FF,,,,,,,,0.499,,,,,,,,,,,,,,,,,,,,,,61031efd1da4a14d8e9a86af,61036de4dee18f65f98ca7d7,2021-07-29_23h12.32.896,Simcolourproject_2stim_asymm_v5,2020.2.10,MacIntel,60,61025ae37ef11b136ea224fe,,,,,,,,,3617,40,67,1,0,0,response1disk,,7,3,2,1,0,0,rectangle,3,2,1,0,0,3,2,1,0,0,0,78,78,110,1,,,,,,,,
,,,,,,,,,,,,,FF,,,,,,,,0.883,,,,,,,,,,,,,,,,,,,,,,61031efd1da4a14d8e9a86af,61036de4dee18f65f98ca7d7,2021-07-29_23h12.32.896,Simcolourproject_2stim_asymm_v5,2020.2.10,MacIntel,60,61025ae37ef11b136ea224fe,,,,,,,,,1454,-78,25,1,0,0,response7disk,,1,-1,3,1,0,0,rectangle,-1,3,1,0,0,-1,3,1,0,0,0,79,79,130,1,,,,,,,,
,,,,,,,,,,,,,FF,,,,,,,,0.515,,,,,,,,,,,,,,,,,,,,,,61031efd1da4a14d8e9a86af,61036de4dee18f65f98ca7d7,2021-07-29_23h12.32.896,Simcolourproject_2stim_asymm_v5,2020.2.10,MacIntel,60,61025ae37ef11b136ea224fe,,,,,,,,,2243,39,62,1,0,0,response1disk,,7,-4,4,1,0,0,rectangle,-4,4,1,0,0,-4,4,1,0,0,0,80,80,79,1,,,,,,,,
,,,,,,,,,,,,,FF,,,,,,,,0.466,,,,,,,,,,,,,,,,,,,,,,61031efd1da4a14d8e9a86af,61036de4dee18f65f98ca7d7,2021-07-29_23h12.32.896,Simcolourproject_2stim_asymm_v5,2020.2.10,MacIntel,60,61025ae37ef11b136ea224fe,,,,,,,,,1768,31,59,1,0,0,response1disk,,7,-1,7,1,0,0,rectangle,-84,29,1,0,0,-2,0,1,0,0,0,81,81,99,1,,response7disk_3,TRUE,1,1,"[88,82,122,264,162,103,169,204,132,314,197,154,287,0,4,74,44,136,159,168]",1.233,rectangle
,,,,,,,,,,,,,FF,,,,,,,,0.549,,,,,,,,,,,,,,,,,,,,,,61031efd1da4a14d8e9a86af,61036de4dee18f65f98ca7d7,2021-07-29_23h12.32.896,Simcolourproject_2stim_asymm_v5,2020.2.10,MacIntel,60,61025ae37ef11b136ea224fe,,,,,,,,,4057,24,66,1,0,0,response1disk,,7,2,7,1,0,0,rectangle,2,7,1,0,0,2,7,1,0,0,0,82,82,154,1,,,,,,,,
,,,,,,,,,,,,,FF,,,,,,,,0.633,,,,,,,,,,,,,,,,,,,,,,61031efd1da4a14d8e9a86af,61036de4dee18f65f98ca7d7,2021-07-29_23h12.32.896,Simcolourproject_2stim_asymm_v5,2020.2.10,MacIntel,60,61025ae37ef11b136ea224fe,,,,,,,,,384,38,72,1,0,0,response1disk,,7,8,6,1,0,0,rectangle,8,6,1,0,0,8,6,1,0,0,0,83,83,127,1,,,,,,,,
,,,,,,,,,,,,,FF,,,,,,,,0.95,,,,,,,,,,,,,,,,,,,,,,61031efd1da4a14d8e9a86af,61036de4dee18f65f98ca7d7,2021-07-29_23h12.32.896,Simcolourproject_2stim_asymm_v5,2020.2.10,MacIntel,60,61025ae37ef11b136ea224fe,,,,,,,,,810,-76,-40,1,0,0,response5disk,,2,11,13,1,0,0,rectangle,11,13,1,0,0,11,13,1,0,0,0,84,84,28,1,,,,,,,,
,,,,,,,,,,,,,FF,,,,,,,,1.266,,,,,,,,,,,,,,,,,,,,,,61031efd1da4a14d8e9a86af,61036de4dee18f65f98ca7d7,2021-07-29_23h12.32.896,Simcolourproject_2stim_asymm_v5,2020.2.10,MacIntel,60,61025ae37ef11b136ea224fe,,,,,,,,,1194,34,-78,1,0,0,response3disk,,4,21,3,1,0,0,rectangle,21,3,1,0,0,21,3,1,0,0,0,85,85,36,1,,,,,,,,
,,,,,,,,,,,,,FF,,,,,,,,1.183,,,,,,,,,,,,,,,,,,,,,,61031efd1da4a14d8e9a86af,61036de4dee18f65f98ca7d7,2021-07-29_23h12.32.896,Simcolourproject_2stim_asymm_v5,2020.2.10,MacIntel,60,61025ae37ef11b136ea224fe,,,,,,,,,605,71,27,1,0,0,response1disk,,6,6,8,1,0,0,rectangle,6,8,1,0,0,6,8,1,0,0,0,86,86,114,1,,,,,,,,
,,,,,,,,,,,,,FF,,,,,,,,0.899,,,,,,,,,,,,,,,,,,,,,,61031efd1da4a14d8e9a86af,61036de4dee18f65f98ca7d7,2021-07-29_23h12.32.896,Simcolourproject_2stim_asymm_v5,2020.2.10,MacIntel,60,61025ae37ef11b136ea224fe,,,,,,,,,3597,-37,-77,1,0,0,response5disk,,3,-10,-10,1,0,0,rectangle,-82,-28,1,0,0,2,-10,1,0,0,0,87,87,52,1,,response5disk_3,TRUE,2,2,"[88,82,122,264,162,103,169,204,132,314,197,154,287,0,4,74,44,136,159,168]",1.116,rectangle
,,,,,,,,,,,,,FF,,,,,,,,0.668,,,,,,,,,,,,,,,,,,,,,,61031efd1da4a14d8e9a86af,61036de4dee18f65f98ca7d7,2021-07-29_23h12.32.896,Simcolourproject_2stim_asymm_v5,2020.2.10,MacIntel,60,61025ae37ef11b136ea224fe,,,,,,,,,1724,19,62,1,0,0,response1disk,,7,-3,10,1,0,0,rectangle,-3,10,1,0,0,-3,10,1,0,0,0,88,88,92,1,,,,,,,,
,,,,,,,,,,,,,FF,,,,,,,,0.6,,,,,,,,,,,,,,,,,,,,,,61031efd1da4a14d8e9a86af,61036de4dee18f65f98ca7d7,2021-07-29_23h12.32.896,Simcolourproject_2stim_asymm_v5,2020.2.10,MacIntel,60,61025ae37ef11b136ea224fe,,,,,,,,,643,30,76,1,0,0,response1disk,,7,9,-2,1,0,0,rectangle,9,-2,1,0,0,9,-2,1,0,0,0,89,89,20,1,,,,,,,,
,,,,,,,,,,,,,FF,,,,,,,,0.701,,,,,,,,,,,,,,,,,,,,,,61031efd1da4a14d8e9a86af,61036de4dee18f65f98ca7d7,2021-07-29_23h12.32.896,Simcolourproject_2stim_asymm_v5,2020.2.10,MacIntel,60,61025ae37ef11b136ea224fe,,,,,,,,,2360,-58,25,1,0,0,response7disk,,1,-4,7,1,0,0,rectangle,-4,7,1,0,0,-4,7,1,0,0,0,90,90,35,1,,,,,,,,
,,,,,,,,,,,,,FF,,,,,,,,0.534,,,,,,,,,,,,,,,,,,,,,,61031efd1da4a14d8e9a86af,61036de4dee18f65f98ca7d7,2021-07-29_23h12.32.896,Simcolourproject_2stim_asymm_v5,2020.2.10,MacIntel,60,61025ae37ef11b136ea224fe,,,,,,,,,3904,37,67,1,0,0,response1disk,,7,11,-5,1,0,0,rectangle,11,-5,1,0,0,11,-5,1,0,0,0,91,91,137,1,,,,,,,,
,,,,,,,,,,,,,FF,,,,,,,,0.417,,,,,,,,,,,,,,,,,,,,,,61031efd1da4a14d8e9a86af,61036de4dee18f65f98ca7d7,2021-07-29_23h12.32.896,Simcolourproject_2stim_asymm_v5,2020.2.10,MacIntel,60,61025ae37ef11b136ea224fe,,,,,,,,,668,30,44,1,0,0,response1disk,,7,10,12,1,0,0,rectangle,10,12,1,0,0,10,12,1,0,0,0,92,92,8,1,,,,,,,,
,,,,,,,,,,,,,FF,,,,,,,,0.616,,,,,,,,,,,,,,,,,,,,,,61031efd1da4a14d8e9a86af,61036de4dee18f65f98ca7d7,2021-07-29_23h12.32.896,Simcolourproject_2stim_asymm_v5,2020.2.10,MacIntel,60,61025ae37ef11b136ea224fe,,,,,,,,,2138,71,-45,1,0,0,response3disk,,5,1,3,1,0,0,rectangle,1,3,1,0,0,1,3,1,0,0,0,93,93,144,1,,,,,,,,
,,,,,,,,,,,,,FF,,,,,,,,1,,,,,,,,,,,,,,,,,,,,,,61031efd1da4a14d8e9a86af,61036de4dee18f65f98ca7d7,2021-07-29_23h12.32.896,Simcolourproject_2stim_asymm_v5,2020.2.10,MacIntel,60,61025ae37ef11b136ea224fe,,,,,,,,,2185,31,70,1,0,0,response1disk,,7,20,10,1,0,0,rectangle,20,10,1,0,0,20,10,1,0,0,0,94,94,128,1,,,,,,,,
,,,,,,,,,,,,,FF,,,,,,,,0.934,,,,,,,,,,,,,,,,,,,,,,61031efd1da4a14d8e9a86af,61036de4dee18f65f98ca7d7,2021-07-29_23h12.32.896,Simcolourproject_2stim_asymm_v5,2020.2.10,MacIntel,60,61025ae37ef11b136ea224fe,,,,,,,,,2535,68,25,1,0,0,response1disk,,6,17,-2,1,0,0,rectangle,17,-2,1,0,0,17,-2,1,0,0,0,95,95,65,1,,,,,,,,
,,,,,,,,,,,,,FF,,,,,,,,0.831,,,,,,,,,,,,,,,,,,,,,,61031efd1da4a14d8e9a86af,61036de4dee18f65f98ca7d7,2021-07-29_23h12.32.896,Simcolourproject_2stim_asymm_v5,2020.2.10,MacIntel,60,61025ae37ef11b136ea224fe,,,,,,,,,3918,61,25,1,0,0,response1disk,,6,3,-12,1,0,0,rectangle,3,-12,1,0,0,3,-12,1,0,0,0,96,96,142,1,,,,,,,,
,,,,,,,,,,,,,FF,,,,,,,,1.15,,,,,,,,,,,,,,,,,,,,,,61031efd1da4a14d8e9a86af,61036de4dee18f65f98ca7d7,2021-07-29_23h12.32.896,Simcolourproject_2stim_asymm_v5,2020.2.10,MacIntel,60,61025ae37ef11b136ea224fe,,,,,,,,,982,33,-71,1,0,0,response3disk,,4,6,0,1,0,0,rectangle,6,0,1,0,0,6,0,1,0,0,0,97,97,1,1,,,,,,,,
,,,,,,,,,,,,,FF,,,,,,,,0.582,,,,,,,,,,,,,,,,,,,,,,61031efd1da4a14d8e9a86af,61036de4dee18f65f98ca7d7,2021-07-29_23h12.32.896,Simcolourproject_2stim_asymm_v5,2020.2.10,MacIntel,60,61025ae37ef11b136ea224fe,,,,,,,,,3379,25,59,1,0,0,response1disk,,7,13,-2,1,0,0,rectangle,13,-2,1,0,0,13,-2,1,0,0,0,98,98,76,1,,,,,,,,
,,,,,,,,,,,,,FF,,,,,,,,0.782,,,,,,,,,,,,,,,,,,,,,,61031efd1da4a14d8e9a86af,61036de4dee18f65f98ca7d7,2021-07-29_23h12.32.896,Simcolourproject_2stim_asymm_v5,2020.2.10,MacIntel,60,61025ae37ef11b136ea224fe,,,,,,,,,2772,60,-39,1,0,0,response3disk,,5,17,-7,1,0,0,rectangle,17,-7,1,0,0,17,-7,1,0,0,0,99,99,103,1,,,,,,,,
,,,,,,,,,,,,,FF,,,,,,,,0.649,,,,,,,,,,,,,,,,,,,,,,61031efd1da4a14d8e9a86af,61036de4dee18f65f98ca7d7,2021-07-29_23h12.32.896,Simcolourproject_2stim_asymm_v5,2020.2.10,MacIntel,60,61025ae37ef11b136ea224fe,,,,,,,,,2655,38,52,1,0,0,response1disk,,7,13,0,1,0,0,rectangle,13,0,1,0,0,13,0,1,0,0,0,100,100,116,1,,,,,,,,
,,,,,,,,,,,,,FF,,,,,,,,0.582,,,,,,,,,,,,,,,,,,,,,,61031efd1da4a14d8e9a86af,61036de4dee18f65f98ca7d7,2021-07-29_23h12.32.896,Simcolourproject_2stim_asymm_v5,2020.2.10,MacIntel,60,61025ae37ef11b136ea224fe,,,,,,,,,920,31,60,1,0,0,response1disk,,7,20,11,1,0,0,rectangle,20,11,1,0,0,20,11,1,0,0,0,101,101,53,1,,,,,,,,
,,,,,,,,,,,,,FF,,,,,,,,0.632,,,,,,,,,,,,,,,,,,,,,,61031efd1da4a14d8e9a86af,61036de4dee18f65f98ca7d7,2021-07-29_23h12.32.896,Simcolourproject_2stim_asymm_v5,2020.2.10,MacIntel,60,61025ae37ef11b136ea224fe,,,,,,,,,2765,71,25,1,0,0,response1disk,,6,16,2,1,0,0,rectangle,-31,68,1,0,0,-4,5,1,0,0,0,102,102,115,1,,response7disk_3,TRUE,0,0,"[88,82,122,264,162,103,169,204,132,314,197,154,287,0,4,74,44,136,159,168]",1.032,rectangle
,,,,,,,,,,,,,FF,,,,,,,,3.184,,,,,,,,,,,,,,,,,,,,,,61031efd1da4a14d8e9a86af,61036de4dee18f65f98ca7d7,2021-07-29_23h12.32.896,Simcolourproject_2stim_asymm_v5,2020.2.10,MacIntel,60,61025ae37ef11b136ea224fe,,,,,,,,,2299,38,64,1,0,0,response1disk,,7,15,2,1,0,0,rectangle,15,2,1,0,0,15,2,1,0,0,0,103,103,49,1,,,,,,,,
,,,,,,,,,,,,,FF,,,,,,,,0.5,,,,,,,,,,,,,,,,,,,,,,61031efd1da4a14d8e9a86af,61036de4dee18f65f98ca7d7,2021-07-29_23h12.32.896,Simcolourproject_2stim_asymm_v5,2020.2.10,MacIntel,60,61025ae37ef11b136ea224fe,,,,,,,,,3438,32,52,1,0,0,response1disk,,7,11,1,1,0,0,rectangle,11,1,1,0,0,11,1,1,0,0,0,104,104,117,1,,,,,,,,
,,,,,,,,,,,,,FF,,,,,,,,0.533,,,,,,,,,,,,,,,,,,,,,,61031efd1da4a14d8e9a86af,61036de4dee18f65f98ca7d7,2021-07-29_23h12.32.896,Simcolourproject_2stim_asymm_v5,2020.2.10,MacIntel,60,61025ae37ef11b136ea224fe,,,,,,,,,4349,33,43,1,0,0,response1disk,,7,8,10,1,0,0,rectangle,8,10,1,0,0,8,10,1,0,0,0,105,105,45,1,,,,,,,,
,,,,,,,,,,,,,FF,,,,,,,,0.634,,,,,,,,,,,,,,,,,,,,,,61031efd1da4a14d8e9a86af,61036de4dee18f65f98ca7d7,2021-07-29_23h12.32.896,Simcolourproject_2stim_asymm_v5,2020.2.10,MacIntel,60,61025ae37ef11b136ea224fe,,,,,,,,,3141,25,37,1,0,0,response1disk,,7,12,-6,1,0,0,rectangle,12,-6,1,0,0,12,-6,1,0,0,0,106,106,5,1,,,,,,,,
,,,,,,,,,,,,,FF,,,,,,,,0.916,,,,,,,,,,,,,,,,,,,,,,61031efd1da4a14d8e9a86af,61036de4dee18f65f98ca7d7,2021-07-29_23h12.32.896,Simcolourproject_2stim_asymm_v5,2020.2.10,MacIntel,60,61025ae37ef11b136ea224fe,,,,,,,,,3213,29,55,1,0,0,response1disk,,7,0,-7,1,0,0,rectangle,0,-7,1,0,0,0,-7,1,0,0,0,107,107,158,1,,,,,,,,
,,,,,,,,,,,,,FF,,,,,,,,0.75,,,,,,,,,,,,,,,,,,,,,,61031efd1da4a14d8e9a86af,61036de4dee18f65f98ca7d7,2021-07-29_23h12.32.896,Simcolourproject_2stim_asymm_v5,2020.2.10,MacIntel,60,61025ae37ef11b136ea224fe,,,,,,,,,831,26,45,1,0,0,response1disk,,7,-4,-4,1,0,0,rectangle,-4,-4,1,0,0,-4,-4,1,0,0,0,108,108,101,1,,,,,,,,
,,,,,,,,,,,,,FF,,,,,,,,0.6,,,,,,,,,,,,,,,,,,,,,,61031efd1da4a14d8e9a86af,61036de4dee18f65f98ca7d7,2021-07-29_23h12.32.896,Simcolourproject_2stim_asymm_v5,2020.2.10,MacIntel,60,61025ae37ef11b136ea224fe,,,,,,,,,1635,22,36,1,0,0,response1disk,,7,10,4,1,0,0,rectangle,10,4,1,0,0,10,4,1,0,0,0,109,109,10,1,,,,,,,,
,,,,,,,,,,,,,FF,,,,,,,,0.833,,,,,,,,,,,,,,,,,,,,,,61031efd1da4a14d8e9a86af,61036de4dee18f65f98ca7d7,2021-07-29_23h12.32.896,Simcolourproject_2stim_asymm_v5,2020.2.10,MacIntel,60,61025ae37ef11b136ea224fe,,,,,,,,,3106,33,-64,1,0,0,response3disk,,4,16,-13,1,0,0,rectangle,16,-13,1,0,0,16,-13,1,0,0,0,110,110,119,1,,,,,,,,
,,,,,,,,,,,,,FF,,,,,,,,1.266,,,,,,,,,,,,,,,,,,,,,,61031efd1da4a14d8e9a86af,61036de4dee18f65f98ca7d7,2021-07-29_23h12.32.896,Simcolourproject_2stim_asymm_v5,2020.2.10,MacIntel,60,61025ae37ef11b136ea224fe,,,,,,,,,1445,-65,46,1,0,0,response7disk,,1,-12,13,1,0,0,rectangle,-12,13,1,0,0,-12,13,1,0,0,0,111,111,100,1,,,,,,,,
,,,,,,,,,,,,,FF,,,,,,,,0.667,,,,,,,,,,,,,,,,,,,,,,61031efd1da4a14d8e9a86af,61036de4dee18f65f98ca7d7,2021-07-29_23h12.32.896,Simcolourproject_2stim_asymm_v5,2020.2.10,MacIntel,60,61025ae37ef11b136ea224fe,,,,,,,,,4263,33,52,1,0,0,response1disk,,7,8,8,1,0,0,rectangle,8,8,1,0,0,8,8,1,0,0,0,112,112,153,1,,,,,,,,
,,,,,,,,,,,,,FF,,,,,,,,1.316,,,,,,,,,,,,,,,,,,,,,,61031efd1da4a14d8e9a86af,61036de4dee18f65f98ca7d7,2021-07-29_23h12.32.896,Simcolourproject_2stim_asymm_v5,2020.2.10,MacIntel,60,61025ae37ef11b136ea224fe,,,,,,,,,696,56,-33,1,0,0,response3disk,,5,13,5,1,0,0,rectangle,13,5,1,0,0,13,5,1,0,0,0,113,113,19,1,,,,,,,,
,,,,,,,,,,,,,FF,,,,,,,,0.933,,,,,,,,,,,,,,,,,,,,,,61031efd1da4a14d8e9a86af,61036de4dee18f65f98ca7d7,2021-07-29_23h12.32.896,Simcolourproject_2stim_asymm_v5,2020.2.10,MacIntel,60,61025ae37ef11b136ea224fe,,,,,,,,,852,35,53,1,0,0,response1disk,,7,21,9,1,0,0,rectangle,21,9,1,0,0,21,9,1,0,0,0,114,114,78,1,,,,,,,,
,,,,,,,,,,,,,FF,,,,,,,,0.899,,,,,,,,,,,,,,,,,,,,,,61031efd1da4a14d8e9a86af,61036de4dee18f65f98ca7d7,2021-07-29_23h12.32.896,Simcolourproject_2stim_asymm_v5,2020.2.10,MacIntel,60,61025ae37ef11b136ea224fe,,,,,,,,,2449,21,48,1,0,0,response1disk,,7,10,-14,1,0,0,rectangle,10,-14,1,0,0,10,-14,1,0,0,0,115,115,38,1,,,,,,,,
,,,,,,,,,,,,,FF,,,,,,,,1.35,,,,,,,,,,,,,,,,,,,,,,61031efd1da4a14d8e9a86af,61036de4dee18f65f98ca7d7,2021-07-29_23h12.32.896,Simcolourproject_2stim_asymm_v5,2020.2.10,MacIntel,60,61025ae37ef11b136ea224fe,,,,,,,,,1192,52,29,1,0,0,response1disk,,6,-6,13,1,0,0,rectangle,-6,13,1,0,0,-6,13,1,0,0,0,116,116,89,1,,,,,,,,
,,,,,,,,,,,,,FF,,,,,,,,1.001,,,,,,,,,,,,,,,,,,,,,,61031efd1da4a14d8e9a86af,61036de4dee18f65f98ca7d7,2021-07-29_23h12.32.896,Simcolourproject_2stim_asymm_v5,2020.2.10,MacIntel,60,61025ae37ef11b136ea224fe,,,,,,,,,726,-34,-76,1,0,0,response5disk,,3,-11,7,1,0,0,rectangle,-11,7,1,0,0,-11,7,1,0,0,0,117,117,143,1,,,,,,,,
,,,,,,,,,,,,,FF,,,,,,,,0.717,,,,,,,,,,,,,,,,,,,,,,61031efd1da4a14d8e9a86af,61036de4dee18f65f98ca7d7,2021-07-29_23h12.32.896,Simcolourproject_2stim_asymm_v5,2020.2.10,MacIntel,60,61025ae37ef11b136ea224fe,,,,,,,,,1590,46,-22,1,0,0,response3disk,,5,8,3,1,0,0,rectangle,8,3,1,0,0,8,3,1,0,0,0,118,118,18,1,,,,,,,,
,,,,,,,,,,,,,FF,,,,,,,,1.817,,,,,,,,,,,,,,,,,,,,,,61031efd1da4a14d8e9a86af,61036de4dee18f65f98ca7d7,2021-07-29_23h12.32.896,Simcolourproject_2stim_asymm_v5,2020.2.10,MacIntel,60,61025ae37ef11b136ea224fe,,,,,,,,,213,22,35,1,0,0,response1disk,,7,0,-4,1,0,0,rectangle,0,-4,1,0,0,0,-4,1,0,0,0,119,119,34,1,,,,,,,,
,,,,,,,,,,,,,FF,,,,,,,,1.184,,,,,,,,,,,,,,,,,,,,,,61031efd1da4a14d8e9a86af,61036de4dee18f65f98ca7d7,2021-07-29_23h12.32.896,Simcolourproject_2stim_asymm_v5,2020.2.10,MacIntel,60,61025ae37ef11b136ea224fe,,,,,,,,,2171,-30,-65,1,0,0,response5disk,,3,-3,-9,1,0,0,rectangle,-3,-9,1,0,0,-3,-9,1,0,0,0,120,120,43,1,,,,,,,,
,,,,,,,,,,,,,FF,,,,,,,,0.683,,,,,,,,,,,,,,,,,,,,,,61031efd1da4a14d8e9a86af,61036de4dee18f65f98ca7d7,2021-07-29_23h12.32.896,Simcolourproject_2stim_asymm_v5,2020.2.10,MacIntel,60,61025ae37ef11b136ea224fe,,,,,,,,,1462,-37,-66,1,0,0,response5disk,,3,-18,-3,1,0,0,rectangle,81,-34,1,0,0,6,9,1,0,0,0,121,121,74,1,,response3disk_3,TRUE,5,5,"[88,82,122,264,162,103,169,204,132,314,197,154,287,0,4,74,44,136,159,168]",1.449,rectangle
,,,,,,,,,,,,,FF,,,,,,,,0.849,,,,,,,,,,,,,,,,,,,,,,61031efd1da4a14d8e9a86af,61036de4dee18f65f98ca7d7,2021-07-29_23h12.32.896,Simcolourproject_2stim_asymm_v5,2020.2.10,MacIntel,60,61025ae37ef11b136ea224fe,,,,,,,,,688,28,39,1,0,0,response1disk,,7,7,-7,1,0,0,rectangle,7,-7,1,0,0,7,-7,1,0,0,0,122,122,77,1,,,,,,,,
,,,,,,,,,,,,,FF,,,,,,,,2.915,,,,,,,,,,,,,,,,,,,,,,61031efd1da4a14d8e9a86af,61036de4dee18f65f98ca7d7,2021-07-29_23h12.32.896,Simcolourproject_2stim_asymm_v5,2020.2.10,MacIntel,60,61025ae37ef11b136ea224fe,,,,,,,,,2196,36,53,1,0,0,response1disk,,7,23,4,1,0,0,rectangle,23,4,1,0,0,23,4,1,0,0,0,123,123,123,1,,,,,,,,
,,,,,,,,,,,,,FF,,,,,,,,0.683,,,,,,,,,,,,,,,,,,,,,,61031efd1da4a14d8e9a86af,61036de4dee18f65f98ca7d7,2021-07-29_23h12.32.896,Simcolourproject_2stim_asymm_v5,2020.2.10,MacIntel,60,61025ae37ef11b136ea224fe,,,,,,,,,1607,-22,-55,1,0,0,response5disk,,3,2,-1,1,0,0,rectangle,2,-1,1,0,0,2,-1,1,0,0,0,124,124,148,1,,,,,,,,
,,,,,,,,,,,,,FF,,,,,,,,0.532,,,,,,,,,,,,,,,,,,,,,,61031efd1da4a14d8e9a86af,61036de4dee18f65f98ca7d7,2021-07-29_23h12.32.896,Simcolourproject_2stim_asymm_v5,2020.2.10,MacIntel,60,61025ae37ef11b136ea224fe,,,,,,,,,3580,36,64,1,0,0,response1disk,,7,10,9,1,0,0,rectangle,10,9,1,0,0,10,9,1,0,0,0,125,125,108,1,,,,,,,,
,,,,,,,,,,,,,FF,,,,,,,,0.568,,,,,,,,,,,,,,,,,,,,,,61031efd1da4a14d8e9a86af,61036de4dee18f65f98ca7d7,2021-07-29_23h12.32.896,Simcolourproject_2stim_asymm_v5,2020.2.10,MacIntel,60,61025ae37ef11b136ea224fe,,,,,,,,,2512,-29,-40,1,0,0,response5disk,,3,-2,7,1,0,0,rectangle,-2,7,1,0,0,-2,7,1,0,0,0,126,126,29,1,,,,,,,,
,,,,,,,,,,,,,FF,,,,,,,,1.95,,,,,,,,,,,,,,,,,,,,,,61031efd1da4a14d8e9a86af,61036de4dee18f65f98ca7d7,2021-07-29_23h12.32.896,Simcolourproject_2stim_asymm_v5,2020.2.10,MacIntel,60,61025ae37ef11b136ea224fe,,,,,,,,,465,59,-23,1,0,0,response3disk,,5,-5,5,1,0,0,rectangle,-5,5,1,0,0,-5,5,1,0,0,0,127,127,58,1,,,,,,,,
,,,,,,,,,,,,,FF,,,,,,,,0.666,,,,,,,,,,,,,,,,,,,,,,61031efd1da4a14d8e9a86af,61036de4dee18f65f98ca7d7,2021-07-29_23h12.32.896,Simcolourproject_2stim_asymm_v5,2020.2.10,MacIntel,60,61025ae37ef11b136ea224fe,,,,,,,,,522,29,-72,1,0,0,response3disk,,4,3,11,1,0,0,rectangle,3,11,1,0,0,3,11,1,0,0,0,128,128,26,1,,,,,,,,
,,,,,,,,,,,,,FF,,,,,,,,0.9,,,,,,,,,,,,,,,,,,,,,,61031efd1da4a14d8e9a86af,61036de4dee18f65f98ca7d7,2021-07-29_23h12.32.896,Simcolourproject_2stim_asymm_v5,2020.2.10,MacIntel,60,61025ae37ef11b136ea224fe,,,,,,,,,1330,51,34,1,0,0,response1disk,,6,-5,-7,1,0,0,rectangle,-5,-7,1,0,0,-5,-7,1,0,0,0,129,129,107,1,,,,,,,,
,,,,,,,,,,,,,FF,,,,,,,,0.55,,,,,,,,,,,,,,,,,,,,,,61031efd1da4a14d8e9a86af,61036de4dee18f65f98ca7d7,2021-07-29_23h12.32.896,Simcolourproject_2stim_asymm_v5,2020.2.10,MacIntel,60,61025ae37ef11b136ea224fe,,,,,,,,,1741,16,39,1,0,0,response1disk,,7,3,-7,1,0,0,rectangle,3,-7,1,0,0,3,-7,1,0,0,0,130,130,155,1,,,,,,,,
,,,,,,,,,,,,,FF,,,,,,,,0.583,,,,,,,,,,,,,,,,,,,,,,61031efd1da4a14d8e9a86af,61036de4dee18f65f98ca7d7,2021-07-29_23h12.32.896,Simcolourproject_2stim_asymm_v5,2020.2.10,MacIntel,60,61025ae37ef11b136ea224fe,,,,,,,,,3412,19,48,1,0,0,response1disk,,7,3,-5,1,0,0,rectangle,42,-79,1,0,0,-5,12,1,0,0,0,131,131,145,1,,response3disk_3,TRUE,4,4,"[88,82,122,264,162,103,169,204,132,314,197,154,287,0,4,74,44,136,159,168]",1.648,rectangle
,,,,,,,,,,,,,FF,,,,,,,,3.083,,,,,,,,,,,,,,,,,,,,,,61031efd1da4a14d8e9a86af,61036de4dee18f65f98ca7d7,2021-07-29_23h12.32.896,Simcolourproject_2stim_asymm_v5,2020.2.10,MacIntel,60,61025ae37ef11b136ea224fe,,,,,,,,,566,25,54,1,0,0,response1disk,,7,7,10,1,0,0,rectangle,7,10,1,0,0,7,10,1,0,0,0,132,132,9,1,,,,,,,,
,,,,,,,,,,,,,FF,,,,,,,,3.916,,,,,,,,,,,,,,,,,,,,,,61031efd1da4a14d8e9a86af,61036de4dee18f65f98ca7d7,2021-07-29_23h12.32.896,Simcolourproject_2stim_asymm_v5,2020.2.10,MacIntel,60,61025ae37ef11b136ea224fe,,,,,,,,,4022,26,36,1,0,0,response1disk,,7,10,4,1,0,0,rectangle,10,4,1,0,0,10,4,1,0,0,0,133,133,32,1,,,,,,,,
,,,,,,,,,,,,,FF,,,,,,,,0.783,,,,,,,,,,,,,,,,,,,,,,61031efd1da4a14d8e9a86af,61036de4dee18f65f98ca7d7,2021-07-29_23h12.32.896,Simcolourproject_2stim_asymm_v5,2020.2.10,MacIntel,60,61025ae37ef11b136ea224fe,,,,,,,,,350,-42,-70,1,0,0,response5disk,,3,-1,0,1,0,0,rectangle,-1,0,1,0,0,-1,0,1,0,0,0,134,134,113,1,,,,,,,,
,,,,,,,,,,,,,FF,,,,,,,,1.051,,,,,,,,,,,,,,,,,,,,,,61031efd1da4a14d8e9a86af,61036de4dee18f65f98ca7d7,2021-07-29_23h12.32.896,Simcolourproject_2stim_asymm_v5,2020.2.10,MacIntel,60,61025ae37ef11b136ea224fe,,,,,,,,,407,23,69,1,0,0,response1disk,,7,15,-6,1,0,0,rectangle,96,-37,1,0,0,2,14,1,0,0,0,135,135,118,1,,response3disk_3,TRUE,5,5,"[88,82,122,264,162,103,169,204,132,314,197,154,287,0,4,74,44,136,159,168]",1.399,rectangle
,,,,,,,,,,,,,FF,,,,,,,,1.349,,,,,,,,,,,,,,,,,,,,,,61031efd1da4a14d8e9a86af,61036de4dee18f65f98ca7d7,2021-07-29_23h12.32.896,Simcolourproject_2stim_asymm_v5,2020.2.10,MacIntel,60,61025ae37ef11b136ea224fe,,,,,,,,,3635,-33,-74,1,0,0,response5disk,,3,-2,-14,1,0,0,rectangle,-2,-14,1,0,0,-2,-14,1,0,0,0,136,136,73,1,,,,,,,,
,,,,,,,,,,,,,FF,,,,,,,,1.067,,,,,,,,,,,,,,,,,,,,,,61031efd1da4a14d8e9a86af,61036de4dee18f65f98ca7d7,2021-07-29_23h12.32.896,Simcolourproject_2stim_asymm_v5,2020.2.10,MacIntel,60,61025ae37ef11b136ea224fe,,,,,,,,,4220,49,-70,1,0,0,response3disk,,4,15,-3,1,0,0,rectangle,15,-3,1,0,0,15,-3,1,0,0,0,137,137,157,1,,,,,,,,
,,,,,,,,,,,,,FF,,,,,,,,0.699,,,,,,,,,,,,,,,,,,,,,,61031efd1da4a14d8e9a86af,61036de4dee18f65f98ca7d7,2021-07-29_23h12.32.896,Simcolourproject_2stim_asymm_v5,2020.2.10,MacIntel,60,61025ae37ef11b136ea224fe,,,,,,,,,2403,24,63,1,0,0,response1disk,,7,13,0,1,0,0,rectangle,13,0,1,0,0,13,0,1,0,0,0,138,138,37,1,,,,,,,,
,,,,,,,,,,,,,FF,,,,,,,,1.434,,,,,,,,,,,,,,,,,,,,,,61031efd1da4a14d8e9a86af,61036de4dee18f65f98ca7d7,2021-07-29_23h12.32.896,Simcolourproject_2stim_asymm_v5,2020.2.10,MacIntel,60,61025ae37ef11b136ea224fe,,,,,,,,,3126,17,43,1,0,0,response1disk,,7,11,-4,1,0,0,rectangle,11,-4,1,0,0,11,-4,1,0,0,0,139,139,7,1,,,,,,,,
,,,,,,,,,,,,,FF,,,,,,,,2.616,,,,,,,,,,,,,,,,,,,,,,61031efd1da4a14d8e9a86af,61036de4dee18f65f98ca7d7,2021-07-29_23h12.32.896,Simcolourproject_2stim_asymm_v5,2020.2.10,MacIntel,60,61025ae37ef11b136ea224fe,,,,,,,,,3399,53,-31,1,0,0,response3disk,,5,10,-7,1,0,0,rectangle,10,-7,1,0,0,10,-7,1,0,0,0,140,140,102,1,,,,,,,,
,,,,,,,,,,,,,FF,,,,,,,,0.835,,,,,,,,,,,,,,,,,,,,,,61031efd1da4a14d8e9a86af,61036de4dee18f65f98ca7d7,2021-07-29_23h12.32.896,Simcolourproject_2stim_asymm_v5,2020.2.10,MacIntel,60,61025ae37ef11b136ea224fe,,,,,,,,,3177,26,59,1,0,0,response1disk,,7,2,-10,1,0,0,rectangle,2,-10,1,0,0,2,-10,1,0,0,0,141,141,48,1,,,,,,,,
,,,,,,,,,,,,,FF,,,,,,,,0.65,,,,,,,,,,,,,,,,,,,,,,61031efd1da4a14d8e9a86af,61036de4dee18f65f98ca7d7,2021-07-29_23h12.32.896,Simcolourproject_2stim_asymm_v5,2020.2.10,MacIntel,60,61025ae37ef11b136ea224fe,,,,,,,,,1615,-29,-57,1,0,0,response5disk,,3,-8,-6,1,0,0,rectangle,-8,-6,1,0,0,-8,-6,1,0,0,0,142,142,97,1,,,,,,,,
,,,,,,,,,,,,,FF,,,,,,,,0.733,,,,,,,,,,,,,,,,,,,,,,61031efd1da4a14d8e9a86af,61036de4dee18f65f98ca7d7,2021-07-29_23h12.32.896,Simcolourproject_2stim_asymm_v5,2020.2.10,MacIntel,60,61025ae37ef11b136ea224fe,,,,,,,,,4344,-34,64,1,0,0,response7disk,,0,-6,11,1,0,0,rectangle,-6,11,1,0,0,-6,11,1,0,0,0,143,143,86,1,,,,,,,,
,,,,,,,,,,,,,FF,,,,,,,,0.884,,,,,,,,,,,,,,,,,,,,,,61031efd1da4a14d8e9a86af,61036de4dee18f65f98ca7d7,2021-07-29_23h12.32.896,Simcolourproject_2stim_asymm_v5,2020.2.10,MacIntel,60,61025ae37ef11b136ea224fe,,,,,,,,,3808,26,51,1,0,0,response1disk,,7,15,-2,1,0,0,rectangle,15,-2,1,0,0,15,-2,1,0,0,0,144,144,67,1,,,,,,,,
,,,,,,,,,,,,,FF,,,,,,,,0.617,,,,,,,,,,,,,,,,,,,,,,61031efd1da4a14d8e9a86af,61036de4dee18f65f98ca7d7,2021-07-29_23h12.32.896,Simcolourproject_2stim_asymm_v5,2020.2.10,MacIntel,60,61025ae37ef11b136ea224fe,,,,,,,,,2517,36,58,1,0,0,response1disk,,7,15,1,1,0,0,rectangle,15,1,1,0,0,15,1,1,0,0,0,145,145,156,1,,,,,,,,
,,,,,,,,,,,,,FF,,,,,,,,0.55,,,,,,,,,,,,,,,,,,,,,,61031efd1da4a14d8e9a86af,61036de4dee18f65f98ca7d7,2021-07-29_23h12.32.896,Simcolourproject_2stim_asymm_v5,2020.2.10,MacIntel,60,61025ae37ef11b136ea224fe,,,,,,,,,2914,32,45,1,0,0,response1disk,,7,4,-10,1,0,0,rectangle,4,-10,1,0,0,4,-10,1,0,0,0,146,146,44,1,,,,,,,,
,,,,,,,,,,,,,FF,,,,,,,,1,,,,,,,,,,,,,,,,,,,,,,61031efd1da4a14d8e9a86af,61036de4dee18f65f98ca7d7,2021-07-29_23h12.32.896,Simcolourproject_2stim_asymm_v5,2020.2.10,MacIntel,60,61025ae37ef11b136ea224fe,,,,,,,,,106,57,-32,1,0,0,response3disk,,5,-1,8,1,0,0,rectangle,-1,8,1,0,0,-1,8,1,0,0,0,147,147,61,1,,,,,,,,
,,,,,,,,,,,,,FF,,,,,,,,0.816,,,,,,,,,,,,,,,,,,,,,,61031efd1da4a14d8e9a86af,61036de4dee18f65f98ca7d7,2021-07-29_23h12.32.896,Simcolourproject_2stim_asymm_v5,2020.2.10,MacIntel,60,61025ae37ef11b136ea224fe,,,,,,,,,645,17,44,1,0,0,response1disk,,7,6,-2,1,0,0,rectangle,6,-2,1,0,0,6,-2,1,0,0,0,148,148,133,1,,,,,,,,
,,,,,,,,,,,,,FF,,,,,,,,0.549,,,,,,,,,,,,,,,,,,,,,,61031efd1da4a14d8e9a86af,61036de4dee18f65f98ca7d7,2021-07-29_23h12.32.896,Simcolourproject_2stim_asymm_v5,2020.2.10,MacIntel,60,61025ae37ef11b136ea224fe,,,,,,,,,3852,24,35,1,0,0,response1disk,,7,4,0,1,0,0,rectangle,4,0,1,0,0,4,0,1,0,0,0,149,149,15,1,,,,,,,,
,,,,,,,,,,,,,FF,,,,,,,,0.883,,,,,,,,,,,,,,,,,,,,,,61031efd1da4a14d8e9a86af,61036de4dee18f65f98ca7d7,2021-07-29_23h12.32.896,Simcolourproject_2stim_asymm_v5,2020.2.10,MacIntel,60,61025ae37ef11b136ea224fe,,,,,,,,,767,28,34,1,0,0,response1disk,,7,11,11,1,0,0,rectangle,11,11,1,0,0,11,11,1,0,0,0,150,150,88,1,,,,,,,,
,,,,,,,,,,,,,FF,,,,,,,,1.117,,,,,,,,,,,,,,,,,,,,,,61031efd1da4a14d8e9a86af,61036de4dee18f65f98ca7d7,2021-07-29_23h12.32.896,Simcolourproject_2stim_asymm_v5,2020.2.10,MacIntel,60,61025ae37ef11b136ea224fe,,,,,,,,,2309,58,-38,1,0,0,response3disk,,5,11,1,1,0,0,rectangle,11,1,1,0,0,11,1,1,0,0,0,151,151,12,1,,,,,,,,
,,,,,,,,,,,,,FF,,,,,,,,1.966,,,,,,,,,,,,,,,,,,,,,,61031efd1da4a14d8e9a86af,61036de4dee18f65f98ca7d7,2021-07-29_23h12.32.896,Simcolourproject_2stim_asymm_v5,2020.2.10,MacIntel,60,61025ae37ef11b136ea224fe,,,,,,,,,3432,-61,39,1,0,0,response7disk,,1,2,3,1,0,0,rectangle,2,3,1,0,0,2,3,1,0,0,0,152,152,46,1,,,,,,,,
,,,,,,,,,,,,,FF,,,,,,,,0.599,,,,,,,,,,,,,,,,,,,,,,61031efd1da4a14d8e9a86af,61036de4dee18f65f98ca7d7,2021-07-29_23h12.32.896,Simcolourproject_2stim_asymm_v5,2020.2.10,MacIntel,60,61025ae37ef11b136ea224fe,,,,,,,,,371,33,60,1,0,0,response1disk,,7,16,3,1,0,0,rectangle,-33,-80,1,0,0,-6,13,1,0,0,0,153,153,24,1,,response5disk_3,TRUE,3,3,"[88,82,122,264,162,103,169,204,132,314,197,154,287,0,4,74,44,136,159,168]",1.716,rectangle
,,,,,,,,,,,,,FF,,,,,,,,1,,,,,,,,,,,,,,,,,,,,,,61031efd1da4a14d8e9a86af,61036de4dee18f65f98ca7d7,2021-07-29_23h12.32.896,Simcolourproject_2stim_asymm_v5,2020.2.10,MacIntel,60,61025ae37ef11b136ea224fe,,,,,,,,,1668,-28,48,1,0,0,response7disk,,0,-3,0,1,0,0,rectangle,-3,0,1,0,0,-3,0,1,0,0,0,154,154,91,1,,,,,,,,
,,,,,,,,,,,,,FF,,,,,,,,0.916,,,,,,,,,,,,,,,,,,,,,,61031efd1da4a14d8e9a86af,61036de4dee18f65f98ca7d7,2021-07-29_23h12.32.896,Simcolourproject_2stim_asymm_v5,2020.2.10,MacIntel,60,61025ae37ef11b136ea224fe,,,,,,,,,2578,31,55,1,0,0,response1disk,,7,10,6,1,0,0,rectangle,10,6,1,0,0,10,6,1,0,0,0,155,155,94,1,,,,,,,,
,,,,,,,,,,,,,FF,,,,,,,,0.734,,,,,,,,,,,,,,,,,,,,,,61031efd1da4a14d8e9a86af,61036de4dee18f65f98ca7d7,2021-07-29_23h12.32.896,Simcolourproject_2stim_asymm_v5,2020.2.10,MacIntel,60,61025ae37ef11b136ea224fe,,,,,,,,,3713,-26,-66,1,0,0,response5disk,,3,-1,-3,1,0,0,rectangle,-1,-3,1,0,0,-1,-3,1,0,0,0,156,156,140,1,,,,,,,,
,,,,,,,,,,,,,FF,,,,,,,,0.716,,,,,,,,,,,,,,,,,,,,,,61031efd1da4a14d8e9a86af,61036de4dee18f65f98ca7d7,2021-07-29_23h12.32.896,Simcolourproject_2stim_asymm_v5,2020.2.10,MacIntel,60,61025ae37ef11b136ea224fe,,,,,,,,,1974,25,53,1,0,0,response1disk,,7,8,0,1,0,0,rectangle,8,0,1,0,0,8,0,1,0,0,0,157,157,93,1,,,,,,,,
,,,,,,,,,,,,,FF,,,,,,,,0.583,,,,,,,,,,,,,,,,,,,,,,61031efd1da4a14d8e9a86af,61036de4dee18f65f98ca7d7,2021-07-29_23h12.32.896,Simcolourproject_2stim_asymm_v5,2020.2.10,MacIntel,60,61025ae37ef11b136ea224fe,,,,,,,,,1701,20,53,1,0,0,response1disk,,7,3,-10,1,0,0,rectangle,102,69,1,0,0,1,8,1,0,0,0,158,158,66,1,,response1disk_3,TRUE,6,6,"[88,82,122,264,162,103,169,204,132,314,197,154,287,0,4,74,44,136,159,168]",1.549,rectangle
,,,,,,,,,,,,,FF,,,,,,,,1.099,,,,,,,,,,,,,,,,,,,,,,61031efd1da4a14d8e9a86af,61036de4dee18f65f98ca7d7,2021-07-29_23h12.32.896,Simcolourproject_2stim_asymm_v5,2020.2.10,MacIntel,60,61025ae37ef11b136ea224fe,,,,,,,,,3058,58,-38,1,0,0,response3disk,,5,14,-5,1,0,0,rectangle,14,-5,1,0,0,14,-5,1,0,0,0,159,159,70,1,,,,,,,,
,,,,,,,,,,,,,FF,,,,,,,,0.665,,,,,,,,,,,,,,,,,,,,,,61031efd1da4a14d8e9a86af,61036de4dee18f65f98ca7d7,2021-07-29_23h12.32.896,Simcolourproject_2stim_asymm_v5,2020.2.10,MacIntel,60,61025ae37ef11b136ea224fe,,,,,,,,,3300,41,62,1,0,0,response1disk,,7,5,3,1,0,0,rectangle,5,3,1,0,0,5,3,1,0,0,1,0,160,35,1,,,,,,,,
,,,,,,,,,,,,,FF,,,,,,,,0.699,,,,,,,,,,,,,,,,,,,,,,61031efd1da4a14d8e9a86af,61036de4dee18f65f98ca7d7,2021-07-29_23h12.32.896,Simcolourproject_2stim_asymm_v5,2020.2.10,MacIntel,60,61025ae37ef11b136ea224fe,,,,,,,,,2128,23,60,1,0,0,response1disk,,7,-5,10,1,0,0,rectangle,41,-65,1,0,0,-5,6,1,0,0,1,1,161,94,1,,response3disk_3,TRUE,4,4,"[88,82,122,264,162,103,169,204,132,314,197,154,287,0,4,74,44,136,159,168]",1.166,rectangle
,,,,,,,,,,,,,FF,,,,,,,,1.033,,,,,,,,,,,,,,,,,,,,,,61031efd1da4a14d8e9a86af,61036de4dee18f65f98ca7d7,2021-07-29_23h12.32.896,Simcolourproject_2stim_asymm_v5,2020.2.10,MacIntel,60,61025ae37ef11b136ea224fe,,,,,,,,,2631,18,44,1,0,0,response1disk,,7,6,8,1,0,0,rectangle,6,8,1,0,0,6,8,1,0,0,1,2,162,19,1,,,,,,,,
,,,,,,,,,,,,,FF,,,,,,,,0.483,,,,,,,,,,,,,,,,,,,,,,61031efd1da4a14d8e9a86af,61036de4dee18f65f98ca7d7,2021-07-29_23h12.32.896,Simcolourproject_2stim_asymm_v5,2020.2.10,MacIntel,60,61025ae37ef11b136ea224fe,,,,,,,,,1401,34,48,1,0,0,response1disk,,7,10,1,1,0,0,rectangle,10,1,1,0,0,10,1,1,0,0,1,3,163,151,1,,,,,,,,
,,,,,,,,,,,,,FF,,,,,,,,0.9,,,,,,,,,,,,,,,,,,,,,,61031efd1da4a14d8e9a86af,61036de4dee18f65f98ca7d7,2021-07-29_23h12.32.896,Simcolourproject_2stim_asymm_v5,2020.2.10,MacIntel,60,61025ae37ef11b136ea224fe,,,,,,,,,530,-65,-36,1,0,0,response5disk,,2,10,11,1,0,0,rectangle,10,11,1,0,0,10,11,1,0,0,1,4,164,124,1,,,,,,,,
,,,,,,,,,,,,,FF,,,,,,,,0.466,,,,,,,,,,,,,,,,,,,,,,61031efd1da4a14d8e9a86af,61036de4dee18f65f98ca7d7,2021-07-29_23h12.32.896,Simcolourproject_2stim_asymm_v5,2020.2.10,MacIntel,60,61025ae37ef11b136ea224fe,,,,,,,,,1646,44,59,1,0,0,response1disk,,7,2,-9,1,0,0,rectangle,2,-9,1,0,0,2,-9,1,0,0,1,5,165,123,1,,,,,,,,
,,,,,,,,,,,,,FF,,,,,,,,0.7,,,,,,,,,,,,,,,,,,,,,,61031efd1da4a14d8e9a86af,61036de4dee18f65f98ca7d7,2021-07-29_23h12.32.896,Simcolourproject_2stim_asymm_v5,2020.2.10,MacIntel,60,61025ae37ef11b136ea224fe,,,,,,,,,1234,22,-75,1,0,0,response3disk,,4,0,0,1,0,0,rectangle,0,0,1,0,0,0,0,1,0,0,1,6,166,70,1,,,,,,,,
,,,,,,,,,,,,,FF,,,,,,,,0.583,,,,,,,,,,,,,,,,,,,,,,61031efd1da4a14d8e9a86af,61036de4dee18f65f98ca7d7,2021-07-29_23h12.32.896,Simcolourproject_2stim_asymm_v5,2020.2.10,MacIntel,60,61025ae37ef11b136ea224fe,,,,,,,,,2480,-25,65,1,0,0,response7disk,,0,5,3,1,0,0,rectangle,-66,-26,1,0,0,-17,-4,1,0,0,1,7,167,5,1,,response5disk_3,TRUE,2,2,"[88,82,122,264,162,103,169,204,132,314,197,154,287,0,4,74,44,136,159,168]",1.134,rectangle
,,,,,,,,,,,,,FF,,,,,,,,1.483,,,,,,,,,,,,,,,,,,,,,,61031efd1da4a14d8e9a86af,61036de4dee18f65f98ca7d7,2021-07-29_23h12.32.896,Simcolourproject_2stim_asymm_v5,2020.2.10,MacIntel,60,61025ae37ef11b136ea224fe,,,,,,,,,1543,61,-43,1,0,0,response3disk,,5,5,-3,1,0,0,rectangle,-68,43,1,0,0,-13,0,1,0,0,1,8,168,78,1,,response7disk_3,TRUE,1,1,"[88,82,122,264,162,103,169,204,132,314,197,154,287,0,4,74,44,136,159,168]",1.148,rectangle
,,,,,,,,,,,,,FF,,,,,,,,2.549,,,,,,,,,,,,,,,,,,,,,,61031efd1da4a14d8e9a86af,61036de4dee18f65f98ca7d7,2021-07-29_23h12.32.896,Simcolourproject_2stim_asymm_v5,2020.2.10,MacIntel,60,61025ae37ef11b136ea224fe,,,,,,,,,2044,75,-40,1,0,0,response3disk,,5,15,-2,1,0,0,rectangle,15,-2,1,0,0,15,-2,1,0,0,1,9,169,47,1,,,,,,,,
,,,,,,,,,,,,,FF,,,,,,,,1.199,,,,,,,,,,,,,,,,,,,,,,61031efd1da4a14d8e9a86af,61036de4dee18f65f98ca7d7,2021-07-29_23h12.32.896,Simcolourproject_2stim_asymm_v5,2020.2.10,MacIntel,60,61025ae37ef11b136ea224fe,,,,,,,,,619,-57,-38,1,0,0,response5disk,,2,-11,-8,1,0,0,rectangle,-11,-8,1,0,0,-11,-8,1,0,0,1,10,170,29,1,,,,,,,,
,,,,,,,,,,,,,FF,,,,,,,,1.299,,,,,,,,,,,,,,,,,,,,,,61031efd1da4a14d8e9a86af,61036de4dee18f65f98ca7d7,2021-07-29_23h12.32.896,Simcolourproject_2stim_asymm_v5,2020.2.10,MacIntel,60,61025ae37ef11b136ea224fe,,,,,,,,,1678,68,-38,1,0,0,response3disk,,5,-2,7,1,0,0,rectangle,-2,7,1,0,0,-2,7,1,0,0,1,11,171,100,1,,,,,,,,
,,,,,,,,,,,,,FF,,,,,,,,0.6,,,,,,,,,,,,,,,,,,,,,,61031efd1da4a14d8e9a86af,61036de4dee18f65f98ca7d7,2021-07-29_23h12.32.896,Simcolourproject_2stim_asymm_v5,2020.2.10,MacIntel,60,61025ae37ef11b136ea224fe,,,,,,,,,3458,25,72,1,0,0,response1disk,,7,8,-3,1,0,0,rectangle,8,-3,1,0,0,8,-3,1,0,0,1,12,172,84,1,,,,,,,,
,,,,,,,,,,,,,FF,,,,,,,,0.633,,,,,,,,,,,,,,,,,,,,,,61031efd1da4a14d8e9a86af,61036de4dee18f65f98ca7d7,2021-07-29_23h12.32.896,Simcolourproject_2stim_asymm_v5,2020.2.10,MacIntel,60,61025ae37ef11b136ea224fe,,,,,,,,,1301,-33,-61,1,0,0,response5disk,,3,-9,5,1,0,0,rectangle,-9,5,1,0,0,-9,5,1,0,0,1,13,173,136,1,,,,,,,,
,,,,,,,,,,,,,FF,,,,,,,,0.633,,,,,,,,,,,,,,,,,,,,,,61031efd1da4a14d8e9a86af,61036de4dee18f65f98ca7d7,2021-07-29_23h12.32.896,Simcolourproject_2stim_asymm_v5,2020.2.10,MacIntel,60,61025ae37ef11b136ea224fe,,,,,,,,,1873,20,51,1,0,0,response1disk,,7,2,-2,1,0,0,rectangle,2,-2,1,0,0,2,-2,1,0,0,1,14,174,142,1,,,,,,,,
,,,,,,,,,,,,,FF,,,,,,,,1.267,,,,,,,,,,,,,,,,,,,,,,61031efd1da4a14d8e9a86af,61036de4dee18f65f98ca7d7,2021-07-29_23h12.32.896,Simcolourproject_2stim_asymm_v5,2020.2.10,MacIntel,60,61025ae37ef11b136ea224fe,,,,,,,,,1285,23,75,1,0,0,response1disk,,7,11,3,1,0,0,rectangle,11,3,1,0,0,11,3,1,0,0,1,15,175,60,1,,,,,,,,
,,,,,,,,,,,,,FF,,,,,,,,0.466,,,,,,,,,,,,,,,,,,,,,,61031efd1da4a14d8e9a86af,61036de4dee18f65f98ca7d7,2021-07-29_23h12.32.896,Simcolourproject_2stim_asymm_v5,2020.2.10,MacIntel,60,61025ae37ef11b136ea224fe,,,,,,,,,1182,33,61,1,0,0,response1disk,,7,17,8,1,0,0,rectangle,17,8,1,0,0,17,8,1,0,0,1,16,176,18,1,,,,,,,,
,,,,,,,,,,,,,FF,,,,,,,,2.283,,,,,,,,,,,,,,,,,,,,,,61031efd1da4a14d8e9a86af,61036de4dee18f65f98ca7d7,2021-07-29_23h12.32.896,Simcolourproject_2stim_asymm_v5,2020.2.10,MacIntel,60,61025ae37ef11b136ea224fe,,,,,,,,,4345,-68,32,1,0,0,response7disk,,1,-21,6,1,0,0,rectangle,-21,6,1,0,0,-21,6,1,0,0,1,17,177,152,1,,,,,,,,
,,,,,,,,,,,,,FF,,,,,,,,0.465,,,,,,,,,,,,,,,,,,,,,,61031efd1da4a14d8e9a86af,61036de4dee18f65f98ca7d7,2021-07-29_23h12.32.896,Simcolourproject_2stim_asymm_v5,2020.2.10,MacIntel,60,61025ae37ef11b136ea224fe,,,,,,,,,3935,48,48,1,0,0,response1disk,,7,2,-3,1,0,0,rectangle,2,-3,1,0,0,2,-3,1,0,0,1,18,178,109,1,,,,,,,,
,,,,,,,,,,,,,FF,,,,,,,,0.834,,,,,,,,,,,,,,,,,,,,,,61031efd1da4a14d8e9a86af,61036de4dee18f65f98ca7d7,2021-07-29_23h12.32.896,Simcolourproject_2stim_asymm_v5,2020.2.10,MacIntel,60,61025ae37ef11b136ea224fe,,,,,,,,,3514,-32,-65,1,0,0,response5disk,,3,-7,8,1,0,0,rectangle,-7,8,1,0,0,-7,8,1,0,0,1,19,179,10,1,,,,,,,,
,,,,,,,,,,,,,FF,,,,,,,,0.567,,,,,,,,,,,,,,,,,,,,,,61031efd1da4a14d8e9a86af,61036de4dee18f65f98ca7d7,2021-07-29_23h12.32.896,Simcolourproject_2stim_asymm_v5,2020.2.10,MacIntel,60,61025ae37ef11b136ea224fe,,,,,,,,,2555,21,49,1,0,0,response1disk,,7,2,7,1,0,0,rectangle,2,7,1,0,0,2,7,1,0,0,1,20,180,49,1,,,,,,,,
,,,,,,,,,,,,,FF,,,,,,,,0.399,,,,,,,,,,,,,,,,,,,,,,61031efd1da4a14d8e9a86af,61036de4dee18f65f98ca7d7,2021-07-29_23h12.32.896,Simcolourproject_2stim_asymm_v5,2020.2.10,MacIntel,60,61025ae37ef11b136ea224fe,,,,,,,,,3270,24,54,1,0,0,response1disk,,7,7,2,1,0,0,rectangle,7,2,1,0,0,7,2,1,0,0,1,21,181,130,1,,,,,,,,
,,,,,,,,,,,,,FF,,,,,,,,0.383,,,,,,,,,,,,,,,,,,,,,,61031efd1da4a14d8e9a86af,61036de4dee18f65f98ca7d7,2021-07-29_23h12.32.896,Simcolourproject_2stim_asymm_v5,2020.2.10,MacIntel,60,61025ae37ef11b136ea224fe,,,,,,,,,2876,30,42,1,0,0,response1disk,,7,10,1,1,0,0,rectangle,10,1,1,0,0,10,1,1,0,0,1,22,182,99,1,,,,,,,,
,,,,,,,,,,,,,FF,,,,,,,,1.199,,,,,,,,,,,,,,,,,,,,,,61031efd1da4a14d8e9a86af,61036de4dee18f65f98ca7d7,2021-07-29_23h12.32.896,Simcolourproject_2stim_asymm_v5,2020.2.10,MacIntel,60,61025ae37ef11b136ea224fe,,,,,,,,,1514,64,-39,1,0,0,response3disk,,5,7,6,1,0,0,rectangle,7,6,1,0,0,7,6,1,0,0,1,23,183,66,1,,,,,,,,
,,,,,,,,,,,,,FF,,,,,,,,0.516,,,,,,,,,,,,,,,,,,,,,,61031efd1da4a14d8e9a86af,61036de4dee18f65f98ca7d7,2021-07-29_23h12.32.896,Simcolourproject_2stim_asymm_v5,2020.2.10,MacIntel,60,61025ae37ef11b136ea224fe,,,,,,,,,1515,43,-33,1,0,0,response3disk,,5,0,-10,1,0,0,rectangle,0,-10,1,0,0,0,-10,1,0,0,1,24,184,155,1,,,,,,,,
,,,,,,,,,,,,,FF,,,,,,,,0.566,,,,,,,,,,,,,,,,,,,,,,61031efd1da4a14d8e9a86af,61036de4dee18f65f98ca7d7,2021-07-29_23h12.32.896,Simcolourproject_2stim_asymm_v5,2020.2.10,MacIntel,60,61025ae37ef11b136ea224fe,,,,,,,,,3453,23,39,1,0,0,response1disk,,7,10,5,1,0,0,rectangle,10,5,1,0,0,10,5,1,0,0,1,25,185,92,1,,,,,,,,
,,,,,,,,,,,,,FF,,,,,,,,1.249,,,,,,,,,,,,,,,,,,,,,,61031efd1da4a14d8e9a86af,61036de4dee18f65f98ca7d7,2021-07-29_23h12.32.896,Simcolourproject_2stim_asymm_v5,2020.2.10,MacIntel,60,61025ae37ef11b136ea224fe,,,,,,,,,1959,51,-24,1,0,0,response3disk,,5,9,8,1,0,0,rectangle,9,8,1,0,0,9,8,1,0,0,1,26,186,34,1,,,,,,,,
,,,,,,,,,,,,,FF,,,,,,,,0.383,,,,,,,,,,,,,,,,,,,,,,61031efd1da4a14d8e9a86af,61036de4dee18f65f98ca7d7,2021-07-29_23h12.32.896,Simcolourproject_2stim_asymm_v5,2020.2.10,MacIntel,60,61025ae37ef11b136ea224fe,,,,,,,,,3143,23,54,1,0,0,response1disk,,7,21,6,1,0,0,rectangle,21,6,1,0,0,21,6,1,0,0,1,27,187,0,1,,,,,,,,
,,,,,,,,,,,,,FF,,,,,,,,2.182,,,,,,,,,,,,,,,,,,,,,,61031efd1da4a14d8e9a86af,61036de4dee18f65f98ca7d7,2021-07-29_23h12.32.896,Simcolourproject_2stim_asymm_v5,2020.2.10,MacIntel,60,61025ae37ef11b136ea224fe,,,,,,,,,1231,76,15,1,0,0,response1disk,,6,20,8,1,0,0,rectangle,20,8,1,0,0,20,8,1,0,0,1,28,188,83,1,,,,,,,,
,,,,,,,,,,,,,FF,,,,,,,,1.7,,,,,,,,,,,,,,,,,,,,,,61031efd1da4a14d8e9a86af,61036de4dee18f65f98ca7d7,2021-07-29_23h12.32.896,Simcolourproject_2stim_asymm_v5,2020.2.10,MacIntel,60,61025ae37ef11b136ea224fe,,,,,,,,,3395,-36,-65,1,0,0,response5disk,,3,-21,-12,1,0,0,rectangle,-21,-12,1,0,0,-21,-12,1,0,0,1,29,189,58,1,,,,,,,,
,,,,,,,,,,,,,FF,,,,,,,,0.499,,,,,,,,,,,,,,,,,,,,,,61031efd1da4a14d8e9a86af,61036de4dee18f65f98ca7d7,2021-07-29_23h12.32.896,Simcolourproject_2stim_asymm_v5,2020.2.10,MacIntel,60,61025ae37ef11b136ea224fe,,,,,,,,,41,16,39,1,0,0,response1disk,,7,12,-9,1,0,0,rectangle,12,-9,1,0,0,12,-9,1,0,0,1,30,190,43,1,,,,,,,,
,,,,,,,,,,,,,FF,,,,,,,,0.967,,,,,,,,,,,,,,,,,,,,,,61031efd1da4a14d8e9a86af,61036de4dee18f65f98ca7d7,2021-07-29_23h12.32.896,Simcolourproject_2stim_asymm_v5,2020.2.10,MacIntel,60,61025ae37ef11b136ea224fe,,,,,,,,,3536,25,44,1,0,0,response1disk,,7,16,3,1,0,0,rectangle,16,3,1,0,0,16,3,1,0,0,1,31,191,87,1,,,,,,,,
,,,,,,,,,,,,,FF,,,,,,,,0.434,,,,,,,,,,,,,,,,,,,,,,61031efd1da4a14d8e9a86af,61036de4dee18f65f98ca7d7,2021-07-29_23h12.32.896,Simcolourproject_2stim_asymm_v5,2020.2.10,MacIntel,60,61025ae37ef11b136ea224fe,,,,,,,,,843,18,46,1,0,0,response1disk,,7,5,-2,1,0,0,rectangle,5,-2,1,0,0,5,-2,1,0,0,1,32,192,135,1,,,,,,,,
,,,,,,,,,,,,,FF,,,,,,,,0.467,,,,,,,,,,,,,,,,,,,,,,61031efd1da4a14d8e9a86af,61036de4dee18f65f98ca7d7,2021-07-29_23h12.32.896,Simcolourproject_2stim_asymm_v5,2020.2.10,MacIntel,60,61025ae37ef11b136ea224fe,,,,,,,,,3605,24,39,1,0,0,response1disk,,7,-6,3,1,0,0,rectangle,-6,3,1,0,0,-6,3,1,0,0,1,33,193,63,1,,,,,,,,
,,,,,,,,,,,,,FF,,,,,,,,0.782,,,,,,,,,,,,,,,,,,,,,,61031efd1da4a14d8e9a86af,61036de4dee18f65f98ca7d7,2021-07-29_23h12.32.896,Simcolourproject_2stim_asymm_v5,2020.2.10,MacIntel,60,61025ae37ef11b136ea224fe,,,,,,,,,2605,-47,-30,1,0,0,response5disk,,2,-8,-2,1,0,0,rectangle,-8,-2,1,0,0,-8,-2,1,0,0,1,34,194,114,1,,,,,,,,
,,,,,,,,,,,,,FF,,,,,,,,0.4,,,,,,,,,,,,,,,,,,,,,,61031efd1da4a14d8e9a86af,61036de4dee18f65f98ca7d7,2021-07-29_23h12.32.896,Simcolourproject_2stim_asymm_v5,2020.2.10,MacIntel,60,61025ae37ef11b136ea224fe,,,,,,,,,2458,22,42,1,0,0,response1disk,,7,5,5,1,0,0,rectangle,5,5,1,0,0,5,5,1,0,0,1,35,195,108,1,,,,,,,,
,,,,,,,,,,,,,FF,,,,,,,,0.683,,,,,,,,,,,,,,,,,,,,,,61031efd1da4a14d8e9a86af,61036de4dee18f65f98ca7d7,2021-07-29_23h12.32.896,Simcolourproject_2stim_asymm_v5,2020.2.10,MacIntel,60,61025ae37ef11b136ea224fe,,,,,,,,,1824,-40,-19,1,0,0,response5disk,,2,-18,-8,1,0,0,rectangle,70,-28,1,0,0,0,-9,1,0,0,1,36,196,46,1,,response3disk_3,TRUE,5,5,"[88,82,122,264,162,103,169,204,132,314,197,154,287,0,4,74,44,136,159,168]",1.533,rectangle
,,,,,,,,,,,,,FF,,,,,,,,5.417,,,,,,,,,,,,,,,,,,,,,,61031efd1da4a14d8e9a86af,61036de4dee18f65f98ca7d7,2021-07-29_23h12.32.896,Simcolourproject_2stim_asymm_v5,2020.2.10,MacIntel,60,61025ae37ef11b136ea224fe,,,,,,,,,3634,29,-75,1,0,0,response3disk,,4,-2,-3,1,0,0,rectangle,-2,-3,1,0,0,-2,-3,1,0,0,1,37,197,86,1,,,,,,,,
,,,,,,,,,,,,,FF,,,,,,,,1.267,,,,,,,,,,,,,,,,,,,,,,61031efd1da4a14d8e9a86af,61036de4dee18f65f98ca7d7,2021-07-29_23h12.32.896,Simcolourproject_2stim_asymm_v5,2020.2.10,MacIntel,60,61025ae37ef11b136ea224fe,,,,,,,,,4108,20,-64,1,0,0,response3disk,,4,-1,6,1,0,0,rectangle,-1,6,1,0,0,-1,6,1,0,0,1,38,198,106,1,,,,,,,,
,,,,,,,,,,,,,FF,,,,,,,,0.967,,,,,,,,,,,,,,,,,,,,,,61031efd1da4a14d8e9a86af,61036de4dee18f65f98ca7d7,2021-07-29_23h12.32.896,Simcolourproject_2stim_asymm_v5,2020.2.10,MacIntel,60,61025ae37ef11b136ea224fe,,,,,,,,,3758,19,53,1,0,0,response1disk,,7,8,10,1,0,0,rectangle,8,10,1,0,0,8,10,1,0,0,1,39,199,6,1,,,,,,,,
,,,,,,,,,,,,,FF,,,,,,,,0.566,,,,,,,,,,,,,,,,,,,,,,61031efd1da4a14d8e9a86af,61036de4dee18f65f98ca7d7,2021-07-29_23h12.32.896,Simcolourproject_2stim_asymm_v5,2020.2.10,MacIntel,60,61025ae37ef11b136ea224fe,,,,,,,,,2062,37,48,1,0,0,response1disk,,7,3,-9,1,0,0,rectangle,3,-9,1,0,0,3,-9,1,0,0,1,40,200,62,1,,,,,,,,
,,,,,,,,,,,,,FF,,,,,,,,10.102,,,,,,,,,,,,,,,,,,,,,,61031efd1da4a14d8e9a86af,61036de4dee18f65f98ca7d7,2021-07-29_23h12.32.896,Simcolourproject_2stim_asymm_v5,2020.2.10,MacIntel,60,61025ae37ef11b136ea224fe,,,,,,,,,1805,28,54,1,0,0,response1disk,,7,8,-5,1,0,0,rectangle,8,-5,1,0,0,8,-5,1,0,0,1,41,201,145,1,,,,,,,,
,,,,,,,,,,,,,FF,,,,,,,,0.632,,,,,,,,,,,,,,,,,,,,,,61031efd1da4a14d8e9a86af,61036de4dee18f65f98ca7d7,2021-07-29_23h12.32.896,Simcolourproject_2stim_asymm_v5,2020.2.10,MacIntel,60,61025ae37ef11b136ea224fe,,,,,,,,,2587,19,40,1,0,0,response1disk,,7,7,5,1,0,0,rectangle,7,5,1,0,0,7,5,1,0,0,1,42,202,115,1,,,,,,,,
,,,,,,,,,,,,,FF,,,,,,,,0.916,,,,,,,,,,,,,,,,,,,,,,61031efd1da4a14d8e9a86af,61036de4dee18f65f98ca7d7,2021-07-29_23h12.32.896,Simcolourproject_2stim_asymm_v5,2020.2.10,MacIntel,60,61025ae37ef11b136ea224fe,,,,,,,,,1930,37,-52,1,0,0,response3disk,,4,13,-11,1,0,0,rectangle,79,49,1,0,0,4,-10,1,0,0,1,43,203,39,1,,response1disk_3,TRUE,6,6,"[88,82,122,264,162,103,169,204,132,314,197,154,287,0,4,74,44,136,159,168]",1.25,rectangle
,,,,,,,,,,,,,FF,,,,,,,,0.917,,,,,,,,,,,,,,,,,,,,,,61031efd1da4a14d8e9a86af,61036de4dee18f65f98ca7d7,2021-07-29_23h12.32.896,Simcolourproject_2stim_asymm_v5,2020.2.10,MacIntel,60,61025ae37ef11b136ea224fe,,,,,,,,,3197,-57,-35,1,0,0,response5disk,,2,-5,15,1,0,0,rectangle,-5,15,1,0,0,-5,15,1,0,0,1,44,204,147,1,,,,,,,,
,,,,,,,,,,,,,FF,,,,,,,,0.532,,,,,,,,,,,,,,,,,,,,,,61031efd1da4a14d8e9a86af,61036de4dee18f65f98ca7d7,2021-07-29_23h12.32.896,Simcolourproject_2stim_asymm_v5,2020.2.10,MacIntel,60,61025ae37ef11b136ea224fe,,,,,,,,,2014,26,73,1,0,0,response1disk,,7,0,7,1,0,0,rectangle,0,7,1,0,0,0,7,1,0,0,1,45,205,14,1,,,,,,,,
,,,,,,,,,,,,,FF,,,,,,,,0.499,,,,,,,,,,,,,,,,,,,,,,61031efd1da4a14d8e9a86af,61036de4dee18f65f98ca7d7,2021-07-29_23h12.32.896,Simcolourproject_2stim_asymm_v5,2020.2.10,MacIntel,60,61025ae37ef11b136ea224fe,,,,,,,,,1346,28,53,1,0,0,response1disk,,7,6,-6,1,0,0,rectangle,6,-6,1,0,0,6,-6,1,0,0,1,46,206,95,1,,,,,,,,
,,,,,,,,,,,,,FF,,,,,,,,0.516,,,,,,,,,,,,,,,,,,,,,,61031efd1da4a14d8e9a86af,61036de4dee18f65f98ca7d7,2021-07-29_23h12.32.896,Simcolourproject_2stim_asymm_v5,2020.2.10,MacIntel,60,61025ae37ef11b136ea224fe,,,,,,,,,2324,27,43,1,0,0,response1disk,,7,5,-10,1,0,0,rectangle,5,-10,1,0,0,5,-10,1,0,0,1,47,207,65,1,,,,,,,,
,,,,,,,,,,,,,FF,,,,,,,,0.65,,,,,,,,,,,,,,,,,,,,,,61031efd1da4a14d8e9a86af,61036de4dee18f65f98ca7d7,2021-07-29_23h12.32.896,Simcolourproject_2stim_asymm_v5,2020.2.10,MacIntel,60,61025ae37ef11b136ea224fe,,,,,,,,,2224,28,46,1,0,0,response1disk,,7,9,3,1,0,0,rectangle,9,3,1,0,0,9,3,1,0,0,1,48,208,16,1,,,,,,,,
,,,,,,,,,,,,,FF,,,,,,,,0.733,,,,,,,,,,,,,,,,,,,,,,61031efd1da4a14d8e9a86af,61036de4dee18f65f98ca7d7,2021-07-29_23h12.32.896,Simcolourproject_2stim_asymm_v5,2020.2.10,MacIntel,60,61025ae37ef11b136ea224fe,,,,,,,,,1219,-21,-68,1,0,0,response5disk,,3,1,-11,1,0,0,rectangle,1,-11,1,0,0,1,-11,1,0,0,1,49,209,93,1,,,,,,,,
,,,,,,,,,,,,,FF,,,,,,,,1.183,,,,,,,,,,,,,,,,,,,,,,61031efd1da4a14d8e9a86af,61036de4dee18f65f98ca7d7,2021-07-29_23h12.32.896,Simcolourproject_2stim_asymm_v5,2020.2.10,MacIntel,60,61025ae37ef11b136ea224fe,,,,,,,,,3543,28,-79,1,0,0,response3disk,,4,2,-11,1,0,0,rectangle,2,-11,1,0,0,2,-11,1,0,0,1,50,210,103,1,,,,,,,,
,,,,,,,,,,,,,FF,,,,,,,,0.683,,,,,,,,,,,,,,,,,,,,,,61031efd1da4a14d8e9a86af,61036de4dee18f65f98ca7d7,2021-07-29_23h12.32.896,Simcolourproject_2stim_asymm_v5,2020.2.10,MacIntel,60,61025ae37ef11b136ea224fe,,,,,,,,,1986,23,58,1,0,0,response1disk,,7,20,3,1,0,0,rectangle,20,3,1,0,0,20,3,1,0,0,1,51,211,157,1,,,,,,,,
,,,,,,,,,,,,,FF,,,,,,,,0.783,,,,,,,,,,,,,,,,,,,,,,61031efd1da4a14d8e9a86af,61036de4dee18f65f98ca7d7,2021-07-29_23h12.32.896,Simcolourproject_2stim_asymm_v5,2020.2.10,MacIntel,60,61025ae37ef11b136ea224fe,,,,,,,,,1360,29,40,1,0,0,response1disk,,7,10,-5,1,0,0,rectangle,10,-5,1,0,0,10,-5,1,0,0,1,52,212,69,1,,,,,,,,
,,,,,,,,,,,,,FF,,,,,,,,1.067,,,,,,,,,,,,,,,,,,,,,,61031efd1da4a14d8e9a86af,61036de4dee18f65f98ca7d7,2021-07-29_23h12.32.896,Simcolourproject_2stim_asymm_v5,2020.2.10,MacIntel,60,61025ae37ef11b136ea224fe,,,,,,,,,2110,59,-32,1,0,0,response3disk,,5,11,10,1,0,0,rectangle,11,10,1,0,0,11,10,1,0,0,1,53,213,139,1,,,,,,,,
,,,,,,,,,,,,,FF,,,,,,,,1.2,,,,,,,,,,,,,,,,,,,,,,61031efd1da4a14d8e9a86af,61036de4dee18f65f98ca7d7,2021-07-29_23h12.32.896,Simcolourproject_2stim_asymm_v5,2020.2.10,MacIntel,60,61025ae37ef11b136ea224fe,,,,,,,,,1188,62,30,1,0,0,response1disk,,6,23,6,1,0,0,rectangle,23,6,1,0,0,23,6,1,0,0,1,54,214,44,1,,,,,,,,
,,,,,,,,,,,,,FF,,,,,,,,0.549,,,,,,,,,,,,,,,,,,,,,,61031efd1da4a14d8e9a86af,61036de4dee18f65f98ca7d7,2021-07-29_23h12.32.896,Simcolourproject_2stim_asymm_v5,2020.2.10,MacIntel,60,61025ae37ef11b136ea224fe,,,,,,,,,3360,34,41,1,0,0,response1disk,,7,24,10,1,0,0,rectangle,24,10,1,0,0,24,10,1,0,0,1,55,215,50,1,,,,,,,,
,,,,,,,,,,,,,FF,,,,,,,,1.116,,,,,,,,,,,,,,,,,,,,,,61031efd1da4a14d8e9a86af,61036de4dee18f65f98ca7d7,2021-07-29_23h12.32.896,Simcolourproject_2stim_asymm_v5,2020.2.10,MacIntel,60,61025ae37ef11b136ea224fe,,,,,,,,,1906,31,-60,1,0,0,response3disk,,4,11,-2,1,0,0,rectangle,11,-2,1,0,0,11,-2,1,0,0,1,56,216,77,1,,,,,,,,
,,,,,,,,,,,,,FF,,,,,,,,0.85,,,,,,,,,,,,,,,,,,,,,,61031efd1da4a14d8e9a86af,61036de4dee18f65f98ca7d7,2021-07-29_23h12.32.896,Simcolourproject_2stim_asymm_v5,2020.2.10,MacIntel,60,61025ae37ef11b136ea224fe,,,,,,,,,381,52,-34,1,0,0,response3disk,,5,4,-2,1,0,0,rectangle,4,-2,1,0,0,4,-2,1,0,0,1,57,217,22,1,,,,,,,,
,,,,,,,,,,,,,FF,,,,,,,,0.583,,,,,,,,,,,,,,,,,,,,,,61031efd1da4a14d8e9a86af,61036de4dee18f65f98ca7d7,2021-07-29_23h12.32.896,Simcolourproject_2stim_asymm_v5,2020.2.10,MacIntel,60,61025ae37ef11b136ea224fe,,,,,,,,,1344,18,40,1,0,0,response1disk,,7,18,-9,1,0,0,rectangle,18,-9,1,0,0,18,-9,1,0,0,1,58,218,9,1,,,,,,,,
,,,,,,,,,,,,,FF,,,,,,,,0.95,,,,,,,,,,,,,,,,,,,,,,61031efd1da4a14d8e9a86af,61036de4dee18f65f98ca7d7,2021-07-29_23h12.32.896,Simcolourproject_2stim_asymm_v5,2020.2.10,MacIntel,60,61025ae37ef11b136ea224fe,,,,,,,,,4107,31,-61,1,0,0,response3disk,,4,19,0,1,0,0,rectangle,19,0,1,0,0,19,0,1,0,0,1,59,219,97,1,,,,,,,,
,,,,,,,,,,,,,FF,,,,,,,,0.449,,,,,,,,,,,,,,,,,,,,,,61031efd1da4a14d8e9a86af,61036de4dee18f65f98ca7d7,2021-07-29_23h12.32.896,Simcolourproject_2stim_asymm_v5,2020.2.10,MacIntel,60,61025ae37ef11b136ea224fe,,,,,,,,,3569,28,36,1,0,0,response1disk,,7,28,10,1,0,0,rectangle,28,10,1,0,0,28,10,1,0,0,1,60,220,74,1,,,,,,,,
,,,,,,,,,,,,,FF,,,,,,,,0.449,,,,,,,,,,,,,,,,,,,,,,61031efd1da4a14d8e9a86af,61036de4dee18f65f98ca7d7,2021-07-29_23h12.32.896,Simcolourproject_2stim_asymm_v5,2020.2.10,MacIntel,60,61025ae37ef11b136ea224fe,,,,,,,,,2287,32,39,1,0,0,response1disk,,7,10,-4,1,0,0,rectangle,10,-4,1,0,0,10,-4,1,0,0,1,61,221,82,1,,,,,,,,
,,,,,,,,,,,,,FF,,,,,,,,0.416,,,,,,,,,,,,,,,,,,,,,,61031efd1da4a14d8e9a86af,61036de4dee18f65f98ca7d7,2021-07-29_23h12.32.896,Simcolourproject_2stim_asymm_v5,2020.2.10,MacIntel,60,61025ae37ef11b136ea224fe,,,,,,,,,3218,16,42,1,0,0,response1disk,,7,15,-3,1,0,0,rectangle,15,-3,1,0,0,15,-3,1,0,0,1,62,222,128,1,,,,,,,,
,,,,,,,,,,,,,FF,,,,,,,,0.467,,,,,,,,,,,,,,,,,,,,,,61031efd1da4a14d8e9a86af,61036de4dee18f65f98ca7d7,2021-07-29_23h12.32.896,Simcolourproject_2stim_asymm_v5,2020.2.10,MacIntel,60,61025ae37ef11b136ea224fe,,,,,,,,,2801,16,44,1,0,0,response1disk,,7,13,-8,1,0,0,rectangle,13,-8,1,0,0,13,-8,1,0,0,1,63,223,101,1,,,,,,,,
,,,,,,,,,,,,,FF,,,,,,,,0.432,,,,,,,,,,,,,,,,,,,,,,61031efd1da4a14d8e9a86af,61036de4dee18f65f98ca7d7,2021-07-29_23h12.32.896,Simcolourproject_2stim_asymm_v5,2020.2.10,MacIntel,60,61025ae37ef11b136ea224fe,,,,,,,,,2402,30,44,1,0,0,response1disk,,7,21,2,1,0,0,rectangle,21,2,1,0,0,21,2,1,0,0,1,64,224,153,1,,,,,,,,
,,,,,,,,,,,,,FF,,,,,,,,0.885,,,,,,,,,,,,,,,,,,,,,,61031efd1da4a14d8e9a86af,61036de4dee18f65f98ca7d7,2021-07-29_23h12.32.896,Simcolourproject_2stim_asymm_v5,2020.2.10,MacIntel,60,61025ae37ef11b136ea224fe,,,,,,,,,265,-56,-34,1,0,0,response5disk,,2,-21,-2,1,0,0,rectangle,-21,-2,1,0,0,-21,-2,1,0,0,1,65,225,57,1,,,,,,,,
,,,,,,,,,,,,,FF,,,,,,,,0.466,,,,,,,,,,,,,,,,,,,,,,61031efd1da4a14d8e9a86af,61036de4dee18f65f98ca7d7,2021-07-29_23h12.32.896,Simcolourproject_2stim_asymm_v5,2020.2.10,MacIntel,60,61025ae37ef11b136ea224fe,,,,,,,,,3445,19,48,1,0,0,response1disk,,7,-2,-5,1,0,0,rectangle,-2,-5,1,0,0,-2,-5,1,0,0,1,66,226,88,1,,,,,,,,
,,,,,,,,,,,,,FF,,,,,,,,0.833,,,,,,,,,,,,,,,,,,,,,,61031efd1da4a14d8e9a86af,61036de4dee18f65f98ca7d7,2021-07-29_23h12.32.896,Simcolourproject_2stim_asymm_v5,2020.2.10,MacIntel,60,61025ae37ef11b136ea224fe,,,,,,,,,4189,31,-58,1,0,0,response3disk,,4,13,8,1,0,0,rectangle,13,8,1,0,0,13,8,1,0,0,1,67,227,134,1,,,,,,,,
,,,,,,,,,,,,,FF,,,,,,,,0.832,,,,,,,,,,,,,,,,,,,,,,61031efd1da4a14d8e9a86af,61036de4dee18f65f98ca7d7,2021-07-29_23h12.32.896,Simcolourproject_2stim_asymm_v5,2020.2.10,MacIntel,60,61025ae37ef11b136ea224fe,,,,,,,,,1881,19,55,1,0,0,response1disk,,7,15,2,1,0,0,rectangle,15,2,1,0,0,15,2,1,0,0,1,68,228,8,1,,,,,,,,
,,,,,,,,,,,,,FF,,,,,,,,1.149,,,,,,,,,,,,,,,,,,,,,,61031efd1da4a14d8e9a86af,61036de4dee18f65f98ca7d7,2021-07-29_23h12.32.896,Simcolourproject_2stim_asymm_v5,2020.2.10,MacIntel,60,61025ae37ef11b136ea224fe,,,,,,,,,1355,78,38,1,0,0,response1disk,,6,18,6,1,0,0,rectangle,18,6,1,0,0,18,6,1,0,0,1,69,229,56,1,,,,,,,,
,,,,,,,,,,,,,FF,,,,,,,,0.816,,,,,,,,,,,,,,,,,,,,,,61031efd1da4a14d8e9a86af,61036de4dee18f65f98ca7d7,2021-07-29_23h12.32.896,Simcolourproject_2stim_asymm_v5,2020.2.10,MacIntel,60,61025ae37ef11b136ea224fe,,,,,,,,,2348,17,44,1,0,0,response1disk,,7,13,10,1,0,0,rectangle,13,10,1,0,0,13,10,1,0,0,1,70,230,81,1,,,,,,,,
,,,,,,,,,,,,,FF,,,,,,,,0.567,,,,,,,,,,,,,,,,,,,,,,61031efd1da4a14d8e9a86af,61036de4dee18f65f98ca7d7,2021-07-29_23h12.32.896,Simcolourproject_2stim_asymm_v5,2020.2.10,MacIntel,60,61025ae37ef11b136ea224fe,,,,,,,,,684,24,47,1,0,0,response1disk,,7,17,14,1,0,0,rectangle,17,14,1,0,0,17,14,1,0,0,1,71,231,25,1,,,,,,,,
,,,,,,,,,,,,,FF,,,,,,,,0.4,,,,,,,,,,,,,,,,,,,,,,61031efd1da4a14d8e9a86af,61036de4dee18f65f98ca7d7,2021-07-29_23h12.32.896,Simcolourproject_2stim_asymm_v5,2020.2.10,MacIntel,60,61025ae37ef11b136ea224fe,,,,,,,,,554,30,67,1,0,0,response1disk,,7,8,7,1,0,0,rectangle,8,7,1,0,0,8,7,1,0,0,1,72,232,11,1,,,,,,,,
,,,,,,,,,,,,,FF,,,,,,,,0.566,,,,,,,,,,,,,,,,,,,,,,61031efd1da4a14d8e9a86af,61036de4dee18f65f98ca7d7,2021-07-29_23h12.32.896,Simcolourproject_2stim_asymm_v5,2020.2.10,MacIntel,60,61025ae37ef11b136ea224fe,,,,,,,,,1584,53,26,1,0,0,response1disk,,6,17,6,1,0,0,rectangle,17,6,1,0,0,17,6,1,0,0,1,73,233,37,1,,,,,,,,
,,,,,,,,,,,,,FF,,,,,,,,0.767,,,,,,,,,,,,,,,,,,,,,,61031efd1da4a14d8e9a86af,61036de4dee18f65f98ca7d7,2021-07-29_23h12.32.896,Simcolourproject_2stim_asymm_v5,2020.2.10,MacIntel,60,61025ae37ef11b136ea224fe,,,,,,,,,1524,-71,-39,1,0,0,response5disk,,2,-6,6,1,0,0,rectangle,-6,6,1,0,0,-6,6,1,0,0,1,74,234,118,1,,,,,,,,
,,,,,,,,,,,,,FF,,,,,,,,0.917,,,,,,,,,,,,,,,,,,,,,,61031efd1da4a14d8e9a86af,61036de4dee18f65f98ca7d7,2021-07-29_23h12.32.896,Simcolourproject_2stim_asymm_v5,2020.2.10,MacIntel,60,61025ae37ef11b136ea224fe,,,,,,,,,2643,53,-24,1,0,0,response3disk,,5,1,6,1,0,0,rectangle,1,6,1,0,0,1,6,1,0,0,1,75,235,33,1,,,,,,,,
,,,,,,,,,,,,,FF,,,,,,,,0.449,,,,,,,,,,,,,,,,,,,,,,61031efd1da4a14d8e9a86af,61036de4dee18f65f98ca7d7,2021-07-29_23h12.32.896,Simcolourproject_2stim_asymm_v5,2020.2.10,MacIntel,60,61025ae37ef11b136ea224fe,,,,,,,,,4176,16,49,1,0,0,response1disk,,7,-3,1,1,0,0,rectangle,-3,1,1,0,0,-3,1,1,0,0,1,76,236,137,1,,,,,,,,
,,,,,,,,,,,,,FF,,,,,,,,0.517,,,,,,,,,,,,,,,,,,,,,,61031efd1da4a14d8e9a86af,61036de4dee18f65f98ca7d7,2021-07-29_23h12.32.896,Simcolourproject_2stim_asymm_v5,2020.2.10,MacIntel,60,61025ae37ef11b136ea224fe,,,,,,,,,4199,16,39,1,0,0,response1disk,,7,-1,0,1,0,0,rectangle,-1,0,1,0,0,-1,0,1,0,0,1,77,237,75,1,,,,,,,,
,,,,,,,,,,,,,FF,,,,,,,,0.333,,,,,,,,,,,,,,,,,,,,,,61031efd1da4a14d8e9a86af,61036de4dee18f65f98ca7d7,2021-07-29_23h12.32.896,Simcolourproject_2stim_asymm_v5,2020.2.10,MacIntel,60,61025ae37ef11b136ea224fe,,,,,,,,,3617,20,30,1,0,0,response1disk,,7,7,-7,1,0,0,rectangle,7,-7,1,0,0,7,-7,1,0,0,1,78,238,24,1,,,,,,,,
,,,,,,,,,,,,,FF,,,,,,,,0.849,,,,,,,,,,,,,,,,,,,,,,61031efd1da4a14d8e9a86af,61036de4dee18f65f98ca7d7,2021-07-29_23h12.32.896,Simcolourproject_2stim_asymm_v5,2020.2.10,MacIntel,60,61025ae37ef11b136ea224fe,,,,,,,,,1454,-55,27,1,0,0,response7disk,,1,-7,4,1,0,0,rectangle,-7,4,1,0,0,-7,4,1,0,0,1,79,239,38,1,,,,,,,,
,,,,,,,,,,,,,FF,,,,,,,,0.383,,,,,,,,,,,,,,,,,,,,,,61031efd1da4a14d8e9a86af,61036de4dee18f65f98ca7d7,2021-07-29_23h12.32.896,Simcolourproject_2stim_asymm_v5,2020.2.10,MacIntel,60,61025ae37ef11b136ea224fe,,,,,,,,,2243,26,36,1,0,0,response1disk,,7,10,-2,1,0,0,rectangle,10,-2,1,0,0,10,-2,1,0,0,1,80,240,154,1,,,,,,,,
,,,,,,,,,,,,,FF,,,,,,,,0.7,,,,,,,,,,,,,,,,,,,,,,61031efd1da4a14d8e9a86af,61036de4dee18f65f98ca7d7,2021-07-29_23h12.32.896,Simcolourproject_2stim_asymm_v5,2020.2.10,MacIntel,60,61025ae37ef11b136ea224fe,,,,,,,,,1768,31,-76,1,0,0,response3disk,,4,6,-2,1,0,0,rectangle,6,-2,1,0,0,6,-2,1,0,0,1,81,241,102,1,,,,,,,,
,,,,,,,,,,,,,FF,,,,,,,,0.85,,,,,,,,,,,,,,,,,,,,,,61031efd1da4a14d8e9a86af,61036de4dee18f65f98ca7d7,2021-07-29_23h12.32.896,Simcolourproject_2stim_asymm_v5,2020.2.10,MacIntel,60,61025ae37ef11b136ea224fe,,,,,,,,,4057,62,-35,1,0,0,response3disk,,5,12,-4,1,0,0,rectangle,12,-4,1,0,0,12,-4,1,0,0,1,82,242,30,1,,,,,,,,
,,,,,,,,,,,,,FF,,,,,,,,2.583,,,,,,,,,,,,,,,,,,,,,,61031efd1da4a14d8e9a86af,61036de4dee18f65f98ca7d7,2021-07-29_23h12.32.896,Simcolourproject_2stim_asymm_v5,2020.2.10,MacIntel,60,61025ae37ef11b136ea224fe,,,,,,,,,384,-26,-61,1,0,0,response5disk,,3,2,12,1,0,0,rectangle,2,12,1,0,0,2,12,1,0,0,1,83,243,149,1,,,,,,,,
,,,,,,,,,,,,,FF,,,,,,,,0.916,,,,,,,,,,,,,,,,,,,,,,61031efd1da4a14d8e9a86af,61036de4dee18f65f98ca7d7,2021-07-29_23h12.32.896,Simcolourproject_2stim_asymm_v5,2020.2.10,MacIntel,60,61025ae37ef11b136ea224fe,,,,,,,,,810,-72,-37,1,0,0,response5disk,,2,-17,1,1,0,0,rectangle,-17,1,1,0,0,-17,1,1,0,0,1,84,244,110,1,,,,,,,,
,,,,,,,,,,,,,FF,,,,,,,,0.767,,,,,,,,,,,,,,,,,,,,,,61031efd1da4a14d8e9a86af,61036de4dee18f65f98ca7d7,2021-07-29_23h12.32.896,Simcolourproject_2stim_asymm_v5,2020.2.10,MacIntel,60,61025ae37ef11b136ea224fe,,,,,,,,,1194,36,-69,1,0,0,response3disk,,4,-2,9,1,0,0,rectangle,-2,9,1,0,0,-2,9,1,0,0,1,85,245,48,1,,,,,,,,
,,,,,,,,,,,,,FF,,,,,,,,1.15,,,,,,,,,,,,,,,,,,,,,,61031efd1da4a14d8e9a86af,61036de4dee18f65f98ca7d7,2021-07-29_23h12.32.896,Simcolourproject_2stim_asymm_v5,2020.2.10,MacIntel,60,61025ae37ef11b136ea224fe,,,,,,,,,605,23,-63,1,0,0,response3disk,,4,10,14,1,0,0,rectangle,10,14,1,0,0,10,14,1,0,0,1,86,246,96,1,,,,,,,,
,,,,,,,,,,,,,FF,,,,,,,,0.717,,,,,,,,,,,,,,,,,,,,,,61031efd1da4a14d8e9a86af,61036de4dee18f65f98ca7d7,2021-07-29_23h12.32.896,Simcolourproject_2stim_asymm_v5,2020.2.10,MacIntel,60,61025ae37ef11b136ea224fe,,,,,,,,,3597,-72,-34,1,0,0,response5disk,,2,5,5,1,0,0,rectangle,5,5,1,0,0,5,5,1,0,0,1,87,247,12,1,,,,,,,,
,,,,,,,,,,,,,FF,,,,,,,,0.617,,,,,,,,,,,,,,,,,,,,,,61031efd1da4a14d8e9a86af,61036de4dee18f65f98ca7d7,2021-07-29_23h12.32.896,Simcolourproject_2stim_asymm_v5,2020.2.10,MacIntel,60,61025ae37ef11b136ea224fe,,,,,,,,,1724,-28,-58,1,0,0,response5disk,,3,2,-2,1,0,0,rectangle,2,-2,1,0,0,2,-2,1,0,0,1,88,248,64,1,,,,,,,,
,,,,,,,,,,,,,FF,,,,,,,,1.15,,,,,,,,,,,,,,,,,,,,,,61031efd1da4a14d8e9a86af,61036de4dee18f65f98ca7d7,2021-07-29_23h12.32.896,Simcolourproject_2stim_asymm_v5,2020.2.10,MacIntel,60,61025ae37ef11b136ea224fe,,,,,,,,,643,24,51,1,0,0,response1disk,,7,12,6,1,0,0,rectangle,12,6,1,0,0,12,6,1,0,0,1,89,249,53,1,,,,,,,,
,,,,,,,,,,,,,FF,,,,,,,,0.983,,,,,,,,,,,,,,,,,,,,,,61031efd1da4a14d8e9a86af,61036de4dee18f65f98ca7d7,2021-07-29_23h12.32.896,Simcolourproject_2stim_asymm_v5,2020.2.10,MacIntel,60,61025ae37ef11b136ea224fe,,,,,,,,,2360,25,-61,1,0,0,response3disk,,4,-12,4,1,0,0,rectangle,-12,4,1,0,0,-12,4,1,0,0,1,90,250,125,1,,,,,,,,
,,,,,,,,,,,,,FF,,,,,,,,0.716,,,,,,,,,,,,,,,,,,,,,,61031efd1da4a14d8e9a86af,61036de4dee18f65f98ca7d7,2021-07-29_23h12.32.896,Simcolourproject_2stim_asymm_v5,2020.2.10,MacIntel,60,61025ae37ef11b136ea224fe,,,,,,,,,3904,14,52,1,0,0,response1disk,,7,9,3,1,0,0,rectangle,9,3,1,0,0,9,3,1,0,0,1,91,251,90,1,,,,,,,,
,,,,,,,,,,,,,FF,,,,,,,,2.199,,,,,,,,,,,,,,,,,,,,,,61031efd1da4a14d8e9a86af,61036de4dee18f65f98ca7d7,2021-07-29_23h12.32.896,Simcolourproject_2stim_asymm_v5,2020.2.10,MacIntel,60,61025ae37ef11b136ea224fe,,,,,,,,,668,23,46,1,0,0,response1disk,,7,4,-2,1,0,0,rectangle,4,-2,1,0,0,4,-2,1,0,0,1,92,252,158,1,,,,,,,,
,,,,,,,,,,,,,FF,,,,,,,,0.799,,,,,,,,,,,,,,,,,,,,,,61031efd1da4a14d8e9a86af,61036de4dee18f65f98ca7d7,2021-07-29_23h12.32.896,Simcolourproject_2stim_asymm_v5,2020.2.10,MacIntel,60,61025ae37ef11b136ea224fe,,,,,,,,,2138,16,43,1,0,0,response1disk,,7,14,0,1,0,0,rectangle,14,0,1,0,0,14,0,1,0,0,1,93,253,98,1,,,,,,,,
,,,,,,,,,,,,,FF,,,,,,,,0.451,,,,,,,,,,,,,,,,,,,,,,61031efd1da4a14d8e9a86af,61036de4dee18f65f98ca7d7,2021-07-29_23h12.32.896,Simcolourproject_2stim_asymm_v5,2020.2.10,MacIntel,60,61025ae37ef11b136ea224fe,,,,,,,,,2185,25,52,1,0,0,response1disk,,7,14,-3,1,0,0,rectangle,14,-3,1,0,0,14,-3,1,0,0,1,94,254,1,1,,,,,,,,
,,,,,,,,,,,,,FF,,,,,,,,0.584,,,,,,,,,,,,,,,,,,,,,,61031efd1da4a14d8e9a86af,61036de4dee18f65f98ca7d7,2021-07-29_23h12.32.896,Simcolourproject_2stim_asymm_v5,2020.2.10,MacIntel,60,61025ae37ef11b136ea224fe,,,,,,,,,2535,26,29,1,0,0,response1disk,,7,13,-14,1,0,0,rectangle,13,-14,1,0,0,13,-14,1,0,0,1,95,255,52,1,,,,,,,,
,,,,,,,,,,,,,FF,,,,,,,,0.617,,,,,,,,,,,,,,,,,,,,,,61031efd1da4a14d8e9a86af,61036de4dee18f65f98ca7d7,2021-07-29_23h12.32.896,Simcolourproject_2stim_asymm_v5,2020.2.10,MacIntel,60,61025ae37ef11b136ea224fe,,,,,,,,,3918,18,40,1,0,0,response1disk,,7,11,2,1,0,0,rectangle,11,2,1,0,0,11,2,1,0,0,1,96,256,119,1,,,,,,,,
,,,,,,,,,,,,,FF,,,,,,,,0.65,,,,,,,,,,,,,,,,,,,,,,61031efd1da4a14d8e9a86af,61036de4dee18f65f98ca7d7,2021-07-29_23h12.32.896,Simcolourproject_2stim_asymm_v5,2020.2.10,MacIntel,60,61025ae37ef11b136ea224fe,,,,,,,,,982,48,-39,1,0,0,response3disk,,5,13,0,1,0,0,rectangle,13,0,1,0,0,13,0,1,0,0,1,97,257,148,1,,,,,,,,
,,,,,,,,,,,,,FF,,,,,,,,0.433,,,,,,,,,,,,,,,,,,,,,,61031efd1da4a14d8e9a86af,61036de4dee18f65f98ca7d7,2021-07-29_23h12.32.896,Simcolourproject_2stim_asymm_v5,2020.2.10,MacIntel,60,61025ae37ef11b136ea224fe,,,,,,,,,3379,21,35,1,0,0,response1disk,,7,14,0,1,0,0,rectangle,14,0,1,0,0,14,0,1,0,0,1,98,258,3,1,,,,,,,,
,,,,,,,,,,,,,FF,,,,,,,,1.518,,,,,,,,,,,,,,,,,,,,,,61031efd1da4a14d8e9a86af,61036de4dee18f65f98ca7d7,2021-07-29_23h12.32.896,Simcolourproject_2stim_asymm_v5,2020.2.10,MacIntel,60,61025ae37ef11b136ea224fe,,,,,,,,,2772,33,55,1,0,0,response1disk,,7,24,12,1,0,0,rectangle,24,12,1,0,0,24,12,1,0,0,1,99,259,23,1,,,,,,,,
,,,,,,,,,,,,,FF,,,,,,,,0.5,,,,,,,,,,,,,,,,,,,,,,61031efd1da4a14d8e9a86af,61036de4dee18f65f98ca7d7,2021-07-29_23h12.32.896,Simcolourproject_2stim_asymm_v5,2020.2.10,MacIntel,60,61025ae37ef11b136ea224fe,,,,,,,,,2655,23,44,1,0,0,response1disk,,7,16,1,1,0,0,rectangle,16,1,1,0,0,16,1,1,0,0,1,100,260,68,1,,,,,,,,
,,,,,,,,,,,,,FF,,,,,,,,0.532,,,,,,,,,,,,,,,,,,,,,,61031efd1da4a14d8e9a86af,61036de4dee18f65f98ca7d7,2021-07-29_23h12.32.896,Simcolourproject_2stim_asymm_v5,2020.2.10,MacIntel,60,61025ae37ef11b136ea224fe,,,,,,,,,920,17,39,1,0,0,response1disk,,7,14,4,1,0,0,rectangle,14,4,1,0,0,14,4,1,0,0,1,101,261,32,1,,,,,,,,
,,,,,,,,,,,,,FF,,,,,,,,0.866,,,,,,,,,,,,,,,,,,,,,,61031efd1da4a14d8e9a86af,61036de4dee18f65f98ca7d7,2021-07-29_23h12.32.896,Simcolourproject_2stim_asymm_v5,2020.2.10,MacIntel,60,61025ae37ef11b136ea224fe,,,,,,,,,2765,23,38,1,0,0,response1disk,,7,23,-2,1,0,0,rectangle,23,-2,1,0,0,23,-2,1,0,0,1,102,262,105,1,,,,,,,,
,,,,,,,,,,,,,FF,,,,,,,,0.717,,,,,,,,,,,,,,,,,,,,,,61031efd1da4a14d8e9a86af,61036de4dee18f65f98ca7d7,2021-07-29_23h12.32.896,Simcolourproject_2stim_asymm_v5,2020.2.10,MacIntel,60,61025ae37ef11b136ea224fe,,,,,,,,,2299,-18,-64,1,0,0,response5disk,,3,8,0,1,0,0,rectangle,-36,-67,1,0,0,-4,-11,1,0,0,1,103,263,27,1,,response5disk_3,TRUE,3,3,"[88,82,122,264,162,103,169,204,132,314,197,154,287,0,4,74,44,136,159,168]",1.448,rectangle
,,,,,,,,,,,,,FF,,,,,,,,1.166,,,,,,,,,,,,,,,,,,,,,,61031efd1da4a14d8e9a86af,61036de4dee18f65f98ca7d7,2021-07-29_23h12.32.896,Simcolourproject_2stim_asymm_v5,2020.2.10,MacIntel,60,61025ae37ef11b136ea224fe,,,,,,,,,3438,35,-59,1,0,0,response3disk,,4,9,-11,1,0,0,rectangle,9,-11,1,0,0,9,-11,1,0,0,1,104,264,146,1,,,,,,,,
,,,,,,,,,,,,,FF,,,,,,,,0.367,,,,,,,,,,,,,,,,,,,,,,61031efd1da4a14d8e9a86af,61036de4dee18f65f98ca7d7,2021-07-29_23h12.32.896,Simcolourproject_2stim_asymm_v5,2020.2.10,MacIntel,60,61025ae37ef11b136ea224fe,,,,,,,,,4349,19,21,1,0,0,response1disk,,7,1,-12,1,0,0,rectangle,1,-12,1,0,0,1,-12,1,0,0,1,105,265,132,1,,,,,,,,
,,,,,,,,,,,,,FF,,,,,,,,1.3,,,,,,,,,,,,,,,,,,,,,,61031efd1da4a14d8e9a86af,61036de4dee18f65f98ca7d7,2021-07-29_23h12.32.896,Simcolourproject_2stim_asymm_v5,2020.2.10,MacIntel,60,61025ae37ef11b136ea224fe,,,,,,,,,3141,-31,-62,1,0,0,response5disk,,3,-2,1,1,0,0,rectangle,-2,1,1,0,0,-2,1,1,0,0,1,106,266,112,1,,,,,,,,
,,,,,,,,,,,,,FF,,,,,,,,0.432,,,,,,,,,,,,,,,,,,,,,,61031efd1da4a14d8e9a86af,61036de4dee18f65f98ca7d7,2021-07-29_23h12.32.896,Simcolourproject_2stim_asymm_v5,2020.2.10,MacIntel,60,61025ae37ef11b136ea224fe,,,,,,,,,3213,15,38,1,0,0,response1disk,,7,-2,-5,1,0,0,rectangle,-2,-5,1,0,0,-2,-5,1,0,0,1,107,267,122,1,,,,,,,,
,,,,,,,,,,,,,FF,,,,,,,,0.517,,,,,,,,,,,,,,,,,,,,,,61031efd1da4a14d8e9a86af,61036de4dee18f65f98ca7d7,2021-07-29_23h12.32.896,Simcolourproject_2stim_asymm_v5,2020.2.10,MacIntel,60,61025ae37ef11b136ea224fe,,,,,,,,,831,21,41,1,0,0,response1disk,,7,2,6,1,0,0,rectangle,2,6,1,0,0,2,6,1,0,0,1,108,268,2,1,,,,,,,,
,,,,,,,,,,,,,FF,,,,,,,,0.416,,,,,,,,,,,,,,,,,,,,,,61031efd1da4a14d8e9a86af,61036de4dee18f65f98ca7d7,2021-07-29_23h12.32.896,Simcolourproject_2stim_asymm_v5,2020.2.10,MacIntel,60,61025ae37ef11b136ea224fe,,,,,,,,,1635,32,57,1,0,0,response1disk,,7,21,10,1,0,0,rectangle,21,10,1,0,0,21,10,1,0,0,1,109,269,131,1,,,,,,,,
,,,,,,,,,,,,,FF,,,,,,,,0.767,,,,,,,,,,,,,,,,,,,,,,61031efd1da4a14d8e9a86af,61036de4dee18f65f98ca7d7,2021-07-29_23h12.32.896,Simcolourproject_2stim_asymm_v5,2020.2.10,MacIntel,60,61025ae37ef11b136ea224fe,,,,,,,,,3106,34,-63,1,0,0,response3disk,,4,16,-5,1,0,0,rectangle,16,-5,1,0,0,16,-5,1,0,0,1,110,270,61,1,,,,,,,,
,,,,,,,,,,,,,FF,,,,,,,,0.616,,,,,,,,,,,,,,,,,,,,,,61031efd1da4a14d8e9a86af,61036de4dee18f65f98ca7d7,2021-07-29_23h12.32.896,Simcolourproject_2stim_asymm_v5,2020.2.10,MacIntel,60,61025ae37ef11b136ea224fe,,,,,,,,,1445,-47,18,1,0,0,response7disk,,1,-18,4,1,0,0,rectangle,-18,4,1,0,0,-18,4,1,0,0,1,111,271,42,1,,,,,,,,
,,,,,,,,,,,,,FF,,,,,,,,0.8,,,,,,,,,,,,,,,,,,,,,,61031efd1da4a14d8e9a86af,61036de4dee18f65f98ca7d7,2021-07-29_23h12.32.896,Simcolourproject_2stim_asymm_v5,2020.2.10,MacIntel,60,61025ae37ef11b136ea224fe,,,,,,,,,4263,23,46,1,0,0,response1disk,,7,3,3,1,0,0,rectangle,3,3,1,0,0,3,3,1,0,0,1,112,272,141,1,,,,,,,,
,,,,,,,,,,,,,FF,,,,,,,,0.55,,,,,,,,,,,,,,,,,,,,,,61031efd1da4a14d8e9a86af,61036de4dee18f65f98ca7d7,2021-07-29_23h12.32.896,Simcolourproject_2stim_asymm_v5,2020.2.10,MacIntel,60,61025ae37ef11b136ea224fe,,,,,,,,,696,17,36,1,0,0,response1disk,,7,8,7,1,0,0,rectangle,8,7,1,0,0,8,7,1,0,0,1,113,273,17,1,,,,,,,,
,,,,,,,,,,,,,FF,,,,,,,,1.133,,,,,,,,,,,,,,,,,,,,,,61031efd1da4a14d8e9a86af,61036de4dee18f65f98ca7d7,2021-07-29_23h12.32.896,Simcolourproject_2stim_asymm_v5,2020.2.10,MacIntel,60,61025ae37ef11b136ea224fe,,,,,,,,,852,23,52,1,0,0,response1disk,,7,21,4,1,0,0,rectangle,21,4,1,0,0,21,4,1,0,0,1,114,274,73,1,,,,,,,,
,,,,,,,,,,,,,FF,,,,,,,,0.634,,,,,,,,,,,,,,,,,,,,,,61031efd1da4a14d8e9a86af,61036de4dee18f65f98ca7d7,2021-07-29_23h12.32.896,Simcolourproject_2stim_asymm_v5,2020.2.10,MacIntel,60,61025ae37ef11b136ea224fe,,,,,,,,,2449,25,52,1,0,0,response1disk,,7,17,4,1,0,0,rectangle,17,4,1,0,0,17,4,1,0,0,1,115,275,127,1,,,,,,,,
,,,,,,,,,,,,,FF,,,,,,,,0.732,,,,,,,,,,,,,,,,,,,,,,61031efd1da4a14d8e9a86af,61036de4dee18f65f98ca7d7,2021-07-29_23h12.32.896,Simcolourproject_2stim_asymm_v5,2020.2.10,MacIntel,60,61025ae37ef11b136ea224fe,,,,,,,,,1192,60,-30,1,0,0,response3disk,,5,1,3,1,0,0,rectangle,1,3,1,0,0,1,3,1,0,0,1,116,276,91,1,,,,,,,,
,,,,,,,,,,,,,FF,,,,,,,,1,,,,,,,,,,,,,,,,,,,,,,61031efd1da4a14d8e9a86af,61036de4dee18f65f98ca7d7,2021-07-29_23h12.32.896,Simcolourproject_2stim_asymm_v5,2020.2.10,MacIntel,60,61025ae37ef11b136ea224fe,,,,,,,,,726,-27,-62,1,0,0,response5disk,,3,-8,1,1,0,0,rectangle,-8,1,1,0,0,-8,1,1,0,0,1,117,277,59,1,,,,,,,,
,,,,,,,,,,,,,FF,,,,,,,,0.366,,,,,,,,,,,,,,,,,,,,,,61031efd1da4a14d8e9a86af,61036de4dee18f65f98ca7d7,2021-07-29_23h12.32.896,Simcolourproject_2stim_asymm_v5,2020.2.10,MacIntel,60,61025ae37ef11b136ea224fe,,,,,,,,,1590,22,49,1,0,0,response1disk,,7,5,-10,1,0,0,rectangle,5,-10,1,0,0,5,-10,1,0,0,1,118,278,143,1,,,,,,,,
,,,,,,,,,,,,,FF,,,,,,,,0.751,,,,,,,,,,,,,,,,,,,,,,61031efd1da4a14d8e9a86af,61036de4dee18f65f98ca7d7,2021-07-29_23h12.32.896,Simcolourproject_2stim_asymm_v5,2020.2.10,MacIntel,60,61025ae37ef11b136ea224fe,,,,,,,,,213,28,40,1,0,0,response1disk,,7,3,-1,1,0,0,rectangle,3,-1,1,0,0,3,-1,1,0,0,1,119,279,55,1,,,,,,,,
,,,,,,,,,,,,,FF,,,,,,,,0.834,,,,,,,,,,,,,,,,,,,,,,61031efd1da4a14d8e9a86af,61036de4dee18f65f98ca7d7,2021-07-29_23h12.32.896,Simcolourproject_2stim_asymm_v5,2020.2.10,MacIntel,60,61025ae37ef11b136ea224fe,,,,,,,,,2171,-61,-27,1,0,0,response5disk,,2,-7,-5,1,0,0,rectangle,-7,-5,1,0,0,-7,-5,1,0,0,1,120,280,13,1,,,,,,,,
,,,,,,,,,,,,,FF,,,,,,,,0.832,,,,,,,,,,,,,,,,,,,,,,61031efd1da4a14d8e9a86af,61036de4dee18f65f98ca7d7,2021-07-29_23h12.32.896,Simcolourproject_2stim_asymm_v5,2020.2.10,MacIntel,60,61025ae37ef11b136ea224fe,,,,,,,,,1462,-21,-68,1,0,0,response5disk,,3,-11,-1,1,0,0,rectangle,-11,-1,1,0,0,-11,-1,1,0,0,1,121,281,133,1,,,,,,,,
,,,,,,,,,,,,,FF,,,,,,,,0.633,,,,,,,,,,,,,,,,,,,,,,61031efd1da4a14d8e9a86af,61036de4dee18f65f98ca7d7,2021-07-29_23h12.32.896,Simcolourproject_2stim_asymm_v5,2020.2.10,MacIntel,60,61025ae37ef11b136ea224fe,,,,,,,,,688,18,32,1,0,0,response1disk,,7,4,-2,1,0,0,rectangle,4,-2,1,0,0,4,-2,1,0,0,1,122,282,31,1,,,,,,,,
,,,,,,,,,,,,,FF,,,,,,,,0.583,,,,,,,,,,,,,,,,,,,,,,61031efd1da4a14d8e9a86af,61036de4dee18f65f98ca7d7,2021-07-29_23h12.32.896,Simcolourproject_2stim_asymm_v5,2020.2.10,MacIntel,60,61025ae37ef11b136ea224fe,,,,,,,,,2196,14,35,1,0,0,response1disk,,7,0,-6,1,0,0,rectangle,0,-6,1,0,0,0,-6,1,0,0,1,123,283,117,1,,,,,,,,
,,,,,,,,,,,,,FF,,,,,,,,0.649,,,,,,,,,,,,,,,,,,,,,,61031efd1da4a14d8e9a86af,61036de4dee18f65f98ca7d7,2021-07-29_23h12.32.896,Simcolourproject_2stim_asymm_v5,2020.2.10,MacIntel,60,61025ae37ef11b136ea224fe,,,,,,,,,1607,-62,-30,1,0,0,response5disk,,2,-2,13,1,0,0,rectangle,-2,13,1,0,0,-2,13,1,0,0,1,124,284,72,1,,,,,,,,
,,,,,,,,,,,,,FF,,,,,,,,0.616,,,,,,,,,,,,,,,,,,,,,,61031efd1da4a14d8e9a86af,61036de4dee18f65f98ca7d7,2021-07-29_23h12.32.896,Simcolourproject_2stim_asymm_v5,2020.2.10,MacIntel,60,61025ae37ef11b136ea224fe,,,,,,,,,3580,21,39,1,0,0,response1disk,,7,12,6,1,0,0,rectangle,12,6,1,0,0,12,6,1,0,0,1,125,285,138,1,,,,,,,,
,,,,,,,,,,,,,FF,,,,,,,,0.617,,,,,,,,,,,,,,,,,,,,,,61031efd1da4a14d8e9a86af,61036de4dee18f65f98ca7d7,2021-07-29_23h12.32.896,Simcolourproject_2stim_asymm_v5,2020.2.10,MacIntel,60,61025ae37ef11b136ea224fe,,,,,,,,,2512,24,43,1,0,0,response1disk,,7,15,11,1,0,0,rectangle,-28,-65,1,0,0,8,8,1,0,0,1,126,286,113,1,,response5disk_3,TRUE,3,3,"[88,82,122,264,162,103,169,204,132,314,197,154,287,0,4,74,44,136,159,168]",1.267,rectangle
,,,,,,,,,,,,,FF,,,,,,,,1.183,,,,,,,,,,,,,,,,,,,,,,61031efd1da4a14d8e9a86af,61036de4dee18f65f98ca7d7,2021-07-29_23h12.32.896,Simcolourproject_2stim_asymm_v5,2020.2.10,MacIntel,60,61025ae37ef11b136ea224fe,,,,,,,,,465,56,-38,1,0,0,response3disk,,5,7,-5,1,0,0,rectangle,7,-5,1,0,0,7,-5,1,0,0,1,127,287,140,1,,,,,,,,
,,,,,,,,,,,,,FF,,,,,,,,0.55,,,,,,,,,,,,,,,,,,,,,,61031efd1da4a14d8e9a86af,61036de4dee18f65f98ca7d7,2021-07-29_23h12.32.896,Simcolourproject_2stim_asymm_v5,2020.2.10,MacIntel,60,61025ae37ef11b136ea224fe,,,,,,,,,522,49,-27,1,0,0,response3disk,,5,17,1,1,0,0,rectangle,17,1,1,0,0,17,1,1,0,0,1,128,288,107,1,,,,,,,,
,,,,,,,,,,,,,FF,,,,,,,,1.101,,,,,,,,,,,,,,,,,,,,,,61031efd1da4a14d8e9a86af,61036de4dee18f65f98ca7d7,2021-07-29_23h12.32.896,Simcolourproject_2stim_asymm_v5,2020.2.10,MacIntel,60,61025ae37ef11b136ea224fe,,,,,,,,,1330,25,47,1,0,0,response1disk,,7,18,7,1,0,0,rectangle,18,7,1,0,0,18,7,1,0,0,1,129,289,156,1,,,,,,,,
,,,,,,,,,,,,,FF,,,,,,,,0.766,,,,,,,,,,,,,,,,,,,,,,61031efd1da4a14d8e9a86af,61036de4dee18f65f98ca7d7,2021-07-29_23h12.32.896,Simcolourproject_2stim_asymm_v5,2020.2.10,MacIntel,60,61025ae37ef11b136ea224fe,,,,,,,,,1741,28,58,1,0,0,response1disk,,7,16,4,1,0,0,rectangle,16,4,1,0,0,16,4,1,0,0,1,130,290,76,1,,,,,,,,
,,,,,,,,,,,,,FF,,,,,,,,0.582,,,,,,,,,,,,,,,,,,,,,,61031efd1da4a14d8e9a86af,61036de4dee18f65f98ca7d7,2021-07-29_23h12.32.896,Simcolourproject_2stim_asymm_v5,2020.2.10,MacIntel,60,61025ae37ef11b136ea224fe,,,,,,,,,3412,17,49,1,0,0,response1disk,,7,1,-4,1,0,0,rectangle,1,-4,1,0,0,1,-4,1,0,0,1,131,291,80,1,,,,,,,,
,,,,,,,,,,,,,FF,,,,,,,,0.867,,,,,,,,,,,,,,,,,,,,,,61031efd1da4a14d8e9a86af,61036de4dee18f65f98ca7d7,2021-07-29_23h12.32.896,Simcolourproject_2stim_asymm_v5,2020.2.10,MacIntel,60,61025ae37ef11b136ea224fe,,,,,,,,,566,32,-76,1,0,0,response3disk,,4,8,2,1,0,0,rectangle,8,2,1,0,0,8,2,1,0,0,1,132,292,67,1,,,,,,,,
,,,,,,,,,,,,,FF,,,,,,,,0.799,,,,,,,,,,,,,,,,,,,,,,61031efd1da4a14d8e9a86af,61036de4dee18f65f98ca7d7,2021-07-29_23h12.32.896,Simcolourproject_2stim_asymm_v5,2020.2.10,MacIntel,60,61025ae37ef11b136ea224fe,,,,,,,,,4022,-70,-34,1,0,0,response5disk,,2,-12,-3,1,0,0,rectangle,-12,-3,1,0,0,-12,-3,1,0,0,1,133,293,120,1,,,,,,,,
,,,,,,,,,,,,,FF,,,,,,,,1.082,,,,,,,,,,,,,,,,,,,,,,61031efd1da4a14d8e9a86af,61036de4dee18f65f98ca7d7,2021-07-29_23h12.32.896,Simcolourproject_2stim_asymm_v5,2020.2.10,MacIntel,60,61025ae37ef11b136ea224fe,,,,,,,,,350,55,-35,1,0,0,response3disk,,5,-12,7,1,0,0,rectangle,-12,7,1,0,0,-12,7,1,0,0,1,134,294,36,1,,,,,,,,
,,,,,,,,,,,,,FF,,,,,,,,0.717,,,,,,,,,,,,,,,,,,,,,,61031efd1da4a14d8e9a86af,61036de4dee18f65f98ca7d7,2021-07-29_23h12.32.896,Simcolourproject_2stim_asymm_v5,2020.2.10,MacIntel,60,61025ae37ef11b136ea224fe,,,,,,,,,407,18,36,1,0,0,response1disk,,7,13,0,1,0,0,rectangle,13,0,1,0,0,13,0,1,0,0,1,135,295,79,1,,,,,,,,
,,,,,,,,,,,,,FF,,,,,,,,0.765,,,,,,,,,,,,,,,,,,,,,,61031efd1da4a14d8e9a86af,61036de4dee18f65f98ca7d7,2021-07-29_23h12.32.896,Simcolourproject_2stim_asymm_v5,2020.2.10,MacIntel,60,61025ae37ef11b136ea224fe,,,,,,,,,3635,-33,-62,1,0,0,response5disk,,3,-5,-15,1,0,0,rectangle,-5,-15,1,0,0,-5,-15,1,0,0,1,136,296,121,1,,,,,,,,
,,,,,,,,,,,,,FF,,,,,,,,0.699,,,,,,,,,,,,,,,,,,,,,,61031efd1da4a14d8e9a86af,61036de4dee18f65f98ca7d7,2021-07-29_23h12.32.896,Simcolourproject_2stim_asymm_v5,2020.2.10,MacIntel,60,61025ae37ef11b136ea224fe,,,,,,,,,4220,-70,-38,1,0,0,response5disk,,2,-3,-4,1,0,0,rectangle,-3,-4,1,0,0,-3,-4,1,0,0,1,137,297,144,1,,,,,,,,
,,,,,,,,,,,,,FF,,,,,,,,1.233,,,,,,,,,,,,,,,,,,,,,,61031efd1da4a14d8e9a86af,61036de4dee18f65f98ca7d7,2021-07-29_23h12.32.896,Simcolourproject_2stim_asymm_v5,2020.2.10,MacIntel,60,61025ae37ef11b136ea224fe,,,,,,,,,2403,19,51,1,0,0,response1disk,,7,6,-15,1,0,0,rectangle,6,-15,1,0,0,6,-15,1,0,0,1,138,298,28,1,,,,,,,,
,,,,,,,,,,,,,FF,,,,,,,,0.418,,,,,,,,,,,,,,,,,,,,,,61031efd1da4a14d8e9a86af,61036de4dee18f65f98ca7d7,2021-07-29_23h12.32.896,Simcolourproject_2stim_asymm_v5,2020.2.10,MacIntel,60,61025ae37ef11b136ea224fe,,,,,,,,,3126,25,43,1,0,0,response1disk,,7,17,14,1,0,0,rectangle,17,14,1,0,0,17,14,1,0,0,1,139,299,4,1,,,,,,,,
,,,,,,,,,,,,,FF,,,,,,,,0.583,,,,,,,,,,,,,,,,,,,,,,61031efd1da4a14d8e9a86af,61036de4dee18f65f98ca7d7,2021-07-29_23h12.32.896,Simcolourproject_2stim_asymm_v5,2020.2.10,MacIntel,60,61025ae37ef11b136ea224fe,,,,,,,,,3399,21,40,1,0,0,response1disk,,7,15,9,1,0,0,rectangle,15,9,1,0,0,15,9,1,0,0,1,140,300,20,1,,,,,,,,
,,,,,,,,,,,,,FF,,,,,,,,0.6,,,,,,,,,,,,,,,,,,,,,,61031efd1da4a14d8e9a86af,61036de4dee18f65f98ca7d7,2021-07-29_23h12.32.896,Simcolourproject_2stim_asymm_v5,2020.2.10,MacIntel,60,61025ae37ef11b136ea224fe,,,,,,,,,3177,23,34,1,0,0,response1disk,,7,6,-5,1,0,0,rectangle,6,-5,1,0,0,6,-5,1,0,0,1,141,301,21,1,,,,,,,,
