key_resp.keys,key_resp.rt,key_resp_14.keys,key_resp_14.rt,key_resp_15.keys,key_resp_15.rt,key_resp_17.keys,key_resp_17.rt,key_resp_9.keys,key_resp_9.rt,key_resp_10.keys,key_resp_10.rt,practice_comparison,Ecc,mouse_5.x,mouse_5.y,mouse_5.leftButton,mouse_5.midButton,mouse_5.rightButton,mouse_5.clicked_name,pracsimilarity,response_time,mouse_10.x,mouse_10.y,mouse_10.leftButton,mouse_10.midButton,mouse_10.rightButton,mouse_10.clicked_name,mouse_7.x,mouse_7.y,mouse_7.leftButton,mouse_7.midButton,mouse_7.rightButton,mouse_6.x,mouse_6.y,mouse_6.leftButton,mouse_6.midButton,mouse_6.rightButton,duringprac.thisRepN,duringprac.thisTrialN,duringprac.thisN,duringprac.thisIndex,duringprac.ran,participant,session,date,expName,psychopyVersion,OS,frameRate,study_id,mouse_7.clicked_name,catchpracsimilarity,catch_response_time,catchnumberprac,catchtrialorderprac,mouse_6.clicked_name,key_resp_22.keys,key_resp_22.rt,realcomparison,mouse.x,mouse.y,mouse.leftButton,mouse.midButton,mouse.rightButton,mouse.clicked_name,Colour2,similarity,mouse_2.x,mouse_2.y,mouse_2.leftButton,mouse_2.midButton,mouse_2.rightButton,mouse_2.clicked_name,mouse_3.x,mouse_3.y,mouse_3.leftButton,mouse_3.midButton,mouse_3.rightButton,mouse_11.x,mouse_11.y,mouse_11.leftButton,mouse_11.midButton,mouse_11.rightButton,trials_2.thisRepN,trials_2.thisTrialN,trials_2.thisN,trials_2.thisIndex,trials_2.ran,Colour1,mouse_3.clicked_name,catchornah,catchsimilarity,catchnumber,catchtrialorder,catchRT,mouse_11.clicked_name
space,5.072,space,8.096,space,62.418,space,50.395,space,4.309,space,5.876,133,PF,136,45,1,0,0,response1disk_5,6,4.241,2,-4,1,0,0,rectangle_8,2,-4,1,0,0,2,-4,1,0,0,0,0,0,6,1,6103630d21124460e8fb210d,610367b4cc9a687fc6d55d1e,2021-07-29_19h45.52.890,Simcolourproject_2stim_asymm_v5,2020.2.10,Win32,60,61025ae37ef11b136ea224fe,,,,,,,,,,,,,,,,,,,,,,,,,,,,,,,,,,,,,,,,,,,,,,
,,,,,,,,,,,,89,FF,-112,55,1,0,0,response7disk_5,1,4.102,4,-4,1,0,0,rectangle_8,-76,153,1,0,0,6,0,1,0,0,0,1,1,5,1,6103630d21124460e8fb210d,610367b4cc9a687fc6d55d1e,2021-07-29_19h45.52.890,Simcolourproject_2stim_asymm_v5,2020.2.10,Win32,60,61025ae37ef11b136ea224fe,response7disk_7,0,3.321,0,"[2,5]",rectangle_4,,,,,,,,,,,,,,,,,,,,,,,,,,,,,,,,,,,,,,,,
,,,,,,,,,,,,8,PF,-41,-136,1,0,0,response5disk_5,3,2.102,-8,-6,1,0,0,rectangle_8,-8,-6,1,0,0,-8,-6,1,0,0,0,2,2,1,1,6103630d21124460e8fb210d,610367b4cc9a687fc6d55d1e,2021-07-29_19h45.52.890,Simcolourproject_2stim_asymm_v5,2020.2.10,Win32,60,61025ae37ef11b136ea224fe,,,,,,,,,,,,,,,,,,,,,,,,,,,,,,,,,,,,,,,,,,,,,,
,,,,,,,,,,,,125,FF,65,91,1,0,0,response1disk_5,7,1.654,-2,-4,1,0,0,rectangle_8,-2,-4,1,0,0,-2,-4,1,0,0,0,3,3,3,1,6103630d21124460e8fb210d,610367b4cc9a687fc6d55d1e,2021-07-29_19h45.52.890,Simcolourproject_2stim_asymm_v5,2020.2.10,Win32,60,61025ae37ef11b136ea224fe,,,,,,,,,,,,,,,,,,,,,,,,,,,,,,,,,,,,,,,,,,,,,,
,,,,,,,,,,,,136,FF,-97,59,1,0,0,response7disk_5,1,3.02,-3,-6,1,0,0,rectangle_8,-61,103,1,0,0,-15,1,1,0,0,0,4,4,0,1,6103630d21124460e8fb210d,610367b4cc9a687fc6d55d1e,2021-07-29_19h45.52.890,Simcolourproject_2stim_asymm_v5,2020.2.10,Win32,60,61025ae37ef11b136ea224fe,response7disk_7,0,1.384,0,"[2,5]",rectangle_4,,,,,,,,,,,,,,,,,,,,,,,,,,,,,,,,,,,,,,,,
,,,,,,,,,,,,121,PF,-91,-42,1,0,0,response5disk_5,2,2.687,3,0,1,0,0,rectangle_8,3,0,1,0,0,3,0,1,0,0,0,5,5,4,1,6103630d21124460e8fb210d,610367b4cc9a687fc6d55d1e,2021-07-29_19h45.52.890,Simcolourproject_2stim_asymm_v5,2020.2.10,Win32,60,61025ae37ef11b136ea224fe,,,,,,,,,,,,,,,,,,,,,,,,,,,,,,,,,,,,,,,,,,,,,,
,,,,,,,,,,,,115,PF,-39,101,1,0,0,response7disk_5,0,1.569,0,-8,1,0,0,rectangle_8,0,-8,1,0,0,0,-8,1,0,0,0,6,6,2,1,6103630d21124460e8fb210d,610367b4cc9a687fc6d55d1e,2021-07-29_19h45.52.890,Simcolourproject_2stim_asymm_v5,2020.2.10,Win32,60,61025ae37ef11b136ea224fe,,,,,,,,,,,,,,,,,,,,,,,,,,,,,,,,,,,,,,,,,,,,,,
,,,,,,,,,,,,,FF,,,,,,,,1.618,,,,,,,,,,,,,,,,,,,,,,6103630d21124460e8fb210d,610367b4cc9a687fc6d55d1e,2021-07-29_19h45.52.890,Simcolourproject_2stim_asymm_v5,2020.2.10,Win32,60,61025ae37ef11b136ea224fe,,,,,,,space,7.072,2040,135,70,1,0,0,response1disk,,6,3,-7,1,0,0,rectangle,3,-7,1,0,0,3,-7,1,0,0,0,0,0,16,1,,,,,,,,
,,,,,,,,,,,,,FF,,,,,,,,11.898,,,,,,,,,,,,,,,,,,,,,,6103630d21124460e8fb210d,610367b4cc9a687fc6d55d1e,2021-07-29_19h45.52.890,Simcolourproject_2stim_asymm_v5,2020.2.10,Win32,60,61025ae37ef11b136ea224fe,,,,,,,,,722,-108,51,1,0,0,response7disk,,1,2,2,1,0,0,rectangle,2,2,1,0,0,2,2,1,0,0,0,1,1,86,1,,,,,,,,
,,,,,,,,,,,,,FF,,,,,,,,1.336,,,,,,,,,,,,,,,,,,,,,,6103630d21124460e8fb210d,610367b4cc9a687fc6d55d1e,2021-07-29_19h45.52.890,Simcolourproject_2stim_asymm_v5,2020.2.10,Win32,60,61025ae37ef11b136ea224fe,,,,,,,,,3066,-57,-133,1,0,0,response5disk,,3,8,-2,1,0,0,rectangle,8,-2,1,0,0,8,-2,1,0,0,0,2,2,41,1,,,,,,,,
,,,,,,,,,,,,,FF,,,,,,,,3.653,,,,,,,,,,,,,,,,,,,,,,6103630d21124460e8fb210d,610367b4cc9a687fc6d55d1e,2021-07-29_19h45.52.890,Simcolourproject_2stim_asymm_v5,2020.2.10,Win32,60,61025ae37ef11b136ea224fe,,,,,,,,,2862,112,-74,1,0,0,response3disk,,5,-2,-1,1,0,0,rectangle,-2,-1,1,0,0,-2,-1,1,0,0,0,3,3,100,1,,,,,,,,
,,,,,,,,,,,,,FF,,,,,,,,4.722,,,,,,,,,,,,,,,,,,,,,,6103630d21124460e8fb210d,610367b4cc9a687fc6d55d1e,2021-07-29_19h45.52.890,Simcolourproject_2stim_asymm_v5,2020.2.10,Win32,60,61025ae37ef11b136ea224fe,,,,,,,,,2117,81,107,1,0,0,response1disk,,7,13,-5,1,0,0,rectangle,13,-5,1,0,0,13,-5,1,0,0,0,4,4,0,1,,,,,,,,
,,,,,,,,,,,,,FF,,,,,,,,1.268,,,,,,,,,,,,,,,,,,,,,,6103630d21124460e8fb210d,610367b4cc9a687fc6d55d1e,2021-07-29_19h45.52.890,Simcolourproject_2stim_asymm_v5,2020.2.10,Win32,60,61025ae37ef11b136ea224fe,,,,,,,,,257,-62,-117,1,0,0,response5disk,,3,6,-7,1,0,0,rectangle,6,-7,1,0,0,6,-7,1,0,0,0,5,5,13,1,,,,,,,,
,,,,,,,,,,,,,FF,,,,,,,,1.584,,,,,,,,,,,,,,,,,,,,,,6103630d21124460e8fb210d,610367b4cc9a687fc6d55d1e,2021-07-29_19h45.52.890,Simcolourproject_2stim_asymm_v5,2020.2.10,Win32,60,61025ae37ef11b136ea224fe,,,,,,,,,122,123,57,1,0,0,response1disk,,6,-7,-5,1,0,0,rectangle,-7,-5,1,0,0,-7,-5,1,0,0,0,6,6,152,1,,,,,,,,
,,,,,,,,,,,,,FF,,,,,,,,2.035,,,,,,,,,,,,,,,,,,,,,,6103630d21124460e8fb210d,610367b4cc9a687fc6d55d1e,2021-07-29_19h45.52.890,Simcolourproject_2stim_asymm_v5,2020.2.10,Win32,60,61025ae37ef11b136ea224fe,,,,,,,,,4112,115,-66,1,0,0,response3disk,,5,7,5,1,0,0,rectangle,7,5,1,0,0,7,5,1,0,0,0,7,7,107,1,,,,,,,,
,,,,,,,,,,,,,FF,,,,,,,,2.219,,,,,,,,,,,,,,,,,,,,,,6103630d21124460e8fb210d,610367b4cc9a687fc6d55d1e,2021-07-29_19h45.52.890,Simcolourproject_2stim_asymm_v5,2020.2.10,Win32,60,61025ae37ef11b136ea224fe,,,,,,,,,3758,45,115,1,0,0,response1disk,,7,5,6,1,0,0,rectangle,5,6,1,0,0,5,6,1,0,0,0,8,8,50,1,,,,,,,,
,,,,,,,,,,,,,FF,,,,,,,,1.252,,,,,,,,,,,,,,,,,,,,,,6103630d21124460e8fb210d,610367b4cc9a687fc6d55d1e,2021-07-29_19h45.52.890,Simcolourproject_2stim_asymm_v5,2020.2.10,Win32,60,61025ae37ef11b136ea224fe,,,,,,,,,3179,60,-124,1,0,0,response3disk,,4,-5,-2,1,0,0,rectangle,-5,-2,1,0,0,-5,-2,1,0,0,0,9,9,67,1,,,,,,,,
,,,,,,,,,,,,,FF,,,,,,,,1.518,,,,,,,,,,,,,,,,,,,,,,6103630d21124460e8fb210d,610367b4cc9a687fc6d55d1e,2021-07-29_19h45.52.890,Simcolourproject_2stim_asymm_v5,2020.2.10,Win32,60,61025ae37ef11b136ea224fe,,,,,,,,,4045,59,112,1,0,0,response1disk,,7,5,-8,1,0,0,rectangle,5,-8,1,0,0,5,-8,1,0,0,0,10,10,120,1,,,,,,,,
,,,,,,,,,,,,,FF,,,,,,,,5.756,,,,,,,,,,,,,,,,,,,,,,6103630d21124460e8fb210d,610367b4cc9a687fc6d55d1e,2021-07-29_19h45.52.890,Simcolourproject_2stim_asymm_v5,2020.2.10,Win32,60,61025ae37ef11b136ea224fe,,,,,,,,,3489,-39,-120,1,0,0,response5disk,,3,13,-9,1,0,0,rectangle,13,-9,1,0,0,13,-9,1,0,0,0,11,11,87,1,,,,,,,,
,,,,,,,,,,,,,FF,,,,,,,,1.304,,,,,,,,,,,,,,,,,,,,,,6103630d21124460e8fb210d,610367b4cc9a687fc6d55d1e,2021-07-29_19h45.52.890,Simcolourproject_2stim_asymm_v5,2020.2.10,Win32,60,61025ae37ef11b136ea224fe,,,,,,,,,2997,-46,97,1,0,0,response7disk,,0,-1,7,1,0,0,rectangle,-1,7,1,0,0,-1,7,1,0,0,0,12,12,51,1,,,,,,,,
,,,,,,,,,,,,,FF,,,,,,,,2.87,,,,,,,,,,,,,,,,,,,,,,6103630d21124460e8fb210d,610367b4cc9a687fc6d55d1e,2021-07-29_19h45.52.890,Simcolourproject_2stim_asymm_v5,2020.2.10,Win32,60,61025ae37ef11b136ea224fe,,,,,,,,,4342,56,117,1,0,0,response1disk,,7,5,9,1,0,0,rectangle,5,9,1,0,0,5,9,1,0,0,0,13,13,43,1,,,,,,,,
,,,,,,,,,,,,,FF,,,,,,,,5.642,,,,,,,,,,,,,,,,,,,,,,6103630d21124460e8fb210d,610367b4cc9a687fc6d55d1e,2021-07-29_19h45.52.890,Simcolourproject_2stim_asymm_v5,2020.2.10,Win32,60,61025ae37ef11b136ea224fe,,,,,,,,,3070,140,43,1,0,0,response1disk,,6,5,-10,1,0,0,rectangle,5,-10,1,0,0,5,-10,1,0,0,0,14,14,155,1,,,,,,,,
,,,,,,,,,,,,,FF,,,,,,,,6.289,,,,,,,,,,,,,,,,,,,,,,6103630d21124460e8fb210d,610367b4cc9a687fc6d55d1e,2021-07-29_19h45.52.890,Simcolourproject_2stim_asymm_v5,2020.2.10,Win32,60,61025ae37ef11b136ea224fe,,,,,,,,,623,-116,-52,1,0,0,response5disk,,2,-5,6,1,0,0,rectangle,-88,37,1,0,0,3,5,1,0,0,0,15,15,71,1,,response7disk_3,TRUE,1,1,"[31,271,245,102,183,148,16,239,131,47,127,140,272,246,21,155,236,132,184,249]",1.602,rectangle
,,,,,,,,,,,,,FF,,,,,,,,6.757,,,,,,,,,,,,,,,,,,,,,,6103630d21124460e8fb210d,610367b4cc9a687fc6d55d1e,2021-07-29_19h45.52.890,Simcolourproject_2stim_asymm_v5,2020.2.10,Win32,60,61025ae37ef11b136ea224fe,,,,,,,,,2800,35,-125,1,0,0,response3disk,,4,10,-10,1,0,0,rectangle,10,-10,1,0,0,10,-10,1,0,0,0,16,16,7,1,,,,,,,,
,,,,,,,,,,,,,FF,,,,,,,,2.569,,,,,,,,,,,,,,,,,,,,,,6103630d21124460e8fb210d,610367b4cc9a687fc6d55d1e,2021-07-29_19h45.52.890,Simcolourproject_2stim_asymm_v5,2020.2.10,Win32,60,61025ae37ef11b136ea224fe,,,,,,,,,3705,-54,134,1,0,0,response7disk,,0,12,1,1,0,0,rectangle,12,1,1,0,0,12,1,1,0,0,0,17,17,93,1,,,,,,,,
,,,,,,,,,,,,,FF,,,,,,,,2.086,,,,,,,,,,,,,,,,,,,,,,6103630d21124460e8fb210d,610367b4cc9a687fc6d55d1e,2021-07-29_19h45.52.890,Simcolourproject_2stim_asymm_v5,2020.2.10,Win32,60,61025ae37ef11b136ea224fe,,,,,,,,,1986,124,77,1,0,0,response1disk,,6,-7,3,1,0,0,rectangle,-7,3,1,0,0,-7,3,1,0,0,0,18,18,144,1,,,,,,,,
,,,,,,,,,,,,,FF,,,,,,,,0.836,,,,,,,,,,,,,,,,,,,,,,6103630d21124460e8fb210d,610367b4cc9a687fc6d55d1e,2021-07-29_19h45.52.890,Simcolourproject_2stim_asymm_v5,2020.2.10,Win32,60,61025ae37ef11b136ea224fe,,,,,,,,,4286,53,137,1,0,0,response1disk,,7,-2,-4,1,0,0,rectangle,-2,-4,1,0,0,-2,-4,1,0,0,0,19,19,146,1,,,,,,,,
,,,,,,,,,,,,,FF,,,,,,,,1.285,,,,,,,,,,,,,,,,,,,,,,6103630d21124460e8fb210d,610367b4cc9a687fc6d55d1e,2021-07-29_19h45.52.890,Simcolourproject_2stim_asymm_v5,2020.2.10,Win32,60,61025ae37ef11b136ea224fe,,,,,,,,,2815,-112,-59,1,0,0,response5disk,,2,-5,-3,1,0,0,rectangle,-122,-66,1,0,0,4,2,1,0,0,0,20,20,48,1,,response5disk_3,TRUE,2,2,"[31,271,245,102,183,148,16,239,131,47,127,140,272,246,21,155,236,132,184,249]",1.936,rectangle
,,,,,,,,,,,,,FF,,,,,,,,1.034,,,,,,,,,,,,,,,,,,,,,,6103630d21124460e8fb210d,610367b4cc9a687fc6d55d1e,2021-07-29_19h45.52.890,Simcolourproject_2stim_asymm_v5,2020.2.10,Win32,60,61025ae37ef11b136ea224fe,,,,,,,,,1547,56,-140,1,0,0,response3disk,,4,7,3,1,0,0,rectangle,7,3,1,0,0,7,3,1,0,0,0,21,21,30,1,,,,,,,,
,,,,,,,,,,,,,FF,,,,,,,,0.884,,,,,,,,,,,,,,,,,,,,,,6103630d21124460e8fb210d,610367b4cc9a687fc6d55d1e,2021-07-29_19h45.52.890,Simcolourproject_2stim_asymm_v5,2020.2.10,Win32,60,61025ae37ef11b136ea224fe,,,,,,,,,2822,61,114,1,0,0,response1disk,,7,4,-6,1,0,0,rectangle,4,-6,1,0,0,4,-6,1,0,0,0,22,22,60,1,,,,,,,,
,,,,,,,,,,,,,FF,,,,,,,,0.935,,,,,,,,,,,,,,,,,,,,,,6103630d21124460e8fb210d,610367b4cc9a687fc6d55d1e,2021-07-29_19h45.52.890,Simcolourproject_2stim_asymm_v5,2020.2.10,Win32,60,61025ae37ef11b136ea224fe,,,,,,,,,465,142,46,1,0,0,response1disk,,6,7,-11,1,0,0,rectangle,7,-11,1,0,0,7,-11,1,0,0,0,23,23,158,1,,,,,,,,
,,,,,,,,,,,,,FF,,,,,,,,1.352,,,,,,,,,,,,,,,,,,,,,,6103630d21124460e8fb210d,610367b4cc9a687fc6d55d1e,2021-07-29_19h45.52.890,Simcolourproject_2stim_asymm_v5,2020.2.10,Win32,60,61025ae37ef11b136ea224fe,,,,,,,,,3738,59,139,1,0,0,response1disk,,7,-5,9,1,0,0,rectangle,-5,9,1,0,0,-5,9,1,0,0,0,24,24,128,1,,,,,,,,
,,,,,,,,,,,,,FF,,,,,,,,2.985,,,,,,,,,,,,,,,,,,,,,,6103630d21124460e8fb210d,610367b4cc9a687fc6d55d1e,2021-07-29_19h45.52.890,Simcolourproject_2stim_asymm_v5,2020.2.10,Win32,60,61025ae37ef11b136ea224fe,,,,,,,,,1215,-108,70,1,0,0,response7disk,,1,-1,-1,1,0,0,rectangle,-1,-1,1,0,0,-1,-1,1,0,0,0,25,25,140,1,,,,,,,,
,,,,,,,,,,,,,FF,,,,,,,,0.734,,,,,,,,,,,,,,,,,,,,,,6103630d21124460e8fb210d,610367b4cc9a687fc6d55d1e,2021-07-29_19h45.52.890,Simcolourproject_2stim_asymm_v5,2020.2.10,Win32,60,61025ae37ef11b136ea224fe,,,,,,,,,2361,-67,114,1,0,0,response7disk,,0,-4,2,1,0,0,rectangle,-4,2,1,0,0,-4,2,1,0,0,0,26,26,109,1,,,,,,,,
,,,,,,,,,,,,,FF,,,,,,,,0.936,,,,,,,,,,,,,,,,,,,,,,6103630d21124460e8fb210d,610367b4cc9a687fc6d55d1e,2021-07-29_19h45.52.890,Simcolourproject_2stim_asymm_v5,2020.2.10,Win32,60,61025ae37ef11b136ea224fe,,,,,,,,,1665,118,55,1,0,0,response1disk,,6,12,-1,1,0,0,rectangle,12,-1,1,0,0,12,-1,1,0,0,0,27,27,135,1,,,,,,,,
,,,,,,,,,,,,,FF,,,,,,,,1.235,,,,,,,,,,,,,,,,,,,,,,6103630d21124460e8fb210d,610367b4cc9a687fc6d55d1e,2021-07-29_19h45.52.890,Simcolourproject_2stim_asymm_v5,2020.2.10,Win32,60,61025ae37ef11b136ea224fe,,,,,,,,,718,-107,-22,1,0,0,response5disk,,2,-8,-6,1,0,0,rectangle,-8,-6,1,0,0,-8,-6,1,0,0,0,28,28,39,1,,,,,,,,
,,,,,,,,,,,,,FF,,,,,,,,0.885,,,,,,,,,,,,,,,,,,,,,,6103630d21124460e8fb210d,610367b4cc9a687fc6d55d1e,2021-07-29_19h45.52.890,Simcolourproject_2stim_asymm_v5,2020.2.10,Win32,60,61025ae37ef11b136ea224fe,,,,,,,,,2911,72,121,1,0,0,response1disk,,7,5,4,1,0,0,rectangle,5,4,1,0,0,5,4,1,0,0,0,29,29,74,1,,,,,,,,
,,,,,,,,,,,,,FF,,,,,,,,1.053,,,,,,,,,,,,,,,,,,,,,,6103630d21124460e8fb210d,610367b4cc9a687fc6d55d1e,2021-07-29_19h45.52.890,Simcolourproject_2stim_asymm_v5,2020.2.10,Win32,60,61025ae37ef11b136ea224fe,,,,,,,,,48,82,124,1,0,0,response1disk,,7,-15,10,1,0,0,rectangle,53,142,1,0,0,2,2,1,0,0,0,30,30,46,1,,response1disk_3,TRUE,7,7,"[31,271,245,102,183,148,16,239,131,47,127,140,272,246,21,155,236,132,184,249]",1.717,rectangle
,,,,,,,,,,,,,FF,,,,,,,,0.968,,,,,,,,,,,,,,,,,,,,,,6103630d21124460e8fb210d,610367b4cc9a687fc6d55d1e,2021-07-29_19h45.52.890,Simcolourproject_2stim_asymm_v5,2020.2.10,Win32,60,61025ae37ef11b136ea224fe,,,,,,,,,3476,-117,48,1,0,0,response7disk,,1,-2,-5,1,0,0,rectangle,-2,-5,1,0,0,-2,-5,1,0,0,0,31,31,78,1,,,,,,,,
,,,,,,,,,,,,,FF,,,,,,,,4.888,,,,,,,,,,,,,,,,,,,,,,6103630d21124460e8fb210d,610367b4cc9a687fc6d55d1e,2021-07-29_19h45.52.890,Simcolourproject_2stim_asymm_v5,2020.2.10,Win32,60,61025ae37ef11b136ea224fe,,,,,,,,,2150,69,-122,1,0,0,response3disk,,4,-1,-8,1,0,0,rectangle,-1,-8,1,0,0,-1,-8,1,0,0,0,32,32,116,1,,,,,,,,
,,,,,,,,,,,,,FF,,,,,,,,1.903,,,,,,,,,,,,,,,,,,,,,,6103630d21124460e8fb210d,610367b4cc9a687fc6d55d1e,2021-07-29_19h45.52.890,Simcolourproject_2stim_asymm_v5,2020.2.10,Win32,60,61025ae37ef11b136ea224fe,,,,,,,,,765,81,129,1,0,0,response1disk,,7,13,-6,1,0,0,rectangle,13,-6,1,0,0,13,-6,1,0,0,0,33,33,55,1,,,,,,,,
,,,,,,,,,,,,,FF,,,,,,,,1.156,,,,,,,,,,,,,,,,,,,,,,6103630d21124460e8fb210d,610367b4cc9a687fc6d55d1e,2021-07-29_19h45.52.890,Simcolourproject_2stim_asymm_v5,2020.2.10,Win32,60,61025ae37ef11b136ea224fe,,,,,,,,,3899,-114,-75,1,0,0,response5disk,,2,6,-9,1,0,0,rectangle,6,-9,1,0,0,6,-9,1,0,0,0,34,34,69,1,,,,,,,,
,,,,,,,,,,,,,FF,,,,,,,,2.071,,,,,,,,,,,,,,,,,,,,,,6103630d21124460e8fb210d,610367b4cc9a687fc6d55d1e,2021-07-29_19h45.52.890,Simcolourproject_2stim_asymm_v5,2020.2.10,Win32,60,61025ae37ef11b136ea224fe,,,,,,,,,939,129,72,1,0,0,response1disk,,6,10,4,1,0,0,rectangle,10,4,1,0,0,10,4,1,0,0,0,35,35,118,1,,,,,,,,
,,,,,,,,,,,,,FF,,,,,,,,1.219,,,,,,,,,,,,,,,,,,,,,,6103630d21124460e8fb210d,610367b4cc9a687fc6d55d1e,2021-07-29_19h45.52.890,Simcolourproject_2stim_asymm_v5,2020.2.10,Win32,60,61025ae37ef11b136ea224fe,,,,,,,,,740,-117,36,1,0,0,response7disk,,1,5,-8,1,0,0,rectangle,5,-8,1,0,0,5,-8,1,0,0,0,36,36,147,1,,,,,,,,
,,,,,,,,,,,,,FF,,,,,,,,0.733,,,,,,,,,,,,,,,,,,,,,,6103630d21124460e8fb210d,610367b4cc9a687fc6d55d1e,2021-07-29_19h45.52.890,Simcolourproject_2stim_asymm_v5,2020.2.10,Win32,60,61025ae37ef11b136ea224fe,,,,,,,,,2938,109,-52,1,0,0,response3disk,,5,11,-2,1,0,0,rectangle,11,-2,1,0,0,11,-2,1,0,0,0,37,37,113,1,,,,,,,,
,,,,,,,,,,,,,FF,,,,,,,,0.886,,,,,,,,,,,,,,,,,,,,,,6103630d21124460e8fb210d,610367b4cc9a687fc6d55d1e,2021-07-29_19h45.52.890,Simcolourproject_2stim_asymm_v5,2020.2.10,Win32,60,61025ae37ef11b136ea224fe,,,,,,,,,781,65,115,1,0,0,response1disk,,7,3,5,1,0,0,rectangle,3,5,1,0,0,3,5,1,0,0,0,38,38,61,1,,,,,,,,
,,,,,,,,,,,,,FF,,,,,,,,1.035,,,,,,,,,,,,,,,,,,,,,,6103630d21124460e8fb210d,610367b4cc9a687fc6d55d1e,2021-07-29_19h45.52.890,Simcolourproject_2stim_asymm_v5,2020.2.10,Win32,60,61025ae37ef11b136ea224fe,,,,,,,,,1323,86,121,1,0,0,response1disk,,7,-5,-8,1,0,0,rectangle,-5,-8,1,0,0,-5,-8,1,0,0,0,39,39,138,1,,,,,,,,
,,,,,,,,,,,,,FF,,,,,,,,1.117,,,,,,,,,,,,,,,,,,,,,,6103630d21124460e8fb210d,610367b4cc9a687fc6d55d1e,2021-07-29_19h45.52.890,Simcolourproject_2stim_asymm_v5,2020.2.10,Win32,60,61025ae37ef11b136ea224fe,,,,,,,,,1827,-123,55,1,0,0,response7disk,,1,-8,2,1,0,0,rectangle,-8,2,1,0,0,-8,2,1,0,0,0,40,40,70,1,,,,,,,,
,,,,,,,,,,,,,FF,,,,,,,,2.336,,,,,,,,,,,,,,,,,,,,,,6103630d21124460e8fb210d,610367b4cc9a687fc6d55d1e,2021-07-29_19h45.52.890,Simcolourproject_2stim_asymm_v5,2020.2.10,Win32,60,61025ae37ef11b136ea224fe,,,,,,,,,2341,-66,-104,1,0,0,response5disk,,3,2,-5,1,0,0,rectangle,2,-5,1,0,0,2,-5,1,0,0,0,41,41,20,1,,,,,,,,
,,,,,,,,,,,,,FF,,,,,,,,1.419,,,,,,,,,,,,,,,,,,,,,,6103630d21124460e8fb210d,610367b4cc9a687fc6d55d1e,2021-07-29_19h45.52.890,Simcolourproject_2stim_asymm_v5,2020.2.10,Win32,60,61025ae37ef11b136ea224fe,,,,,,,,,2684,-101,-51,1,0,0,response5disk,,2,-5,-7,1,0,0,rectangle,-5,-7,1,0,0,-5,-7,1,0,0,0,42,42,108,1,,,,,,,,
,,,,,,,,,,,,,FF,,,,,,,,1.017,,,,,,,,,,,,,,,,,,,,,,6103630d21124460e8fb210d,610367b4cc9a687fc6d55d1e,2021-07-29_19h45.52.890,Simcolourproject_2stim_asymm_v5,2020.2.10,Win32,60,61025ae37ef11b136ea224fe,,,,,,,,,1476,123,42,1,0,0,response1disk,,6,3,-1,1,0,0,rectangle,3,-1,1,0,0,3,-1,1,0,0,0,43,43,133,1,,,,,,,,
,,,,,,,,,,,,,FF,,,,,,,,0.766,,,,,,,,,,,,,,,,,,,,,,6103630d21124460e8fb210d,610367b4cc9a687fc6d55d1e,2021-07-29_19h45.52.890,Simcolourproject_2stim_asymm_v5,2020.2.10,Win32,60,61025ae37ef11b136ea224fe,,,,,,,,,1301,-98,53,1,0,0,response7disk,,1,3,-5,1,0,0,rectangle,3,-5,1,0,0,3,-5,1,0,0,0,44,44,91,1,,,,,,,,
,,,,,,,,,,,,,FF,,,,,,,,1.368,,,,,,,,,,,,,,,,,,,,,,6103630d21124460e8fb210d,610367b4cc9a687fc6d55d1e,2021-07-29_19h45.52.890,Simcolourproject_2stim_asymm_v5,2020.2.10,Win32,60,61025ae37ef11b136ea224fe,,,,,,,,,4187,117,63,1,0,0,response1disk,,6,-6,2,1,0,0,rectangle,-6,2,1,0,0,-6,2,1,0,0,0,45,45,12,1,,,,,,,,
,,,,,,,,,,,,,FF,,,,,,,,1.136,,,,,,,,,,,,,,,,,,,,,,6103630d21124460e8fb210d,610367b4cc9a687fc6d55d1e,2021-07-29_19h45.52.890,Simcolourproject_2stim_asymm_v5,2020.2.10,Win32,60,61025ae37ef11b136ea224fe,,,,,,,,,85,58,124,1,0,0,response1disk,,7,-8,-5,1,0,0,rectangle,41,-113,1,0,0,-8,-1,1,0,0,0,46,46,76,1,,response3disk_3,TRUE,4,4,"[31,271,245,102,183,148,16,239,131,47,127,140,272,246,21,155,236,132,184,249]",1.703,rectangle
,,,,,,,,,,,,,FF,,,,,,,,1.952,,,,,,,,,,,,,,,,,,,,,,6103630d21124460e8fb210d,610367b4cc9a687fc6d55d1e,2021-07-29_19h45.52.890,Simcolourproject_2stim_asymm_v5,2020.2.10,Win32,60,61025ae37ef11b136ea224fe,,,,,,,,,1317,108,-64,1,0,0,response3disk,,5,15,-15,1,0,0,rectangle,15,-15,1,0,0,15,-15,1,0,0,0,47,47,101,1,,,,,,,,
,,,,,,,,,,,,,FF,,,,,,,,0.852,,,,,,,,,,,,,,,,,,,,,,6103630d21124460e8fb210d,610367b4cc9a687fc6d55d1e,2021-07-29_19h45.52.890,Simcolourproject_2stim_asymm_v5,2020.2.10,Win32,60,61025ae37ef11b136ea224fe,,,,,,,,,3457,62,130,1,0,0,response1disk,,7,-6,-16,1,0,0,rectangle,-6,-16,1,0,0,-6,-16,1,0,0,0,48,48,153,1,,,,,,,,
,,,,,,,,,,,,,FF,,,,,,,,1.286,,,,,,,,,,,,,,,,,,,,,,6103630d21124460e8fb210d,610367b4cc9a687fc6d55d1e,2021-07-29_19h45.52.890,Simcolourproject_2stim_asymm_v5,2020.2.10,Win32,60,61025ae37ef11b136ea224fe,,,,,,,,,3693,129,36,1,0,0,response1disk,,6,15,-3,1,0,0,rectangle,15,-3,1,0,0,15,-3,1,0,0,0,49,49,145,1,,,,,,,,
,,,,,,,,,,,,,FF,,,,,,,,0.601,,,,,,,,,,,,,,,,,,,,,,6103630d21124460e8fb210d,610367b4cc9a687fc6d55d1e,2021-07-29_19h45.52.890,Simcolourproject_2stim_asymm_v5,2020.2.10,Win32,60,61025ae37ef11b136ea224fe,,,,,,,,,1573,80,-34,1,0,0,response3disk,,5,-13,3,1,0,0,rectangle,-13,3,1,0,0,-13,3,1,0,0,0,50,50,22,1,,,,,,,,
,,,,,,,,,,,,,FF,,,,,,,,2.569,,,,,,,,,,,,,,,,,,,,,,6103630d21124460e8fb210d,610367b4cc9a687fc6d55d1e,2021-07-29_19h45.52.890,Simcolourproject_2stim_asymm_v5,2020.2.10,Win32,60,61025ae37ef11b136ea224fe,,,,,,,,,4188,-105,-34,1,0,0,response5disk,,2,12,1,1,0,0,rectangle,12,1,1,0,0,12,1,1,0,0,0,51,51,137,1,,,,,,,,
,,,,,,,,,,,,,FF,,,,,,,,0.718,,,,,,,,,,,,,,,,,,,,,,6103630d21124460e8fb210d,610367b4cc9a687fc6d55d1e,2021-07-29_19h45.52.890,Simcolourproject_2stim_asymm_v5,2020.2.10,Win32,60,61025ae37ef11b136ea224fe,,,,,,,,,926,132,73,1,0,0,response1disk,,6,24,-3,1,0,0,rectangle,24,-3,1,0,0,24,-3,1,0,0,0,52,52,81,1,,,,,,,,
,,,,,,,,,,,,,FF,,,,,,,,0.65,,,,,,,,,,,,,,,,,,,,,,6103630d21124460e8fb210d,610367b4cc9a687fc6d55d1e,2021-07-29_19h45.52.890,Simcolourproject_2stim_asymm_v5,2020.2.10,Win32,60,61025ae37ef11b136ea224fe,,,,,,,,,3727,36,120,1,0,0,response1disk,,7,1,-5,1,0,0,rectangle,1,-5,1,0,0,1,-5,1,0,0,0,53,53,17,1,,,,,,,,
,,,,,,,,,,,,,FF,,,,,,,,0.817,,,,,,,,,,,,,,,,,,,,,,6103630d21124460e8fb210d,610367b4cc9a687fc6d55d1e,2021-07-29_19h45.52.890,Simcolourproject_2stim_asymm_v5,2020.2.10,Win32,60,61025ae37ef11b136ea224fe,,,,,,,,,3037,-137,40,1,0,0,response7disk,,1,0,-4,1,0,0,rectangle,0,-4,1,0,0,0,-4,1,0,0,0,54,54,1,1,,,,,,,,
,,,,,,,,,,,,,FF,,,,,,,,2.153,,,,,,,,,,,,,,,,,,,,,,6103630d21124460e8fb210d,610367b4cc9a687fc6d55d1e,2021-07-29_19h45.52.890,Simcolourproject_2stim_asymm_v5,2020.2.10,Win32,60,61025ae37ef11b136ea224fe,,,,,,,,,2315,67,-126,1,0,0,response3disk,,4,10,7,1,0,0,rectangle,10,7,1,0,0,10,7,1,0,0,0,55,55,25,1,,,,,,,,
,,,,,,,,,,,,,FF,,,,,,,,0.717,,,,,,,,,,,,,,,,,,,,,,6103630d21124460e8fb210d,610367b4cc9a687fc6d55d1e,2021-07-29_19h45.52.890,Simcolourproject_2stim_asymm_v5,2020.2.10,Win32,60,61025ae37ef11b136ea224fe,,,,,,,,,3822,131,52,1,0,0,response1disk,,6,27,5,1,0,0,rectangle,27,5,1,0,0,27,5,1,0,0,0,56,56,3,1,,,,,,,,
,,,,,,,,,,,,,FF,,,,,,,,1.033,,,,,,,,,,,,,,,,,,,,,,6103630d21124460e8fb210d,610367b4cc9a687fc6d55d1e,2021-07-29_19h45.52.890,Simcolourproject_2stim_asymm_v5,2020.2.10,Win32,60,61025ae37ef11b136ea224fe,,,,,,,,,898,-113,44,1,0,0,response7disk,,1,17,-2,1,0,0,rectangle,17,-2,1,0,0,17,-2,1,0,0,0,57,57,66,1,,,,,,,,
,,,,,,,,,,,,,FF,,,,,,,,1.786,,,,,,,,,,,,,,,,,,,,,,6103630d21124460e8fb210d,610367b4cc9a687fc6d55d1e,2021-07-29_19h45.52.890,Simcolourproject_2stim_asymm_v5,2020.2.10,Win32,60,61025ae37ef11b136ea224fe,,,,,,,,,921,-96,-54,1,0,0,response5disk,,2,8,13,1,0,0,rectangle,8,13,1,0,0,8,13,1,0,0,0,58,58,15,1,,,,,,,,
,,,,,,,,,,,,,FF,,,,,,,,1.417,,,,,,,,,,,,,,,,,,,,,,6103630d21124460e8fb210d,610367b4cc9a687fc6d55d1e,2021-07-29_19h45.52.890,Simcolourproject_2stim_asymm_v5,2020.2.10,Win32,60,61025ae37ef11b136ea224fe,,,,,,,,,759,120,-55,1,0,0,response3disk,,5,9,-9,1,0,0,rectangle,9,-9,1,0,0,9,-9,1,0,0,0,59,59,72,1,,,,,,,,
,,,,,,,,,,,,,FF,,,,,,,,2.72,,,,,,,,,,,,,,,,,,,,,,6103630d21124460e8fb210d,610367b4cc9a687fc6d55d1e,2021-07-29_19h45.52.890,Simcolourproject_2stim_asymm_v5,2020.2.10,Win32,60,61025ae37ef11b136ea224fe,,,,,,,,,562,129,55,1,0,0,response1disk,,6,14,-1,1,0,0,rectangle,14,-1,1,0,0,14,-1,1,0,0,0,60,60,54,1,,,,,,,,
,,,,,,,,,,,,,FF,,,,,,,,2.52,,,,,,,,,,,,,,,,,,,,,,6103630d21124460e8fb210d,610367b4cc9a687fc6d55d1e,2021-07-29_19h45.52.890,Simcolourproject_2stim_asymm_v5,2020.2.10,Win32,60,61025ae37ef11b136ea224fe,,,,,,,,,4246,59,113,1,0,0,response1disk,,7,-1,-4,1,0,0,rectangle,-1,-4,1,0,0,-1,-4,1,0,0,0,61,61,89,1,,,,,,,,
,,,,,,,,,,,,,FF,,,,,,,,1.736,,,,,,,,,,,,,,,,,,,,,,6103630d21124460e8fb210d,610367b4cc9a687fc6d55d1e,2021-07-29_19h45.52.890,Simcolourproject_2stim_asymm_v5,2020.2.10,Win32,60,61025ae37ef11b136ea224fe,,,,,,,,,2395,130,63,1,0,0,response1disk,,6,15,3,1,0,0,rectangle,15,3,1,0,0,15,3,1,0,0,0,62,62,52,1,,,,,,,,
,,,,,,,,,,,,,FF,,,,,,,,0.733,,,,,,,,,,,,,,,,,,,,,,6103630d21124460e8fb210d,610367b4cc9a687fc6d55d1e,2021-07-29_19h45.52.890,Simcolourproject_2stim_asymm_v5,2020.2.10,Win32,60,61025ae37ef11b136ea224fe,,,,,,,,,415,60,122,1,0,0,response1disk,,7,-6,-4,1,0,0,rectangle,-6,-4,1,0,0,-6,-4,1,0,0,0,63,63,112,1,,,,,,,,
,,,,,,,,,,,,,FF,,,,,,,,1.269,,,,,,,,,,,,,,,,,,,,,,6103630d21124460e8fb210d,610367b4cc9a687fc6d55d1e,2021-07-29_19h45.52.890,Simcolourproject_2stim_asymm_v5,2020.2.10,Win32,60,61025ae37ef11b136ea224fe,,,,,,,,,1589,37,-124,1,0,0,response3disk,,4,3,-2,1,0,0,rectangle,3,-2,1,0,0,3,-2,1,0,0,0,64,64,18,1,,,,,,,,
,,,,,,,,,,,,,FF,,,,,,,,1.22,,,,,,,,,,,,,,,,,,,,,,6103630d21124460e8fb210d,610367b4cc9a687fc6d55d1e,2021-07-29_19h45.52.890,Simcolourproject_2stim_asymm_v5,2020.2.10,Win32,60,61025ae37ef11b136ea224fe,,,,,,,,,1674,-127,52,1,0,0,response7disk,,1,-5,-11,1,0,0,rectangle,-5,-11,1,0,0,-5,-11,1,0,0,0,65,65,53,1,,,,,,,,
,,,,,,,,,,,,,FF,,,,,,,,1.935,,,,,,,,,,,,,,,,,,,,,,6103630d21124460e8fb210d,610367b4cc9a687fc6d55d1e,2021-07-29_19h45.52.890,Simcolourproject_2stim_asymm_v5,2020.2.10,Win32,60,61025ae37ef11b136ea224fe,,,,,,,,,2784,-52,-132,1,0,0,response5disk,,3,1,-6,1,0,0,rectangle,1,-6,1,0,0,1,-6,1,0,0,0,66,66,149,1,,,,,,,,
,,,,,,,,,,,,,FF,,,,,,,,1.62,,,,,,,,,,,,,,,,,,,,,,6103630d21124460e8fb210d,610367b4cc9a687fc6d55d1e,2021-07-29_19h45.52.890,Simcolourproject_2stim_asymm_v5,2020.2.10,Win32,60,61025ae37ef11b136ea224fe,,,,,,,,,3900,138,31,1,0,0,response1disk,,6,-4,-7,1,0,0,rectangle,-4,-7,1,0,0,-4,-7,1,0,0,0,67,67,38,1,,,,,,,,
,,,,,,,,,,,,,FF,,,,,,,,0.6,,,,,,,,,,,,,,,,,,,,,,6103630d21124460e8fb210d,610367b4cc9a687fc6d55d1e,2021-07-29_19h45.52.890,Simcolourproject_2stim_asymm_v5,2020.2.10,Win32,60,61025ae37ef11b136ea224fe,,,,,,,,,3529,41,124,1,0,0,response1disk,,7,5,1,1,0,0,rectangle,5,1,1,0,0,5,1,1,0,0,0,68,68,151,1,,,,,,,,
,,,,,,,,,,,,,FF,,,,,,,,0.732,,,,,,,,,,,,,,,,,,,,,,6103630d21124460e8fb210d,610367b4cc9a687fc6d55d1e,2021-07-29_19h45.52.890,Simcolourproject_2stim_asymm_v5,2020.2.10,Win32,60,61025ae37ef11b136ea224fe,,,,,,,,,1428,101,-46,1,0,0,response3disk,,5,2,-2,1,0,0,rectangle,2,-2,1,0,0,2,-2,1,0,0,0,69,69,11,1,,,,,,,,
,,,,,,,,,,,,,FF,,,,,,,,0.635,,,,,,,,,,,,,,,,,,,,,,6103630d21124460e8fb210d,610367b4cc9a687fc6d55d1e,2021-07-29_19h45.52.890,Simcolourproject_2stim_asymm_v5,2020.2.10,Win32,60,61025ae37ef11b136ea224fe,,,,,,,,,1772,61,-124,1,0,0,response3disk,,4,1,-9,1,0,0,rectangle,1,-9,1,0,0,1,-9,1,0,0,0,70,70,132,1,,,,,,,,
,,,,,,,,,,,,,FF,,,,,,,,1.369,,,,,,,,,,,,,,,,,,,,,,6103630d21124460e8fb210d,610367b4cc9a687fc6d55d1e,2021-07-29_19h45.52.890,Simcolourproject_2stim_asymm_v5,2020.2.10,Win32,60,61025ae37ef11b136ea224fe,,,,,,,,,3884,116,53,1,0,0,response1disk,,6,18,9,1,0,0,rectangle,18,9,1,0,0,18,9,1,0,0,0,71,71,119,1,,,,,,,,
,,,,,,,,,,,,,FF,,,,,,,,0.651,,,,,,,,,,,,,,,,,,,,,,6103630d21124460e8fb210d,610367b4cc9a687fc6d55d1e,2021-07-29_19h45.52.890,Simcolourproject_2stim_asymm_v5,2020.2.10,Win32,60,61025ae37ef11b136ea224fe,,,,,,,,,64,37,111,1,0,0,response1disk,,7,7,5,1,0,0,rectangle,7,5,1,0,0,7,5,1,0,0,0,72,72,32,1,,,,,,,,
,,,,,,,,,,,,,FF,,,,,,,,1.186,,,,,,,,,,,,,,,,,,,,,,6103630d21124460e8fb210d,610367b4cc9a687fc6d55d1e,2021-07-29_19h45.52.890,Simcolourproject_2stim_asymm_v5,2020.2.10,Win32,60,61025ae37ef11b136ea224fe,,,,,,,,,2849,111,-45,1,0,0,response3disk,,5,11,-1,1,0,0,rectangle,11,-1,1,0,0,11,-1,1,0,0,0,73,73,31,1,,,,,,,,
,,,,,,,,,,,,,FF,,,,,,,,0.7,,,,,,,,,,,,,,,,,,,,,,6103630d21124460e8fb210d,610367b4cc9a687fc6d55d1e,2021-07-29_19h45.52.890,Simcolourproject_2stim_asymm_v5,2020.2.10,Win32,60,61025ae37ef11b136ea224fe,,,,,,,,,717,-59,119,1,0,0,response7disk,,0,3,-3,1,0,0,rectangle,3,-3,1,0,0,3,-3,1,0,0,0,74,74,19,1,,,,,,,,
,,,,,,,,,,,,,FF,,,,,,,,1.201,,,,,,,,,,,,,,,,,,,,,,6103630d21124460e8fb210d,610367b4cc9a687fc6d55d1e,2021-07-29_19h45.52.890,Simcolourproject_2stim_asymm_v5,2020.2.10,Win32,60,61025ae37ef11b136ea224fe,,,,,,,,,1510,76,129,1,0,0,response1disk,,7,8,8,1,0,0,rectangle,8,8,1,0,0,8,8,1,0,0,0,75,75,98,1,,,,,,,,
,,,,,,,,,,,,,FF,,,,,,,,1.633,,,,,,,,,,,,,,,,,,,,,,6103630d21124460e8fb210d,610367b4cc9a687fc6d55d1e,2021-07-29_19h45.52.890,Simcolourproject_2stim_asymm_v5,2020.2.10,Win32,60,61025ae37ef11b136ea224fe,,,,,,,,,3294,-110,-43,1,0,0,response5disk,,2,-6,4,1,0,0,rectangle,-6,4,1,0,0,-6,4,1,0,0,0,76,76,6,1,,,,,,,,
,,,,,,,,,,,,,FF,,,,,,,,0.802,,,,,,,,,,,,,,,,,,,,,,6103630d21124460e8fb210d,610367b4cc9a687fc6d55d1e,2021-07-29_19h45.52.890,Simcolourproject_2stim_asymm_v5,2020.2.10,Win32,60,61025ae37ef11b136ea224fe,,,,,,,,,3715,-45,-102,1,0,0,response5disk,,3,8,-7,1,0,0,rectangle,8,-7,1,0,0,8,-7,1,0,0,0,77,77,40,1,,,,,,,,
,,,,,,,,,,,,,FF,,,,,,,,0.869,,,,,,,,,,,,,,,,,,,,,,6103630d21124460e8fb210d,610367b4cc9a687fc6d55d1e,2021-07-29_19h45.52.890,Simcolourproject_2stim_asymm_v5,2020.2.10,Win32,60,61025ae37ef11b136ea224fe,,,,,,,,,368,-69,121,1,0,0,response7disk,,0,-9,7,1,0,0,rectangle,-9,7,1,0,0,-9,7,1,0,0,0,78,78,136,1,,,,,,,,
,,,,,,,,,,,,,FF,,,,,,,,1.969,,,,,,,,,,,,,,,,,,,,,,6103630d21124460e8fb210d,610367b4cc9a687fc6d55d1e,2021-07-29_19h45.52.890,Simcolourproject_2stim_asymm_v5,2020.2.10,Win32,60,61025ae37ef11b136ea224fe,,,,,,,,,281,-46,-137,1,0,0,response5disk,,3,-15,1,1,0,0,rectangle,-15,1,1,0,0,-15,1,1,0,0,0,79,79,105,1,,,,,,,,
,,,,,,,,,,,,,FF,,,,,,,,1.135,,,,,,,,,,,,,,,,,,,,,,6103630d21124460e8fb210d,610367b4cc9a687fc6d55d1e,2021-07-29_19h45.52.890,Simcolourproject_2stim_asymm_v5,2020.2.10,Win32,60,61025ae37ef11b136ea224fe,,,,,,,,,2370,125,-35,1,0,0,response3disk,,5,12,7,1,0,0,rectangle,12,7,1,0,0,12,7,1,0,0,0,80,80,64,1,,,,,,,,
,,,,,,,,,,,,,FF,,,,,,,,1.351,,,,,,,,,,,,,,,,,,,,,,6103630d21124460e8fb210d,610367b4cc9a687fc6d55d1e,2021-07-29_19h45.52.890,Simcolourproject_2stim_asymm_v5,2020.2.10,Win32,60,61025ae37ef11b136ea224fe,,,,,,,,,3597,-104,46,1,0,0,response7disk,,1,4,-6,1,0,0,rectangle,4,-6,1,0,0,4,-6,1,0,0,0,81,81,126,1,,,,,,,,
,,,,,,,,,,,,,FF,,,,,,,,1.333,,,,,,,,,,,,,,,,,,,,,,6103630d21124460e8fb210d,610367b4cc9a687fc6d55d1e,2021-07-29_19h45.52.890,Simcolourproject_2stim_asymm_v5,2020.2.10,Win32,60,61025ae37ef11b136ea224fe,,,,,,,,,1468,-38,-127,1,0,0,response5disk,,3,-3,2,1,0,0,rectangle,-3,2,1,0,0,-3,2,1,0,0,0,82,82,84,1,,,,,,,,
,,,,,,,,,,,,,FF,,,,,,,,0.835,,,,,,,,,,,,,,,,,,,,,,6103630d21124460e8fb210d,610367b4cc9a687fc6d55d1e,2021-07-29_19h45.52.890,Simcolourproject_2stim_asymm_v5,2020.2.10,Win32,60,61025ae37ef11b136ea224fe,,,,,,,,,573,127,56,1,0,0,response1disk,,6,11,3,1,0,0,rectangle,11,3,1,0,0,11,3,1,0,0,0,83,83,5,1,,,,,,,,
,,,,,,,,,,,,,FF,,,,,,,,1.251,,,,,,,,,,,,,,,,,,,,,,6103630d21124460e8fb210d,610367b4cc9a687fc6d55d1e,2021-07-29_19h45.52.890,Simcolourproject_2stim_asymm_v5,2020.2.10,Win32,60,61025ae37ef11b136ea224fe,,,,,,,,,4230,60,126,1,0,0,response1disk,,7,4,-5,1,0,0,rectangle,4,-5,1,0,0,4,-5,1,0,0,0,84,84,27,1,,,,,,,,
,,,,,,,,,,,,,FF,,,,,,,,1.001,,,,,,,,,,,,,,,,,,,,,,6103630d21124460e8fb210d,610367b4cc9a687fc6d55d1e,2021-07-29_19h45.52.890,Simcolourproject_2stim_asymm_v5,2020.2.10,Win32,60,61025ae37ef11b136ea224fe,,,,,,,,,620,-67,112,1,0,0,response7disk,,0,-11,-4,1,0,0,rectangle,-11,-4,1,0,0,-11,-4,1,0,0,0,85,85,150,1,,,,,,,,
,,,,,,,,,,,,,FF,,,,,,,,0.767,,,,,,,,,,,,,,,,,,,,,,6103630d21124460e8fb210d,610367b4cc9a687fc6d55d1e,2021-07-29_19h45.52.890,Simcolourproject_2stim_asymm_v5,2020.2.10,Win32,60,61025ae37ef11b136ea224fe,,,,,,,,,3782,-120,34,1,0,0,response7disk,,1,0,-2,1,0,0,rectangle,0,-2,1,0,0,0,-2,1,0,0,0,86,86,117,1,,,,,,,,
,,,,,,,,,,,,,FF,,,,,,,,1.137,,,,,,,,,,,,,,,,,,,,,,6103630d21124460e8fb210d,610367b4cc9a687fc6d55d1e,2021-07-29_19h45.52.890,Simcolourproject_2stim_asymm_v5,2020.2.10,Win32,60,61025ae37ef11b136ea224fe,,,,,,,,,754,114,43,1,0,0,response1disk,,6,3,0,1,0,0,rectangle,3,0,1,0,0,3,0,1,0,0,0,87,87,56,1,,,,,,,,
,,,,,,,,,,,,,FF,,,,,,,,2.42,,,,,,,,,,,,,,,,,,,,,,6103630d21124460e8fb210d,610367b4cc9a687fc6d55d1e,2021-07-29_19h45.52.890,Simcolourproject_2stim_asymm_v5,2020.2.10,Win32,60,61025ae37ef11b136ea224fe,,,,,,,,,1771,59,108,1,0,0,response1disk,,7,8,-11,1,0,0,rectangle,8,-11,1,0,0,8,-11,1,0,0,0,88,88,29,1,,,,,,,,
,,,,,,,,,,,,,FF,,,,,,,,1.218,,,,,,,,,,,,,,,,,,,,,,6103630d21124460e8fb210d,610367b4cc9a687fc6d55d1e,2021-07-29_19h45.52.890,Simcolourproject_2stim_asymm_v5,2020.2.10,Win32,60,61025ae37ef11b136ea224fe,,,,,,,,,2320,69,128,1,0,0,response1disk,,7,-3,-13,1,0,0,rectangle,-3,-13,1,0,0,-3,-13,1,0,0,0,89,89,85,1,,,,,,,,
,,,,,,,,,,,,,FF,,,,,,,,0.667,,,,,,,,,,,,,,,,,,,,,,6103630d21124460e8fb210d,610367b4cc9a687fc6d55d1e,2021-07-29_19h45.52.890,Simcolourproject_2stim_asymm_v5,2020.2.10,Win32,60,61025ae37ef11b136ea224fe,,,,,,,,,2719,-61,105,1,0,0,response7disk,,0,-16,-16,1,0,0,rectangle,-16,-16,1,0,0,-16,-16,1,0,0,0,90,90,59,1,,,,,,,,
,,,,,,,,,,,,,FF,,,,,,,,0.918,,,,,,,,,,,,,,,,,,,,,,6103630d21124460e8fb210d,610367b4cc9a687fc6d55d1e,2021-07-29_19h45.52.890,Simcolourproject_2stim_asymm_v5,2020.2.10,Win32,60,61025ae37ef11b136ea224fe,,,,,,,,,1839,-47,-108,1,0,0,response5disk,,3,-2,-9,1,0,0,rectangle,-2,-9,1,0,0,-2,-9,1,0,0,0,91,91,134,1,,,,,,,,
,,,,,,,,,,,,,FF,,,,,,,,0.651,,,,,,,,,,,,,,,,,,,,,,6103630d21124460e8fb210d,610367b4cc9a687fc6d55d1e,2021-07-29_19h45.52.890,Simcolourproject_2stim_asymm_v5,2020.2.10,Win32,60,61025ae37ef11b136ea224fe,,,,,,,,,3954,54,100,1,0,0,response1disk,,7,-20,-6,1,0,0,rectangle,-20,-6,1,0,0,-20,-6,1,0,0,0,92,92,143,1,,,,,,,,
,,,,,,,,,,,,,FF,,,,,,,,0.918,,,,,,,,,,,,,,,,,,,,,,6103630d21124460e8fb210d,610367b4cc9a687fc6d55d1e,2021-07-29_19h45.52.890,Simcolourproject_2stim_asymm_v5,2020.2.10,Win32,60,61025ae37ef11b136ea224fe,,,,,,,,,1932,101,86,1,0,0,response1disk,,6,6,2,1,0,0,rectangle,6,2,1,0,0,6,2,1,0,0,0,93,93,23,1,,,,,,,,
,,,,,,,,,,,,,FF,,,,,,,,0.967,,,,,,,,,,,,,,,,,,,,,,6103630d21124460e8fb210d,610367b4cc9a687fc6d55d1e,2021-07-29_19h45.52.890,Simcolourproject_2stim_asymm_v5,2020.2.10,Win32,60,61025ae37ef11b136ea224fe,,,,,,,,,2802,104,-43,1,0,0,response3disk,,5,5,-3,1,0,0,rectangle,5,-3,1,0,0,5,-3,1,0,0,0,94,94,79,1,,,,,,,,
,,,,,,,,,,,,,FF,,,,,,,,2.153,,,,,,,,,,,,,,,,,,,,,,6103630d21124460e8fb210d,610367b4cc9a687fc6d55d1e,2021-07-29_19h45.52.890,Simcolourproject_2stim_asymm_v5,2020.2.10,Win32,60,61025ae37ef11b136ea224fe,,,,,,,,,3830,75,149,1,0,0,response1disk,,7,6,17,1,0,0,rectangle,6,17,1,0,0,6,17,1,0,0,0,95,95,90,1,,,,,,,,
,,,,,,,,,,,,,FF,,,,,,,,1.401,,,,,,,,,,,,,,,,,,,,,,6103630d21124460e8fb210d,610367b4cc9a687fc6d55d1e,2021-07-29_19h45.52.890,Simcolourproject_2stim_asymm_v5,2020.2.10,Win32,60,61025ae37ef11b136ea224fe,,,,,,,,,3144,-115,61,1,0,0,response7disk,,1,-14,12,1,0,0,rectangle,-14,12,1,0,0,-14,12,1,0,0,0,96,96,124,1,,,,,,,,
,,,,,,,,,,,,,FF,,,,,,,,4.02,,,,,,,,,,,,,,,,,,,,,,6103630d21124460e8fb210d,610367b4cc9a687fc6d55d1e,2021-07-29_19h45.52.890,Simcolourproject_2stim_asymm_v5,2020.2.10,Win32,60,61025ae37ef11b136ea224fe,,,,,,,,,1008,52,-129,1,0,0,response3disk,,4,2,-1,1,0,0,rectangle,2,-1,1,0,0,2,-1,1,0,0,0,97,97,102,1,,,,,,,,
,,,,,,,,,,,,,FF,,,,,,,,0.951,,,,,,,,,,,,,,,,,,,,,,6103630d21124460e8fb210d,610367b4cc9a687fc6d55d1e,2021-07-29_19h45.52.890,Simcolourproject_2stim_asymm_v5,2020.2.10,Win32,60,61025ae37ef11b136ea224fe,,,,,,,,,3643,43,143,1,0,0,response1disk,,7,15,-2,1,0,0,rectangle,15,-2,1,0,0,15,-2,1,0,0,0,98,98,65,1,,,,,,,,
,,,,,,,,,,,,,FF,,,,,,,,0.618,,,,,,,,,,,,,,,,,,,,,,6103630d21124460e8fb210d,610367b4cc9a687fc6d55d1e,2021-07-29_19h45.52.890,Simcolourproject_2stim_asymm_v5,2020.2.10,Win32,60,61025ae37ef11b136ea224fe,,,,,,,,,606,106,39,1,0,0,response1disk,,6,19,13,1,0,0,rectangle,19,13,1,0,0,19,13,1,0,0,0,99,99,121,1,,,,,,,,
,,,,,,,,,,,,,FF,,,,,,,,0.65,,,,,,,,,,,,,,,,,,,,,,6103630d21124460e8fb210d,610367b4cc9a687fc6d55d1e,2021-07-29_19h45.52.890,Simcolourproject_2stim_asymm_v5,2020.2.10,Win32,60,61025ae37ef11b136ea224fe,,,,,,,,,1636,73,129,1,0,0,response1disk,,7,7,11,1,0,0,rectangle,7,11,1,0,0,7,11,1,0,0,0,100,100,14,1,,,,,,,,
,,,,,,,,,,,,,FF,,,,,,,,0.753,,,,,,,,,,,,,,,,,,,,,,6103630d21124460e8fb210d,610367b4cc9a687fc6d55d1e,2021-07-29_19h45.52.890,Simcolourproject_2stim_asymm_v5,2020.2.10,Win32,60,61025ae37ef11b136ea224fe,,,,,,,,,1927,66,108,1,0,0,response1disk,,7,0,-6,1,0,0,rectangle,-95,-41,1,0,0,9,3,1,0,0,0,101,101,111,1,,response5disk_3,TRUE,2,2,"[31,271,245,102,183,148,16,239,131,47,127,140,272,246,21,155,236,132,184,249]",1.384,rectangle
,,,,,,,,,,,,,FF,,,,,,,,1.019,,,,,,,,,,,,,,,,,,,,,,6103630d21124460e8fb210d,610367b4cc9a687fc6d55d1e,2021-07-29_19h45.52.890,Simcolourproject_2stim_asymm_v5,2020.2.10,Win32,60,61025ae37ef11b136ea224fe,,,,,,,,,2092,61,117,1,0,0,response1disk,,7,18,2,1,0,0,rectangle,18,2,1,0,0,18,2,1,0,0,0,102,102,95,1,,,,,,,,
,,,,,,,,,,,,,FF,,,,,,,,1.134,,,,,,,,,,,,,,,,,,,,,,6103630d21124460e8fb210d,610367b4cc9a687fc6d55d1e,2021-07-29_19h45.52.890,Simcolourproject_2stim_asymm_v5,2020.2.10,Win32,60,61025ae37ef11b136ea224fe,,,,,,,,,1274,-63,-93,1,0,0,response5disk,,3,0,3,1,0,0,rectangle,0,3,1,0,0,0,3,1,0,0,0,103,103,77,1,,,,,,,,
,,,,,,,,,,,,,FF,,,,,,,,0.934,,,,,,,,,,,,,,,,,,,,,,6103630d21124460e8fb210d,610367b4cc9a687fc6d55d1e,2021-07-29_19h45.52.890,Simcolourproject_2stim_asymm_v5,2020.2.10,Win32,60,61025ae37ef11b136ea224fe,,,,,,,,,3101,-119,-35,1,0,0,response5disk,,2,2,6,1,0,0,rectangle,2,6,1,0,0,2,6,1,0,0,0,104,104,115,1,,,,,,,,
,,,,,,,,,,,,,FF,,,,,,,,1.302,,,,,,,,,,,,,,,,,,,,,,6103630d21124460e8fb210d,610367b4cc9a687fc6d55d1e,2021-07-29_19h45.52.890,Simcolourproject_2stim_asymm_v5,2020.2.10,Win32,60,61025ae37ef11b136ea224fe,,,,,,,,,2562,62,122,1,0,0,response1disk,,7,16,7,1,0,0,rectangle,16,7,1,0,0,16,7,1,0,0,0,105,105,94,1,,,,,,,,
,,,,,,,,,,,,,FF,,,,,,,,1.466,,,,,,,,,,,,,,,,,,,,,,6103630d21124460e8fb210d,610367b4cc9a687fc6d55d1e,2021-07-29_19h45.52.890,Simcolourproject_2stim_asymm_v5,2020.2.10,Win32,60,61025ae37ef11b136ea224fe,,,,,,,,,1884,126,-38,1,0,0,response3disk,,5,13,13,1,0,0,rectangle,13,13,1,0,0,13,13,1,0,0,0,106,106,26,1,,,,,,,,
,,,,,,,,,,,,,FF,,,,,,,,0.835,,,,,,,,,,,,,,,,,,,,,,6103630d21124460e8fb210d,610367b4cc9a687fc6d55d1e,2021-07-29_19h45.52.890,Simcolourproject_2stim_asymm_v5,2020.2.10,Win32,60,61025ae37ef11b136ea224fe,,,,,,,,,1600,-103,28,1,0,0,response7disk,,1,2,-4,1,0,0,rectangle,2,-4,1,0,0,2,-4,1,0,0,0,107,107,9,1,,,,,,,,
,,,,,,,,,,,,,FF,,,,,,,,0.767,,,,,,,,,,,,,,,,,,,,,,6103630d21124460e8fb210d,610367b4cc9a687fc6d55d1e,2021-07-29_19h45.52.890,Simcolourproject_2stim_asymm_v5,2020.2.10,Win32,60,61025ae37ef11b136ea224fe,,,,,,,,,3712,-32,126,1,0,0,response7disk,,0,-4,4,1,0,0,rectangle,-4,4,1,0,0,-4,4,1,0,0,0,108,108,99,1,,,,,,,,
,,,,,,,,,,,,,FF,,,,,,,,0.65,,,,,,,,,,,,,,,,,,,,,,6103630d21124460e8fb210d,610367b4cc9a687fc6d55d1e,2021-07-29_19h45.52.890,Simcolourproject_2stim_asymm_v5,2020.2.10,Win32,60,61025ae37ef11b136ea224fe,,,,,,,,,1555,57,125,1,0,0,response1disk,,7,11,7,1,0,0,rectangle,11,7,1,0,0,11,7,1,0,0,0,109,109,8,1,,,,,,,,
,,,,,,,,,,,,,FF,,,,,,,,0.65,,,,,,,,,,,,,,,,,,,,,,6103630d21124460e8fb210d,610367b4cc9a687fc6d55d1e,2021-07-29_19h45.52.890,Simcolourproject_2stim_asymm_v5,2020.2.10,Win32,60,61025ae37ef11b136ea224fe,,,,,,,,,432,-89,-46,1,0,0,response5disk,,2,7,-2,1,0,0,rectangle,7,-2,1,0,0,7,-2,1,0,0,0,110,110,130,1,,,,,,,,
,,,,,,,,,,,,,FF,,,,,,,,0.634,,,,,,,,,,,,,,,,,,,,,,6103630d21124460e8fb210d,610367b4cc9a687fc6d55d1e,2021-07-29_19h45.52.890,Simcolourproject_2stim_asymm_v5,2020.2.10,Win32,60,61025ae37ef11b136ea224fe,,,,,,,,,3736,74,122,1,0,0,response1disk,,7,15,20,1,0,0,rectangle,15,20,1,0,0,15,20,1,0,0,0,111,111,57,1,,,,,,,,
,,,,,,,,,,,,,FF,,,,,,,,0.599,,,,,,,,,,,,,,,,,,,,,,6103630d21124460e8fb210d,610367b4cc9a687fc6d55d1e,2021-07-29_19h45.52.890,Simcolourproject_2stim_asymm_v5,2020.2.10,Win32,60,61025ae37ef11b136ea224fe,,,,,,,,,3460,89,-41,1,0,0,response3disk,,5,-1,-3,1,0,0,rectangle,-1,-3,1,0,0,-1,-3,1,0,0,0,112,112,45,1,,,,,,,,
,,,,,,,,,,,,,FF,,,,,,,,0.769,,,,,,,,,,,,,,,,,,,,,,6103630d21124460e8fb210d,610367b4cc9a687fc6d55d1e,2021-07-29_19h45.52.890,Simcolourproject_2stim_asymm_v5,2020.2.10,Win32,60,61025ae37ef11b136ea224fe,,,,,,,,,3435,-57,-89,1,0,0,response5disk,,3,-9,-4,1,0,0,rectangle,-9,-4,1,0,0,-9,-4,1,0,0,0,113,113,92,1,,,,,,,,
,,,,,,,,,,,,,FF,,,,,,,,0.58,,,,,,,,,,,,,,,,,,,,,,6103630d21124460e8fb210d,610367b4cc9a687fc6d55d1e,2021-07-29_19h45.52.890,Simcolourproject_2stim_asymm_v5,2020.2.10,Win32,60,61025ae37ef11b136ea224fe,,,,,,,,,1695,85,142,1,0,0,response1disk,,7,-10,6,1,0,0,rectangle,-10,6,1,0,0,-10,6,1,0,0,0,114,114,83,1,,,,,,,,
,,,,,,,,,,,,,FF,,,,,,,,0.533,,,,,,,,,,,,,,,,,,,,,,6103630d21124460e8fb210d,610367b4cc9a687fc6d55d1e,2021-07-29_19h45.52.890,Simcolourproject_2stim_asymm_v5,2020.2.10,Win32,60,61025ae37ef11b136ea224fe,,,,,,,,,1635,60,117,1,0,0,response1disk,,7,-1,-4,1,0,0,rectangle,-1,-4,1,0,0,-1,-4,1,0,0,0,115,115,156,1,,,,,,,,
,,,,,,,,,,,,,FF,,,,,,,,0.667,,,,,,,,,,,,,,,,,,,,,,6103630d21124460e8fb210d,610367b4cc9a687fc6d55d1e,2021-07-29_19h45.52.890,Simcolourproject_2stim_asymm_v5,2020.2.10,Win32,60,61025ae37ef11b136ea224fe,,,,,,,,,1773,118,41,1,0,0,response1disk,,6,1,6,1,0,0,rectangle,1,6,1,0,0,1,6,1,0,0,0,116,116,139,1,,,,,,,,
,,,,,,,,,,,,,FF,,,,,,,,0.631,,,,,,,,,,,,,,,,,,,,,,6103630d21124460e8fb210d,610367b4cc9a687fc6d55d1e,2021-07-29_19h45.52.890,Simcolourproject_2stim_asymm_v5,2020.2.10,Win32,60,61025ae37ef11b136ea224fe,,,,,,,,,4000,56,113,1,0,0,response1disk,,7,-1,-3,1,0,0,rectangle,-1,-3,1,0,0,-1,-3,1,0,0,0,117,117,44,1,,,,,,,,
,,,,,,,,,,,,,FF,,,,,,,,0.468,,,,,,,,,,,,,,,,,,,,,,6103630d21124460e8fb210d,610367b4cc9a687fc6d55d1e,2021-07-29_19h45.52.890,Simcolourproject_2stim_asymm_v5,2020.2.10,Win32,60,61025ae37ef11b136ea224fe,,,,,,,,,2732,101,59,1,0,0,response1disk,,6,10,-1,1,0,0,rectangle,10,-1,1,0,0,10,-1,1,0,0,0,118,118,154,1,,,,,,,,
,,,,,,,,,,,,,FF,,,,,,,,0.535,,,,,,,,,,,,,,,,,,,,,,6103630d21124460e8fb210d,610367b4cc9a687fc6d55d1e,2021-07-29_19h45.52.890,Simcolourproject_2stim_asymm_v5,2020.2.10,Win32,60,61025ae37ef11b136ea224fe,,,,,,,,,1992,60,117,1,0,0,response1disk,,7,-7,-16,1,0,0,rectangle,-7,-16,1,0,0,-7,-16,1,0,0,0,119,119,28,1,,,,,,,,
,,,,,,,,,,,,,FF,,,,,,,,0.499,,,,,,,,,,,,,,,,,,,,,,6103630d21124460e8fb210d,610367b4cc9a687fc6d55d1e,2021-07-29_19h45.52.890,Simcolourproject_2stim_asymm_v5,2020.2.10,Win32,60,61025ae37ef11b136ea224fe,,,,,,,,,1711,44,146,1,0,0,response1disk,,7,-6,0,1,0,0,rectangle,-6,0,1,0,0,-6,0,1,0,0,0,120,120,82,1,,,,,,,,
,,,,,,,,,,,,,FF,,,,,,,,0.7,,,,,,,,,,,,,,,,,,,,,,6103630d21124460e8fb210d,610367b4cc9a687fc6d55d1e,2021-07-29_19h45.52.890,Simcolourproject_2stim_asymm_v5,2020.2.10,Win32,60,61025ae37ef11b136ea224fe,,,,,,,,,1808,66,-46,1,0,0,response3disk,,5,3,-9,1,0,0,rectangle,3,-9,1,0,0,3,-9,1,0,0,0,121,121,157,1,,,,,,,,
,,,,,,,,,,,,,FF,,,,,,,,1.085,,,,,,,,,,,,,,,,,,,,,,6103630d21124460e8fb210d,610367b4cc9a687fc6d55d1e,2021-07-29_19h45.52.890,Simcolourproject_2stim_asymm_v5,2020.2.10,Win32,60,61025ae37ef11b136ea224fe,,,,,,,,,487,-31,-89,1,0,0,response5disk,,3,8,-15,1,0,0,rectangle,8,-15,1,0,0,8,-15,1,0,0,0,122,122,35,1,,,,,,,,
,,,,,,,,,,,,,FF,,,,,,,,0.802,,,,,,,,,,,,,,,,,,,,,,6103630d21124460e8fb210d,610367b4cc9a687fc6d55d1e,2021-07-29_19h45.52.890,Simcolourproject_2stim_asymm_v5,2020.2.10,Win32,60,61025ae37ef11b136ea224fe,,,,,,,,,4052,-101,31,1,0,0,response7disk,,1,15,-6,1,0,0,rectangle,15,-6,1,0,0,15,-6,1,0,0,0,123,123,148,1,,,,,,,,
,,,,,,,,,,,,,FF,,,,,,,,1.802,,,,,,,,,,,,,,,,,,,,,,6103630d21124460e8fb210d,610367b4cc9a687fc6d55d1e,2021-07-29_19h45.52.890,Simcolourproject_2stim_asymm_v5,2020.2.10,Win32,60,61025ae37ef11b136ea224fe,,,,,,,,,675,68,112,1,0,0,response1disk,,7,8,8,1,0,0,rectangle,8,8,1,0,0,8,8,1,0,0,0,124,124,63,1,,,,,,,,
,,,,,,,,,,,,,FF,,,,,,,,0.835,,,,,,,,,,,,,,,,,,,,,,6103630d21124460e8fb210d,610367b4cc9a687fc6d55d1e,2021-07-29_19h45.52.890,Simcolourproject_2stim_asymm_v5,2020.2.10,Win32,60,61025ae37ef11b136ea224fe,,,,,,,,,3711,-102,46,1,0,0,response7disk,,1,9,0,1,0,0,rectangle,9,0,1,0,0,9,0,1,0,0,0,125,125,125,1,,,,,,,,
,,,,,,,,,,,,,FF,,,,,,,,0.918,,,,,,,,,,,,,,,,,,,,,,6103630d21124460e8fb210d,610367b4cc9a687fc6d55d1e,2021-07-29_19h45.52.890,Simcolourproject_2stim_asymm_v5,2020.2.10,Win32,60,61025ae37ef11b136ea224fe,,,,,,,,,2671,-112,-40,1,0,0,response5disk,,2,25,0,1,0,0,rectangle,-134,-49,1,0,0,3,4,1,0,0,0,126,126,10,1,,response5disk_3,TRUE,2,2,"[31,271,245,102,183,148,16,239,131,47,127,140,272,246,21,155,236,132,184,249]",1.535,rectangle
,,,,,,,,,,,,,FF,,,,,,,,0.751,,,,,,,,,,,,,,,,,,,,,,6103630d21124460e8fb210d,610367b4cc9a687fc6d55d1e,2021-07-29_19h45.52.890,Simcolourproject_2stim_asymm_v5,2020.2.10,Win32,60,61025ae37ef11b136ea224fe,,,,,,,,,3232,58,127,1,0,0,response1disk,,7,19,-5,1,0,0,rectangle,19,-5,1,0,0,19,-5,1,0,0,0,127,127,75,1,,,,,,,,
,,,,,,,,,,,,,FF,,,,,,,,0.65,,,,,,,,,,,,,,,,,,,,,,6103630d21124460e8fb210d,610367b4cc9a687fc6d55d1e,2021-07-29_19h45.52.890,Simcolourproject_2stim_asymm_v5,2020.2.10,Win32,60,61025ae37ef11b136ea224fe,,,,,,,,,3425,-59,128,1,0,0,response7disk,,0,-14,11,1,0,0,rectangle,-14,11,1,0,0,-14,11,1,0,0,0,128,128,62,1,,,,,,,,
,,,,,,,,,,,,,FF,,,,,,,,0.75,,,,,,,,,,,,,,,,,,,,,,6103630d21124460e8fb210d,610367b4cc9a687fc6d55d1e,2021-07-29_19h45.52.890,Simcolourproject_2stim_asymm_v5,2020.2.10,Win32,60,61025ae37ef11b136ea224fe,,,,,,,,,1921,138,44,1,0,0,response1disk,,6,-13,-12,1,0,0,rectangle,-13,-12,1,0,0,-13,-12,1,0,0,0,129,129,142,1,,,,,,,,
,,,,,,,,,,,,,FF,,,,,,,,0.552,,,,,,,,,,,,,,,,,,,,,,6103630d21124460e8fb210d,610367b4cc9a687fc6d55d1e,2021-07-29_19h45.52.890,Simcolourproject_2stim_asymm_v5,2020.2.10,Win32,60,61025ae37ef11b136ea224fe,,,,,,,,,3449,50,139,1,0,0,response1disk,,7,4,9,1,0,0,rectangle,55,-109,1,0,0,1,-6,1,0,0,0,130,130,159,1,,response3disk_3,TRUE,4,4,"[31,271,245,102,183,148,16,239,131,47,127,140,272,246,21,155,236,132,184,249]",1.352,rectangle
,,,,,,,,,,,,,FF,,,,,,,,0.782,,,,,,,,,,,,,,,,,,,,,,6103630d21124460e8fb210d,610367b4cc9a687fc6d55d1e,2021-07-29_19h45.52.890,Simcolourproject_2stim_asymm_v5,2020.2.10,Win32,60,61025ae37ef11b136ea224fe,,,,,,,,,4133,60,127,1,0,0,response1disk,,7,13,4,1,0,0,rectangle,125,33,1,0,0,24,3,1,0,0,0,131,131,80,1,,response1disk_3,TRUE,6,0,"[31,271,245,102,183,148,16,239,131,47,127,140,272,246,21,155,236,132,184,249]",1.631,rectangle
,,,,,,,,,,,,,FF,,,,,,,,5.923,,,,,,,,,,,,,,,,,,,,,,6103630d21124460e8fb210d,610367b4cc9a687fc6d55d1e,2021-07-29_19h45.52.890,Simcolourproject_2stim_asymm_v5,2020.2.10,Win32,60,61025ae37ef11b136ea224fe,,,,,,,,,2171,-135,-60,1,0,0,response5disk,,2,-6,-5,1,0,0,rectangle,-6,-5,1,0,0,-6,-5,1,0,0,0,132,132,47,1,,,,,,,,
,,,,,,,,,,,,,FF,,,,,,,,0.584,,,,,,,,,,,,,,,,,,,,,,6103630d21124460e8fb210d,610367b4cc9a687fc6d55d1e,2021-07-29_19h45.52.890,Simcolourproject_2stim_asymm_v5,2020.2.10,Win32,60,61025ae37ef11b136ea224fe,,,,,,,,,1297,-52,123,1,0,0,response7disk,,0,-12,-1,1,0,0,rectangle,-12,-1,1,0,0,-12,-1,1,0,0,0,133,133,129,1,,,,,,,,
,,,,,,,,,,,,,FF,,,,,,,,0.617,,,,,,,,,,,,,,,,,,,,,,6103630d21124460e8fb210d,610367b4cc9a687fc6d55d1e,2021-07-29_19h45.52.890,Simcolourproject_2stim_asymm_v5,2020.2.10,Win32,60,61025ae37ef11b136ea224fe,,,,,,,,,1815,-56,131,1,0,0,response7disk,,0,12,-6,1,0,0,rectangle,12,-6,1,0,0,12,-6,1,0,0,0,134,134,103,1,,,,,,,,
,,,,,,,,,,,,,FF,,,,,,,,1.068,,,,,,,,,,,,,,,,,,,,,,6103630d21124460e8fb210d,610367b4cc9a687fc6d55d1e,2021-07-29_19h45.52.890,Simcolourproject_2stim_asymm_v5,2020.2.10,Win32,60,61025ae37ef11b136ea224fe,,,,,,,,,739,-104,-46,1,0,0,response5disk,,2,-2,-2,1,0,0,rectangle,-2,-2,1,0,0,-2,-2,1,0,0,0,135,135,96,1,,,,,,,,
,,,,,,,,,,,,,FF,,,,,,,,0.733,,,,,,,,,,,,,,,,,,,,,,6103630d21124460e8fb210d,610367b4cc9a687fc6d55d1e,2021-07-29_19h45.52.890,Simcolourproject_2stim_asymm_v5,2020.2.10,Win32,60,61025ae37ef11b136ea224fe,,,,,,,,,3260,48,131,1,0,0,response1disk,,7,-3,-9,1,0,0,rectangle,-3,-9,1,0,0,-3,-9,1,0,0,0,136,136,58,1,,,,,,,,
,,,,,,,,,,,,,FF,,,,,,,,0.769,,,,,,,,,,,,,,,,,,,,,,6103630d21124460e8fb210d,610367b4cc9a687fc6d55d1e,2021-07-29_19h45.52.890,Simcolourproject_2stim_asymm_v5,2020.2.10,Win32,60,61025ae37ef11b136ea224fe,,,,,,,,,3944,55,115,1,0,0,response1disk,,7,3,-2,1,0,0,rectangle,3,-2,1,0,0,3,-2,1,0,0,0,137,137,24,1,,,,,,,,
,,,,,,,,,,,,,FF,,,,,,,,1.17,,,,,,,,,,,,,,,,,,,,,,6103630d21124460e8fb210d,610367b4cc9a687fc6d55d1e,2021-07-29_19h45.52.890,Simcolourproject_2stim_asymm_v5,2020.2.10,Win32,60,61025ae37ef11b136ea224fe,,,,,,,,,3575,95,51,1,0,0,response1disk,,6,10,7,1,0,0,rectangle,10,7,1,0,0,10,7,1,0,0,0,138,138,106,1,,,,,,,,
,,,,,,,,,,,,,FF,,,,,,,,1.002,,,,,,,,,,,,,,,,,,,,,,6103630d21124460e8fb210d,610367b4cc9a687fc6d55d1e,2021-07-29_19h45.52.890,Simcolourproject_2stim_asymm_v5,2020.2.10,Win32,60,61025ae37ef11b136ea224fe,,,,,,,,,2077,104,-52,1,0,0,response3disk,,5,5,-5,1,0,0,rectangle,-139,65,1,0,0,-12,14,1,0,0,0,139,139,42,1,,response7disk_3,TRUE,1,1,"[31,271,245,102,183,148,16,239,131,47,127,140,272,246,21,155,236,132,184,249]",1.451,rectangle
,,,,,,,,,,,,,FF,,,,,,,,0.918,,,,,,,,,,,,,,,,,,,,,,6103630d21124460e8fb210d,610367b4cc9a687fc6d55d1e,2021-07-29_19h45.52.890,Simcolourproject_2stim_asymm_v5,2020.2.10,Win32,60,61025ae37ef11b136ea224fe,,,,,,,,,3397,122,48,1,0,0,response1disk,,6,-4,-6,1,0,0,rectangle,-4,-6,1,0,0,-4,-6,1,0,0,0,140,140,110,1,,,,,,,,
,,,,,,,,,,,,,FF,,,,,,,,0.935,,,,,,,,,,,,,,,,,,,,,,6103630d21124460e8fb210d,610367b4cc9a687fc6d55d1e,2021-07-29_19h45.52.890,Simcolourproject_2stim_asymm_v5,2020.2.10,Win32,60,61025ae37ef11b136ea224fe,,,,,,,,,486,42,113,1,0,0,response1disk,,7,-10,-1,1,0,0,rectangle,-10,-1,1,0,0,-10,-1,1,0,0,0,141,141,2,1,,,,,,,,
,,,,,,,,,,,,,FF,,,,,,,,1.002,,,,,,,,,,,,,,,,,,,,,,6103630d21124460e8fb210d,610367b4cc9a687fc6d55d1e,2021-07-29_19h45.52.890,Simcolourproject_2stim_asymm_v5,2020.2.10,Win32,60,61025ae37ef11b136ea224fe,,,,,,,,,1688,-63,-109,1,0,0,response5disk,,3,2,-11,1,0,0,rectangle,2,-11,1,0,0,2,-11,1,0,0,0,142,142,34,1,,,,,,,,
,,,,,,,,,,,,,FF,,,,,,,,0.768,,,,,,,,,,,,,,,,,,,,,,6103630d21124460e8fb210d,610367b4cc9a687fc6d55d1e,2021-07-29_19h45.52.890,Simcolourproject_2stim_asymm_v5,2020.2.10,Win32,60,61025ae37ef11b136ea224fe,,,,,,,,,22,109,-58,1,0,0,response3disk,,5,-9,-4,1,0,0,rectangle,-9,-4,1,0,0,-9,-4,1,0,0,0,143,143,123,1,,,,,,,,
,,,,,,,,,,,,,FF,,,,,,,,1.269,,,,,,,,,,,,,,,,,,,,,,6103630d21124460e8fb210d,610367b4cc9a687fc6d55d1e,2021-07-29_19h45.52.890,Simcolourproject_2stim_asymm_v5,2020.2.10,Win32,60,61025ae37ef11b136ea224fe,,,,,,,,,978,-117,-59,1,0,0,response5disk,,2,2,-7,1,0,0,rectangle,2,-7,1,0,0,2,-7,1,0,0,0,144,144,97,1,,,,,,,,
,,,,,,,,,,,,,FF,,,,,,,,0.601,,,,,,,,,,,,,,,,,,,,,,6103630d21124460e8fb210d,610367b4cc9a687fc6d55d1e,2021-07-29_19h45.52.890,Simcolourproject_2stim_asymm_v5,2020.2.10,Win32,60,61025ae37ef11b136ea224fe,,,,,,,,,1603,-30,97,1,0,0,response7disk,,0,6,-1,1,0,0,rectangle,6,-1,1,0,0,6,-1,1,0,0,0,145,145,73,1,,,,,,,,
,,,,,,,,,,,,,FF,,,,,,,,0.851,,,,,,,,,,,,,,,,,,,,,,6103630d21124460e8fb210d,610367b4cc9a687fc6d55d1e,2021-07-29_19h45.52.890,Simcolourproject_2stim_asymm_v5,2020.2.10,Win32,60,61025ae37ef11b136ea224fe,,,,,,,,,3561,57,122,1,0,0,response1disk,,7,7,11,1,0,0,rectangle,7,11,1,0,0,7,11,1,0,0,0,146,146,114,1,,,,,,,,
,,,,,,,,,,,,,FF,,,,,,,,0.818,,,,,,,,,,,,,,,,,,,,,,6103630d21124460e8fb210d,610367b4cc9a687fc6d55d1e,2021-07-29_19h45.52.890,Simcolourproject_2stim_asymm_v5,2020.2.10,Win32,60,61025ae37ef11b136ea224fe,,,,,,,,,1922,66,93,1,0,0,response1disk,,7,-10,0,1,0,0,rectangle,-41,97,1,0,0,6,-2,1,0,0,0,147,147,36,1,,response7disk_3,TRUE,0,0,"[31,271,245,102,183,148,16,239,131,47,127,140,272,246,21,155,236,132,184,249]",1.752,rectangle
,,,,,,,,,,,,,FF,,,,,,,,1.134,,,,,,,,,,,,,,,,,,,,,,6103630d21124460e8fb210d,610367b4cc9a687fc6d55d1e,2021-07-29_19h45.52.890,Simcolourproject_2stim_asymm_v5,2020.2.10,Win32,60,61025ae37ef11b136ea224fe,,,,,,,,,2954,-35,-87,1,0,0,response5disk,,3,3,0,1,0,0,rectangle,3,0,1,0,0,3,0,1,0,0,0,148,148,141,1,,,,,,,,
,,,,,,,,,,,,,FF,,,,,,,,0.901,,,,,,,,,,,,,,,,,,,,,,6103630d21124460e8fb210d,610367b4cc9a687fc6d55d1e,2021-07-29_19h45.52.890,Simcolourproject_2stim_asymm_v5,2020.2.10,Win32,60,61025ae37ef11b136ea224fe,,,,,,,,,3393,-119,-53,1,0,0,response5disk,,2,10,-5,1,0,0,rectangle,10,-5,1,0,0,10,-5,1,0,0,0,149,149,37,1,,,,,,,,
,,,,,,,,,,,,,FF,,,,,,,,1.068,,,,,,,,,,,,,,,,,,,,,,6103630d21124460e8fb210d,610367b4cc9a687fc6d55d1e,2021-07-29_19h45.52.890,Simcolourproject_2stim_asymm_v5,2020.2.10,Win32,60,61025ae37ef11b136ea224fe,,,,,,,,,1481,60,118,1,0,0,response1disk,,7,4,9,1,0,0,rectangle,4,9,1,0,0,4,9,1,0,0,0,150,150,127,1,,,,,,,,
,,,,,,,,,,,,,FF,,,,,,,,0.989,,,,,,,,,,,,,,,,,,,,,,6103630d21124460e8fb210d,610367b4cc9a687fc6d55d1e,2021-07-29_19h45.52.890,Simcolourproject_2stim_asymm_v5,2020.2.10,Win32,60,61025ae37ef11b136ea224fe,,,,,,,,,2259,116,75,1,0,0,response1disk,,6,28,-6,1,0,0,rectangle,28,-6,1,0,0,28,-6,1,0,0,0,151,151,4,1,,,,,,,,
,,,,,,,,,,,,,FF,,,,,,,,0.718,,,,,,,,,,,,,,,,,,,,,,6103630d21124460e8fb210d,610367b4cc9a687fc6d55d1e,2021-07-29_19h45.52.890,Simcolourproject_2stim_asymm_v5,2020.2.10,Win32,60,61025ae37ef11b136ea224fe,,,,,,,,,2054,56,132,1,0,0,response1disk,,7,-6,3,1,0,0,rectangle,-6,3,1,0,0,-6,3,1,0,0,0,152,152,88,1,,,,,,,,
,,,,,,,,,,,,,FF,,,,,,,,0.833,,,,,,,,,,,,,,,,,,,,,,6103630d21124460e8fb210d,610367b4cc9a687fc6d55d1e,2021-07-29_19h45.52.890,Simcolourproject_2stim_asymm_v5,2020.2.10,Win32,60,61025ae37ef11b136ea224fe,,,,,,,,,1086,123,-58,1,0,0,response3disk,,5,-15,10,1,0,0,rectangle,-15,10,1,0,0,-15,10,1,0,0,0,153,153,21,1,,,,,,,,
,,,,,,,,,,,,,FF,,,,,,,,0.686,,,,,,,,,,,,,,,,,,,,,,6103630d21124460e8fb210d,610367b4cc9a687fc6d55d1e,2021-07-29_19h45.52.890,Simcolourproject_2stim_asymm_v5,2020.2.10,Win32,60,61025ae37ef11b136ea224fe,,,,,,,,,1714,73,132,1,0,0,response1disk,,7,8,0,1,0,0,rectangle,132,51,1,0,0,-7,9,1,0,0,0,154,154,104,1,,response1disk_3,TRUE,6,6,"[31,271,245,102,183,148,16,239,131,47,127,140,272,246,21,155,236,132,184,249]",1.634,rectangle
,,,,,,,,,,,,,FF,,,,,,,,1.102,,,,,,,,,,,,,,,,,,,,,,6103630d21124460e8fb210d,610367b4cc9a687fc6d55d1e,2021-07-29_19h45.52.890,Simcolourproject_2stim_asymm_v5,2020.2.10,Win32,60,61025ae37ef11b136ea224fe,,,,,,,,,2144,78,126,1,0,0,response1disk,,7,4,0,1,0,0,rectangle,4,0,1,0,0,4,0,1,0,0,0,155,155,122,1,,,,,,,,
,,,,,,,,,,,,,FF,,,,,,,,2.32,,,,,,,,,,,,,,,,,,,,,,6103630d21124460e8fb210d,610367b4cc9a687fc6d55d1e,2021-07-29_19h45.52.890,Simcolourproject_2stim_asymm_v5,2020.2.10,Win32,60,61025ae37ef11b136ea224fe,,,,,,,,,139,87,170,1,0,0,response1disk,,7,-2,-1,1,0,0,rectangle,-2,-1,1,0,0,-2,-1,1,0,0,0,156,156,131,1,,,,,,,,
,,,,,,,,,,,,,FF,,,,,,,,0.899,,,,,,,,,,,,,,,,,,,,,,6103630d21124460e8fb210d,610367b4cc9a687fc6d55d1e,2021-07-29_19h45.52.890,Simcolourproject_2stim_asymm_v5,2020.2.10,Win32,60,61025ae37ef11b136ea224fe,,,,,,,,,1658,76,-26,1,0,0,response3disk,,5,3,5,1,0,0,rectangle,3,5,1,0,0,3,5,1,0,0,0,157,157,33,1,,,,,,,,
,,,,,,,,,,,,,FF,,,,,,,,0.95,,,,,,,,,,,,,,,,,,,,,,6103630d21124460e8fb210d,610367b4cc9a687fc6d55d1e,2021-07-29_19h45.52.890,Simcolourproject_2stim_asymm_v5,2020.2.10,Win32,60,61025ae37ef11b136ea224fe,,,,,,,,,611,-48,-114,1,0,0,response5disk,,3,4,10,1,0,0,rectangle,4,10,1,0,0,4,10,1,0,0,0,158,158,68,1,,,,,,,,
,,,,,,,,,,,,,FF,,,,,,,,0.785,,,,,,,,,,,,,,,,,,,,,,6103630d21124460e8fb210d,610367b4cc9a687fc6d55d1e,2021-07-29_19h45.52.890,Simcolourproject_2stim_asymm_v5,2020.2.10,Win32,60,61025ae37ef11b136ea224fe,,,,,,,,,3868,138,73,1,0,0,response1disk,,6,4,12,1,0,0,rectangle,4,12,1,0,0,4,12,1,0,0,0,159,159,49,1,,,,,,,,
,,,,,,,,,,,,,FF,,,,,,,,0.986,,,,,,,,,,,,,,,,,,,,,,6103630d21124460e8fb210d,610367b4cc9a687fc6d55d1e,2021-07-29_19h45.52.890,Simcolourproject_2stim_asymm_v5,2020.2.10,Win32,60,61025ae37ef11b136ea224fe,,,,,,,,,2040,-95,-61,1,0,0,response5disk,,2,-23,-2,1,0,0,rectangle,-23,-2,1,0,0,-23,-2,1,0,0,1,0,160,20,1,,,,,,,,
,,,,,,,,,,,,,FF,,,,,,,,0.701,,,,,,,,,,,,,,,,,,,,,,6103630d21124460e8fb210d,610367b4cc9a687fc6d55d1e,2021-07-29_19h45.52.890,Simcolourproject_2stim_asymm_v5,2020.2.10,Win32,60,61025ae37ef11b136ea224fe,,,,,,,,,722,-48,104,1,0,0,response7disk,,0,-7,8,1,0,0,rectangle,-7,8,1,0,0,-7,8,1,0,0,1,1,161,133,1,,,,,,,,
,,,,,,,,,,,,,FF,,,,,,,,1.035,,,,,,,,,,,,,,,,,,,,,,6103630d21124460e8fb210d,610367b4cc9a687fc6d55d1e,2021-07-29_19h45.52.890,Simcolourproject_2stim_asymm_v5,2020.2.10,Win32,60,61025ae37ef11b136ea224fe,,,,,,,,,3066,125,64,1,0,0,response1disk,,6,21,6,1,0,0,rectangle,21,6,1,0,0,21,6,1,0,0,1,2,162,24,1,,,,,,,,
,,,,,,,,,,,,,FF,,,,,,,,0.617,,,,,,,,,,,,,,,,,,,,,,6103630d21124460e8fb210d,610367b4cc9a687fc6d55d1e,2021-07-29_19h45.52.890,Simcolourproject_2stim_asymm_v5,2020.2.10,Win32,60,61025ae37ef11b136ea224fe,,,,,,,,,2862,54,127,1,0,0,response1disk,,7,2,6,1,0,0,rectangle,2,6,1,0,0,2,6,1,0,0,1,3,163,101,1,,,,,,,,
,,,,,,,,,,,,,FF,,,,,,,,0.583,,,,,,,,,,,,,,,,,,,,,,6103630d21124460e8fb210d,610367b4cc9a687fc6d55d1e,2021-07-29_19h45.52.890,Simcolourproject_2stim_asymm_v5,2020.2.10,Win32,60,61025ae37ef11b136ea224fe,,,,,,,,,2117,22,105,1,0,0,response1disk,,7,-18,-4,1,0,0,rectangle,-18,-4,1,0,0,-18,-4,1,0,0,1,4,164,140,1,,,,,,,,
,,,,,,,,,,,,,FF,,,,,,,,1.652,,,,,,,,,,,,,,,,,,,,,,6103630d21124460e8fb210d,610367b4cc9a687fc6d55d1e,2021-07-29_19h45.52.890,Simcolourproject_2stim_asymm_v5,2020.2.10,Win32,60,61025ae37ef11b136ea224fe,,,,,,,,,257,85,-113,1,0,0,response3disk,,4,-4,8,1,0,0,rectangle,-4,8,1,0,0,-4,8,1,0,0,1,5,165,95,1,,,,,,,,
,,,,,,,,,,,,,FF,,,,,,,,1.202,,,,,,,,,,,,,,,,,,,,,,6103630d21124460e8fb210d,610367b4cc9a687fc6d55d1e,2021-07-29_19h45.52.890,Simcolourproject_2stim_asymm_v5,2020.2.10,Win32,60,61025ae37ef11b136ea224fe,,,,,,,,,122,-98,-61,1,0,0,response5disk,,2,28,7,1,0,0,rectangle,28,7,1,0,0,28,7,1,0,0,1,6,166,151,1,,,,,,,,
,,,,,,,,,,,,,FF,,,,,,,,0.667,,,,,,,,,,,,,,,,,,,,,,6103630d21124460e8fb210d,610367b4cc9a687fc6d55d1e,2021-07-29_19h45.52.890,Simcolourproject_2stim_asymm_v5,2020.2.10,Win32,60,61025ae37ef11b136ea224fe,,,,,,,,,4112,110,63,1,0,0,response1disk,,6,20,5,1,0,0,rectangle,20,5,1,0,0,20,5,1,0,0,1,7,167,86,1,,,,,,,,
,,,,,,,,,,,,,FF,,,,,,,,0.551,,,,,,,,,,,,,,,,,,,,,,6103630d21124460e8fb210d,610367b4cc9a687fc6d55d1e,2021-07-29_19h45.52.890,Simcolourproject_2stim_asymm_v5,2020.2.10,Win32,60,61025ae37ef11b136ea224fe,,,,,,,,,3758,40,108,1,0,0,response1disk,,7,-9,3,1,0,0,rectangle,-9,3,1,0,0,-9,3,1,0,0,1,8,168,123,1,,,,,,,,
,,,,,,,,,,,,,FF,,,,,,,,0.912,,,,,,,,,,,,,,,,,,,,,,6103630d21124460e8fb210d,610367b4cc9a687fc6d55d1e,2021-07-29_19h45.52.890,Simcolourproject_2stim_asymm_v5,2020.2.10,Win32,60,61025ae37ef11b136ea224fe,,,,,,,,,3179,49,134,1,0,0,response1disk,,7,-10,-3,1,0,0,rectangle,-10,-3,1,0,0,-10,-3,1,0,0,1,9,169,2,1,,,,,,,,
,,,,,,,,,,,,,FF,,,,,,,,0.716,,,,,,,,,,,,,,,,,,,,,,6103630d21124460e8fb210d,610367b4cc9a687fc6d55d1e,2021-07-29_19h45.52.890,Simcolourproject_2stim_asymm_v5,2020.2.10,Win32,60,61025ae37ef11b136ea224fe,,,,,,,,,4045,65,126,1,0,0,response1disk,,7,17,10,1,0,0,rectangle,17,10,1,0,0,17,10,1,0,0,1,10,170,91,1,,,,,,,,
,,,,,,,,,,,,,FF,,,,,,,,0.718,,,,,,,,,,,,,,,,,,,,,,6103630d21124460e8fb210d,610367b4cc9a687fc6d55d1e,2021-07-29_19h45.52.890,Simcolourproject_2stim_asymm_v5,2020.2.10,Win32,60,61025ae37ef11b136ea224fe,,,,,,,,,3489,89,-48,1,0,0,response3disk,,5,4,-10,1,0,0,rectangle,4,-10,1,0,0,4,-10,1,0,0,1,11,171,38,1,,,,,,,,
,,,,,,,,,,,,,FF,,,,,,,,1.051,,,,,,,,,,,,,,,,,,,,,,6103630d21124460e8fb210d,610367b4cc9a687fc6d55d1e,2021-07-29_19h45.52.890,Simcolourproject_2stim_asymm_v5,2020.2.10,Win32,60,61025ae37ef11b136ea224fe,,,,,,,,,2997,-129,-45,1,0,0,response5disk,,2,4,8,1,0,0,rectangle,4,8,1,0,0,4,8,1,0,0,1,12,172,102,1,,,,,,,,
,,,,,,,,,,,,,FF,,,,,,,,1.048,,,,,,,,,,,,,,,,,,,,,,6103630d21124460e8fb210d,610367b4cc9a687fc6d55d1e,2021-07-29_19h45.52.890,Simcolourproject_2stim_asymm_v5,2020.2.10,Win32,60,61025ae37ef11b136ea224fe,,,,,,,,,4342,135,65,1,0,0,response1disk,,6,12,13,1,0,0,rectangle,12,13,1,0,0,12,13,1,0,0,1,13,173,90,1,,,,,,,,
,,,,,,,,,,,,,FF,,,,,,,,0.734,,,,,,,,,,,,,,,,,,,,,,6103630d21124460e8fb210d,610367b4cc9a687fc6d55d1e,2021-07-29_19h45.52.890,Simcolourproject_2stim_asymm_v5,2020.2.10,Win32,60,61025ae37ef11b136ea224fe,,,,,,,,,3070,63,103,1,0,0,response1disk,,7,2,-2,1,0,0,rectangle,2,-2,1,0,0,2,-2,1,0,0,1,14,174,106,1,,,,,,,,
,,,,,,,,,,,,,FF,,,,,,,,1.2,,,,,,,,,,,,,,,,,,,,,,6103630d21124460e8fb210d,610367b4cc9a687fc6d55d1e,2021-07-29_19h45.52.890,Simcolourproject_2stim_asymm_v5,2020.2.10,Win32,60,61025ae37ef11b136ea224fe,,,,,,,,,623,109,67,1,0,0,response1disk,,6,-2,16,1,0,0,rectangle,-2,16,1,0,0,-2,16,1,0,0,1,15,175,1,1,,,,,,,,
,,,,,,,,,,,,,FF,,,,,,,,0.75,,,,,,,,,,,,,,,,,,,,,,6103630d21124460e8fb210d,610367b4cc9a687fc6d55d1e,2021-07-29_19h45.52.890,Simcolourproject_2stim_asymm_v5,2020.2.10,Win32,60,61025ae37ef11b136ea224fe,,,,,,,,,2800,105,-44,1,0,0,response3disk,,5,-18,-5,1,0,0,rectangle,-18,-5,1,0,0,-18,-5,1,0,0,1,16,176,11,1,,,,,,,,
,,,,,,,,,,,,,FF,,,,,,,,0.551,,,,,,,,,,,,,,,,,,,,,,6103630d21124460e8fb210d,610367b4cc9a687fc6d55d1e,2021-07-29_19h45.52.890,Simcolourproject_2stim_asymm_v5,2020.2.10,Win32,60,61025ae37ef11b136ea224fe,,,,,,,,,3705,-41,112,1,0,0,response7disk,,0,-24,9,1,0,0,rectangle,-24,9,1,0,0,-24,9,1,0,0,1,17,177,112,1,,,,,,,,
,,,,,,,,,,,,,FF,,,,,,,,1.267,,,,,,,,,,,,,,,,,,,,,,6103630d21124460e8fb210d,610367b4cc9a687fc6d55d1e,2021-07-29_19h45.52.890,Simcolourproject_2stim_asymm_v5,2020.2.10,Win32,60,61025ae37ef11b136ea224fe,,,,,,,,,1986,112,84,1,0,0,response1disk,,6,-5,2,1,0,0,rectangle,-5,2,1,0,0,-5,2,1,0,0,1,18,178,43,1,,,,,,,,
,,,,,,,,,,,,,FF,,,,,,,,0.681,,,,,,,,,,,,,,,,,,,,,,6103630d21124460e8fb210d,610367b4cc9a687fc6d55d1e,2021-07-29_19h45.52.890,Simcolourproject_2stim_asymm_v5,2020.2.10,Win32,60,61025ae37ef11b136ea224fe,,,,,,,,,4286,60,123,1,0,0,response1disk,,7,14,21,1,0,0,rectangle,14,21,1,0,0,14,21,1,0,0,1,19,179,17,1,,,,,,,,
,,,,,,,,,,,,,FF,,,,,,,,0.62,,,,,,,,,,,,,,,,,,,,,,6103630d21124460e8fb210d,610367b4cc9a687fc6d55d1e,2021-07-29_19h45.52.890,Simcolourproject_2stim_asymm_v5,2020.2.10,Win32,60,61025ae37ef11b136ea224fe,,,,,,,,,2815,101,56,1,0,0,response1disk,,6,22,-5,1,0,0,rectangle,22,-5,1,0,0,22,-5,1,0,0,1,20,180,81,1,,,,,,,,
,,,,,,,,,,,,,FF,,,,,,,,0.767,,,,,,,,,,,,,,,,,,,,,,6103630d21124460e8fb210d,610367b4cc9a687fc6d55d1e,2021-07-29_19h45.52.890,Simcolourproject_2stim_asymm_v5,2020.2.10,Win32,60,61025ae37ef11b136ea224fe,,,,,,,,,1547,47,-65,1,0,0,response3disk,,4,-11,0,1,0,0,rectangle,-11,0,1,0,0,-11,0,1,0,0,1,21,181,19,1,,,,,,,,
,,,,,,,,,,,,,FF,,,,,,,,0.7,,,,,,,,,,,,,,,,,,,,,,6103630d21124460e8fb210d,610367b4cc9a687fc6d55d1e,2021-07-29_19h45.52.890,Simcolourproject_2stim_asymm_v5,2020.2.10,Win32,60,61025ae37ef11b136ea224fe,,,,,,,,,2822,63,116,1,0,0,response1disk,,7,16,12,1,0,0,rectangle,118,35,1,0,0,22,-1,1,0,0,1,22,182,114,1,,response1disk_3,TRUE,6,6,"[31,271,245,102,183,148,16,239,131,47,127,140,272,246,21,155,236,132,184,249]",1.669,rectangle
,,,,,,,,,,,,,FF,,,,,,,,1.317,,,,,,,,,,,,,,,,,,,,,,6103630d21124460e8fb210d,610367b4cc9a687fc6d55d1e,2021-07-29_19h45.52.890,Simcolourproject_2stim_asymm_v5,2020.2.10,Win32,60,61025ae37ef11b136ea224fe,,,,,,,,,465,-90,-52,1,0,0,response5disk,,2,19,-5,1,0,0,rectangle,70,146,1,0,0,13,0,1,0,0,1,23,183,79,1,,response1disk_3,TRUE,7,7,"[31,271,245,102,183,148,16,239,131,47,127,140,272,246,21,155,236,132,184,249]",1.417,rectangle
,,,,,,,,,,,,,FF,,,,,,,,1.065,,,,,,,,,,,,,,,,,,,,,,6103630d21124460e8fb210d,610367b4cc9a687fc6d55d1e,2021-07-29_19h45.52.890,Simcolourproject_2stim_asymm_v5,2020.2.10,Win32,60,61025ae37ef11b136ea224fe,,,,,,,,,3738,79,146,1,0,0,response1disk,,7,13,7,1,0,0,rectangle,13,7,1,0,0,13,7,1,0,0,1,24,184,118,1,,,,,,,,
,,,,,,,,,,,,,FF,,,,,,,,1.069,,,,,,,,,,,,,,,,,,,,,,6103630d21124460e8fb210d,610367b4cc9a687fc6d55d1e,2021-07-29_19h45.52.890,Simcolourproject_2stim_asymm_v5,2020.2.10,Win32,60,61025ae37ef11b136ea224fe,,,,,,,,,1215,-96,44,1,0,0,response7disk,,1,13,12,1,0,0,rectangle,13,12,1,0,0,13,12,1,0,0,1,25,185,96,1,,,,,,,,
,,,,,,,,,,,,,FF,,,,,,,,0.45,,,,,,,,,,,,,,,,,,,,,,6103630d21124460e8fb210d,610367b4cc9a687fc6d55d1e,2021-07-29_19h45.52.890,Simcolourproject_2stim_asymm_v5,2020.2.10,Win32,60,61025ae37ef11b136ea224fe,,,,,,,,,2361,-37,101,1,0,0,response7disk,,0,-2,0,1,0,0,rectangle,-2,0,1,0,0,-2,0,1,0,0,1,26,186,76,1,,,,,,,,
,,,,,,,,,,,,,FF,,,,,,,,1.568,,,,,,,,,,,,,,,,,,,,,,6103630d21124460e8fb210d,610367b4cc9a687fc6d55d1e,2021-07-29_19h45.52.890,Simcolourproject_2stim_asymm_v5,2020.2.10,Win32,60,61025ae37ef11b136ea224fe,,,,,,,,,1665,48,124,1,0,0,response1disk,,7,29,-6,1,0,0,rectangle,29,-6,1,0,0,29,-6,1,0,0,1,27,187,13,1,,,,,,,,
,,,,,,,,,,,,,FF,,,,,,,,0.669,,,,,,,,,,,,,,,,,,,,,,6103630d21124460e8fb210d,610367b4cc9a687fc6d55d1e,2021-07-29_19h45.52.890,Simcolourproject_2stim_asymm_v5,2020.2.10,Win32,60,61025ae37ef11b136ea224fe,,,,,,,,,718,-79,126,1,0,0,response7disk,,0,-12,13,1,0,0,rectangle,-12,13,1,0,0,-12,13,1,0,0,1,28,188,113,1,,,,,,,,
,,,,,,,,,,,,,FF,,,,,,,,0.551,,,,,,,,,,,,,,,,,,,,,,6103630d21124460e8fb210d,610367b4cc9a687fc6d55d1e,2021-07-29_19h45.52.890,Simcolourproject_2stim_asymm_v5,2020.2.10,Win32,60,61025ae37ef11b136ea224fe,,,,,,,,,2911,80,128,1,0,0,response1disk,,7,9,2,1,0,0,rectangle,9,2,1,0,0,9,2,1,0,0,1,29,189,158,1,,,,,,,,
,,,,,,,,,,,,,FF,,,,,,,,0.768,,,,,,,,,,,,,,,,,,,,,,6103630d21124460e8fb210d,610367b4cc9a687fc6d55d1e,2021-07-29_19h45.52.890,Simcolourproject_2stim_asymm_v5,2020.2.10,Win32,60,61025ae37ef11b136ea224fe,,,,,,,,,48,48,124,1,0,0,response1disk,,7,-1,-9,1,0,0,rectangle,-1,-9,1,0,0,-1,-9,1,0,0,1,30,190,125,1,,,,,,,,
,,,,,,,,,,,,,FF,,,,,,,,0.97,,,,,,,,,,,,,,,,,,,,,,6103630d21124460e8fb210d,610367b4cc9a687fc6d55d1e,2021-07-29_19h45.52.890,Simcolourproject_2stim_asymm_v5,2020.2.10,Win32,60,61025ae37ef11b136ea224fe,,,,,,,,,3476,90,-63,1,0,0,response3disk,,5,7,-3,1,0,0,rectangle,7,-3,1,0,0,7,-3,1,0,0,1,31,191,9,1,,,,,,,,
,,,,,,,,,,,,,FF,,,,,,,,0.669,,,,,,,,,,,,,,,,,,,,,,6103630d21124460e8fb210d,610367b4cc9a687fc6d55d1e,2021-07-29_19h45.52.890,Simcolourproject_2stim_asymm_v5,2020.2.10,Win32,60,61025ae37ef11b136ea224fe,,,,,,,,,2150,116,68,1,0,0,response1disk,,6,0,1,1,0,0,rectangle,0,1,1,0,0,0,1,1,0,0,1,32,192,128,1,,,,,,,,
,,,,,,,,,,,,,FF,,,,,,,,0.599,,,,,,,,,,,,,,,,,,,,,,6103630d21124460e8fb210d,610367b4cc9a687fc6d55d1e,2021-07-29_19h45.52.890,Simcolourproject_2stim_asymm_v5,2020.2.10,Win32,60,61025ae37ef11b136ea224fe,,,,,,,,,765,45,127,1,0,0,response1disk,,7,-5,-9,1,0,0,rectangle,-5,-9,1,0,0,-5,-9,1,0,0,1,33,193,124,1,,,,,,,,
,,,,,,,,,,,,,FF,,,,,,,,0.668,,,,,,,,,,,,,,,,,,,,,,6103630d21124460e8fb210d,610367b4cc9a687fc6d55d1e,2021-07-29_19h45.52.890,Simcolourproject_2stim_asymm_v5,2020.2.10,Win32,60,61025ae37ef11b136ea224fe,,,,,,,,,3899,64,-108,1,0,0,response3disk,,4,16,1,1,0,0,rectangle,16,1,1,0,0,16,1,1,0,0,1,34,194,14,1,,,,,,,,
,,,,,,,,,,,,,FF,,,,,,,,0.568,,,,,,,,,,,,,,,,,,,,,,6103630d21124460e8fb210d,610367b4cc9a687fc6d55d1e,2021-07-29_19h45.52.890,Simcolourproject_2stim_asymm_v5,2020.2.10,Win32,60,61025ae37ef11b136ea224fe,,,,,,,,,939,36,122,1,0,0,response1disk,,7,23,-2,1,0,0,rectangle,23,-2,1,0,0,23,-2,1,0,0,1,35,195,32,1,,,,,,,,
,,,,,,,,,,,,,FF,,,,,,,,0.744,,,,,,,,,,,,,,,,,,,,,,6103630d21124460e8fb210d,610367b4cc9a687fc6d55d1e,2021-07-29_19h45.52.890,Simcolourproject_2stim_asymm_v5,2020.2.10,Win32,60,61025ae37ef11b136ea224fe,,,,,,,,,740,-93,47,1,0,0,response7disk,,1,7,10,1,0,0,rectangle,7,10,1,0,0,7,10,1,0,0,1,36,196,148,1,,,,,,,,
,,,,,,,,,,,,,FF,,,,,,,,0.687,,,,,,,,,,,,,,,,,,,,,,6103630d21124460e8fb210d,610367b4cc9a687fc6d55d1e,2021-07-29_19h45.52.890,Simcolourproject_2stim_asymm_v5,2020.2.10,Win32,60,61025ae37ef11b136ea224fe,,,,,,,,,2938,92,137,1,0,0,response1disk,,7,24,8,1,0,0,rectangle,24,8,1,0,0,24,8,1,0,0,1,37,197,57,1,,,,,,,,
,,,,,,,,,,,,,FF,,,,,,,,0.818,,,,,,,,,,,,,,,,,,,,,,6103630d21124460e8fb210d,610367b4cc9a687fc6d55d1e,2021-07-29_19h45.52.890,Simcolourproject_2stim_asymm_v5,2020.2.10,Win32,60,61025ae37ef11b136ea224fe,,,,,,,,,781,54,141,1,0,0,response1disk,,7,4,-8,1,0,0,rectangle,4,-8,1,0,0,4,-8,1,0,0,1,38,198,58,1,,,,,,,,
,,,,,,,,,,,,,FF,,,,,,,,0.733,,,,,,,,,,,,,,,,,,,,,,6103630d21124460e8fb210d,610367b4cc9a687fc6d55d1e,2021-07-29_19h45.52.890,Simcolourproject_2stim_asymm_v5,2020.2.10,Win32,60,61025ae37ef11b136ea224fe,,,,,,,,,1323,112,59,1,0,0,response1disk,,6,19,-20,1,0,0,rectangle,19,-20,1,0,0,19,-20,1,0,0,1,39,199,50,1,,,,,,,,
,,,,,,,,,,,,,FF,,,,,,,,1.165,,,,,,,,,,,,,,,,,,,,,,6103630d21124460e8fb210d,610367b4cc9a687fc6d55d1e,2021-07-29_19h45.52.890,Simcolourproject_2stim_asymm_v5,2020.2.10,Win32,60,61025ae37ef11b136ea224fe,,,,,,,,,1827,-112,-66,1,0,0,response5disk,,2,3,-5,1,0,0,rectangle,3,-5,1,0,0,3,-5,1,0,0,1,40,200,108,1,,,,,,,,
,,,,,,,,,,,,,FF,,,,,,,,1.235,,,,,,,,,,,,,,,,,,,,,,6103630d21124460e8fb210d,610367b4cc9a687fc6d55d1e,2021-07-29_19h45.52.890,Simcolourproject_2stim_asymm_v5,2020.2.10,Win32,60,61025ae37ef11b136ea224fe,,,,,,,,,2341,-50,-104,1,0,0,response5disk,,3,21,-14,1,0,0,rectangle,21,-14,1,0,0,21,-14,1,0,0,1,41,201,83,1,,,,,,,,
,,,,,,,,,,,,,FF,,,,,,,,1.117,,,,,,,,,,,,,,,,,,,,,,6103630d21124460e8fb210d,610367b4cc9a687fc6d55d1e,2021-07-29_19h45.52.890,Simcolourproject_2stim_asymm_v5,2020.2.10,Win32,60,61025ae37ef11b136ea224fe,,,,,,,,,2684,134,-51,1,0,0,response3disk,,5,18,-12,1,0,0,rectangle,18,-12,1,0,0,18,-12,1,0,0,1,42,202,35,1,,,,,,,,
,,,,,,,,,,,,,FF,,,,,,,,1.085,,,,,,,,,,,,,,,,,,,,,,6103630d21124460e8fb210d,610367b4cc9a687fc6d55d1e,2021-07-29_19h45.52.890,Simcolourproject_2stim_asymm_v5,2020.2.10,Win32,60,61025ae37ef11b136ea224fe,,,,,,,,,1476,117,64,1,0,0,response1disk,,6,16,0,1,0,0,rectangle,16,0,1,0,0,16,0,1,0,0,1,43,203,61,1,,,,,,,,
,,,,,,,,,,,,,FF,,,,,,,,6.491,,,,,,,,,,,,,,,,,,,,,,6103630d21124460e8fb210d,610367b4cc9a687fc6d55d1e,2021-07-29_19h45.52.890,Simcolourproject_2stim_asymm_v5,2020.2.10,Win32,60,61025ae37ef11b136ea224fe,,,,,,,,,1301,74,95,1,0,0,response1disk,,7,7,16,1,0,0,rectangle,7,16,1,0,0,7,16,1,0,0,1,44,204,127,1,,,,,,,,
,,,,,,,,,,,,,FF,,,,,,,,3.903,,,,,,,,,,,,,,,,,,,,,,6103630d21124460e8fb210d,610367b4cc9a687fc6d55d1e,2021-07-29_19h45.52.890,Simcolourproject_2stim_asymm_v5,2020.2.10,Win32,60,61025ae37ef11b136ea224fe,,,,,,,,,4187,43,-121,1,0,0,response3disk,,4,17,-9,1,0,0,rectangle,17,-9,1,0,0,17,-9,1,0,0,1,45,205,121,1,,,,,,,,
,,,,,,,,,,,,,FF,,,,,,,,0.901,,,,,,,,,,,,,,,,,,,,,,6103630d21124460e8fb210d,610367b4cc9a687fc6d55d1e,2021-07-29_19h45.52.890,Simcolourproject_2stim_asymm_v5,2020.2.10,Win32,60,61025ae37ef11b136ea224fe,,,,,,,,,85,102,54,1,0,0,response1disk,,6,-13,-7,1,0,0,rectangle,-13,-7,1,0,0,-13,-7,1,0,0,1,46,206,78,1,,,,,,,,
,,,,,,,,,,,,,FF,,,,,,,,1.267,,,,,,,,,,,,,,,,,,,,,,6103630d21124460e8fb210d,610367b4cc9a687fc6d55d1e,2021-07-29_19h45.52.890,Simcolourproject_2stim_asymm_v5,2020.2.10,Win32,60,61025ae37ef11b136ea224fe,,,,,,,,,1317,106,-37,1,0,0,response3disk,,5,-5,7,1,0,0,rectangle,-5,7,1,0,0,-5,7,1,0,0,1,47,207,138,1,,,,,,,,
,,,,,,,,,,,,,FF,,,,,,,,0.634,,,,,,,,,,,,,,,,,,,,,,6103630d21124460e8fb210d,610367b4cc9a687fc6d55d1e,2021-07-29_19h45.52.890,Simcolourproject_2stim_asymm_v5,2020.2.10,Win32,60,61025ae37ef11b136ea224fe,,,,,,,,,3457,68,124,1,0,0,response1disk,,7,-25,-1,1,0,0,rectangle,-25,-1,1,0,0,-25,-1,1,0,0,1,48,208,55,1,,,,,,,,
,,,,,,,,,,,,,FF,,,,,,,,3.388,,,,,,,,,,,,,,,,,,,,,,6103630d21124460e8fb210d,610367b4cc9a687fc6d55d1e,2021-07-29_19h45.52.890,Simcolourproject_2stim_asymm_v5,2020.2.10,Win32,60,61025ae37ef11b136ea224fe,,,,,,,,,3693,114,76,1,0,0,response1disk,,6,33,7,1,0,0,rectangle,33,7,1,0,0,33,7,1,0,0,1,49,209,73,1,,,,,,,,
,,,,,,,,,,,,,FF,,,,,,,,1.984,,,,,,,,,,,,,,,,,,,,,,6103630d21124460e8fb210d,610367b4cc9a687fc6d55d1e,2021-07-29_19h45.52.890,Simcolourproject_2stim_asymm_v5,2020.2.10,Win32,60,61025ae37ef11b136ea224fe,,,,,,,,,1573,-44,-102,1,0,0,response5disk,,3,14,-12,1,0,0,rectangle,14,-12,1,0,0,14,-12,1,0,0,1,50,210,33,1,,,,,,,,
,,,,,,,,,,,,,FF,,,,,,,,1.218,,,,,,,,,,,,,,,,,,,,,,6103630d21124460e8fb210d,610367b4cc9a687fc6d55d1e,2021-07-29_19h45.52.890,Simcolourproject_2stim_asymm_v5,2020.2.10,Win32,60,61025ae37ef11b136ea224fe,,,,,,,,,4188,87,-39,1,0,0,response3disk,,5,1,5,1,0,0,rectangle,1,5,1,0,0,1,5,1,0,0,1,51,211,147,1,,,,,,,,
,,,,,,,,,,,,,FF,,,,,,,,0.884,,,,,,,,,,,,,,,,,,,,,,6103630d21124460e8fb210d,610367b4cc9a687fc6d55d1e,2021-07-29_19h45.52.890,Simcolourproject_2stim_asymm_v5,2020.2.10,Win32,60,61025ae37ef11b136ea224fe,,,,,,,,,926,84,113,1,0,0,response1disk,,7,-1,2,1,0,0,rectangle,-1,2,1,0,0,-1,2,1,0,0,1,52,212,100,1,,,,,,,,
,,,,,,,,,,,,,FF,,,,,,,,1.434,,,,,,,,,,,,,,,,,,,,,,6103630d21124460e8fb210d,610367b4cc9a687fc6d55d1e,2021-07-29_19h45.52.890,Simcolourproject_2stim_asymm_v5,2020.2.10,Win32,60,61025ae37ef11b136ea224fe,,,,,,,,,3727,85,126,1,0,0,response1disk,,7,-5,-9,1,0,0,rectangle,-5,-9,1,0,0,-5,-9,1,0,0,1,53,213,48,1,,,,,,,,
,,,,,,,,,,,,,FF,,,,,,,,0.65,,,,,,,,,,,,,,,,,,,,,,6103630d21124460e8fb210d,610367b4cc9a687fc6d55d1e,2021-07-29_19h45.52.890,Simcolourproject_2stim_asymm_v5,2020.2.10,Win32,60,61025ae37ef11b136ea224fe,,,,,,,,,3037,-66,156,1,0,0,response7disk,,0,-11,-18,1,0,0,rectangle,-11,-18,1,0,0,-11,-18,1,0,0,1,54,214,109,1,,,,,,,,
,,,,,,,,,,,,,FF,,,,,,,,1.301,,,,,,,,,,,,,,,,,,,,,,6103630d21124460e8fb210d,610367b4cc9a687fc6d55d1e,2021-07-29_19h45.52.890,Simcolourproject_2stim_asymm_v5,2020.2.10,Win32,60,61025ae37ef11b136ea224fe,,,,,,,,,2315,115,56,1,0,0,response1disk,,6,24,-1,1,0,0,rectangle,24,-1,1,0,0,24,-1,1,0,0,1,55,215,60,1,,,,,,,,
,,,,,,,,,,,,,FF,,,,,,,,0.501,,,,,,,,,,,,,,,,,,,,,,6103630d21124460e8fb210d,610367b4cc9a687fc6d55d1e,2021-07-29_19h45.52.890,Simcolourproject_2stim_asymm_v5,2020.2.10,Win32,60,61025ae37ef11b136ea224fe,,,,,,,,,3822,46,127,1,0,0,response1disk,,7,10,7,1,0,0,rectangle,10,7,1,0,0,10,7,1,0,0,1,56,216,157,1,,,,,,,,
,,,,,,,,,,,,,FF,,,,,,,,1.083,,,,,,,,,,,,,,,,,,,,,,6103630d21124460e8fb210d,610367b4cc9a687fc6d55d1e,2021-07-29_19h45.52.890,Simcolourproject_2stim_asymm_v5,2020.2.10,Win32,60,61025ae37ef11b136ea224fe,,,,,,,,,898,-111,-67,1,0,0,response5disk,,2,9,-12,1,0,0,rectangle,9,-12,1,0,0,9,-12,1,0,0,1,57,217,29,1,,,,,,,,
,,,,,,,,,,,,,FF,,,,,,,,1.068,,,,,,,,,,,,,,,,,,,,,,6103630d21124460e8fb210d,610367b4cc9a687fc6d55d1e,2021-07-29_19h45.52.890,Simcolourproject_2stim_asymm_v5,2020.2.10,Win32,60,61025ae37ef11b136ea224fe,,,,,,,,,921,90,92,1,0,0,response1disk,,7,2,6,1,0,0,rectangle,2,6,1,0,0,2,6,1,0,0,1,58,218,82,1,,,,,,,,
,,,,,,,,,,,,,FF,,,,,,,,0.632,,,,,,,,,,,,,,,,,,,,,,6103630d21124460e8fb210d,610367b4cc9a687fc6d55d1e,2021-07-29_19h45.52.890,Simcolourproject_2stim_asymm_v5,2020.2.10,Win32,60,61025ae37ef11b136ea224fe,,,,,,,,,759,65,128,1,0,0,response1disk,,7,-1,8,1,0,0,rectangle,-1,8,1,0,0,-1,8,1,0,0,1,59,219,37,1,,,,,,,,
,,,,,,,,,,,,,FF,,,,,,,,0.635,,,,,,,,,,,,,,,,,,,,,,6103630d21124460e8fb210d,610367b4cc9a687fc6d55d1e,2021-07-29_19h45.52.890,Simcolourproject_2stim_asymm_v5,2020.2.10,Win32,60,61025ae37ef11b136ea224fe,,,,,,,,,562,128,-54,1,0,0,response3disk,,5,-16,2,1,0,0,rectangle,-16,2,1,0,0,-16,2,1,0,0,1,60,220,104,1,,,,,,,,
,,,,,,,,,,,,,FF,,,,,,,,0.9,,,,,,,,,,,,,,,,,,,,,,6103630d21124460e8fb210d,610367b4cc9a687fc6d55d1e,2021-07-29_19h45.52.890,Simcolourproject_2stim_asymm_v5,2020.2.10,Win32,60,61025ae37ef11b136ea224fe,,,,,,,,,4246,79,109,1,0,0,response1disk,,7,14,13,1,0,0,rectangle,14,13,1,0,0,14,13,1,0,0,1,61,221,64,1,,,,,,,,
,,,,,,,,,,,,,FF,,,,,,,,0.701,,,,,,,,,,,,,,,,,,,,,,6103630d21124460e8fb210d,610367b4cc9a687fc6d55d1e,2021-07-29_19h45.52.890,Simcolourproject_2stim_asymm_v5,2020.2.10,Win32,60,61025ae37ef11b136ea224fe,,,,,,,,,2395,77,-116,1,0,0,response3disk,,4,23,-15,1,0,0,rectangle,23,-15,1,0,0,23,-15,1,0,0,1,62,222,41,1,,,,,,,,
,,,,,,,,,,,,,FF,,,,,,,,1.301,,,,,,,,,,,,,,,,,,,,,,6103630d21124460e8fb210d,610367b4cc9a687fc6d55d1e,2021-07-29_19h45.52.890,Simcolourproject_2stim_asymm_v5,2020.2.10,Win32,60,61025ae37ef11b136ea224fe,,,,,,,,,415,60,123,1,0,0,response1disk,,7,17,-10,1,0,0,rectangle,17,-10,1,0,0,17,-10,1,0,0,1,63,223,117,1,,,,,,,,
,,,,,,,,,,,,,FF,,,,,,,,0.817,,,,,,,,,,,,,,,,,,,,,,6103630d21124460e8fb210d,610367b4cc9a687fc6d55d1e,2021-07-29_19h45.52.890,Simcolourproject_2stim_asymm_v5,2020.2.10,Win32,60,61025ae37ef11b136ea224fe,,,,,,,,,1589,-86,-41,1,0,0,response5disk,,2,-1,-2,1,0,0,rectangle,-1,-2,1,0,0,-1,-2,1,0,0,1,64,224,47,1,,,,,,,,
,,,,,,,,,,,,,FF,,,,,,,,0.817,,,,,,,,,,,,,,,,,,,,,,6103630d21124460e8fb210d,610367b4cc9a687fc6d55d1e,2021-07-29_19h45.52.890,Simcolourproject_2stim_asymm_v5,2020.2.10,Win32,60,61025ae37ef11b136ea224fe,,,,,,,,,1674,-100,57,1,0,0,response7disk,,1,13,11,1,0,0,rectangle,13,11,1,0,0,13,11,1,0,0,1,65,225,144,1,,,,,,,,
,,,,,,,,,,,,,FF,,,,,,,,0.633,,,,,,,,,,,,,,,,,,,,,,6103630d21124460e8fb210d,610367b4cc9a687fc6d55d1e,2021-07-29_19h45.52.890,Simcolourproject_2stim_asymm_v5,2020.2.10,Win32,60,61025ae37ef11b136ea224fe,,,,,,,,,2784,-59,111,1,0,0,response7disk,,0,-4,8,1,0,0,rectangle,-4,8,1,0,0,-4,8,1,0,0,1,66,226,7,1,,,,,,,,
,,,,,,,,,,,,,FF,,,,,,,,0.902,,,,,,,,,,,,,,,,,,,,,,6103630d21124460e8fb210d,610367b4cc9a687fc6d55d1e,2021-07-29_19h45.52.890,Simcolourproject_2stim_asymm_v5,2020.2.10,Win32,60,61025ae37ef11b136ea224fe,,,,,,,,,3900,-49,-110,1,0,0,response5disk,,3,0,1,1,0,0,rectangle,0,1,1,0,0,0,1,1,0,0,1,67,227,68,1,,,,,,,,
,,,,,,,,,,,,,FF,,,,,,,,0.617,,,,,,,,,,,,,,,,,,,,,,6103630d21124460e8fb210d,610367b4cc9a687fc6d55d1e,2021-07-29_19h45.52.890,Simcolourproject_2stim_asymm_v5,2020.2.10,Win32,60,61025ae37ef11b136ea224fe,,,,,,,,,3529,41,119,1,0,0,response1disk,,7,15,13,1,0,0,rectangle,15,13,1,0,0,15,13,1,0,0,1,68,228,40,1,,,,,,,,
,,,,,,,,,,,,,FF,,,,,,,,1.085,,,,,,,,,,,,,,,,,,,,,,6103630d21124460e8fb210d,610367b4cc9a687fc6d55d1e,2021-07-29_19h45.52.890,Simcolourproject_2stim_asymm_v5,2020.2.10,Win32,60,61025ae37ef11b136ea224fe,,,,,,,,,1428,128,39,1,0,0,response1disk,,6,15,-13,1,0,0,rectangle,15,-13,1,0,0,15,-13,1,0,0,1,69,229,77,1,,,,,,,,
,,,,,,,,,,,,,FF,,,,,,,,0.784,,,,,,,,,,,,,,,,,,,,,,6103630d21124460e8fb210d,610367b4cc9a687fc6d55d1e,2021-07-29_19h45.52.890,Simcolourproject_2stim_asymm_v5,2020.2.10,Win32,60,61025ae37ef11b136ea224fe,,,,,,,,,1772,68,144,1,0,0,response1disk,,7,-1,1,1,0,0,rectangle,-1,1,1,0,0,-1,1,1,0,0,1,70,230,42,1,,,,,,,,
,,,,,,,,,,,,,FF,,,,,,,,0.7,,,,,,,,,,,,,,,,,,,,,,6103630d21124460e8fb210d,610367b4cc9a687fc6d55d1e,2021-07-29_19h45.52.890,Simcolourproject_2stim_asymm_v5,2020.2.10,Win32,60,61025ae37ef11b136ea224fe,,,,,,,,,3884,60,156,1,0,0,response1disk,,7,-4,16,1,0,0,rectangle,-4,16,1,0,0,-4,16,1,0,0,1,71,231,63,1,,,,,,,,
,,,,,,,,,,,,,FF,,,,,,,,2.184,,,,,,,,,,,,,,,,,,,,,,6103630d21124460e8fb210d,610367b4cc9a687fc6d55d1e,2021-07-29_19h45.52.890,Simcolourproject_2stim_asymm_v5,2020.2.10,Win32,60,61025ae37ef11b136ea224fe,,,,,,,,,64,123,-51,1,0,0,response3disk,,5,-9,10,1,0,0,rectangle,-9,10,1,0,0,-9,10,1,0,0,1,72,232,8,1,,,,,,,,
,,,,,,,,,,,,,FF,,,,,,,,1.12,,,,,,,,,,,,,,,,,,,,,,6103630d21124460e8fb210d,610367b4cc9a687fc6d55d1e,2021-07-29_19h45.52.890,Simcolourproject_2stim_asymm_v5,2020.2.10,Win32,60,61025ae37ef11b136ea224fe,,,,,,,,,2849,109,-54,1,0,0,response3disk,,5,20,2,1,0,0,rectangle,20,2,1,0,0,20,2,1,0,0,1,73,233,5,1,,,,,,,,
,,,,,,,,,,,,,FF,,,,,,,,0.584,,,,,,,,,,,,,,,,,,,,,,6103630d21124460e8fb210d,610367b4cc9a687fc6d55d1e,2021-07-29_19h45.52.890,Simcolourproject_2stim_asymm_v5,2020.2.10,Win32,60,61025ae37ef11b136ea224fe,,,,,,,,,717,-59,98,1,0,0,response7disk,,0,-29,5,1,0,0,rectangle,-29,5,1,0,0,-29,5,1,0,0,1,74,234,135,1,,,,,,,,
,,,,,,,,,,,,,FF,,,,,,,,1.634,,,,,,,,,,,,,,,,,,,,,,6103630d21124460e8fb210d,610367b4cc9a687fc6d55d1e,2021-07-29_19h45.52.890,Simcolourproject_2stim_asymm_v5,2020.2.10,Win32,60,61025ae37ef11b136ea224fe,,,,,,,,,1510,66,116,1,0,0,response1disk,,7,15,-3,1,0,0,rectangle,-119,53,1,0,0,7,2,1,0,0,1,75,235,115,1,,response7disk_3,TRUE,1,1,"[31,271,245,102,183,148,16,239,131,47,127,140,272,246,21,155,236,132,184,249]",1.577,rectangle
,,,,,,,,,,,,,FF,,,,,,,,0.985,,,,,,,,,,,,,,,,,,,,,,6103630d21124460e8fb210d,610367b4cc9a687fc6d55d1e,2021-07-29_19h45.52.890,Simcolourproject_2stim_asymm_v5,2020.2.10,Win32,60,61025ae37ef11b136ea224fe,,,,,,,,,3294,-90,-51,1,0,0,response5disk,,2,1,-5,1,0,0,rectangle,1,-5,1,0,0,1,-5,1,0,0,1,76,236,70,1,,,,,,,,
,,,,,,,,,,,,,FF,,,,,,,,1.269,,,,,,,,,,,,,,,,,,,,,,6103630d21124460e8fb210d,610367b4cc9a687fc6d55d1e,2021-07-29_19h45.52.890,Simcolourproject_2stim_asymm_v5,2020.2.10,Win32,60,61025ae37ef11b136ea224fe,,,,,,,,,3715,-107,33,1,0,0,response7disk,,1,-2,-13,1,0,0,rectangle,-2,-13,1,0,0,-2,-13,1,0,0,1,77,237,93,1,,,,,,,,
,,,,,,,,,,,,,FF,,,,,,,,0.584,,,,,,,,,,,,,,,,,,,,,,6103630d21124460e8fb210d,610367b4cc9a687fc6d55d1e,2021-07-29_19h45.52.890,Simcolourproject_2stim_asymm_v5,2020.2.10,Win32,60,61025ae37ef11b136ea224fe,,,,,,,,,368,-85,146,1,0,0,response7disk,,0,-9,-3,1,0,0,rectangle,-130,63,1,0,0,-2,8,1,0,0,1,78,238,85,1,,response7disk_3,TRUE,1,1,"[31,271,245,102,183,148,16,239,131,47,127,140,272,246,21,155,236,132,184,249]",1.217,rectangle
,,,,,,,,,,,,,FF,,,,,,,,0.987,,,,,,,,,,,,,,,,,,,,,,6103630d21124460e8fb210d,610367b4cc9a687fc6d55d1e,2021-07-29_19h45.52.890,Simcolourproject_2stim_asymm_v5,2020.2.10,Win32,60,61025ae37ef11b136ea224fe,,,,,,,,,281,-109,66,1,0,0,response7disk,,1,-16,9,1,0,0,rectangle,-16,9,1,0,0,-16,9,1,0,0,1,79,239,30,1,,,,,,,,
,,,,,,,,,,,,,FF,,,,,,,,0.9,,,,,,,,,,,,,,,,,,,,,,6103630d21124460e8fb210d,610367b4cc9a687fc6d55d1e,2021-07-29_19h45.52.890,Simcolourproject_2stim_asymm_v5,2020.2.10,Win32,60,61025ae37ef11b136ea224fe,,,,,,,,,2370,117,76,1,0,0,response1disk,,6,-2,3,1,0,0,rectangle,-2,3,1,0,0,-2,3,1,0,0,1,80,240,152,1,,,,,,,,
,,,,,,,,,,,,,FF,,,,,,,,1.215,,,,,,,,,,,,,,,,,,,,,,6103630d21124460e8fb210d,610367b4cc9a687fc6d55d1e,2021-07-29_19h45.52.890,Simcolourproject_2stim_asymm_v5,2020.2.10,Win32,60,61025ae37ef11b136ea224fe,,,,,,,,,3597,-78,-57,1,0,0,response5disk,,2,3,-12,1,0,0,rectangle,3,-12,1,0,0,3,-12,1,0,0,1,81,241,23,1,,,,,,,,
,,,,,,,,,,,,,FF,,,,,,,,0.719,,,,,,,,,,,,,,,,,,,,,,6103630d21124460e8fb210d,610367b4cc9a687fc6d55d1e,2021-07-29_19h45.52.890,Simcolourproject_2stim_asymm_v5,2020.2.10,Win32,60,61025ae37ef11b136ea224fe,,,,,,,,,1468,-98,53,1,0,0,response7disk,,1,19,7,1,0,0,rectangle,19,7,1,0,0,19,7,1,0,0,1,82,242,10,1,,,,,,,,
,,,,,,,,,,,,,FF,,,,,,,,0.487,,,,,,,,,,,,,,,,,,,,,,6103630d21124460e8fb210d,610367b4cc9a687fc6d55d1e,2021-07-29_19h45.52.890,Simcolourproject_2stim_asymm_v5,2020.2.10,Win32,60,61025ae37ef11b136ea224fe,,,,,,,,,573,62,125,1,0,0,response1disk,,7,13,-2,1,0,0,rectangle,13,-2,1,0,0,13,-2,1,0,0,1,83,243,71,1,,,,,,,,
,,,,,,,,,,,,,FF,,,,,,,,0.852,,,,,,,,,,,,,,,,,,,,,,6103630d21124460e8fb210d,610367b4cc9a687fc6d55d1e,2021-07-29_19h45.52.890,Simcolourproject_2stim_asymm_v5,2020.2.10,Win32,60,61025ae37ef11b136ea224fe,,,,,,,,,4230,127,-55,1,0,0,response3disk,,5,17,-7,1,0,0,rectangle,36,-127,1,0,0,13,7,1,0,0,1,84,244,72,1,,response3disk_3,TRUE,4,7,"[31,271,245,102,183,148,16,239,131,47,127,140,272,246,21,155,236,132,184,249]",10.511,rectangle
,,,,,,,,,,,,,FF,,,,,,,,0.701,,,,,,,,,,,,,,,,,,,,,,6103630d21124460e8fb210d,610367b4cc9a687fc6d55d1e,2021-07-29_19h45.52.890,Simcolourproject_2stim_asymm_v5,2020.2.10,Win32,60,61025ae37ef11b136ea224fe,,,,,,,,,620,-99,51,1,0,0,response7disk,,1,-2,-3,1,0,0,rectangle,104,-40,1,0,0,19,1,1,0,0,1,85,245,92,1,,response3disk_3,TRUE,5,5,"[31,271,245,102,183,148,16,239,131,47,127,140,272,246,21,155,236,132,184,249]",1.328,rectangle
,,,,,,,,,,,,,FF,,,,,,,,0.818,,,,,,,,,,,,,,,,,,,,,,6103630d21124460e8fb210d,610367b4cc9a687fc6d55d1e,2021-07-29_19h45.52.890,Simcolourproject_2stim_asymm_v5,2020.2.10,Win32,60,61025ae37ef11b136ea224fe,,,,,,,,,3782,-82,-36,1,0,0,response5disk,,2,0,-17,1,0,0,rectangle,0,-17,1,0,0,0,-17,1,0,0,1,86,246,126,1,,,,,,,,
,,,,,,,,,,,,,FF,,,,,,,,0.768,,,,,,,,,,,,,,,,,,,,,,6103630d21124460e8fb210d,610367b4cc9a687fc6d55d1e,2021-07-29_19h45.52.890,Simcolourproject_2stim_asymm_v5,2020.2.10,Win32,60,61025ae37ef11b136ea224fe,,,,,,,,,754,122,59,1,0,0,response1disk,,6,15,-4,1,0,0,rectangle,15,-4,1,0,0,15,-4,1,0,0,1,87,247,39,1,,,,,,,,
,,,,,,,,,,,,,FF,,,,,,,,0.701,,,,,,,,,,,,,,,,,,,,,,6103630d21124460e8fb210d,610367b4cc9a687fc6d55d1e,2021-07-29_19h45.52.890,Simcolourproject_2stim_asymm_v5,2020.2.10,Win32,60,61025ae37ef11b136ea224fe,,,,,,,,,1771,46,98,1,0,0,response1disk,,7,2,-4,1,0,0,rectangle,68,-133,1,0,0,4,-2,1,0,0,1,88,248,99,1,,response3disk_3,TRUE,4,4,"[31,271,245,102,183,148,16,239,131,47,127,140,272,246,21,155,236,132,184,249]",1.768,rectangle
,,,,,,,,,,,,,FF,,,,,,,,0.819,,,,,,,,,,,,,,,,,,,,,,6103630d21124460e8fb210d,610367b4cc9a687fc6d55d1e,2021-07-29_19h45.52.890,Simcolourproject_2stim_asymm_v5,2020.2.10,Win32,60,61025ae37ef11b136ea224fe,,,,,,,,,2320,102,-47,1,0,0,response3disk,,5,14,-7,1,0,0,rectangle,14,-7,1,0,0,14,-7,1,0,0,1,89,249,153,1,,,,,,,,
,,,,,,,,,,,,,FF,,,,,,,,0.568,,,,,,,,,,,,,,,,,,,,,,6103630d21124460e8fb210d,610367b4cc9a687fc6d55d1e,2021-07-29_19h45.52.890,Simcolourproject_2stim_asymm_v5,2020.2.10,Win32,60,61025ae37ef11b136ea224fe,,,,,,,,,2719,-61,135,1,0,0,response7disk,,0,-8,2,1,0,0,rectangle,-8,2,1,0,0,-8,2,1,0,0,1,90,250,149,1,,,,,,,,
,,,,,,,,,,,,,FF,,,,,,,,0.734,,,,,,,,,,,,,,,,,,,,,,6103630d21124460e8fb210d,610367b4cc9a687fc6d55d1e,2021-07-29_19h45.52.890,Simcolourproject_2stim_asymm_v5,2020.2.10,Win32,60,61025ae37ef11b136ea224fe,,,,,,,,,1839,129,61,1,0,0,response1disk,,6,31,-13,1,0,0,rectangle,31,-13,1,0,0,31,-13,1,0,0,1,91,251,146,1,,,,,,,,
,,,,,,,,,,,,,FF,,,,,,,,0.734,,,,,,,,,,,,,,,,,,,,,,6103630d21124460e8fb210d,610367b4cc9a687fc6d55d1e,2021-07-29_19h45.52.890,Simcolourproject_2stim_asymm_v5,2020.2.10,Win32,60,61025ae37ef11b136ea224fe,,,,,,,,,3954,52,111,1,0,0,response1disk,,7,10,-3,1,0,0,rectangle,10,-3,1,0,0,10,-3,1,0,0,1,92,252,159,1,,,,,,,,
,,,,,,,,,,,,,FF,,,,,,,,2.47,,,,,,,,,,,,,,,,,,,,,,6103630d21124460e8fb210d,610367b4cc9a687fc6d55d1e,2021-07-29_19h45.52.890,Simcolourproject_2stim_asymm_v5,2020.2.10,Win32,60,61025ae37ef11b136ea224fe,,,,,,,,,1932,62,133,1,0,0,response1disk,,7,6,0,1,0,0,rectangle,6,0,1,0,0,6,0,1,0,0,1,93,253,137,1,,,,,,,,
,,,,,,,,,,,,,FF,,,,,,,,0.836,,,,,,,,,,,,,,,,,,,,,,6103630d21124460e8fb210d,610367b4cc9a687fc6d55d1e,2021-07-29_19h45.52.890,Simcolourproject_2stim_asymm_v5,2020.2.10,Win32,60,61025ae37ef11b136ea224fe,,,,,,,,,2802,120,53,1,0,0,response1disk,,6,32,14,1,0,0,rectangle,32,14,1,0,0,32,14,1,0,0,1,94,254,46,1,,,,,,,,
,,,,,,,,,,,,,FF,,,,,,,,0.537,,,,,,,,,,,,,,,,,,,,,,6103630d21124460e8fb210d,610367b4cc9a687fc6d55d1e,2021-07-29_19h45.52.890,Simcolourproject_2stim_asymm_v5,2020.2.10,Win32,60,61025ae37ef11b136ea224fe,,,,,,,,,3830,63,136,1,0,0,response1disk,,7,-2,3,1,0,0,rectangle,-2,3,1,0,0,-2,3,1,0,0,1,95,255,105,1,,,,,,,,
,,,,,,,,,,,,,FF,,,,,,,,1.067,,,,,,,,,,,,,,,,,,,,,,6103630d21124460e8fb210d,610367b4cc9a687fc6d55d1e,2021-07-29_19h45.52.890,Simcolourproject_2stim_asymm_v5,2020.2.10,Win32,60,61025ae37ef11b136ea224fe,,,,,,,,,3144,109,-61,1,0,0,response3disk,,5,-4,-5,1,0,0,rectangle,-4,-5,1,0,0,-4,-5,1,0,0,1,96,256,130,1,,,,,,,,
,,,,,,,,,,,,,FF,,,,,,,,1.019,,,,,,,,,,,,,,,,,,,,,,6103630d21124460e8fb210d,610367b4cc9a687fc6d55d1e,2021-07-29_19h45.52.890,Simcolourproject_2stim_asymm_v5,2020.2.10,Win32,60,61025ae37ef11b136ea224fe,,,,,,,,,1008,107,61,1,0,0,response1disk,,6,-9,7,1,0,0,rectangle,-9,7,1,0,0,-9,7,1,0,0,1,97,257,28,1,,,,,,,,
,,,,,,,,,,,,,FF,,,,,,,,0.553,,,,,,,,,,,,,,,,,,,,,,6103630d21124460e8fb210d,610367b4cc9a687fc6d55d1e,2021-07-29_19h45.52.890,Simcolourproject_2stim_asymm_v5,2020.2.10,Win32,60,61025ae37ef11b136ea224fe,,,,,,,,,3643,67,135,1,0,0,response1disk,,7,-3,13,1,0,0,rectangle,-3,13,1,0,0,-3,13,1,0,0,1,98,258,150,1,,,,,,,,
,,,,,,,,,,,,,FF,,,,,,,,0.854,,,,,,,,,,,,,,,,,,,,,,6103630d21124460e8fb210d,610367b4cc9a687fc6d55d1e,2021-07-29_19h45.52.890,Simcolourproject_2stim_asymm_v5,2020.2.10,Win32,60,61025ae37ef11b136ea224fe,,,,,,,,,606,74,115,1,0,0,response1disk,,7,2,16,1,0,0,rectangle,2,16,1,0,0,2,16,1,0,0,1,99,259,116,1,,,,,,,,
,,,,,,,,,,,,,FF,,,,,,,,0.534,,,,,,,,,,,,,,,,,,,,,,6103630d21124460e8fb210d,610367b4cc9a687fc6d55d1e,2021-07-29_19h45.52.890,Simcolourproject_2stim_asymm_v5,2020.2.10,Win32,60,61025ae37ef11b136ea224fe,,,,,,,,,1636,68,124,1,0,0,response1disk,,7,-14,-1,1,0,0,rectangle,-14,-1,1,0,0,-14,-1,1,0,0,1,100,260,141,1,,,,,,,,
,,,,,,,,,,,,,FF,,,,,,,,0.633,,,,,,,,,,,,,,,,,,,,,,6103630d21124460e8fb210d,610367b4cc9a687fc6d55d1e,2021-07-29_19h45.52.890,Simcolourproject_2stim_asymm_v5,2020.2.10,Win32,60,61025ae37ef11b136ea224fe,,,,,,,,,1927,114,63,1,0,0,response1disk,,6,18,6,1,0,0,rectangle,18,6,1,0,0,18,6,1,0,0,1,101,261,59,1,,,,,,,,
,,,,,,,,,,,,,FF,,,,,,,,0.835,,,,,,,,,,,,,,,,,,,,,,6103630d21124460e8fb210d,610367b4cc9a687fc6d55d1e,2021-07-29_19h45.52.890,Simcolourproject_2stim_asymm_v5,2020.2.10,Win32,60,61025ae37ef11b136ea224fe,,,,,,,,,2092,65,111,1,0,0,response1disk,,7,-1,3,1,0,0,rectangle,-1,3,1,0,0,-1,3,1,0,0,1,102,262,62,1,,,,,,,,
,,,,,,,,,,,,,FF,,,,,,,,0.883,,,,,,,,,,,,,,,,,,,,,,6103630d21124460e8fb210d,610367b4cc9a687fc6d55d1e,2021-07-29_19h45.52.890,Simcolourproject_2stim_asymm_v5,2020.2.10,Win32,60,61025ae37ef11b136ea224fe,,,,,,,,,1274,-100,69,1,0,0,response7disk,,1,-13,10,1,0,0,rectangle,-13,10,1,0,0,-13,10,1,0,0,1,103,263,4,1,,,,,,,,
,,,,,,,,,,,,,FF,,,,,,,,0.624,,,,,,,,,,,,,,,,,,,,,,6103630d21124460e8fb210d,610367b4cc9a687fc6d55d1e,2021-07-29_19h45.52.890,Simcolourproject_2stim_asymm_v5,2020.2.10,Win32,60,61025ae37ef11b136ea224fe,,,,,,,,,3101,70,141,1,0,0,response1disk,,7,8,19,1,0,0,rectangle,8,19,1,0,0,8,19,1,0,0,1,104,264,154,1,,,,,,,,
,,,,,,,,,,,,,FF,,,,,,,,1.222,,,,,,,,,,,,,,,,,,,,,,6103630d21124460e8fb210d,610367b4cc9a687fc6d55d1e,2021-07-29_19h45.52.890,Simcolourproject_2stim_asymm_v5,2020.2.10,Win32,60,61025ae37ef11b136ea224fe,,,,,,,,,2562,90,132,1,0,0,response1disk,,7,16,-6,1,0,0,rectangle,16,-6,1,0,0,16,-6,1,0,0,1,105,265,25,1,,,,,,,,
,,,,,,,,,,,,,FF,,,,,,,,1.237,,,,,,,,,,,,,,,,,,,,,,6103630d21124460e8fb210d,610367b4cc9a687fc6d55d1e,2021-07-29_19h45.52.890,Simcolourproject_2stim_asymm_v5,2020.2.10,Win32,60,61025ae37ef11b136ea224fe,,,,,,,,,1884,64,123,1,0,0,response1disk,,7,-15,-4,1,0,0,rectangle,-15,-4,1,0,0,-15,-4,1,0,0,1,106,266,87,1,,,,,,,,
,,,,,,,,,,,,,FF,,,,,,,,0.814,,,,,,,,,,,,,,,,,,,,,,6103630d21124460e8fb210d,610367b4cc9a687fc6d55d1e,2021-07-29_19h45.52.890,Simcolourproject_2stim_asymm_v5,2020.2.10,Win32,60,61025ae37ef11b136ea224fe,,,,,,,,,1600,-56,93,1,0,0,response7disk,,0,2,-1,1,0,0,rectangle,2,-1,1,0,0,2,-1,1,0,0,1,107,267,51,1,,,,,,,,
,,,,,,,,,,,,,FF,,,,,,,,0.684,,,,,,,,,,,,,,,,,,,,,,6103630d21124460e8fb210d,610367b4cc9a687fc6d55d1e,2021-07-29_19h45.52.890,Simcolourproject_2stim_asymm_v5,2020.2.10,Win32,60,61025ae37ef11b136ea224fe,,,,,,,,,3712,-50,89,1,0,0,response7disk,,0,-21,-2,1,0,0,rectangle,-21,-2,1,0,0,-21,-2,1,0,0,1,108,268,49,1,,,,,,,,
,,,,,,,,,,,,,FF,,,,,,,,0.819,,,,,,,,,,,,,,,,,,,,,,6103630d21124460e8fb210d,610367b4cc9a687fc6d55d1e,2021-07-29_19h45.52.890,Simcolourproject_2stim_asymm_v5,2020.2.10,Win32,60,61025ae37ef11b136ea224fe,,,,,,,,,1555,107,59,1,0,0,response1disk,,6,4,14,1,0,0,rectangle,4,14,1,0,0,4,14,1,0,0,1,109,269,66,1,,,,,,,,
,,,,,,,,,,,,,FF,,,,,,,,1.167,,,,,,,,,,,,,,,,,,,,,,6103630d21124460e8fb210d,610367b4cc9a687fc6d55d1e,2021-07-29_19h45.52.890,Simcolourproject_2stim_asymm_v5,2020.2.10,Win32,60,61025ae37ef11b136ea224fe,,,,,,,,,432,-53,-105,1,0,0,response5disk,,3,5,-6,1,0,0,rectangle,114,-61,1,0,0,2,-6,1,0,0,1,110,270,56,1,,response3disk_3,TRUE,5,5,"[31,271,245,102,183,148,16,239,131,47,127,140,272,246,21,155,236,132,184,249]",1.269,rectangle
,,,,,,,,,,,,,FF,,,,,,,,0.933,,,,,,,,,,,,,,,,,,,,,,6103630d21124460e8fb210d,610367b4cc9a687fc6d55d1e,2021-07-29_19h45.52.890,Simcolourproject_2stim_asymm_v5,2020.2.10,Win32,60,61025ae37ef11b136ea224fe,,,,,,,,,3736,109,67,1,0,0,response1disk,,6,9,-5,1,0,0,rectangle,44,-113,1,0,0,4,-9,1,0,0,1,111,271,129,1,,response3disk_3,TRUE,4,2,"[31,271,245,102,183,148,16,239,131,47,127,140,272,246,21,155,236,132,184,249]",2.104,rectangle
,,,,,,,,,,,,,FF,,,,,,,,0.584,,,,,,,,,,,,,,,,,,,,,,6103630d21124460e8fb210d,610367b4cc9a687fc6d55d1e,2021-07-29_19h45.52.890,Simcolourproject_2stim_asymm_v5,2020.2.10,Win32,60,61025ae37ef11b136ea224fe,,,,,,,,,3460,49,112,1,0,0,response1disk,,7,17,-17,1,0,0,rectangle,17,-17,1,0,0,17,-17,1,0,0,1,112,272,44,1,,,,,,,,
,,,,,,,,,,,,,FF,,,,,,,,0.817,,,,,,,,,,,,,,,,,,,,,,6103630d21124460e8fb210d,610367b4cc9a687fc6d55d1e,2021-07-29_19h45.52.890,Simcolourproject_2stim_asymm_v5,2020.2.10,Win32,60,61025ae37ef11b136ea224fe,,,,,,,,,3435,-110,-39,1,0,0,response5disk,,2,13,-17,1,0,0,rectangle,13,-17,1,0,0,13,-17,1,0,0,1,113,273,88,1,,,,,,,,
,,,,,,,,,,,,,FF,,,,,,,,2.286,,,,,,,,,,,,,,,,,,,,,,6103630d21124460e8fb210d,610367b4cc9a687fc6d55d1e,2021-07-29_19h45.52.890,Simcolourproject_2stim_asymm_v5,2020.2.10,Win32,60,61025ae37ef11b136ea224fe,,,,,,,,,1695,108,69,1,0,0,response1disk,,6,4,-2,1,0,0,rectangle,4,-2,1,0,0,4,-2,1,0,0,1,114,274,69,1,,,,,,,,
,,,,,,,,,,,,,FF,,,,,,,,0.671,,,,,,,,,,,,,,,,,,,,,,6103630d21124460e8fb210d,610367b4cc9a687fc6d55d1e,2021-07-29_19h45.52.890,Simcolourproject_2stim_asymm_v5,2020.2.10,Win32,60,61025ae37ef11b136ea224fe,,,,,,,,,1635,48,106,1,0,0,response1disk,,7,1,-10,1,0,0,rectangle,1,-10,1,0,0,1,-10,1,0,0,1,115,275,3,1,,,,,,,,
,,,,,,,,,,,,,FF,,,,,,,,0.769,,,,,,,,,,,,,,,,,,,,,,6103630d21124460e8fb210d,610367b4cc9a687fc6d55d1e,2021-07-29_19h45.52.890,Simcolourproject_2stim_asymm_v5,2020.2.10,Win32,60,61025ae37ef11b136ea224fe,,,,,,,,,1773,121,-67,1,0,0,response3disk,,5,1,-6,1,0,0,rectangle,1,-6,1,0,0,1,-6,1,0,0,1,116,276,94,1,,,,,,,,
,,,,,,,,,,,,,FF,,,,,,,,0.906,,,,,,,,,,,,,,,,,,,,,,6103630d21124460e8fb210d,610367b4cc9a687fc6d55d1e,2021-07-29_19h45.52.890,Simcolourproject_2stim_asymm_v5,2020.2.10,Win32,60,61025ae37ef11b136ea224fe,,,,,,,,,4000,-114,-55,1,0,0,response5disk,,2,-7,-6,1,0,0,rectangle,-7,-6,1,0,0,-7,-6,1,0,0,1,117,277,18,1,,,,,,,,
,,,,,,,,,,,,,FF,,,,,,,,0.533,,,,,,,,,,,,,,,,,,,,,,6103630d21124460e8fb210d,610367b4cc9a687fc6d55d1e,2021-07-29_19h45.52.890,Simcolourproject_2stim_asymm_v5,2020.2.10,Win32,60,61025ae37ef11b136ea224fe,,,,,,,,,2732,73,104,1,0,0,response1disk,,7,21,-4,1,0,0,rectangle,21,-4,1,0,0,21,-4,1,0,0,1,118,278,107,1,,,,,,,,
,,,,,,,,,,,,,FF,,,,,,,,0.651,,,,,,,,,,,,,,,,,,,,,,6103630d21124460e8fb210d,610367b4cc9a687fc6d55d1e,2021-07-29_19h45.52.890,Simcolourproject_2stim_asymm_v5,2020.2.10,Win32,60,61025ae37ef11b136ea224fe,,,,,,,,,1992,108,63,1,0,0,response1disk,,6,5,-1,1,0,0,rectangle,5,-1,1,0,0,5,-1,1,0,0,1,119,279,110,1,,,,,,,,
,,,,,,,,,,,,,FF,,,,,,,,0.635,,,,,,,,,,,,,,,,,,,,,,6103630d21124460e8fb210d,610367b4cc9a687fc6d55d1e,2021-07-29_19h45.52.890,Simcolourproject_2stim_asymm_v5,2020.2.10,Win32,60,61025ae37ef11b136ea224fe,,,,,,,,,1711,90,100,1,0,0,response1disk,,7,3,-6,1,0,0,rectangle,3,-6,1,0,0,3,-6,1,0,0,1,120,280,53,1,,,,,,,,
,,,,,,,,,,,,,FF,,,,,,,,1.519,,,,,,,,,,,,,,,,,,,,,,6103630d21124460e8fb210d,610367b4cc9a687fc6d55d1e,2021-07-29_19h45.52.890,Simcolourproject_2stim_asymm_v5,2020.2.10,Win32,60,61025ae37ef11b136ea224fe,,,,,,,,,1808,65,109,1,0,0,response1disk,,7,13,-4,1,0,0,rectangle,13,-4,1,0,0,13,-4,1,0,0,1,121,281,15,1,,,,,,,,
,,,,,,,,,,,,,FF,,,,,,,,1.267,,,,,,,,,,,,,,,,,,,,,,6103630d21124460e8fb210d,610367b4cc9a687fc6d55d1e,2021-07-29_19h45.52.890,Simcolourproject_2stim_asymm_v5,2020.2.10,Win32,60,61025ae37ef11b136ea224fe,,,,,,,,,487,50,-79,1,0,0,response3disk,,4,-1,5,1,0,0,rectangle,-1,5,1,0,0,-1,5,1,0,0,1,122,282,84,1,,,,,,,,
,,,,,,,,,,,,,FF,,,,,,,,1.066,,,,,,,,,,,,,,,,,,,,,,6103630d21124460e8fb210d,610367b4cc9a687fc6d55d1e,2021-07-29_19h45.52.890,Simcolourproject_2stim_asymm_v5,2020.2.10,Win32,60,61025ae37ef11b136ea224fe,,,,,,,,,4052,-119,-66,1,0,0,response5disk,,2,3,-10,1,0,0,rectangle,3,-10,1,0,0,3,-10,1,0,0,1,123,283,143,1,,,,,,,,
,,,,,,,,,,,,,FF,,,,,,,,0.735,,,,,,,,,,,,,,,,,,,,,,6103630d21124460e8fb210d,610367b4cc9a687fc6d55d1e,2021-07-29_19h45.52.890,Simcolourproject_2stim_asymm_v5,2020.2.10,Win32,60,61025ae37ef11b136ea224fe,,,,,,,,,675,113,54,1,0,0,response1disk,,6,20,5,1,0,0,rectangle,20,5,1,0,0,20,5,1,0,0,1,124,284,139,1,,,,,,,,
,,,,,,,,,,,,,FF,,,,,,,,0.969,,,,,,,,,,,,,,,,,,,,,,6103630d21124460e8fb210d,610367b4cc9a687fc6d55d1e,2021-07-29_19h45.52.890,Simcolourproject_2stim_asymm_v5,2020.2.10,Win32,60,61025ae37ef11b136ea224fe,,,,,,,,,3711,-41,-91,1,0,0,response5disk,,3,18,7,1,0,0,rectangle,18,7,1,0,0,18,7,1,0,0,1,125,285,136,1,,,,,,,,
,,,,,,,,,,,,,FF,,,,,,,,1.002,,,,,,,,,,,,,,,,,,,,,,6103630d21124460e8fb210d,610367b4cc9a687fc6d55d1e,2021-07-29_19h45.52.890,Simcolourproject_2stim_asymm_v5,2020.2.10,Win32,60,61025ae37ef11b136ea224fe,,,,,,,,,2671,-96,-36,1,0,0,response5disk,,2,-11,-4,1,0,0,rectangle,-11,-4,1,0,0,-11,-4,1,0,0,1,126,286,12,1,,,,,,,,
,,,,,,,,,,,,,FF,,,,,,,,0.618,,,,,,,,,,,,,,,,,,,,,,6103630d21124460e8fb210d,610367b4cc9a687fc6d55d1e,2021-07-29_19h45.52.890,Simcolourproject_2stim_asymm_v5,2020.2.10,Win32,60,61025ae37ef11b136ea224fe,,,,,,,,,3232,55,105,1,0,0,response1disk,,7,16,-10,1,0,0,rectangle,16,-10,1,0,0,16,-10,1,0,0,1,127,287,74,1,,,,,,,,
,,,,,,,,,,,,,FF,,,,,,,,0.549,,,,,,,,,,,,,,,,,,,,,,6103630d21124460e8fb210d,610367b4cc9a687fc6d55d1e,2021-07-29_19h45.52.890,Simcolourproject_2stim_asymm_v5,2020.2.10,Win32,60,61025ae37ef11b136ea224fe,,,,,,,,,3425,-63,120,1,0,0,response7disk,,0,-12,8,1,0,0,rectangle,-12,8,1,0,0,-12,8,1,0,0,1,128,288,142,1,,,,,,,,
,,,,,,,,,,,,,FF,,,,,,,,0.634,,,,,,,,,,,,,,,,,,,,,,6103630d21124460e8fb210d,610367b4cc9a687fc6d55d1e,2021-07-29_19h45.52.890,Simcolourproject_2stim_asymm_v5,2020.2.10,Win32,60,61025ae37ef11b136ea224fe,,,,,,,,,1921,83,-39,1,0,0,response3disk,,5,4,-21,1,0,0,rectangle,4,-21,1,0,0,4,-21,1,0,0,1,129,289,119,1,,,,,,,,
,,,,,,,,,,,,,FF,,,,,,,,0.617,,,,,,,,,,,,,,,,,,,,,,6103630d21124460e8fb210d,610367b4cc9a687fc6d55d1e,2021-07-29_19h45.52.890,Simcolourproject_2stim_asymm_v5,2020.2.10,Win32,60,61025ae37ef11b136ea224fe,,,,,,,,,3449,90,128,1,0,0,response1disk,,7,11,1,1,0,0,rectangle,11,1,1,0,0,11,1,1,0,0,1,130,290,155,1,,,,,,,,
,,,,,,,,,,,,,FF,,,,,,,,0.551,,,,,,,,,,,,,,,,,,,,,,6103630d21124460e8fb210d,610367b4cc9a687fc6d55d1e,2021-07-29_19h45.52.890,Simcolourproject_2stim_asymm_v5,2020.2.10,Win32,60,61025ae37ef11b136ea224fe,,,,,,,,,4133,55,112,1,0,0,response1disk,,7,3,-6,1,0,0,rectangle,3,-6,1,0,0,3,-6,1,0,0,1,131,291,98,1,,,,,,,,
,,,,,,,,,,,,,FF,,,,,,,,0.684,,,,,,,,,,,,,,,,,,,,,,6103630d21124460e8fb210d,610367b4cc9a687fc6d55d1e,2021-07-29_19h45.52.890,Simcolourproject_2stim_asymm_v5,2020.2.10,Win32,60,61025ae37ef11b136ea224fe,,,,,,,,,2171,-84,-43,1,0,0,response5disk,,2,-8,-4,1,0,0,rectangle,-8,-4,1,0,0,-8,-4,1,0,0,1,132,292,134,1,,,,,,,,
,,,,,,,,,,,,,FF,,,,,,,,0.684,,,,,,,,,,,,,,,,,,,,,,6103630d21124460e8fb210d,610367b4cc9a687fc6d55d1e,2021-07-29_19h45.52.890,Simcolourproject_2stim_asymm_v5,2020.2.10,Win32,60,61025ae37ef11b136ea224fe,,,,,,,,,1297,-93,46,1,0,0,response7disk,,1,4,19,1,0,0,rectangle,4,19,1,0,0,4,19,1,0,0,1,133,293,67,1,,,,,,,,
,,,,,,,,,,,,,FF,,,,,,,,0.452,,,,,,,,,,,,,,,,,,,,,,6103630d21124460e8fb210d,610367b4cc9a687fc6d55d1e,2021-07-29_19h45.52.890,Simcolourproject_2stim_asymm_v5,2020.2.10,Win32,60,61025ae37ef11b136ea224fe,,,,,,,,,1815,-63,106,1,0,0,response7disk,,0,-6,0,1,0,0,rectangle,-6,0,1,0,0,-6,0,1,0,0,1,134,294,122,1,,,,,,,,
,,,,,,,,,,,,,FF,,,,,,,,1.019,,,,,,,,,,,,,,,,,,,,,,6103630d21124460e8fb210d,610367b4cc9a687fc6d55d1e,2021-07-29_19h45.52.890,Simcolourproject_2stim_asymm_v5,2020.2.10,Win32,60,61025ae37ef11b136ea224fe,,,,,,,,,739,-59,-120,1,0,0,response5disk,,3,4,-1,1,0,0,rectangle,4,-1,1,0,0,4,-1,1,0,0,1,135,295,131,1,,,,,,,,
,,,,,,,,,,,,,FF,,,,,,,,0.563,,,,,,,,,,,,,,,,,,,,,,6103630d21124460e8fb210d,610367b4cc9a687fc6d55d1e,2021-07-29_19h45.52.890,Simcolourproject_2stim_asymm_v5,2020.2.10,Win32,60,61025ae37ef11b136ea224fe,,,,,,,,,3260,103,-41,1,0,0,response3disk,,5,20,-20,1,0,0,rectangle,20,-20,1,0,0,20,-20,1,0,0,1,136,296,6,1,,,,,,,,
,,,,,,,,,,,,,FF,,,,,,,,0.585,,,,,,,,,,,,,,,,,,,,,,6103630d21124460e8fb210d,610367b4cc9a687fc6d55d1e,2021-07-29_19h45.52.890,Simcolourproject_2stim_asymm_v5,2020.2.10,Win32,60,61025ae37ef11b136ea224fe,,,,,,,,,3944,61,110,1,0,0,response1disk,,7,5,-2,1,0,0,rectangle,5,-2,1,0,0,5,-2,1,0,0,1,137,297,36,1,,,,,,,,
,,,,,,,,,,,,,FF,,,,,,,,0.45,,,,,,,,,,,,,,,,,,,,,,6103630d21124460e8fb210d,610367b4cc9a687fc6d55d1e,2021-07-29_19h45.52.890,Simcolourproject_2stim_asymm_v5,2020.2.10,Win32,60,61025ae37ef11b136ea224fe,,,,,,,,,3575,56,111,1,0,0,response1disk,,7,-11,-12,1,0,0,rectangle,-11,-12,1,0,0,-11,-12,1,0,0,1,138,298,0,1,,,,,,,,
,,,,,,,,,,,,,FF,,,,,,,,2.119,,,,,,,,,,,,,,,,,,,,,,6103630d21124460e8fb210d,610367b4cc9a687fc6d55d1e,2021-07-29_19h45.52.890,Simcolourproject_2stim_asymm_v5,2020.2.10,Win32,60,61025ae37ef11b136ea224fe,,,,,,,,,2077,76,138,1,0,0,response1disk,,7,8,9,1,0,0,rectangle,8,9,1,0,0,8,9,1,0,0,1,139,299,16,1,,,,,,,,
,,,,,,,,,,,,,FF,,,,,,,,0.683,,,,,,,,,,,,,,,,,,,,,,6103630d21124460e8fb210d,610367b4cc9a687fc6d55d1e,2021-07-29_19h45.52.890,Simcolourproject_2stim_asymm_v5,2020.2.10,Win32,60,61025ae37ef11b136ea224fe,,,,,,,,,3397,115,-42,1,0,0,response3disk,,5,-2,-16,1,0,0,rectangle,-2,-16,1,0,0,-2,-16,1,0,0,1,140,300,34,1,,,,,,,,
,,,,,,,,,,,,,FF,,,,,,,,1.416,,,,,,,,,,,,,,,,,,,,,,6103630d21124460e8fb210d,610367b4cc9a687fc6d55d1e,2021-07-29_19h45.52.890,Simcolourproject_2stim_asymm_v5,2020.2.10,Win32,60,61025ae37ef11b136ea224fe,,,,,,,,,486,116,93,1,0,0,response1disk,,6,14,7,1,0,0,rectangle,14,7,1,0,0,14,7,1,0,0,1,141,301,75,1,,,,,,,,
