key_resp.keys,key_resp.rt,key_resp_14.keys,key_resp_14.rt,key_resp_15.keys,key_resp_15.rt,key_resp_17.keys,key_resp_17.rt,key_resp_9.keys,key_resp_9.rt,key_resp_10.keys,key_resp_10.rt,practice_comparison,Ecc,mouse_5.x,mouse_5.y,mouse_5.leftButton,mouse_5.midButton,mouse_5.rightButton,mouse_5.clicked_name,pracsimilarity,response_time,mouse_10.x,mouse_10.y,mouse_10.leftButton,mouse_10.midButton,mouse_10.rightButton,mouse_10.clicked_name,mouse_7.x,mouse_7.y,mouse_7.leftButton,mouse_7.midButton,mouse_7.rightButton,mouse_6.x,mouse_6.y,mouse_6.leftButton,mouse_6.midButton,mouse_6.rightButton,duringprac.thisRepN,duringprac.thisTrialN,duringprac.thisN,duringprac.thisIndex,duringprac.ran,participant,session,date,expName,psychopyVersion,OS,frameRate,study_id,mouse_7.clicked_name,catchpracsimilarity,catch_response_time,catchnumberprac,catchtrialorderprac,mouse_6.clicked_name,key_resp_22.keys,key_resp_22.rt,realcomparison,mouse.x,mouse.y,mouse.leftButton,mouse.midButton,mouse.rightButton,mouse.clicked_name,Colour2,similarity,mouse_2.x,mouse_2.y,mouse_2.leftButton,mouse_2.midButton,mouse_2.rightButton,mouse_2.clicked_name,mouse_3.x,mouse_3.y,mouse_3.leftButton,mouse_3.midButton,mouse_3.rightButton,mouse_11.x,mouse_11.y,mouse_11.leftButton,mouse_11.midButton,mouse_11.rightButton,trials_2.thisRepN,trials_2.thisTrialN,trials_2.thisN,trials_2.thisIndex,trials_2.ran,Colour1,mouse_3.clicked_name,catchornah,catchsimilarity,catchnumber,catchtrialorder,catchRT,mouse_11.clicked_name
space,1.966,space,0.993,space,11.916,space,2.913,space,0.665,space,2.046,16,PF,-64,-51.5,1,0,0,response5disk_5,2,1.618,10,-0.5,1,0,0,rectangle_8,10,-0.5,1,0,0,10,-0.5,1,0,0,0,0,0,6,1,61036102a3f05e2ef6e4e3c6,61036b00debbc760859cd3b8,2021-07-29_23h00.09.350,Simcolourproject_2stim_asymm_v5,2020.2.10,Win32,60,61025ae37ef11b136ea224fe,,,,,,,,,,,,,,,,,,,,,,,,,,,,,,,,,,,,,,,,,,,,,,
,,,,,,,,,,,,2,PF,33,-64.5,1,0,0,response3disk_5,4,1.567,-3,0.5,1,0,0,rectangle_8,80,35.5,1,0,0,3,-6.5,1,0,0,0,1,1,2,1,61036102a3f05e2ef6e4e3c6,61036b00debbc760859cd3b8,2021-07-29_23h00.09.350,Simcolourproject_2stim_asymm_v5,2020.2.10,Win32,60,61025ae37ef11b136ea224fe,response1disk_7,6,2.366,6,"[2,5]",rectangle_4,,,,,,,,,,,,,,,,,,,,,,,,,,,,,,,,,,,,,,,,
,,,,,,,,,,,,80,PF,58,95.5,1,0,0,response1disk_5,7,1.233,-7,-10.5,1,0,0,rectangle_8,-7,-10.5,1,0,0,-7,-10.5,1,0,0,0,2,2,1,1,61036102a3f05e2ef6e4e3c6,61036b00debbc760859cd3b8,2021-07-29_23h00.09.350,Simcolourproject_2stim_asymm_v5,2020.2.10,Win32,60,61025ae37ef11b136ea224fe,,,,,,,,,,,,,,,,,,,,,,,,,,,,,,,,,,,,,,,,,,,,,,
,,,,,,,,,,,,69,FF,32,91.5,1,0,0,response1disk_5,7,0.967,-4,-2.5,1,0,0,rectangle_8,-4,-2.5,1,0,0,-4,-2.5,1,0,0,0,3,3,5,1,61036102a3f05e2ef6e4e3c6,61036b00debbc760859cd3b8,2021-07-29_23h00.09.350,Simcolourproject_2stim_asymm_v5,2020.2.10,Win32,60,61025ae37ef11b136ea224fe,,,,,,,,,,,,,,,,,,,,,,,,,,,,,,,,,,,,,,,,,,,,,,
,,,,,,,,,,,,28,PF,70,-42.5,1,0,0,response3disk_5,5,1.35,17,-3.5,1,0,0,rectangle_8,80,22.5,1,0,0,15,-10.5,1,0,0,0,4,4,4,1,61036102a3f05e2ef6e4e3c6,61036b00debbc760859cd3b8,2021-07-29_23h00.09.350,Simcolourproject_2stim_asymm_v5,2020.2.10,Win32,60,61025ae37ef11b136ea224fe,response1disk_7,6,1.816,6,"[2,5]",rectangle_4,,,,,,,,,,,,,,,,,,,,,,,,,,,,,,,,,,,,,,,,
,,,,,,,,,,,,54,FF,-78,-51.5,1,0,0,response5disk_5,2,1.916,5,1.5,1,0,0,rectangle_8,5,1.5,1,0,0,5,1.5,1,0,0,0,5,5,0,1,61036102a3f05e2ef6e4e3c6,61036b00debbc760859cd3b8,2021-07-29_23h00.09.350,Simcolourproject_2stim_asymm_v5,2020.2.10,Win32,60,61025ae37ef11b136ea224fe,,,,,,,,,,,,,,,,,,,,,,,,,,,,,,,,,,,,,,,,,,,,,,
,,,,,,,,,,,,124,FF,32,54.5,1,0,0,response1disk_5,7,1.033,-14,-6.5,1,0,0,rectangle_8,-14,-6.5,1,0,0,-14,-6.5,1,0,0,0,6,6,3,1,61036102a3f05e2ef6e4e3c6,61036b00debbc760859cd3b8,2021-07-29_23h00.09.350,Simcolourproject_2stim_asymm_v5,2020.2.10,Win32,60,61025ae37ef11b136ea224fe,,,,,,,,,,,,,,,,,,,,,,,,,,,,,,,,,,,,,,,,,,,,,,
,,,,,,,,,,,,,FF,,,,,,,,1.283,,,,,,,,,,,,,,,,,,,,,,61036102a3f05e2ef6e4e3c6,61036b00debbc760859cd3b8,2021-07-29_23h00.09.350,Simcolourproject_2stim_asymm_v5,2020.2.10,Win32,60,61025ae37ef11b136ea224fe,,,,,,,space,1.558,1734,-39,70.5,1,0,0,response7disk,,0,-10,2.5,1,0,0,rectangle,-10,2.5,1,0,0,-10,2.5,1,0,0,0,0,0,36,1,,,,,,,,
,,,,,,,,,,,,,FF,,,,,,,,1.116,,,,,,,,,,,,,,,,,,,,,,61036102a3f05e2ef6e4e3c6,61036b00debbc760859cd3b8,2021-07-29_23h00.09.350,Simcolourproject_2stim_asymm_v5,2020.2.10,Win32,60,61025ae37ef11b136ea224fe,,,,,,,,,2733,-27,-56.5,1,0,0,response5disk,,3,-13,-5.5,1,0,0,rectangle,-13,-5.5,1,0,0,-13,-5.5,1,0,0,0,1,1,13,1,,,,,,,,
,,,,,,,,,,,,,FF,,,,,,,,0.95,,,,,,,,,,,,,,,,,,,,,,61036102a3f05e2ef6e4e3c6,61036b00debbc760859cd3b8,2021-07-29_23h00.09.350,Simcolourproject_2stim_asymm_v5,2020.2.10,Win32,60,61025ae37ef11b136ea224fe,,,,,,,,,4056,24,-64.5,1,0,0,response3disk,,4,1,-6.5,1,0,0,rectangle,1,-6.5,1,0,0,1,-6.5,1,0,0,0,2,2,91,1,,,,,,,,
,,,,,,,,,,,,,FF,,,,,,,,1.384,,,,,,,,,,,,,,,,,,,,,,61036102a3f05e2ef6e4e3c6,61036b00debbc760859cd3b8,2021-07-29_23h00.09.350,Simcolourproject_2stim_asymm_v5,2020.2.10,Win32,60,61025ae37ef11b136ea224fe,,,,,,,,,2186,61,-39.5,1,0,0,response3disk,,5,7,2.5,1,0,0,rectangle,7,2.5,1,0,0,7,2.5,1,0,0,0,3,3,121,1,,,,,,,,
,,,,,,,,,,,,,FF,,,,,,,,2.65,,,,,,,,,,,,,,,,,,,,,,61036102a3f05e2ef6e4e3c6,61036b00debbc760859cd3b8,2021-07-29_23h00.09.350,Simcolourproject_2stim_asymm_v5,2020.2.10,Win32,60,61025ae37ef11b136ea224fe,,,,,,,,,4167,37,-94.5,1,0,0,response3disk,,4,10,6.5,1,0,0,rectangle,10,6.5,1,0,0,10,6.5,1,0,0,0,4,4,125,1,,,,,,,,
,,,,,,,,,,,,,FF,,,,,,,,1.684,,,,,,,,,,,,,,,,,,,,,,61036102a3f05e2ef6e4e3c6,61036b00debbc760859cd3b8,2021-07-29_23h00.09.350,Simcolourproject_2stim_asymm_v5,2020.2.10,Win32,60,61025ae37ef11b136ea224fe,,,,,,,,,3553,-85,27.5,1,0,0,response7disk,,1,3,3.5,1,0,0,rectangle,3,3.5,1,0,0,3,3.5,1,0,0,0,5,5,149,1,,,,,,,,
,,,,,,,,,,,,,FF,,,,,,,,1.15,,,,,,,,,,,,,,,,,,,,,,61036102a3f05e2ef6e4e3c6,61036b00debbc760859cd3b8,2021-07-29_23h00.09.350,Simcolourproject_2stim_asymm_v5,2020.2.10,Win32,60,61025ae37ef11b136ea224fe,,,,,,,,,134,80,53.5,1,0,0,response1disk,,6,14,-1.5,1,0,0,rectangle,14,-1.5,1,0,0,14,-1.5,1,0,0,0,6,6,8,1,,,,,,,,
,,,,,,,,,,,,,FF,,,,,,,,0.983,,,,,,,,,,,,,,,,,,,,,,61036102a3f05e2ef6e4e3c6,61036b00debbc760859cd3b8,2021-07-29_23h00.09.350,Simcolourproject_2stim_asymm_v5,2020.2.10,Win32,60,61025ae37ef11b136ea224fe,,,,,,,,,3729,-31,-76.5,1,0,0,response5disk,,3,7,3.5,1,0,0,rectangle,7,3.5,1,0,0,7,3.5,1,0,0,0,7,7,98,1,,,,,,,,
,,,,,,,,,,,,,FF,,,,,,,,1.466,,,,,,,,,,,,,,,,,,,,,,61036102a3f05e2ef6e4e3c6,61036b00debbc760859cd3b8,2021-07-29_23h00.09.350,Simcolourproject_2stim_asymm_v5,2020.2.10,Win32,60,61025ae37ef11b136ea224fe,,,,,,,,,1910,53,-76.5,1,0,0,response3disk,,4,-5,6.5,1,0,0,rectangle,-5,6.5,1,0,0,-5,6.5,1,0,0,0,8,8,44,1,,,,,,,,
,,,,,,,,,,,,,FF,,,,,,,,0.934,,,,,,,,,,,,,,,,,,,,,,61036102a3f05e2ef6e4e3c6,61036b00debbc760859cd3b8,2021-07-29_23h00.09.350,Simcolourproject_2stim_asymm_v5,2020.2.10,Win32,60,61025ae37ef11b136ea224fe,,,,,,,,,3290,-36,77.5,1,0,0,response7disk,,0,-5,3.5,1,0,0,rectangle,-5,3.5,1,0,0,-5,3.5,1,0,0,0,9,9,110,1,,,,,,,,
,,,,,,,,,,,,,FF,,,,,,,,1.216,,,,,,,,,,,,,,,,,,,,,,61036102a3f05e2ef6e4e3c6,61036b00debbc760859cd3b8,2021-07-29_23h00.09.350,Simcolourproject_2stim_asymm_v5,2020.2.10,Win32,60,61025ae37ef11b136ea224fe,,,,,,,,,373,-50,-18.5,1,0,0,response5disk,,2,-5,1.5,1,0,0,rectangle,-5,1.5,1,0,0,-5,1.5,1,0,0,0,10,10,40,1,,,,,,,,
,,,,,,,,,,,,,FF,,,,,,,,0.916,,,,,,,,,,,,,,,,,,,,,,61036102a3f05e2ef6e4e3c6,61036b00debbc760859cd3b8,2021-07-29_23h00.09.350,Simcolourproject_2stim_asymm_v5,2020.2.10,Win32,60,61025ae37ef11b136ea224fe,,,,,,,,,3746,-61,33.5,1,0,0,response7disk,,1,-16,3.5,1,0,0,rectangle,-16,3.5,1,0,0,-16,3.5,1,0,0,0,11,11,57,1,,,,,,,,
,,,,,,,,,,,,,FF,,,,,,,,0.904,,,,,,,,,,,,,,,,,,,,,,61036102a3f05e2ef6e4e3c6,61036b00debbc760859cd3b8,2021-07-29_23h00.09.350,Simcolourproject_2stim_asymm_v5,2020.2.10,Win32,60,61025ae37ef11b136ea224fe,,,,,,,,,87,44,86.5,1,0,0,response1disk,,7,13,2.5,1,0,0,rectangle,13,2.5,1,0,0,13,2.5,1,0,0,0,12,12,48,1,,,,,,,,
,,,,,,,,,,,,,FF,,,,,,,,0.833,,,,,,,,,,,,,,,,,,,,,,61036102a3f05e2ef6e4e3c6,61036b00debbc760859cd3b8,2021-07-29_23h00.09.350,Simcolourproject_2stim_asymm_v5,2020.2.10,Win32,60,61025ae37ef11b136ea224fe,,,,,,,,,2076,49,31.5,1,0,0,response1disk,,6,-6,-5.5,1,0,0,rectangle,-6,-5.5,1,0,0,-6,-5.5,1,0,0,0,13,13,156,1,,,,,,,,
,,,,,,,,,,,,,FF,,,,,,,,1.066,,,,,,,,,,,,,,,,,,,,,,61036102a3f05e2ef6e4e3c6,61036b00debbc760859cd3b8,2021-07-29_23h00.09.350,Simcolourproject_2stim_asymm_v5,2020.2.10,Win32,60,61025ae37ef11b136ea224fe,,,,,,,,,1541,25,-57.5,1,0,0,response3disk,,4,-1,-8.5,1,0,0,rectangle,-1,-8.5,1,0,0,-1,-8.5,1,0,0,0,14,14,101,1,,,,,,,,
,,,,,,,,,,,,,FF,,,,,,,,1.332,,,,,,,,,,,,,,,,,,,,,,61036102a3f05e2ef6e4e3c6,61036b00debbc760859cd3b8,2021-07-29_23h00.09.350,Simcolourproject_2stim_asymm_v5,2020.2.10,Win32,60,61025ae37ef11b136ea224fe,,,,,,,,,50,69,28.5,1,0,0,response1disk,,6,-13,8.5,1,0,0,rectangle,-13,8.5,1,0,0,-13,8.5,1,0,0,0,15,15,138,1,,,,,,,,
,,,,,,,,,,,,,FF,,,,,,,,1.032,,,,,,,,,,,,,,,,,,,,,,61036102a3f05e2ef6e4e3c6,61036b00debbc760859cd3b8,2021-07-29_23h00.09.350,Simcolourproject_2stim_asymm_v5,2020.2.10,Win32,60,61025ae37ef11b136ea224fe,,,,,,,,,4239,29,-48.5,1,0,0,response3disk,,4,2,-7.5,1,0,0,rectangle,2,-7.5,1,0,0,2,-7.5,1,0,0,0,16,16,131,1,,,,,,,,
,,,,,,,,,,,,,FF,,,,,,,,1.165,,,,,,,,,,,,,,,,,,,,,,61036102a3f05e2ef6e4e3c6,61036b00debbc760859cd3b8,2021-07-29_23h00.09.350,Simcolourproject_2stim_asymm_v5,2020.2.10,Win32,60,61025ae37ef11b136ea224fe,,,,,,,,,1099,23,67.5,1,0,0,response1disk,,7,-11,-6.5,1,0,0,rectangle,-11,-6.5,1,0,0,-11,-6.5,1,0,0,0,17,17,137,1,,,,,,,,
,,,,,,,,,,,,,FF,,,,,,,,1.099,,,,,,,,,,,,,,,,,,,,,,61036102a3f05e2ef6e4e3c6,61036b00debbc760859cd3b8,2021-07-29_23h00.09.350,Simcolourproject_2stim_asymm_v5,2020.2.10,Win32,60,61025ae37ef11b136ea224fe,,,,,,,,,2605,-48,60.5,1,0,0,response7disk,,0,-3,-6.5,1,0,0,rectangle,-3,-6.5,1,0,0,-3,-6.5,1,0,0,0,18,18,83,1,,,,,,,,
,,,,,,,,,,,,,FF,,,,,,,,1.049,,,,,,,,,,,,,,,,,,,,,,61036102a3f05e2ef6e4e3c6,61036b00debbc760859cd3b8,2021-07-29_23h00.09.350,Simcolourproject_2stim_asymm_v5,2020.2.10,Win32,60,61025ae37ef11b136ea224fe,,,,,,,,,3557,-21,-46.5,1,0,0,response5disk,,3,11,-4.5,1,0,0,rectangle,11,-4.5,1,0,0,11,-4.5,1,0,0,0,19,19,141,1,,,,,,,,
,,,,,,,,,,,,,FF,,,,,,,,1.633,,,,,,,,,,,,,,,,,,,,,,61036102a3f05e2ef6e4e3c6,61036b00debbc760859cd3b8,2021-07-29_23h00.09.350,Simcolourproject_2stim_asymm_v5,2020.2.10,Win32,60,61025ae37ef11b136ea224fe,,,,,,,,,1259,65,38.5,1,0,0,response1disk,,6,26,3.5,1,0,0,rectangle,26,3.5,1,0,0,26,3.5,1,0,0,0,20,20,111,1,,,,,,,,
,,,,,,,,,,,,,FF,,,,,,,,1.183,,,,,,,,,,,,,,,,,,,,,,61036102a3f05e2ef6e4e3c6,61036b00debbc760859cd3b8,2021-07-29_23h00.09.350,Simcolourproject_2stim_asymm_v5,2020.2.10,Win32,60,61025ae37ef11b136ea224fe,,,,,,,,,1345,31,55.5,1,0,0,response1disk,,7,15,-0.5,1,0,0,rectangle,15,-0.5,1,0,0,15,-0.5,1,0,0,0,21,21,147,1,,,,,,,,
,,,,,,,,,,,,,FF,,,,,,,,0.816,,,,,,,,,,,,,,,,,,,,,,61036102a3f05e2ef6e4e3c6,61036b00debbc760859cd3b8,2021-07-29_23h00.09.350,Simcolourproject_2stim_asymm_v5,2020.2.10,Win32,60,61025ae37ef11b136ea224fe,,,,,,,,,1616,25,-37.5,1,0,0,response3disk,,4,-1,-3.5,1,0,0,rectangle,-1,-3.5,1,0,0,-1,-3.5,1,0,0,0,22,22,61,1,,,,,,,,
,,,,,,,,,,,,,FF,,,,,,,,1,,,,,,,,,,,,,,,,,,,,,,61036102a3f05e2ef6e4e3c6,61036b00debbc760859cd3b8,2021-07-29_23h00.09.350,Simcolourproject_2stim_asymm_v5,2020.2.10,Win32,60,61025ae37ef11b136ea224fe,,,,,,,,,688,-25,-27.5,1,0,0,response5disk,,3,-3,-5.5,1,0,0,rectangle,-3,-5.5,1,0,0,-3,-5.5,1,0,0,0,23,23,5,1,,,,,,,,
,,,,,,,,,,,,,FF,,,,,,,,0.917,,,,,,,,,,,,,,,,,,,,,,61036102a3f05e2ef6e4e3c6,61036b00debbc760859cd3b8,2021-07-29_23h00.09.350,Simcolourproject_2stim_asymm_v5,2020.2.10,Win32,60,61025ae37ef11b136ea224fe,,,,,,,,,3932,59,-48.5,1,0,0,response3disk,,5,-13,-1.5,1,0,0,rectangle,-13,-1.5,1,0,0,-13,-1.5,1,0,0,0,24,24,107,1,,,,,,,,
,,,,,,,,,,,,,FF,,,,,,,,1.317,,,,,,,,,,,,,,,,,,,,,,61036102a3f05e2ef6e4e3c6,61036b00debbc760859cd3b8,2021-07-29_23h00.09.350,Simcolourproject_2stim_asymm_v5,2020.2.10,Win32,60,61025ae37ef11b136ea224fe,,,,,,,,,2425,-75,43.5,1,0,0,response7disk,,1,-10,3.5,1,0,0,rectangle,-10,3.5,1,0,0,-10,3.5,1,0,0,0,25,25,0,1,,,,,,,,
,,,,,,,,,,,,,FF,,,,,,,,0.967,,,,,,,,,,,,,,,,,,,,,,61036102a3f05e2ef6e4e3c6,61036b00debbc760859cd3b8,2021-07-29_23h00.09.350,Simcolourproject_2stim_asymm_v5,2020.2.10,Win32,60,61025ae37ef11b136ea224fe,,,,,,,,,1626,47,58.5,1,0,0,response1disk,,7,-8,-3.5,1,0,0,rectangle,-8,-3.5,1,0,0,-8,-3.5,1,0,0,0,26,26,23,1,,,,,,,,
,,,,,,,,,,,,,FF,,,,,,,,0.85,,,,,,,,,,,,,,,,,,,,,,61036102a3f05e2ef6e4e3c6,61036b00debbc760859cd3b8,2021-07-29_23h00.09.350,Simcolourproject_2stim_asymm_v5,2020.2.10,Win32,60,61025ae37ef11b136ea224fe,,,,,,,,,1491,-33,-66.5,1,0,0,response5disk,,3,7,-8.5,1,0,0,rectangle,7,-8.5,1,0,0,7,-8.5,1,0,0,0,27,27,10,1,,,,,,,,
,,,,,,,,,,,,,FF,,,,,,,,0.816,,,,,,,,,,,,,,,,,,,,,,61036102a3f05e2ef6e4e3c6,61036b00debbc760859cd3b8,2021-07-29_23h00.09.350,Simcolourproject_2stim_asymm_v5,2020.2.10,Win32,60,61025ae37ef11b136ea224fe,,,,,,,,,28,-40,27.5,1,0,0,response7disk,,1,4,5.5,1,0,0,rectangle,4,5.5,1,0,0,4,5.5,1,0,0,0,28,28,133,1,,,,,,,,
,,,,,,,,,,,,,FF,,,,,,,,0.883,,,,,,,,,,,,,,,,,,,,,,61036102a3f05e2ef6e4e3c6,61036b00debbc760859cd3b8,2021-07-29_23h00.09.350,Simcolourproject_2stim_asymm_v5,2020.2.10,Win32,60,61025ae37ef11b136ea224fe,,,,,,,,,2154,81,-21.5,1,0,0,response3disk,,5,25,-0.5,1,0,0,rectangle,25,-0.5,1,0,0,25,-0.5,1,0,0,0,29,29,11,1,,,,,,,,
,,,,,,,,,,,,,FF,,,,,,,,0.499,,,,,,,,,,,,,,,,,,,,,,61036102a3f05e2ef6e4e3c6,61036b00debbc760859cd3b8,2021-07-29_23h00.09.350,Simcolourproject_2stim_asymm_v5,2020.2.10,Win32,60,61025ae37ef11b136ea224fe,,,,,,,,,155,59,28.5,1,0,0,response1disk,,6,-11,5.5,1,0,0,rectangle,-11,5.5,1,0,0,-11,5.5,1,0,0,0,30,30,145,1,,,,,,,,
,,,,,,,,,,,,,FF,,,,,,,,1.184,,,,,,,,,,,,,,,,,,,,,,61036102a3f05e2ef6e4e3c6,61036b00debbc760859cd3b8,2021-07-29_23h00.09.350,Simcolourproject_2stim_asymm_v5,2020.2.10,Win32,60,61025ae37ef11b136ea224fe,,,,,,,,,1634,-25,-60.5,1,0,0,response5disk,,3,-10,-2.5,1,0,0,rectangle,-10,-2.5,1,0,0,-10,-2.5,1,0,0,0,31,31,69,1,,,,,,,,
,,,,,,,,,,,,,FF,,,,,,,,1.016,,,,,,,,,,,,,,,,,,,,,,61036102a3f05e2ef6e4e3c6,61036b00debbc760859cd3b8,2021-07-29_23h00.09.350,Simcolourproject_2stim_asymm_v5,2020.2.10,Win32,60,61025ae37ef11b136ea224fe,,,,,,,,,1625,-86,41.5,1,0,0,response7disk,,1,-17,8.5,1,0,0,rectangle,-17,8.5,1,0,0,-17,8.5,1,0,0,0,32,32,158,1,,,,,,,,
,,,,,,,,,,,,,FF,,,,,,,,0.75,,,,,,,,,,,,,,,,,,,,,,61036102a3f05e2ef6e4e3c6,61036b00debbc760859cd3b8,2021-07-29_23h00.09.350,Simcolourproject_2stim_asymm_v5,2020.2.10,Win32,60,61025ae37ef11b136ea224fe,,,,,,,,,4033,33,-79.5,1,0,0,response3disk,,4,-19,8.5,1,0,0,rectangle,-19,8.5,1,0,0,-19,8.5,1,0,0,0,33,33,123,1,,,,,,,,
,,,,,,,,,,,,,FF,,,,,,,,0.867,,,,,,,,,,,,,,,,,,,,,,61036102a3f05e2ef6e4e3c6,61036b00debbc760859cd3b8,2021-07-29_23h00.09.350,Simcolourproject_2stim_asymm_v5,2020.2.10,Win32,60,61025ae37ef11b136ea224fe,,,,,,,,,2424,-98,-56.5,1,0,0,response5disk,,2,10,-0.5,1,0,0,rectangle,10,-0.5,1,0,0,10,-0.5,1,0,0,0,34,34,104,1,,,,,,,,
,,,,,,,,,,,,,FF,,,,,,,,0.967,,,,,,,,,,,,,,,,,,,,,,61036102a3f05e2ef6e4e3c6,61036b00debbc760859cd3b8,2021-07-29_23h00.09.350,Simcolourproject_2stim_asymm_v5,2020.2.10,Win32,60,61025ae37ef11b136ea224fe,,,,,,,,,1949,-68,31.5,1,0,0,response7disk,,1,-4,3.5,1,0,0,rectangle,-4,3.5,1,0,0,-4,3.5,1,0,0,0,35,35,117,1,,,,,,,,
,,,,,,,,,,,,,FF,,,,,,,,0.834,,,,,,,,,,,,,,,,,,,,,,61036102a3f05e2ef6e4e3c6,61036b00debbc760859cd3b8,2021-07-29_23h00.09.350,Simcolourproject_2stim_asymm_v5,2020.2.10,Win32,60,61025ae37ef11b136ea224fe,,,,,,,,,2316,-41,-50.5,1,0,0,response5disk,,3,20,6.5,1,0,0,rectangle,20,6.5,1,0,0,20,6.5,1,0,0,0,36,36,136,1,,,,,,,,
,,,,,,,,,,,,,FF,,,,,,,,0.8,,,,,,,,,,,,,,,,,,,,,,61036102a3f05e2ef6e4e3c6,61036b00debbc760859cd3b8,2021-07-29_23h00.09.350,Simcolourproject_2stim_asymm_v5,2020.2.10,Win32,60,61025ae37ef11b136ea224fe,,,,,,,,,2890,-72,-46.5,1,0,0,response5disk,,2,-4,7.5,1,0,0,rectangle,-4,7.5,1,0,0,-4,7.5,1,0,0,0,37,37,43,1,,,,,,,,
,,,,,,,,,,,,,FF,,,,,,,,0.667,,,,,,,,,,,,,,,,,,,,,,61036102a3f05e2ef6e4e3c6,61036b00debbc760859cd3b8,2021-07-29_23h00.09.350,Simcolourproject_2stim_asymm_v5,2020.2.10,Win32,60,61025ae37ef11b136ea224fe,,,,,,,,,2492,-59,41.5,1,0,0,response7disk,,1,-3,-2.5,1,0,0,rectangle,-3,-2.5,1,0,0,-3,-2.5,1,0,0,0,38,38,152,1,,,,,,,,
,,,,,,,,,,,,,FF,,,,,,,,0.751,,,,,,,,,,,,,,,,,,,,,,61036102a3f05e2ef6e4e3c6,61036b00debbc760859cd3b8,2021-07-29_23h00.09.350,Simcolourproject_2stim_asymm_v5,2020.2.10,Win32,60,61025ae37ef11b136ea224fe,,,,,,,,,3784,-66,36.5,1,0,0,response7disk,,1,-23,9.5,1,0,0,rectangle,-23,9.5,1,0,0,-23,9.5,1,0,0,0,39,39,28,1,,,,,,,,
,,,,,,,,,,,,,FF,,,,,,,,0.6,,,,,,,,,,,,,,,,,,,,,,61036102a3f05e2ef6e4e3c6,61036b00debbc760859cd3b8,2021-07-29_23h00.09.350,Simcolourproject_2stim_asymm_v5,2020.2.10,Win32,60,61025ae37ef11b136ea224fe,,,,,,,,,2862,-55,-50.5,1,0,0,response5disk,,2,9,2.5,1,0,0,rectangle,9,2.5,1,0,0,9,2.5,1,0,0,0,40,40,82,1,,,,,,,,
,,,,,,,,,,,,,FF,,,,,,,,1.8,,,,,,,,,,,,,,,,,,,,,,61036102a3f05e2ef6e4e3c6,61036b00debbc760859cd3b8,2021-07-29_23h00.09.350,Simcolourproject_2stim_asymm_v5,2020.2.10,Win32,60,61025ae37ef11b136ea224fe,,,,,,,,,875,44,-77.5,1,0,0,response3disk,,4,6,-3.5,1,0,0,rectangle,6,-3.5,1,0,0,6,-3.5,1,0,0,0,41,41,37,1,,,,,,,,
,,,,,,,,,,,,,FF,,,,,,,,0.884,,,,,,,,,,,,,,,,,,,,,,61036102a3f05e2ef6e4e3c6,61036b00debbc760859cd3b8,2021-07-29_23h00.09.350,Simcolourproject_2stim_asymm_v5,2020.2.10,Win32,60,61025ae37ef11b136ea224fe,,,,,,,,,3648,30,53.5,1,0,0,response1disk,,7,19,-0.5,1,0,0,rectangle,19,-0.5,1,0,0,19,-0.5,1,0,0,0,42,42,53,1,,,,,,,,
,,,,,,,,,,,,,FF,,,,,,,,1.049,,,,,,,,,,,,,,,,,,,,,,61036102a3f05e2ef6e4e3c6,61036b00debbc760859cd3b8,2021-07-29_23h00.09.350,Simcolourproject_2stim_asymm_v5,2020.2.10,Win32,60,61025ae37ef11b136ea224fe,,,,,,,,,60,55,16.5,1,0,0,response1disk,,6,9,-10.5,1,0,0,rectangle,9,-10.5,1,0,0,9,-10.5,1,0,0,0,43,43,38,1,,,,,,,,
,,,,,,,,,,,,,FF,,,,,,,,0.999,,,,,,,,,,,,,,,,,,,,,,61036102a3f05e2ef6e4e3c6,61036b00debbc760859cd3b8,2021-07-29_23h00.09.350,Simcolourproject_2stim_asymm_v5,2020.2.10,Win32,60,61025ae37ef11b136ea224fe,,,,,,,,,948,-27,-50.5,1,0,0,response5disk,,3,-1,-7.5,1,0,0,rectangle,-1,-7.5,1,0,0,-1,-7.5,1,0,0,0,44,44,17,1,,,,,,,,
,,,,,,,,,,,,,FF,,,,,,,,1.416,,,,,,,,,,,,,,,,,,,,,,61036102a3f05e2ef6e4e3c6,61036b00debbc760859cd3b8,2021-07-29_23h00.09.350,Simcolourproject_2stim_asymm_v5,2020.2.10,Win32,60,61025ae37ef11b136ea224fe,,,,,,,,,1147,-75,-44.5,1,0,0,response5disk,,2,-14,-6.5,1,0,0,rectangle,-14,-6.5,1,0,0,-14,-6.5,1,0,0,0,45,45,142,1,,,,,,,,
,,,,,,,,,,,,,FF,,,,,,,,1.084,,,,,,,,,,,,,,,,,,,,,,61036102a3f05e2ef6e4e3c6,61036b00debbc760859cd3b8,2021-07-29_23h00.09.350,Simcolourproject_2stim_asymm_v5,2020.2.10,Win32,60,61025ae37ef11b136ea224fe,,,,,,,,,2911,83,-34.5,1,0,0,response3disk,,5,3,3.5,1,0,0,rectangle,3,3.5,1,0,0,3,3.5,1,0,0,0,46,46,127,1,,,,,,,,
,,,,,,,,,,,,,FF,,,,,,,,0.817,,,,,,,,,,,,,,,,,,,,,,61036102a3f05e2ef6e4e3c6,61036b00debbc760859cd3b8,2021-07-29_23h00.09.350,Simcolourproject_2stim_asymm_v5,2020.2.10,Win32,60,61025ae37ef11b136ea224fe,,,,,,,,,2626,64,31.5,1,0,0,response1disk,,6,-3,-3.5,1,0,0,rectangle,-3,-3.5,1,0,0,-3,-3.5,1,0,0,0,47,47,39,1,,,,,,,,
,,,,,,,,,,,,,FF,,,,,,,,0.533,,,,,,,,,,,,,,,,,,,,,,61036102a3f05e2ef6e4e3c6,61036b00debbc760859cd3b8,2021-07-29_23h00.09.350,Simcolourproject_2stim_asymm_v5,2020.2.10,Win32,60,61025ae37ef11b136ea224fe,,,,,,,,,4320,25,35.5,1,0,0,response1disk,,7,15,-0.5,1,0,0,rectangle,15,-0.5,1,0,0,15,-0.5,1,0,0,0,48,48,7,1,,,,,,,,
,,,,,,,,,,,,,FF,,,,,,,,0.9,,,,,,,,,,,,,,,,,,,,,,61036102a3f05e2ef6e4e3c6,61036b00debbc760859cd3b8,2021-07-29_23h00.09.350,Simcolourproject_2stim_asymm_v5,2020.2.10,Win32,60,61025ae37ef11b136ea224fe,,,,,,,,,167,-17,-42.5,1,0,0,response5disk,,3,-15,-3.5,1,0,0,rectangle,-15,-3.5,1,0,0,-15,-3.5,1,0,0,0,49,49,135,1,,,,,,,,
,,,,,,,,,,,,,FF,,,,,,,,0.832,,,,,,,,,,,,,,,,,,,,,,61036102a3f05e2ef6e4e3c6,61036b00debbc760859cd3b8,2021-07-29_23h00.09.350,Simcolourproject_2stim_asymm_v5,2020.2.10,Win32,60,61025ae37ef11b136ea224fe,,,,,,,,,699,67,-16.5,1,0,0,response3disk,,5,-8,10.5,1,0,0,rectangle,-8,10.5,1,0,0,-8,10.5,1,0,0,0,50,50,73,1,,,,,,,,
,,,,,,,,,,,,,FF,,,,,,,,1.367,,,,,,,,,,,,,,,,,,,,,,61036102a3f05e2ef6e4e3c6,61036b00debbc760859cd3b8,2021-07-29_23h00.09.350,Simcolourproject_2stim_asymm_v5,2020.2.10,Win32,60,61025ae37ef11b136ea224fe,,,,,,,,,4028,-45,-42.5,1,0,0,response5disk,,2,-17,-4.5,1,0,0,rectangle,-17,-4.5,1,0,0,-17,-4.5,1,0,0,0,51,51,88,1,,,,,,,,
,,,,,,,,,,,,,FF,,,,,,,,0.701,,,,,,,,,,,,,,,,,,,,,,61036102a3f05e2ef6e4e3c6,61036b00debbc760859cd3b8,2021-07-29_23h00.09.350,Simcolourproject_2stim_asymm_v5,2020.2.10,Win32,60,61025ae37ef11b136ea224fe,,,,,,,,,3324,30,-54.5,1,0,0,response3disk,,4,1,5.5,1,0,0,rectangle,1,5.5,1,0,0,1,5.5,1,0,0,0,52,52,54,1,,,,,,,,
,,,,,,,,,,,,,FF,,,,,,,,0.717,,,,,,,,,,,,,,,,,,,,,,61036102a3f05e2ef6e4e3c6,61036b00debbc760859cd3b8,2021-07-29_23h00.09.350,Simcolourproject_2stim_asymm_v5,2020.2.10,Win32,60,61025ae37ef11b136ea224fe,,,,,,,,,3966,-54,47.5,1,0,0,response7disk,,1,-7,1.5,1,0,0,rectangle,-7,1.5,1,0,0,-7,1.5,1,0,0,0,53,53,3,1,,,,,,,,
,,,,,,,,,,,,,FF,,,,,,,,1.616,,,,,,,,,,,,,,,,,,,,,,61036102a3f05e2ef6e4e3c6,61036b00debbc760859cd3b8,2021-07-29_23h00.09.350,Simcolourproject_2stim_asymm_v5,2020.2.10,Win32,60,61025ae37ef11b136ea224fe,,,,,,,,,3894,56,-25.5,1,0,0,response3disk,,5,1,-0.5,1,0,0,rectangle,1,-0.5,1,0,0,1,-0.5,1,0,0,0,54,54,105,1,,,,,,,,
,,,,,,,,,,,,,FF,,,,,,,,0.7,,,,,,,,,,,,,,,,,,,,,,61036102a3f05e2ef6e4e3c6,61036b00debbc760859cd3b8,2021-07-29_23h00.09.350,Simcolourproject_2stim_asymm_v5,2020.2.10,Win32,60,61025ae37ef11b136ea224fe,,,,,,,,,4204,-44,-26.5,1,0,0,response5disk,,2,-2,-2.5,1,0,0,rectangle,-2,-2.5,1,0,0,-2,-2.5,1,0,0,0,55,55,116,1,,,,,,,,
,,,,,,,,,,,,,FF,,,,,,,,0.717,,,,,,,,,,,,,,,,,,,,,,61036102a3f05e2ef6e4e3c6,61036b00debbc760859cd3b8,2021-07-29_23h00.09.350,Simcolourproject_2stim_asymm_v5,2020.2.10,Win32,60,61025ae37ef11b136ea224fe,,,,,,,,,828,-37,-56.5,1,0,0,response5disk,,3,-1,-7.5,1,0,0,rectangle,-1,-7.5,1,0,0,-1,-7.5,1,0,0,0,56,56,66,1,,,,,,,,
,,,,,,,,,,,,,FF,,,,,,,,0.75,,,,,,,,,,,,,,,,,,,,,,61036102a3f05e2ef6e4e3c6,61036b00debbc760859cd3b8,2021-07-29_23h00.09.350,Simcolourproject_2stim_asymm_v5,2020.2.10,Win32,60,61025ae37ef11b136ea224fe,,,,,,,,,2945,-63,28.5,1,0,0,response7disk,,1,-12,4.5,1,0,0,rectangle,-12,4.5,1,0,0,-12,4.5,1,0,0,0,57,57,95,1,,,,,,,,
,,,,,,,,,,,,,FF,,,,,,,,0.783,,,,,,,,,,,,,,,,,,,,,,61036102a3f05e2ef6e4e3c6,61036b00debbc760859cd3b8,2021-07-29_23h00.09.350,Simcolourproject_2stim_asymm_v5,2020.2.10,Win32,60,61025ae37ef11b136ea224fe,,,,,,,,,2248,-45,-82.5,1,0,0,response5disk,,3,3,4.5,1,0,0,rectangle,3,4.5,1,0,0,3,4.5,1,0,0,0,58,58,92,1,,,,,,,,
,,,,,,,,,,,,,FF,,,,,,,,0.751,,,,,,,,,,,,,,,,,,,,,,61036102a3f05e2ef6e4e3c6,61036b00debbc760859cd3b8,2021-07-29_23h00.09.350,Simcolourproject_2stim_asymm_v5,2020.2.10,Win32,60,61025ae37ef11b136ea224fe,,,,,,,,,3790,-57,-23.5,1,0,0,response5disk,,2,-17,-4.5,1,0,0,rectangle,-17,-4.5,1,0,0,-17,-4.5,1,0,0,0,59,59,78,1,,,,,,,,
,,,,,,,,,,,,,FF,,,,,,,,0.55,,,,,,,,,,,,,,,,,,,,,,61036102a3f05e2ef6e4e3c6,61036b00debbc760859cd3b8,2021-07-29_23h00.09.350,Simcolourproject_2stim_asymm_v5,2020.2.10,Win32,60,61025ae37ef11b136ea224fe,,,,,,,,,881,45,26.5,1,0,0,response1disk,,6,1,2.5,1,0,0,rectangle,1,2.5,1,0,0,1,2.5,1,0,0,0,60,60,55,1,,,,,,,,
,,,,,,,,,,,,,FF,,,,,,,,0.533,,,,,,,,,,,,,,,,,,,,,,61036102a3f05e2ef6e4e3c6,61036b00debbc760859cd3b8,2021-07-29_23h00.09.350,Simcolourproject_2stim_asymm_v5,2020.2.10,Win32,60,61025ae37ef11b136ea224fe,,,,,,,,,1252,47,48.5,1,0,0,response1disk,,7,18,6.5,1,0,0,rectangle,18,6.5,1,0,0,18,6.5,1,0,0,0,61,61,74,1,,,,,,,,
,,,,,,,,,,,,,FF,,,,,,,,0.717,,,,,,,,,,,,,,,,,,,,,,61036102a3f05e2ef6e4e3c6,61036b00debbc760859cd3b8,2021-07-29_23h00.09.350,Simcolourproject_2stim_asymm_v5,2020.2.10,Win32,60,61025ae37ef11b136ea224fe,,,,,,,,,154,-42,-34.5,1,0,0,response5disk,,2,-11,-2.5,1,0,0,rectangle,-11,-2.5,1,0,0,-11,-2.5,1,0,0,0,62,62,68,1,,,,,,,,
,,,,,,,,,,,,,FF,,,,,,,,1.05,,,,,,,,,,,,,,,,,,,,,,61036102a3f05e2ef6e4e3c6,61036b00debbc760859cd3b8,2021-07-29_23h00.09.350,Simcolourproject_2stim_asymm_v5,2020.2.10,Win32,60,61025ae37ef11b136ea224fe,,,,,,,,,3591,-17,60.5,1,0,0,response7disk,,0,-1,8.5,1,0,0,rectangle,85,24.5,1,0,0,17,-2.5,1,0,0,0,63,63,42,1,,response1disk_3,TRUE,6,6,"[292,263,123,298,188,68,226,252,127,303,202,194,64,200,148,200,124,203,125,112]",1.766,rectangle
,,,,,,,,,,,,,FF,,,,,,,,0.8,,,,,,,,,,,,,,,,,,,,,,61036102a3f05e2ef6e4e3c6,61036b00debbc760859cd3b8,2021-07-29_23h00.09.350,Simcolourproject_2stim_asymm_v5,2020.2.10,Win32,60,61025ae37ef11b136ea224fe,,,,,,,,,2978,-51,-27.5,1,0,0,response5disk,,2,1,-8.5,1,0,0,rectangle,1,-8.5,1,0,0,1,-8.5,1,0,0,0,64,64,112,1,,,,,,,,
,,,,,,,,,,,,,FF,,,,,,,,0.733,,,,,,,,,,,,,,,,,,,,,,61036102a3f05e2ef6e4e3c6,61036b00debbc760859cd3b8,2021-07-29_23h00.09.350,Simcolourproject_2stim_asymm_v5,2020.2.10,Win32,60,61025ae37ef11b136ea224fe,,,,,,,,,4119,-55,19.5,1,0,0,response7disk,,1,-6,1.5,1,0,0,rectangle,-6,1.5,1,0,0,-6,1.5,1,0,0,0,65,65,20,1,,,,,,,,
,,,,,,,,,,,,,FF,,,,,,,,0.683,,,,,,,,,,,,,,,,,,,,,,61036102a3f05e2ef6e4e3c6,61036b00debbc760859cd3b8,2021-07-29_23h00.09.350,Simcolourproject_2stim_asymm_v5,2020.2.10,Win32,60,61025ae37ef11b136ea224fe,,,,,,,,,414,-52,-96.5,1,0,0,response5disk,,3,7,-8.5,1,0,0,rectangle,7,-8.5,1,0,0,7,-8.5,1,0,0,0,66,66,115,1,,,,,,,,
,,,,,,,,,,,,,FF,,,,,,,,0.984,,,,,,,,,,,,,,,,,,,,,,61036102a3f05e2ef6e4e3c6,61036b00debbc760859cd3b8,2021-07-29_23h00.09.350,Simcolourproject_2stim_asymm_v5,2020.2.10,Win32,60,61025ae37ef11b136ea224fe,,,,,,,,,2318,58,-66.5,1,0,0,response3disk,,4,1,-7.5,1,0,0,rectangle,-73,38.5,1,0,0,-16,0.5,1,0,0,0,67,67,80,1,,response7disk_3,TRUE,1,1,"[292,263,123,298,188,68,226,252,127,303,202,194,64,200,148,200,124,203,125,112]",1.499,rectangle
,,,,,,,,,,,,,FF,,,,,,,,0.932,,,,,,,,,,,,,,,,,,,,,,61036102a3f05e2ef6e4e3c6,61036b00debbc760859cd3b8,2021-07-29_23h00.09.350,Simcolourproject_2stim_asymm_v5,2020.2.10,Win32,60,61025ae37ef11b136ea224fe,,,,,,,,,387,76,47.5,1,0,0,response1disk,,6,-6,-1.5,1,0,0,rectangle,-6,-1.5,1,0,0,-6,-1.5,1,0,0,0,68,68,72,1,,,,,,,,
,,,,,,,,,,,,,FF,,,,,,,,0.733,,,,,,,,,,,,,,,,,,,,,,61036102a3f05e2ef6e4e3c6,61036b00debbc760859cd3b8,2021-07-29_23h00.09.350,Simcolourproject_2stim_asymm_v5,2020.2.10,Win32,60,61025ae37ef11b136ea224fe,,,,,,,,,934,-29,-55.5,1,0,0,response5disk,,3,21,9.5,1,0,0,rectangle,21,9.5,1,0,0,21,9.5,1,0,0,0,69,69,45,1,,,,,,,,
,,,,,,,,,,,,,FF,,,,,,,,0.699,,,,,,,,,,,,,,,,,,,,,,61036102a3f05e2ef6e4e3c6,61036b00debbc760859cd3b8,2021-07-29_23h00.09.350,Simcolourproject_2stim_asymm_v5,2020.2.10,Win32,60,61025ae37ef11b136ea224fe,,,,,,,,,2664,-75,-32.5,1,0,0,response5disk,,2,11,4.5,1,0,0,rectangle,11,4.5,1,0,0,11,4.5,1,0,0,0,70,70,32,1,,,,,,,,
,,,,,,,,,,,,,FF,,,,,,,,0.934,,,,,,,,,,,,,,,,,,,,,,61036102a3f05e2ef6e4e3c6,61036b00debbc760859cd3b8,2021-07-29_23h00.09.350,Simcolourproject_2stim_asymm_v5,2020.2.10,Win32,60,61025ae37ef11b136ea224fe,,,,,,,,,1859,25,57.5,1,0,0,response1disk,,7,13,-7.5,1,0,0,rectangle,13,-7.5,1,0,0,13,-7.5,1,0,0,0,71,71,12,1,,,,,,,,
,,,,,,,,,,,,,FF,,,,,,,,0.699,,,,,,,,,,,,,,,,,,,,,,61036102a3f05e2ef6e4e3c6,61036b00debbc760859cd3b8,2021-07-29_23h00.09.350,Simcolourproject_2stim_asymm_v5,2020.2.10,Win32,60,61025ae37ef11b136ea224fe,,,,,,,,,26,81,55.5,1,0,0,response1disk,,6,11,7.5,1,0,0,rectangle,11,7.5,1,0,0,11,7.5,1,0,0,0,72,72,70,1,,,,,,,,
,,,,,,,,,,,,,FF,,,,,,,,1.001,,,,,,,,,,,,,,,,,,,,,,61036102a3f05e2ef6e4e3c6,61036b00debbc760859cd3b8,2021-07-29_23h00.09.350,Simcolourproject_2stim_asymm_v5,2020.2.10,Win32,60,61025ae37ef11b136ea224fe,,,,,,,,,3660,-47,-16.5,1,0,0,response5disk,,2,7,-0.5,1,0,0,rectangle,7,-0.5,1,0,0,7,-0.5,1,0,0,0,73,73,60,1,,,,,,,,
,,,,,,,,,,,,,FF,,,,,,,,0.917,,,,,,,,,,,,,,,,,,,,,,61036102a3f05e2ef6e4e3c6,61036b00debbc760859cd3b8,2021-07-29_23h00.09.350,Simcolourproject_2stim_asymm_v5,2020.2.10,Win32,60,61025ae37ef11b136ea224fe,,,,,,,,,2983,-15,-56.5,1,0,0,response5disk,,3,-4,-0.5,1,0,0,rectangle,-4,-0.5,1,0,0,-4,-0.5,1,0,0,0,74,74,106,1,,,,,,,,
,,,,,,,,,,,,,FF,,,,,,,,1.3,,,,,,,,,,,,,,,,,,,,,,61036102a3f05e2ef6e4e3c6,61036b00debbc760859cd3b8,2021-07-29_23h00.09.350,Simcolourproject_2stim_asymm_v5,2020.2.10,Win32,60,61025ae37ef11b136ea224fe,,,,,,,,,3080,31,-58.5,1,0,0,response3disk,,4,-15,-0.5,1,0,0,rectangle,-15,-0.5,1,0,0,-15,-0.5,1,0,0,0,75,75,35,1,,,,,,,,
,,,,,,,,,,,,,FF,,,,,,,,1.35,,,,,,,,,,,,,,,,,,,,,,61036102a3f05e2ef6e4e3c6,61036b00debbc760859cd3b8,2021-07-29_23h00.09.350,Simcolourproject_2stim_asymm_v5,2020.2.10,Win32,60,61025ae37ef11b136ea224fe,,,,,,,,,4311,55,-20.5,1,0,0,response3disk,,5,-7,-0.5,1,0,0,rectangle,-7,-0.5,1,0,0,-7,-0.5,1,0,0,0,76,76,67,1,,,,,,,,
,,,,,,,,,,,,,FF,,,,,,,,0.867,,,,,,,,,,,,,,,,,,,,,,61036102a3f05e2ef6e4e3c6,61036b00debbc760859cd3b8,2021-07-29_23h00.09.350,Simcolourproject_2stim_asymm_v5,2020.2.10,Win32,60,61025ae37ef11b136ea224fe,,,,,,,,,1776,-43,-54.5,1,0,0,response5disk,,3,-11,3.5,1,0,0,rectangle,-11,3.5,1,0,0,-11,3.5,1,0,0,0,77,77,96,1,,,,,,,,
,,,,,,,,,,,,,FF,,,,,,,,0.884,,,,,,,,,,,,,,,,,,,,,,61036102a3f05e2ef6e4e3c6,61036b00debbc760859cd3b8,2021-07-29_23h00.09.350,Simcolourproject_2stim_asymm_v5,2020.2.10,Win32,60,61025ae37ef11b136ea224fe,,,,,,,,,1504,77,38.5,1,0,0,response1disk,,6,10,-3.5,1,0,0,rectangle,10,-3.5,1,0,0,10,-3.5,1,0,0,0,78,78,46,1,,,,,,,,
,,,,,,,,,,,,,FF,,,,,,,,0.833,,,,,,,,,,,,,,,,,,,,,,61036102a3f05e2ef6e4e3c6,61036b00debbc760859cd3b8,2021-07-29_23h00.09.350,Simcolourproject_2stim_asymm_v5,2020.2.10,Win32,60,61025ae37ef11b136ea224fe,,,,,,,,,858,41,64.5,1,0,0,response1disk,,7,11,2.5,1,0,0,rectangle,11,2.5,1,0,0,11,2.5,1,0,0,0,79,79,114,1,,,,,,,,
,,,,,,,,,,,,,FF,,,,,,,,0.834,,,,,,,,,,,,,,,,,,,,,,61036102a3f05e2ef6e4e3c6,61036b00debbc760859cd3b8,2021-07-29_23h00.09.350,Simcolourproject_2stim_asymm_v5,2020.2.10,Win32,60,61025ae37ef11b136ea224fe,,,,,,,,,148,-19,-62.5,1,0,0,response5disk,,3,-1,0.5,1,0,0,rectangle,-1,0.5,1,0,0,-1,0.5,1,0,0,0,80,80,33,1,,,,,,,,
,,,,,,,,,,,,,FF,,,,,,,,0.667,,,,,,,,,,,,,,,,,,,,,,61036102a3f05e2ef6e4e3c6,61036b00debbc760859cd3b8,2021-07-29_23h00.09.350,Simcolourproject_2stim_asymm_v5,2020.2.10,Win32,60,61025ae37ef11b136ea224fe,,,,,,,,,1658,76,40.5,1,0,0,response1disk,,6,-11,-6.5,1,0,0,rectangle,-11,-6.5,1,0,0,-11,-6.5,1,0,0,0,81,81,34,1,,,,,,,,
,,,,,,,,,,,,,FF,,,,,,,,0.717,,,,,,,,,,,,,,,,,,,,,,61036102a3f05e2ef6e4e3c6,61036b00debbc760859cd3b8,2021-07-29_23h00.09.350,Simcolourproject_2stim_asymm_v5,2020.2.10,Win32,60,61025ae37ef11b136ea224fe,,,,,,,,,3494,49,24.5,1,0,0,response1disk,,6,15,1.5,1,0,0,rectangle,15,1.5,1,0,0,15,1.5,1,0,0,0,82,82,87,1,,,,,,,,
,,,,,,,,,,,,,FF,,,,,,,,1.166,,,,,,,,,,,,,,,,,,,,,,61036102a3f05e2ef6e4e3c6,61036b00debbc760859cd3b8,2021-07-29_23h00.09.350,Simcolourproject_2stim_asymm_v5,2020.2.10,Win32,60,61025ae37ef11b136ea224fe,,,,,,,,,109,80,-41.5,1,0,0,response3disk,,5,-6,1.5,1,0,0,rectangle,-6,1.5,1,0,0,-6,1.5,1,0,0,0,83,83,62,1,,,,,,,,
,,,,,,,,,,,,,FF,,,,,,,,0.816,,,,,,,,,,,,,,,,,,,,,,61036102a3f05e2ef6e4e3c6,61036b00debbc760859cd3b8,2021-07-29_23h00.09.350,Simcolourproject_2stim_asymm_v5,2020.2.10,Win32,60,61025ae37ef11b136ea224fe,,,,,,,,,3891,37,66.5,1,0,0,response1disk,,7,14,0.5,1,0,0,rectangle,14,0.5,1,0,0,14,0.5,1,0,0,0,84,84,154,1,,,,,,,,
,,,,,,,,,,,,,FF,,,,,,,,0.599,,,,,,,,,,,,,,,,,,,,,,61036102a3f05e2ef6e4e3c6,61036b00debbc760859cd3b8,2021-07-29_23h00.09.350,Simcolourproject_2stim_asymm_v5,2020.2.10,Win32,60,61025ae37ef11b136ea224fe,,,,,,,,,1707,18,64.5,1,0,0,response1disk,,7,3,5.5,1,0,0,rectangle,3,5.5,1,0,0,3,5.5,1,0,0,0,85,85,129,1,,,,,,,,
,,,,,,,,,,,,,FF,,,,,,,,0.717,,,,,,,,,,,,,,,,,,,,,,61036102a3f05e2ef6e4e3c6,61036b00debbc760859cd3b8,2021-07-29_23h00.09.350,Simcolourproject_2stim_asymm_v5,2020.2.10,Win32,60,61025ae37ef11b136ea224fe,,,,,,,,,1916,35,39.5,1,0,0,response1disk,,7,17,5.5,1,0,0,rectangle,17,5.5,1,0,0,17,5.5,1,0,0,0,86,86,51,1,,,,,,,,
,,,,,,,,,,,,,FF,,,,,,,,0.616,,,,,,,,,,,,,,,,,,,,,,61036102a3f05e2ef6e4e3c6,61036b00debbc760859cd3b8,2021-07-29_23h00.09.350,Simcolourproject_2stim_asymm_v5,2020.2.10,Win32,60,61025ae37ef11b136ea224fe,,,,,,,,,4086,52,-83.5,1,0,0,response3disk,,4,-8,-4.5,1,0,0,rectangle,-8,-4.5,1,0,0,-8,-4.5,1,0,0,0,87,87,18,1,,,,,,,,
,,,,,,,,,,,,,FF,,,,,,,,0.549,,,,,,,,,,,,,,,,,,,,,,61036102a3f05e2ef6e4e3c6,61036b00debbc760859cd3b8,2021-07-29_23h00.09.350,Simcolourproject_2stim_asymm_v5,2020.2.10,Win32,60,61025ae37ef11b136ea224fe,,,,,,,,,207,-51,-34.5,1,0,0,response5disk,,2,-11,-5.5,1,0,0,rectangle,-11,-5.5,1,0,0,-11,-5.5,1,0,0,0,88,88,56,1,,,,,,,,
,,,,,,,,,,,,,FF,,,,,,,,0.432,,,,,,,,,,,,,,,,,,,,,,61036102a3f05e2ef6e4e3c6,61036b00debbc760859cd3b8,2021-07-29_23h00.09.350,Simcolourproject_2stim_asymm_v5,2020.2.10,Win32,60,61025ae37ef11b136ea224fe,,,,,,,,,1689,77,30.5,1,0,0,response1disk,,6,27,-0.5,1,0,0,rectangle,27,-0.5,1,0,0,27,-0.5,1,0,0,0,89,89,64,1,,,,,,,,
,,,,,,,,,,,,,FF,,,,,,,,0.866,,,,,,,,,,,,,,,,,,,,,,61036102a3f05e2ef6e4e3c6,61036b00debbc760859cd3b8,2021-07-29_23h00.09.350,Simcolourproject_2stim_asymm_v5,2020.2.10,Win32,60,61025ae37ef11b136ea224fe,,,,,,,,,618,-36,-45.5,1,0,0,response5disk,,3,-1,-6.5,1,0,0,rectangle,-1,-6.5,1,0,0,-1,-6.5,1,0,0,0,90,90,85,1,,,,,,,,
,,,,,,,,,,,,,FF,,,,,,,,0.717,,,,,,,,,,,,,,,,,,,,,,61036102a3f05e2ef6e4e3c6,61036b00debbc760859cd3b8,2021-07-29_23h00.09.350,Simcolourproject_2stim_asymm_v5,2020.2.10,Win32,60,61025ae37ef11b136ea224fe,,,,,,,,,3131,23,-26.5,1,0,0,response3disk,,4,-2,-0.5,1,0,0,rectangle,-2,-0.5,1,0,0,-2,-0.5,1,0,0,0,91,91,16,1,,,,,,,,
,,,,,,,,,,,,,FF,,,,,,,,0.582,,,,,,,,,,,,,,,,,,,,,,61036102a3f05e2ef6e4e3c6,61036b00debbc760859cd3b8,2021-07-29_23h00.09.350,Simcolourproject_2stim_asymm_v5,2020.2.10,Win32,60,61025ae37ef11b136ea224fe,,,,,,,,,233,39,-24.5,1,0,0,response3disk,,5,5,-2.5,1,0,0,rectangle,5,-2.5,1,0,0,5,-2.5,1,0,0,0,92,92,29,1,,,,,,,,
,,,,,,,,,,,,,FF,,,,,,,,1.067,,,,,,,,,,,,,,,,,,,,,,61036102a3f05e2ef6e4e3c6,61036b00debbc760859cd3b8,2021-07-29_23h00.09.350,Simcolourproject_2stim_asymm_v5,2020.2.10,Win32,60,61025ae37ef11b136ea224fe,,,,,,,,,1109,45,39.5,1,0,0,response1disk,,6,11,-6.5,1,0,0,rectangle,11,-6.5,1,0,0,11,-6.5,1,0,0,0,93,93,113,1,,,,,,,,
,,,,,,,,,,,,,FF,,,,,,,,1.25,,,,,,,,,,,,,,,,,,,,,,61036102a3f05e2ef6e4e3c6,61036b00debbc760859cd3b8,2021-07-29_23h00.09.350,Simcolourproject_2stim_asymm_v5,2020.2.10,Win32,60,61025ae37ef11b136ea224fe,,,,,,,,,3495,21,-49.5,1,0,0,response3disk,,4,-18,-10.5,1,0,0,rectangle,-18,-10.5,1,0,0,-18,-10.5,1,0,0,0,94,94,65,1,,,,,,,,
,,,,,,,,,,,,,FF,,,,,,,,1.101,,,,,,,,,,,,,,,,,,,,,,61036102a3f05e2ef6e4e3c6,61036b00debbc760859cd3b8,2021-07-29_23h00.09.350,Simcolourproject_2stim_asymm_v5,2020.2.10,Win32,60,61025ae37ef11b136ea224fe,,,,,,,,,678,51,-34.5,1,0,0,response3disk,,5,1,-10.5,1,0,0,rectangle,1,-10.5,1,0,0,1,-10.5,1,0,0,0,95,95,148,1,,,,,,,,
,,,,,,,,,,,,,FF,,,,,,,,0.733,,,,,,,,,,,,,,,,,,,,,,61036102a3f05e2ef6e4e3c6,61036b00debbc760859cd3b8,2021-07-29_23h00.09.350,Simcolourproject_2stim_asymm_v5,2020.2.10,Win32,60,61025ae37ef11b136ea224fe,,,,,,,,,1726,-33,-39.5,1,0,0,response5disk,,3,-25,3.5,1,0,0,rectangle,-25,3.5,1,0,0,-25,3.5,1,0,0,0,96,96,84,1,,,,,,,,
,,,,,,,,,,,,,FF,,,,,,,,1.066,,,,,,,,,,,,,,,,,,,,,,61036102a3f05e2ef6e4e3c6,61036b00debbc760859cd3b8,2021-07-29_23h00.09.350,Simcolourproject_2stim_asymm_v5,2020.2.10,Win32,60,61025ae37ef11b136ea224fe,,,,,,,,,1568,41,-67.5,1,0,0,response3disk,,4,3,-2.5,1,0,0,rectangle,3,-2.5,1,0,0,3,-2.5,1,0,0,0,97,97,151,1,,,,,,,,
,,,,,,,,,,,,,FF,,,,,,,,0.95,,,,,,,,,,,,,,,,,,,,,,61036102a3f05e2ef6e4e3c6,61036b00debbc760859cd3b8,2021-07-29_23h00.09.350,Simcolourproject_2stim_asymm_v5,2020.2.10,Win32,60,61025ae37ef11b136ea224fe,,,,,,,,,1914,-53,-30.5,1,0,0,response5disk,,2,-16,-8.5,1,0,0,rectangle,-16,-8.5,1,0,0,-16,-8.5,1,0,0,0,98,98,130,1,,,,,,,,
,,,,,,,,,,,,,FF,,,,,,,,0.649,,,,,,,,,,,,,,,,,,,,,,61036102a3f05e2ef6e4e3c6,61036b00debbc760859cd3b8,2021-07-29_23h00.09.350,Simcolourproject_2stim_asymm_v5,2020.2.10,Win32,60,61025ae37ef11b136ea224fe,,,,,,,,,2976,66,49.5,1,0,0,response1disk,,6,6,-10.5,1,0,0,rectangle,6,-10.5,1,0,0,6,-10.5,1,0,0,0,99,99,102,1,,,,,,,,
,,,,,,,,,,,,,FF,,,,,,,,1.099,,,,,,,,,,,,,,,,,,,,,,61036102a3f05e2ef6e4e3c6,61036b00debbc760859cd3b8,2021-07-29_23h00.09.350,Simcolourproject_2stim_asymm_v5,2020.2.10,Win32,60,61025ae37ef11b136ea224fe,,,,,,,,,4213,35,-67.5,1,0,0,response3disk,,4,-6,-7.5,1,0,0,rectangle,-6,-7.5,1,0,0,-6,-7.5,1,0,0,0,100,100,49,1,,,,,,,,
,,,,,,,,,,,,,FF,,,,,,,,28.891,,,,,,,,,,,,,,,,,,,,,,61036102a3f05e2ef6e4e3c6,61036b00debbc760859cd3b8,2021-07-29_23h00.09.350,Simcolourproject_2stim_asymm_v5,2020.2.10,Win32,60,61025ae37ef11b136ea224fe,,,,,,,,,3772,-53,-27.5,1,0,0,response5disk,,2,4,-4.5,1,0,0,rectangle,4,-4.5,1,0,0,4,-4.5,1,0,0,0,101,101,126,1,,,,,,,,
,,,,,,,,,,,,,FF,,,,,,,,1.116,,,,,,,,,,,,,,,,,,,,,,61036102a3f05e2ef6e4e3c6,61036b00debbc760859cd3b8,2021-07-29_23h00.09.350,Simcolourproject_2stim_asymm_v5,2020.2.10,Win32,60,61025ae37ef11b136ea224fe,,,,,,,,,518,48,-62.5,1,0,0,response3disk,,4,25,-6.5,1,0,0,rectangle,25,-6.5,1,0,0,25,-6.5,1,0,0,0,102,102,94,1,,,,,,,,
,,,,,,,,,,,,,FF,,,,,,,,0.732,,,,,,,,,,,,,,,,,,,,,,61036102a3f05e2ef6e4e3c6,61036b00debbc760859cd3b8,2021-07-29_23h00.09.350,Simcolourproject_2stim_asymm_v5,2020.2.10,Win32,60,61025ae37ef11b136ea224fe,,,,,,,,,4193,35,-57.5,1,0,0,response3disk,,4,-7,-5.5,1,0,0,rectangle,-7,-5.5,1,0,0,-7,-5.5,1,0,0,0,103,103,108,1,,,,,,,,
,,,,,,,,,,,,,FF,,,,,,,,0.783,,,,,,,,,,,,,,,,,,,,,,61036102a3f05e2ef6e4e3c6,61036b00debbc760859cd3b8,2021-07-29_23h00.09.350,Simcolourproject_2stim_asymm_v5,2020.2.10,Win32,60,61025ae37ef11b136ea224fe,,,,,,,,,3778,-47,-25.5,1,0,0,response5disk,,2,13,-2.5,1,0,0,rectangle,13,-2.5,1,0,0,13,-2.5,1,0,0,0,104,104,26,1,,,,,,,,
,,,,,,,,,,,,,FF,,,,,,,,1.432,,,,,,,,,,,,,,,,,,,,,,61036102a3f05e2ef6e4e3c6,61036b00debbc760859cd3b8,2021-07-29_23h00.09.350,Simcolourproject_2stim_asymm_v5,2020.2.10,Win32,60,61025ae37ef11b136ea224fe,,,,,,,,,3282,52,78.5,1,0,0,response1disk,,7,5,-1.5,1,0,0,rectangle,5,-1.5,1,0,0,5,-1.5,1,0,0,0,105,105,22,1,,,,,,,,
,,,,,,,,,,,,,FF,,,,,,,,0.983,,,,,,,,,,,,,,,,,,,,,,61036102a3f05e2ef6e4e3c6,61036b00debbc760859cd3b8,2021-07-29_23h00.09.350,Simcolourproject_2stim_asymm_v5,2020.2.10,Win32,60,61025ae37ef11b136ea224fe,,,,,,,,,1972,-59,-56.5,1,0,0,response5disk,,2,-7,-2.5,1,0,0,rectangle,-7,-2.5,1,0,0,-7,-2.5,1,0,0,0,106,106,77,1,,,,,,,,
,,,,,,,,,,,,,FF,,,,,,,,0.832,,,,,,,,,,,,,,,,,,,,,,61036102a3f05e2ef6e4e3c6,61036b00debbc760859cd3b8,2021-07-29_23h00.09.350,Simcolourproject_2stim_asymm_v5,2020.2.10,Win32,60,61025ae37ef11b136ea224fe,,,,,,,,,1877,31,90.5,1,0,0,response1disk,,7,1,-6.5,1,0,0,rectangle,1,-6.5,1,0,0,1,-6.5,1,0,0,0,107,107,25,1,,,,,,,,
,,,,,,,,,,,,,FF,,,,,,,,0.683,,,,,,,,,,,,,,,,,,,,,,61036102a3f05e2ef6e4e3c6,61036b00debbc760859cd3b8,2021-07-29_23h00.09.350,Simcolourproject_2stim_asymm_v5,2020.2.10,Win32,60,61025ae37ef11b136ea224fe,,,,,,,,,3617,17,-54.5,1,0,0,response3disk,,4,-1,-0.5,1,0,0,rectangle,-1,-0.5,1,0,0,-1,-0.5,1,0,0,0,108,108,100,1,,,,,,,,
,,,,,,,,,,,,,FF,,,,,,,,0.867,,,,,,,,,,,,,,,,,,,,,,61036102a3f05e2ef6e4e3c6,61036b00debbc760859cd3b8,2021-07-29_23h00.09.350,Simcolourproject_2stim_asymm_v5,2020.2.10,Win32,60,61025ae37ef11b136ea224fe,,,,,,,,,1029,65,-28.5,1,0,0,response3disk,,5,-5,-6.5,1,0,0,rectangle,-5,-6.5,1,0,0,-5,-6.5,1,0,0,0,109,109,47,1,,,,,,,,
,,,,,,,,,,,,,FF,,,,,,,,0.949,,,,,,,,,,,,,,,,,,,,,,61036102a3f05e2ef6e4e3c6,61036b00debbc760859cd3b8,2021-07-29_23h00.09.350,Simcolourproject_2stim_asymm_v5,2020.2.10,Win32,60,61025ae37ef11b136ea224fe,,,,,,,,,1457,-61,61.5,1,0,0,response7disk,,0,0,5.5,1,0,0,rectangle,0,5.5,1,0,0,0,5.5,1,0,0,0,110,110,52,1,,,,,,,,
,,,,,,,,,,,,,FF,,,,,,,,0.866,,,,,,,,,,,,,,,,,,,,,,61036102a3f05e2ef6e4e3c6,61036b00debbc760859cd3b8,2021-07-29_23h00.09.350,Simcolourproject_2stim_asymm_v5,2020.2.10,Win32,60,61025ae37ef11b136ea224fe,,,,,,,,,2918,63,-58.5,1,0,0,response3disk,,5,-19,2.5,1,0,0,rectangle,91,24.5,1,0,0,14,5.5,1,0,0,0,111,111,41,1,,response1disk_3,TRUE,6,6,"[292,263,123,298,188,68,226,252,127,303,202,194,64,200,148,200,124,203,125,112]",1.415,rectangle
,,,,,,,,,,,,,FF,,,,,,,,0.966,,,,,,,,,,,,,,,,,,,,,,61036102a3f05e2ef6e4e3c6,61036b00debbc760859cd3b8,2021-07-29_23h00.09.350,Simcolourproject_2stim_asymm_v5,2020.2.10,Win32,60,61025ae37ef11b136ea224fe,,,,,,,,,3097,-62,39.5,1,0,0,response7disk,,1,2,-5.5,1,0,0,rectangle,2,-5.5,1,0,0,2,-5.5,1,0,0,0,112,112,134,1,,,,,,,,
,,,,,,,,,,,,,FF,,,,,,,,1.017,,,,,,,,,,,,,,,,,,,,,,61036102a3f05e2ef6e4e3c6,61036b00debbc760859cd3b8,2021-07-29_23h00.09.350,Simcolourproject_2stim_asymm_v5,2020.2.10,Win32,60,61025ae37ef11b136ea224fe,,,,,,,,,3749,-70,35.5,1,0,0,response7disk,,1,-9,-2.5,1,0,0,rectangle,-9,-2.5,1,0,0,-9,-2.5,1,0,0,0,113,113,159,1,,,,,,,,
,,,,,,,,,,,,,FF,,,,,,,,0.749,,,,,,,,,,,,,,,,,,,,,,61036102a3f05e2ef6e4e3c6,61036b00debbc760859cd3b8,2021-07-29_23h00.09.350,Simcolourproject_2stim_asymm_v5,2020.2.10,Win32,60,61025ae37ef11b136ea224fe,,,,,,,,,1348,64,-48.5,1,0,0,response3disk,,5,-21,2.5,1,0,0,rectangle,-21,2.5,1,0,0,-21,2.5,1,0,0,0,114,114,99,1,,,,,,,,
,,,,,,,,,,,,,FF,,,,,,,,1.166,,,,,,,,,,,,,,,,,,,,,,61036102a3f05e2ef6e4e3c6,61036b00debbc760859cd3b8,2021-07-29_23h00.09.350,Simcolourproject_2stim_asymm_v5,2020.2.10,Win32,60,61025ae37ef11b136ea224fe,,,,,,,,,2188,-71,-30.5,1,0,0,response5disk,,2,-3,8.5,1,0,0,rectangle,-3,8.5,1,0,0,-3,8.5,1,0,0,0,115,115,93,1,,,,,,,,
,,,,,,,,,,,,,FF,,,,,,,,0.917,,,,,,,,,,,,,,,,,,,,,,61036102a3f05e2ef6e4e3c6,61036b00debbc760859cd3b8,2021-07-29_23h00.09.350,Simcolourproject_2stim_asymm_v5,2020.2.10,Win32,60,61025ae37ef11b136ea224fe,,,,,,,,,1007,56,-32.5,1,0,0,response3disk,,5,-16,-0.5,1,0,0,rectangle,-16,-0.5,1,0,0,-16,-0.5,1,0,0,0,116,116,1,1,,,,,,,,
,,,,,,,,,,,,,FF,,,,,,,,0.933,,,,,,,,,,,,,,,,,,,,,,61036102a3f05e2ef6e4e3c6,61036b00debbc760859cd3b8,2021-07-29_23h00.09.350,Simcolourproject_2stim_asymm_v5,2020.2.10,Win32,60,61025ae37ef11b136ea224fe,,,,,,,,,3965,-56,36.5,1,0,0,response7disk,,1,-8,7.5,1,0,0,rectangle,-8,7.5,1,0,0,-8,7.5,1,0,0,0,117,117,90,1,,,,,,,,
,,,,,,,,,,,,,FF,,,,,,,,1.367,,,,,,,,,,,,,,,,,,,,,,61036102a3f05e2ef6e4e3c6,61036b00debbc760859cd3b8,2021-07-29_23h00.09.350,Simcolourproject_2stim_asymm_v5,2020.2.10,Win32,60,61025ae37ef11b136ea224fe,,,,,,,,,4098,41,-50.5,1,0,0,response3disk,,4,-11,10.5,1,0,0,rectangle,-11,10.5,1,0,0,-11,10.5,1,0,0,0,118,118,144,1,,,,,,,,
,,,,,,,,,,,,,FF,,,,,,,,0.883,,,,,,,,,,,,,,,,,,,,,,61036102a3f05e2ef6e4e3c6,61036b00debbc760859cd3b8,2021-07-29_23h00.09.350,Simcolourproject_2stim_asymm_v5,2020.2.10,Win32,60,61025ae37ef11b136ea224fe,,,,,,,,,4118,-43,69.5,1,0,0,response7disk,,0,3,-2.5,1,0,0,rectangle,3,-2.5,1,0,0,3,-2.5,1,0,0,0,119,119,9,1,,,,,,,,
,,,,,,,,,,,,,FF,,,,,,,,0.916,,,,,,,,,,,,,,,,,,,,,,61036102a3f05e2ef6e4e3c6,61036b00debbc760859cd3b8,2021-07-29_23h00.09.350,Simcolourproject_2stim_asymm_v5,2020.2.10,Win32,60,61025ae37ef11b136ea224fe,,,,,,,,,2889,61,33.5,1,0,0,response1disk,,6,4,-9.5,1,0,0,rectangle,4,-9.5,1,0,0,4,-9.5,1,0,0,0,120,120,14,1,,,,,,,,
,,,,,,,,,,,,,FF,,,,,,,,0.783,,,,,,,,,,,,,,,,,,,,,,61036102a3f05e2ef6e4e3c6,61036b00debbc760859cd3b8,2021-07-29_23h00.09.350,Simcolourproject_2stim_asymm_v5,2020.2.10,Win32,60,61025ae37ef11b136ea224fe,,,,,,,,,2636,52,-56.5,1,0,0,response3disk,,4,-7,-6.5,1,0,0,rectangle,-7,-6.5,1,0,0,-7,-6.5,1,0,0,0,121,121,97,1,,,,,,,,
,,,,,,,,,,,,,FF,,,,,,,,0.833,,,,,,,,,,,,,,,,,,,,,,61036102a3f05e2ef6e4e3c6,61036b00debbc760859cd3b8,2021-07-29_23h00.09.350,Simcolourproject_2stim_asymm_v5,2020.2.10,Win32,60,61025ae37ef11b136ea224fe,,,,,,,,,4350,-72,43.5,1,0,0,response7disk,,1,-29,5.5,1,0,0,rectangle,77,-48.5,1,0,0,-4,1.5,1,0,0,0,122,122,120,1,,response3disk_3,TRUE,5,5,"[292,263,123,298,188,68,226,252,127,303,202,194,64,200,148,200,124,203,125,112]",1.683,rectangle
,,,,,,,,,,,,,FF,,,,,,,,0.867,,,,,,,,,,,,,,,,,,,,,,61036102a3f05e2ef6e4e3c6,61036b00debbc760859cd3b8,2021-07-29_23h00.09.350,Simcolourproject_2stim_asymm_v5,2020.2.10,Win32,60,61025ae37ef11b136ea224fe,,,,,,,,,3610,67,-65.5,1,0,0,response3disk,,5,1,-10.5,1,0,0,rectangle,-32,-81.5,1,0,0,5,-7.5,1,0,0,0,123,123,157,1,,response5disk_3,TRUE,3,3,"[292,263,123,298,188,68,226,252,127,303,202,194,64,200,148,200,124,203,125,112]",1.749,rectangle
,,,,,,,,,,,,,FF,,,,,,,,0.833,,,,,,,,,,,,,,,,,,,,,,61036102a3f05e2ef6e4e3c6,61036b00debbc760859cd3b8,2021-07-29_23h00.09.350,Simcolourproject_2stim_asymm_v5,2020.2.10,Win32,60,61025ae37ef11b136ea224fe,,,,,,,,,2023,56,33.5,1,0,0,response1disk,,6,11,-3.5,1,0,0,rectangle,31,-76.5,1,0,0,1,7.5,1,0,0,0,124,124,79,1,,response3disk_3,TRUE,4,4,"[292,263,123,298,188,68,226,252,127,303,202,194,64,200,148,200,124,203,125,112]",2.032,rectangle
,,,,,,,,,,,,,FF,,,,,,,,0.8,,,,,,,,,,,,,,,,,,,,,,61036102a3f05e2ef6e4e3c6,61036b00debbc760859cd3b8,2021-07-29_23h00.09.350,Simcolourproject_2stim_asymm_v5,2020.2.10,Win32,60,61025ae37ef11b136ea224fe,,,,,,,,,437,-35,-42.5,1,0,0,response5disk,,3,7,0.5,1,0,0,rectangle,7,0.5,1,0,0,7,0.5,1,0,0,0,125,125,153,1,,,,,,,,
,,,,,,,,,,,,,FF,,,,,,,,0.817,,,,,,,,,,,,,,,,,,,,,,61036102a3f05e2ef6e4e3c6,61036b00debbc760859cd3b8,2021-07-29_23h00.09.350,Simcolourproject_2stim_asymm_v5,2020.2.10,Win32,60,61025ae37ef11b136ea224fe,,,,,,,,,2129,69,-42.5,1,0,0,response3disk,,5,11,3.5,1,0,0,rectangle,31,-88.5,1,0,0,-4,-2.5,1,0,0,0,126,126,75,1,,response3disk_3,TRUE,4,4,"[292,263,123,298,188,68,226,252,127,303,202,194,64,200,148,200,124,203,125,112]",1.433,rectangle
,,,,,,,,,,,,,FF,,,,,,,,0.816,,,,,,,,,,,,,,,,,,,,,,61036102a3f05e2ef6e4e3c6,61036b00debbc760859cd3b8,2021-07-29_23h00.09.350,Simcolourproject_2stim_asymm_v5,2020.2.10,Win32,60,61025ae37ef11b136ea224fe,,,,,,,,,3458,67,47.5,1,0,0,response1disk,,6,12,3.5,1,0,0,rectangle,12,3.5,1,0,0,12,3.5,1,0,0,0,127,127,24,1,,,,,,,,
,,,,,,,,,,,,,FF,,,,,,,,1.001,,,,,,,,,,,,,,,,,,,,,,61036102a3f05e2ef6e4e3c6,61036b00debbc760859cd3b8,2021-07-29_23h00.09.350,Simcolourproject_2stim_asymm_v5,2020.2.10,Win32,60,61025ae37ef11b136ea224fe,,,,,,,,,3522,-54,-39.5,1,0,0,response5disk,,2,-1,-6.5,1,0,0,rectangle,-1,-6.5,1,0,0,-1,-6.5,1,0,0,0,128,128,59,1,,,,,,,,
,,,,,,,,,,,,,FF,,,,,,,,0.816,,,,,,,,,,,,,,,,,,,,,,61036102a3f05e2ef6e4e3c6,61036b00debbc760859cd3b8,2021-07-29_23h00.09.350,Simcolourproject_2stim_asymm_v5,2020.2.10,Win32,60,61025ae37ef11b136ea224fe,,,,,,,,,786,-25,-56.5,1,0,0,response5disk,,3,3,-10.5,1,0,0,rectangle,3,-10.5,1,0,0,3,-10.5,1,0,0,0,129,129,31,1,,,,,,,,
,,,,,,,,,,,,,FF,,,,,,,,0.684,,,,,,,,,,,,,,,,,,,,,,61036102a3f05e2ef6e4e3c6,61036b00debbc760859cd3b8,2021-07-29_23h00.09.350,Simcolourproject_2stim_asymm_v5,2020.2.10,Win32,60,61025ae37ef11b136ea224fe,,,,,,,,,1686,58,-31.5,1,0,0,response3disk,,5,17,-8.5,1,0,0,rectangle,17,-8.5,1,0,0,17,-8.5,1,0,0,0,130,130,63,1,,,,,,,,
,,,,,,,,,,,,,FF,,,,,,,,1.033,,,,,,,,,,,,,,,,,,,,,,61036102a3f05e2ef6e4e3c6,61036b00debbc760859cd3b8,2021-07-29_23h00.09.350,Simcolourproject_2stim_asymm_v5,2020.2.10,Win32,60,61025ae37ef11b136ea224fe,,,,,,,,,2965,49,63.5,1,0,0,response1disk,,7,-1,-6.5,1,0,0,rectangle,-1,-6.5,1,0,0,-1,-6.5,1,0,0,0,131,131,119,1,,,,,,,,
,,,,,,,,,,,,,FF,,,,,,,,0.85,,,,,,,,,,,,,,,,,,,,,,61036102a3f05e2ef6e4e3c6,61036b00debbc760859cd3b8,2021-07-29_23h00.09.350,Simcolourproject_2stim_asymm_v5,2020.2.10,Win32,60,61025ae37ef11b136ea224fe,,,,,,,,,1775,33,-56.5,1,0,0,response3disk,,4,2,-4.5,1,0,0,rectangle,2,-4.5,1,0,0,2,-4.5,1,0,0,0,132,132,58,1,,,,,,,,
,,,,,,,,,,,,,FF,,,,,,,,0.7,,,,,,,,,,,,,,,,,,,,,,61036102a3f05e2ef6e4e3c6,61036b00debbc760859cd3b8,2021-07-29_23h00.09.350,Simcolourproject_2stim_asymm_v5,2020.2.10,Win32,60,61025ae37ef11b136ea224fe,,,,,,,,,1786,-44,-80.5,1,0,0,response5disk,,3,-1,-8.5,1,0,0,rectangle,-1,-8.5,1,0,0,-1,-8.5,1,0,0,0,133,133,122,1,,,,,,,,
,,,,,,,,,,,,,FF,,,,,,,,1.232,,,,,,,,,,,,,,,,,,,,,,61036102a3f05e2ef6e4e3c6,61036b00debbc760859cd3b8,2021-07-29_23h00.09.350,Simcolourproject_2stim_asymm_v5,2020.2.10,Win32,60,61025ae37ef11b136ea224fe,,,,,,,,,774,-35,-22.5,1,0,0,response5disk,,2,-4,-5.5,1,0,0,rectangle,-4,-5.5,1,0,0,-4,-5.5,1,0,0,0,134,134,140,1,,,,,,,,
,,,,,,,,,,,,,FF,,,,,,,,0.6,,,,,,,,,,,,,,,,,,,,,,61036102a3f05e2ef6e4e3c6,61036b00debbc760859cd3b8,2021-07-29_23h00.09.350,Simcolourproject_2stim_asymm_v5,2020.2.10,Win32,60,61025ae37ef11b136ea224fe,,,,,,,,,110,50,-40.5,1,0,0,response3disk,,5,-11,0.5,1,0,0,rectangle,-11,0.5,1,0,0,-11,0.5,1,0,0,0,135,135,146,1,,,,,,,,
,,,,,,,,,,,,,FF,,,,,,,,0.833,,,,,,,,,,,,,,,,,,,,,,61036102a3f05e2ef6e4e3c6,61036b00debbc760859cd3b8,2021-07-29_23h00.09.350,Simcolourproject_2stim_asymm_v5,2020.2.10,Win32,60,61025ae37ef11b136ea224fe,,,,,,,,,3808,64,-26.5,1,0,0,response3disk,,5,22,-1.5,1,0,0,rectangle,22,-1.5,1,0,0,22,-1.5,1,0,0,0,136,136,2,1,,,,,,,,
,,,,,,,,,,,,,FF,,,,,,,,0.833,,,,,,,,,,,,,,,,,,,,,,61036102a3f05e2ef6e4e3c6,61036b00debbc760859cd3b8,2021-07-29_23h00.09.350,Simcolourproject_2stim_asymm_v5,2020.2.10,Win32,60,61025ae37ef11b136ea224fe,,,,,,,,,1047,34,-48.5,1,0,0,response3disk,,4,-5,-6.5,1,0,0,rectangle,-5,-6.5,1,0,0,-5,-6.5,1,0,0,0,137,137,118,1,,,,,,,,
,,,,,,,,,,,,,FF,,,,,,,,0.949,,,,,,,,,,,,,,,,,,,,,,61036102a3f05e2ef6e4e3c6,61036b00debbc760859cd3b8,2021-07-29_23h00.09.350,Simcolourproject_2stim_asymm_v5,2020.2.10,Win32,60,61025ae37ef11b136ea224fe,,,,,,,,,4157,47,-42.5,1,0,0,response3disk,,5,-13,-6.5,1,0,0,rectangle,-13,-6.5,1,0,0,-13,-6.5,1,0,0,0,138,138,155,1,,,,,,,,
,,,,,,,,,,,,,FF,,,,,,,,0.806,,,,,,,,,,,,,,,,,,,,,,61036102a3f05e2ef6e4e3c6,61036b00debbc760859cd3b8,2021-07-29_23h00.09.350,Simcolourproject_2stim_asymm_v5,2020.2.10,Win32,60,61025ae37ef11b136ea224fe,,,,,,,,,1061,-51,-24.5,1,0,0,response5disk,,2,7,8.5,1,0,0,rectangle,7,8.5,1,0,0,7,8.5,1,0,0,0,139,139,139,1,,,,,,,,
,,,,,,,,,,,,,FF,,,,,,,,0.6,,,,,,,,,,,,,,,,,,,,,,61036102a3f05e2ef6e4e3c6,61036b00debbc760859cd3b8,2021-07-29_23h00.09.350,Simcolourproject_2stim_asymm_v5,2020.2.10,Win32,60,61025ae37ef11b136ea224fe,,,,,,,,,401,99,31.5,1,0,0,response1disk,,6,-12,-8.5,1,0,0,rectangle,-12,-8.5,1,0,0,-12,-8.5,1,0,0,0,140,140,150,1,,,,,,,,
,,,,,,,,,,,,,FF,,,,,,,,0.55,,,,,,,,,,,,,,,,,,,,,,61036102a3f05e2ef6e4e3c6,61036b00debbc760859cd3b8,2021-07-29_23h00.09.350,Simcolourproject_2stim_asymm_v5,2020.2.10,Win32,60,61025ae37ef11b136ea224fe,,,,,,,,,4232,22,41.5,1,0,0,response1disk,,7,13,4.5,1,0,0,rectangle,13,4.5,1,0,0,13,4.5,1,0,0,0,141,141,30,1,,,,,,,,
,,,,,,,,,,,,,FF,,,,,,,,0.766,,,,,,,,,,,,,,,,,,,,,,61036102a3f05e2ef6e4e3c6,61036b00debbc760859cd3b8,2021-07-29_23h00.09.350,Simcolourproject_2stim_asymm_v5,2020.2.10,Win32,60,61025ae37ef11b136ea224fe,,,,,,,,,1037,35,74.5,1,0,0,response1disk,,7,8,8.5,1,0,0,rectangle,8,8.5,1,0,0,8,8.5,1,0,0,0,142,142,81,1,,,,,,,,
,,,,,,,,,,,,,FF,,,,,,,,0.65,,,,,,,,,,,,,,,,,,,,,,61036102a3f05e2ef6e4e3c6,61036b00debbc760859cd3b8,2021-07-29_23h00.09.350,Simcolourproject_2stim_asymm_v5,2020.2.10,Win32,60,61025ae37ef11b136ea224fe,,,,,,,,,4260,41,-31.5,1,0,0,response3disk,,5,-1,-5.5,1,0,0,rectangle,-1,-5.5,1,0,0,-1,-5.5,1,0,0,0,143,143,143,1,,,,,,,,
,,,,,,,,,,,,,FF,,,,,,,,0.715,,,,,,,,,,,,,,,,,,,,,,61036102a3f05e2ef6e4e3c6,61036b00debbc760859cd3b8,2021-07-29_23h00.09.350,Simcolourproject_2stim_asymm_v5,2020.2.10,Win32,60,61025ae37ef11b136ea224fe,,,,,,,,,2238,-60,-48.5,1,0,0,response5disk,,2,3,2.5,1,0,0,rectangle,3,2.5,1,0,0,3,2.5,1,0,0,0,144,144,4,1,,,,,,,,
,,,,,,,,,,,,,FF,,,,,,,,0.9,,,,,,,,,,,,,,,,,,,,,,61036102a3f05e2ef6e4e3c6,61036b00debbc760859cd3b8,2021-07-29_23h00.09.350,Simcolourproject_2stim_asymm_v5,2020.2.10,Win32,60,61025ae37ef11b136ea224fe,,,,,,,,,133,75,19.5,1,0,0,response1disk,,6,-1,-10.5,1,0,0,rectangle,-1,-10.5,1,0,0,-1,-10.5,1,0,0,0,145,145,15,1,,,,,,,,
,,,,,,,,,,,,,FF,,,,,,,,1.016,,,,,,,,,,,,,,,,,,,,,,61036102a3f05e2ef6e4e3c6,61036b00debbc760859cd3b8,2021-07-29_23h00.09.350,Simcolourproject_2stim_asymm_v5,2020.2.10,Win32,60,61025ae37ef11b136ea224fe,,,,,,,,,4326,-35,55.5,1,0,0,response7disk,,0,-1,-0.5,1,0,0,rectangle,-1,-0.5,1,0,0,-1,-0.5,1,0,0,0,146,146,76,1,,,,,,,,
,,,,,,,,,,,,,FF,,,,,,,,0.933,,,,,,,,,,,,,,,,,,,,,,61036102a3f05e2ef6e4e3c6,61036b00debbc760859cd3b8,2021-07-29_23h00.09.350,Simcolourproject_2stim_asymm_v5,2020.2.10,Win32,60,61025ae37ef11b136ea224fe,,,,,,,,,4283,47,-38.5,1,0,0,response3disk,,5,-19,-2.5,1,0,0,rectangle,111,31.5,1,0,0,8,-9.5,1,0,0,0,147,147,50,1,,response1disk_3,TRUE,6,6,"[292,263,123,298,188,68,226,252,127,303,202,194,64,200,148,200,124,203,125,112]",1.432,rectangle
,,,,,,,,,,,,,FF,,,,,,,,0.616,,,,,,,,,,,,,,,,,,,,,,61036102a3f05e2ef6e4e3c6,61036b00debbc760859cd3b8,2021-07-29_23h00.09.350,Simcolourproject_2stim_asymm_v5,2020.2.10,Win32,60,61025ae37ef11b136ea224fe,,,,,,,,,2652,61,-32.5,1,0,0,response3disk,,5,1,5.5,1,0,0,rectangle,1,5.5,1,0,0,1,5.5,1,0,0,0,148,148,21,1,,,,,,,,
,,,,,,,,,,,,,FF,,,,,,,,0.783,,,,,,,,,,,,,,,,,,,,,,61036102a3f05e2ef6e4e3c6,61036b00debbc760859cd3b8,2021-07-29_23h00.09.350,Simcolourproject_2stim_asymm_v5,2020.2.10,Win32,60,61025ae37ef11b136ea224fe,,,,,,,,,160,59,-51.5,1,0,0,response3disk,,5,-5,-7.5,1,0,0,rectangle,-5,-7.5,1,0,0,-5,-7.5,1,0,0,0,149,149,71,1,,,,,,,,
,,,,,,,,,,,,,FF,,,,,,,,0.9,,,,,,,,,,,,,,,,,,,,,,61036102a3f05e2ef6e4e3c6,61036b00debbc760859cd3b8,2021-07-29_23h00.09.350,Simcolourproject_2stim_asymm_v5,2020.2.10,Win32,60,61025ae37ef11b136ea224fe,,,,,,,,,2545,-51,-40.5,1,0,0,response5disk,,2,7,-5.5,1,0,0,rectangle,7,-5.5,1,0,0,7,-5.5,1,0,0,0,150,150,124,1,,,,,,,,
,,,,,,,,,,,,,FF,,,,,,,,1.216,,,,,,,,,,,,,,,,,,,,,,61036102a3f05e2ef6e4e3c6,61036b00debbc760859cd3b8,2021-07-29_23h00.09.350,Simcolourproject_2stim_asymm_v5,2020.2.10,Win32,60,61025ae37ef11b136ea224fe,,,,,,,,,1218,-26,60.5,1,0,0,response7disk,,0,9,6.5,1,0,0,rectangle,9,6.5,1,0,0,9,6.5,1,0,0,0,151,151,6,1,,,,,,,,
,,,,,,,,,,,,,FF,,,,,,,,0.699,,,,,,,,,,,,,,,,,,,,,,61036102a3f05e2ef6e4e3c6,61036b00debbc760859cd3b8,2021-07-29_23h00.09.350,Simcolourproject_2stim_asymm_v5,2020.2.10,Win32,60,61025ae37ef11b136ea224fe,,,,,,,,,2639,-43,-70.5,1,0,0,response5disk,,3,-6,-5.5,1,0,0,rectangle,-6,-5.5,1,0,0,-6,-5.5,1,0,0,0,152,152,103,1,,,,,,,,
,,,,,,,,,,,,,FF,,,,,,,,0.6,,,,,,,,,,,,,,,,,,,,,,61036102a3f05e2ef6e4e3c6,61036b00debbc760859cd3b8,2021-07-29_23h00.09.350,Simcolourproject_2stim_asymm_v5,2020.2.10,Win32,60,61025ae37ef11b136ea224fe,,,,,,,,,544,43,-52.5,1,0,0,response3disk,,4,15,-4.5,1,0,0,rectangle,15,-4.5,1,0,0,15,-4.5,1,0,0,0,153,153,89,1,,,,,,,,
,,,,,,,,,,,,,FF,,,,,,,,0.849,,,,,,,,,,,,,,,,,,,,,,61036102a3f05e2ef6e4e3c6,61036b00debbc760859cd3b8,2021-07-29_23h00.09.350,Simcolourproject_2stim_asymm_v5,2020.2.10,Win32,60,61025ae37ef11b136ea224fe,,,,,,,,,1525,-83,27.5,1,0,0,response7disk,,1,-10,4.5,1,0,0,rectangle,-10,4.5,1,0,0,-10,4.5,1,0,0,0,154,154,128,1,,,,,,,,
,,,,,,,,,,,,,FF,,,,,,,,0.8,,,,,,,,,,,,,,,,,,,,,,61036102a3f05e2ef6e4e3c6,61036b00debbc760859cd3b8,2021-07-29_23h00.09.350,Simcolourproject_2stim_asymm_v5,2020.2.10,Win32,60,61025ae37ef11b136ea224fe,,,,,,,,,2301,-25,-28.5,1,0,0,response5disk,,3,1,-4.5,1,0,0,rectangle,1,-4.5,1,0,0,1,-4.5,1,0,0,0,155,155,86,1,,,,,,,,
,,,,,,,,,,,,,FF,,,,,,,,0.65,,,,,,,,,,,,,,,,,,,,,,61036102a3f05e2ef6e4e3c6,61036b00debbc760859cd3b8,2021-07-29_23h00.09.350,Simcolourproject_2stim_asymm_v5,2020.2.10,Win32,60,61025ae37ef11b136ea224fe,,,,,,,,,1449,-64,-21.5,1,0,0,response5disk,,2,-7,0.5,1,0,0,rectangle,-7,0.5,1,0,0,-7,0.5,1,0,0,0,156,156,27,1,,,,,,,,
,,,,,,,,,,,,,FF,,,,,,,,0.866,,,,,,,,,,,,,,,,,,,,,,61036102a3f05e2ef6e4e3c6,61036b00debbc760859cd3b8,2021-07-29_23h00.09.350,Simcolourproject_2stim_asymm_v5,2020.2.10,Win32,60,61025ae37ef11b136ea224fe,,,,,,,,,1590,38,-82.5,1,0,0,response3disk,,4,7,0.5,1,0,0,rectangle,7,0.5,1,0,0,7,0.5,1,0,0,0,157,157,132,1,,,,,,,,
,,,,,,,,,,,,,FF,,,,,,,,1.266,,,,,,,,,,,,,,,,,,,,,,61036102a3f05e2ef6e4e3c6,61036b00debbc760859cd3b8,2021-07-29_23h00.09.350,Simcolourproject_2stim_asymm_v5,2020.2.10,Win32,60,61025ae37ef11b136ea224fe,,,,,,,,,2672,-30,-79.5,1,0,0,response5disk,,3,11,1.5,1,0,0,rectangle,11,1.5,1,0,0,11,1.5,1,0,0,0,158,158,19,1,,,,,,,,
,,,,,,,,,,,,,FF,,,,,,,,0.534,,,,,,,,,,,,,,,,,,,,,,61036102a3f05e2ef6e4e3c6,61036b00debbc760859cd3b8,2021-07-29_23h00.09.350,Simcolourproject_2stim_asymm_v5,2020.2.10,Win32,60,61025ae37ef11b136ea224fe,,,,,,,,,3303,68,-30.5,1,0,0,response3disk,,5,-7,-6.5,1,0,0,rectangle,-7,-6.5,1,0,0,-7,-6.5,1,0,0,0,159,159,109,1,,,,,,,,
,,,,,,,,,,,,,FF,,,,,,,,0.867,,,,,,,,,,,,,,,,,,,,,,61036102a3f05e2ef6e4e3c6,61036b00debbc760859cd3b8,2021-07-29_23h00.09.350,Simcolourproject_2stim_asymm_v5,2020.2.10,Win32,60,61025ae37ef11b136ea224fe,,,,,,,,,1734,-47,57.5,1,0,0,response7disk,,0,-7,9.5,1,0,0,rectangle,-7,9.5,1,0,0,-7,9.5,1,0,0,1,0,160,35,1,,,,,,,,
,,,,,,,,,,,,,FF,,,,,,,,1.016,,,,,,,,,,,,,,,,,,,,,,61036102a3f05e2ef6e4e3c6,61036b00debbc760859cd3b8,2021-07-29_23h00.09.350,Simcolourproject_2stim_asymm_v5,2020.2.10,Win32,60,61025ae37ef11b136ea224fe,,,,,,,,,2733,61,-35.5,1,0,0,response3disk,,5,15,-10.5,1,0,0,rectangle,15,-10.5,1,0,0,15,-10.5,1,0,0,1,1,161,66,1,,,,,,,,
,,,,,,,,,,,,,FF,,,,,,,,0.733,,,,,,,,,,,,,,,,,,,,,,61036102a3f05e2ef6e4e3c6,61036b00debbc760859cd3b8,2021-07-29_23h00.09.350,Simcolourproject_2stim_asymm_v5,2020.2.10,Win32,60,61025ae37ef11b136ea224fe,,,,,,,,,4056,-38,-46.5,1,0,0,response5disk,,3,16,6.5,1,0,0,rectangle,16,6.5,1,0,0,16,6.5,1,0,0,1,2,162,69,1,,,,,,,,
,,,,,,,,,,,,,FF,,,,,,,,0.782,,,,,,,,,,,,,,,,,,,,,,61036102a3f05e2ef6e4e3c6,61036b00debbc760859cd3b8,2021-07-29_23h00.09.350,Simcolourproject_2stim_asymm_v5,2020.2.10,Win32,60,61025ae37ef11b136ea224fe,,,,,,,,,2186,-49,37.5,1,0,0,response7disk,,1,3,7.5,1,0,0,rectangle,3,7.5,1,0,0,3,7.5,1,0,0,1,3,163,153,1,,,,,,,,
,,,,,,,,,,,,,FF,,,,,,,,1.367,,,,,,,,,,,,,,,,,,,,,,61036102a3f05e2ef6e4e3c6,61036b00debbc760859cd3b8,2021-07-29_23h00.09.350,Simcolourproject_2stim_asymm_v5,2020.2.10,Win32,60,61025ae37ef11b136ea224fe,,,,,,,,,4167,-59,-66.5,1,0,0,response5disk,,3,14,4.5,1,0,0,rectangle,14,4.5,1,0,0,14,4.5,1,0,0,1,4,164,5,1,,,,,,,,
,,,,,,,,,,,,,FF,,,,,,,,0.949,,,,,,,,,,,,,,,,,,,,,,61036102a3f05e2ef6e4e3c6,61036b00debbc760859cd3b8,2021-07-29_23h00.09.350,Simcolourproject_2stim_asymm_v5,2020.2.10,Win32,60,61025ae37ef11b136ea224fe,,,,,,,,,3553,-71,-37.5,1,0,0,response5disk,,2,-10,-2.5,1,0,0,rectangle,-10,-2.5,1,0,0,-10,-2.5,1,0,0,1,5,165,45,1,,,,,,,,
,,,,,,,,,,,,,FF,,,,,,,,0.818,,,,,,,,,,,,,,,,,,,,,,61036102a3f05e2ef6e4e3c6,61036b00debbc760859cd3b8,2021-07-29_23h00.09.350,Simcolourproject_2stim_asymm_v5,2020.2.10,Win32,60,61025ae37ef11b136ea224fe,,,,,,,,,134,91,-36.5,1,0,0,response3disk,,5,9,-2.5,1,0,0,rectangle,9,-2.5,1,0,0,9,-2.5,1,0,0,1,6,166,119,1,,,,,,,,
,,,,,,,,,,,,,FF,,,,,,,,0.966,,,,,,,,,,,,,,,,,,,,,,61036102a3f05e2ef6e4e3c6,61036b00debbc760859cd3b8,2021-07-29_23h00.09.350,Simcolourproject_2stim_asymm_v5,2020.2.10,Win32,60,61025ae37ef11b136ea224fe,,,,,,,,,3729,46,66.5,1,0,0,response1disk,,7,8,8.5,1,0,0,rectangle,8,8.5,1,0,0,8,8.5,1,0,0,1,7,167,77,1,,,,,,,,
,,,,,,,,,,,,,FF,,,,,,,,1.082,,,,,,,,,,,,,,,,,,,,,,61036102a3f05e2ef6e4e3c6,61036b00debbc760859cd3b8,2021-07-29_23h00.09.350,Simcolourproject_2stim_asymm_v5,2020.2.10,Win32,60,61025ae37ef11b136ea224fe,,,,,,,,,1910,-26,-67.5,1,0,0,response5disk,,3,5,-5.5,1,0,0,rectangle,5,-5.5,1,0,0,5,-5.5,1,0,0,1,8,168,56,1,,,,,,,,
,,,,,,,,,,,,,FF,,,,,,,,0.684,,,,,,,,,,,,,,,,,,,,,,61036102a3f05e2ef6e4e3c6,61036b00debbc760859cd3b8,2021-07-29_23h00.09.350,Simcolourproject_2stim_asymm_v5,2020.2.10,Win32,60,61025ae37ef11b136ea224fe,,,,,,,,,3290,-28,34.5,1,0,0,response7disk,,0,-17,-0.5,1,0,0,rectangle,-17,-0.5,1,0,0,-17,-0.5,1,0,0,1,9,169,37,1,,,,,,,,
,,,,,,,,,,,,,FF,,,,,,,,1.183,,,,,,,,,,,,,,,,,,,,,,61036102a3f05e2ef6e4e3c6,61036b00debbc760859cd3b8,2021-07-29_23h00.09.350,Simcolourproject_2stim_asymm_v5,2020.2.10,Win32,60,61025ae37ef11b136ea224fe,,,,,,,,,373,-35,-66.5,1,0,0,response5disk,,3,-19,-5.5,1,0,0,rectangle,-19,-5.5,1,0,0,-19,-5.5,1,0,0,1,10,170,33,1,,,,,,,,
,,,,,,,,,,,,,FF,,,,,,,,0.816,,,,,,,,,,,,,,,,,,,,,,61036102a3f05e2ef6e4e3c6,61036b00debbc760859cd3b8,2021-07-29_23h00.09.350,Simcolourproject_2stim_asymm_v5,2020.2.10,Win32,60,61025ae37ef11b136ea224fe,,,,,,,,,3746,56,-30.5,1,0,0,response3disk,,5,5,-0.5,1,0,0,rectangle,5,-0.5,1,0,0,5,-0.5,1,0,0,1,11,171,62,1,,,,,,,,
,,,,,,,,,,,,,FF,,,,,,,,0.599,,,,,,,,,,,,,,,,,,,,,,61036102a3f05e2ef6e4e3c6,61036b00debbc760859cd3b8,2021-07-29_23h00.09.350,Simcolourproject_2stim_asymm_v5,2020.2.10,Win32,60,61025ae37ef11b136ea224fe,,,,,,,,,87,74,38.5,1,0,0,response1disk,,6,5,-1.5,1,0,0,rectangle,5,-1.5,1,0,0,5,-1.5,1,0,0,1,12,172,102,1,,,,,,,,
,,,,,,,,,,,,,FF,,,,,,,,0.568,,,,,,,,,,,,,,,,,,,,,,61036102a3f05e2ef6e4e3c6,61036b00debbc760859cd3b8,2021-07-29_23h00.09.350,Simcolourproject_2stim_asymm_v5,2020.2.10,Win32,60,61025ae37ef11b136ea224fe,,,,,,,,,2076,36,73.5,1,0,0,response1disk,,7,16,4.5,1,0,0,rectangle,16,4.5,1,0,0,16,4.5,1,0,0,1,13,173,79,1,,,,,,,,
,,,,,,,,,,,,,FF,,,,,,,,0.749,,,,,,,,,,,,,,,,,,,,,,61036102a3f05e2ef6e4e3c6,61036b00debbc760859cd3b8,2021-07-29_23h00.09.350,Simcolourproject_2stim_asymm_v5,2020.2.10,Win32,60,61025ae37ef11b136ea224fe,,,,,,,,,1541,-37,-37.5,1,0,0,response5disk,,3,-17,1.5,1,0,0,rectangle,-17,1.5,1,0,0,-17,1.5,1,0,0,1,14,174,142,1,,,,,,,,
,,,,,,,,,,,,,FF,,,,,,,,0.616,,,,,,,,,,,,,,,,,,,,,,61036102a3f05e2ef6e4e3c6,61036b00debbc760859cd3b8,2021-07-29_23h00.09.350,Simcolourproject_2stim_asymm_v5,2020.2.10,Win32,60,61025ae37ef11b136ea224fe,,,,,,,,,50,55,-24.5,1,0,0,response3disk,,5,15,-8.5,1,0,0,rectangle,15,-8.5,1,0,0,15,-8.5,1,0,0,1,15,175,58,1,,,,,,,,
,,,,,,,,,,,,,FF,,,,,,,,0.833,,,,,,,,,,,,,,,,,,,,,,61036102a3f05e2ef6e4e3c6,61036b00debbc760859cd3b8,2021-07-29_23h00.09.350,Simcolourproject_2stim_asymm_v5,2020.2.10,Win32,60,61025ae37ef11b136ea224fe,,,,,,,,,4239,46,-64.5,1,0,0,response3disk,,4,-1,-3.5,1,0,0,rectangle,-1,-3.5,1,0,0,-1,-3.5,1,0,0,1,16,176,143,1,,,,,,,,
,,,,,,,,,,,,,FF,,,,,,,,1.05,,,,,,,,,,,,,,,,,,,,,,61036102a3f05e2ef6e4e3c6,61036b00debbc760859cd3b8,2021-07-29_23h00.09.350,Simcolourproject_2stim_asymm_v5,2020.2.10,Win32,60,61025ae37ef11b136ea224fe,,,,,,,,,1099,50,47.5,1,0,0,response1disk,,6,13,3.5,1,0,0,rectangle,13,3.5,1,0,0,13,3.5,1,0,0,1,17,177,20,1,,,,,,,,
,,,,,,,,,,,,,FF,,,,,,,,1.766,,,,,,,,,,,,,,,,,,,,,,61036102a3f05e2ef6e4e3c6,61036b00debbc760859cd3b8,2021-07-29_23h00.09.350,Simcolourproject_2stim_asymm_v5,2020.2.10,Win32,60,61025ae37ef11b136ea224fe,,,,,,,,,2605,-69,25.5,1,0,0,response7disk,,1,-27,6.5,1,0,0,rectangle,-27,6.5,1,0,0,-27,6.5,1,0,0,1,18,178,75,1,,,,,,,,
,,,,,,,,,,,,,FF,,,,,,,,0.716,,,,,,,,,,,,,,,,,,,,,,61036102a3f05e2ef6e4e3c6,61036b00debbc760859cd3b8,2021-07-29_23h00.09.350,Simcolourproject_2stim_asymm_v5,2020.2.10,Win32,60,61025ae37ef11b136ea224fe,,,,,,,,,3557,28,-52.5,1,0,0,response3disk,,4,-14,-5.5,1,0,0,rectangle,-14,-5.5,1,0,0,-14,-5.5,1,0,0,1,19,179,95,1,,,,,,,,
,,,,,,,,,,,,,FF,,,,,,,,0.75,,,,,,,,,,,,,,,,,,,,,,61036102a3f05e2ef6e4e3c6,61036b00debbc760859cd3b8,2021-07-29_23h00.09.350,Simcolourproject_2stim_asymm_v5,2020.2.10,Win32,60,61025ae37ef11b136ea224fe,,,,,,,,,1259,69,-20.5,1,0,0,response3disk,,5,6,2.5,1,0,0,rectangle,6,2.5,1,0,0,6,2.5,1,0,0,1,20,180,68,1,,,,,,,,
,,,,,,,,,,,,,FF,,,,,,,,0.633,,,,,,,,,,,,,,,,,,,,,,61036102a3f05e2ef6e4e3c6,61036b00debbc760859cd3b8,2021-07-29_23h00.09.350,Simcolourproject_2stim_asymm_v5,2020.2.10,Win32,60,61025ae37ef11b136ea224fe,,,,,,,,,1345,-47,-46.5,1,0,0,response5disk,,2,11,0.5,1,0,0,rectangle,11,0.5,1,0,0,11,0.5,1,0,0,1,21,181,146,1,,,,,,,,
,,,,,,,,,,,,,FF,,,,,,,,0.931,,,,,,,,,,,,,,,,,,,,,,61036102a3f05e2ef6e4e3c6,61036b00debbc760859cd3b8,2021-07-29_23h00.09.350,Simcolourproject_2stim_asymm_v5,2020.2.10,Win32,60,61025ae37ef11b136ea224fe,,,,,,,,,1616,-61,-97.5,1,0,0,response5disk,,3,-9,-2.5,1,0,0,rectangle,-9,-2.5,1,0,0,-9,-2.5,1,0,0,1,22,182,97,1,,,,,,,,
,,,,,,,,,,,,,FF,,,,,,,,0.6,,,,,,,,,,,,,,,,,,,,,,61036102a3f05e2ef6e4e3c6,61036b00debbc760859cd3b8,2021-07-29_23h00.09.350,Simcolourproject_2stim_asymm_v5,2020.2.10,Win32,60,61025ae37ef11b136ea224fe,,,,,,,,,688,97,67.5,1,0,0,response1disk,,6,13,3.5,1,0,0,rectangle,13,3.5,1,0,0,13,3.5,1,0,0,1,23,183,38,1,,,,,,,,
,,,,,,,,,,,,,FF,,,,,,,,0.5,,,,,,,,,,,,,,,,,,,,,,61036102a3f05e2ef6e4e3c6,61036b00debbc760859cd3b8,2021-07-29_23h00.09.350,Simcolourproject_2stim_asymm_v5,2020.2.10,Win32,60,61025ae37ef11b136ea224fe,,,,,,,,,3932,59,55.5,1,0,0,response1disk,,6,-1,-0.5,1,0,0,rectangle,-1,-0.5,1,0,0,-1,-0.5,1,0,0,1,24,184,94,1,,,,,,,,
,,,,,,,,,,,,,FF,,,,,,,,0.833,,,,,,,,,,,,,,,,,,,,,,61036102a3f05e2ef6e4e3c6,61036b00debbc760859cd3b8,2021-07-29_23h00.09.350,Simcolourproject_2stim_asymm_v5,2020.2.10,Win32,60,61025ae37ef11b136ea224fe,,,,,,,,,2425,-61,29.5,1,0,0,response7disk,,1,-17,3.5,1,0,0,rectangle,-17,3.5,1,0,0,-17,3.5,1,0,0,1,25,185,98,1,,,,,,,,
,,,,,,,,,,,,,FF,,,,,,,,0.749,,,,,,,,,,,,,,,,,,,,,,61036102a3f05e2ef6e4e3c6,61036b00debbc760859cd3b8,2021-07-29_23h00.09.350,Simcolourproject_2stim_asymm_v5,2020.2.10,Win32,60,61025ae37ef11b136ea224fe,,,,,,,,,1626,71,-30.5,1,0,0,response3disk,,5,12,5.5,1,0,0,rectangle,12,5.5,1,0,0,12,5.5,1,0,0,1,26,186,154,1,,,,,,,,
,,,,,,,,,,,,,FF,,,,,,,,0.45,,,,,,,,,,,,,,,,,,,,,,61036102a3f05e2ef6e4e3c6,61036b00debbc760859cd3b8,2021-07-29_23h00.09.350,Simcolourproject_2stim_asymm_v5,2020.2.10,Win32,60,61025ae37ef11b136ea224fe,,,,,,,,,1491,46,37.5,1,0,0,response1disk,,6,0,-4.5,1,0,0,rectangle,-59,-43.5,1,0,0,5,3.5,1,0,0,1,27,187,57,1,,response5disk_3,TRUE,2,2,"[292,263,123,298,188,68,226,252,127,303,202,194,64,200,148,200,124,203,125,112]",1.632,rectangle
,,,,,,,,,,,,,FF,,,,,,,,0.766,,,,,,,,,,,,,,,,,,,,,,61036102a3f05e2ef6e4e3c6,61036b00debbc760859cd3b8,2021-07-29_23h00.09.350,Simcolourproject_2stim_asymm_v5,2020.2.10,Win32,60,61025ae37ef11b136ea224fe,,,,,,,,,28,-36,-27.5,1,0,0,response5disk,,2,-18,3.5,1,0,0,rectangle,-18,3.5,1,0,0,-18,3.5,1,0,0,1,28,188,41,1,,,,,,,,
,,,,,,,,,,,,,FF,,,,,,,,0.749,,,,,,,,,,,,,,,,,,,,,,61036102a3f05e2ef6e4e3c6,61036b00debbc760859cd3b8,2021-07-29_23h00.09.350,Simcolourproject_2stim_asymm_v5,2020.2.10,Win32,60,61025ae37ef11b136ea224fe,,,,,,,,,2154,48,-58.5,1,0,0,response3disk,,4,7,-5.5,1,0,0,rectangle,7,-5.5,1,0,0,7,-5.5,1,0,0,1,29,189,82,1,,,,,,,,
,,,,,,,,,,,,,FF,,,,,,,,0.749,,,,,,,,,,,,,,,,,,,,,,61036102a3f05e2ef6e4e3c6,61036b00debbc760859cd3b8,2021-07-29_23h00.09.350,Simcolourproject_2stim_asymm_v5,2020.2.10,Win32,60,61025ae37ef11b136ea224fe,,,,,,,,,155,-29,-44.5,1,0,0,response5disk,,3,9,-6.5,1,0,0,rectangle,9,-6.5,1,0,0,9,-6.5,1,0,0,1,30,190,22,1,,,,,,,,
,,,,,,,,,,,,,FF,,,,,,,,0.85,,,,,,,,,,,,,,,,,,,,,,61036102a3f05e2ef6e4e3c6,61036b00debbc760859cd3b8,2021-07-29_23h00.09.350,Simcolourproject_2stim_asymm_v5,2020.2.10,Win32,60,61025ae37ef11b136ea224fe,,,,,,,,,1634,91,59.5,1,0,0,response1disk,,6,11,-1.5,1,0,0,rectangle,11,-1.5,1,0,0,11,-1.5,1,0,0,1,31,191,144,1,,,,,,,,
,,,,,,,,,,,,,FF,,,,,,,,0.899,,,,,,,,,,,,,,,,,,,,,,61036102a3f05e2ef6e4e3c6,61036b00debbc760859cd3b8,2021-07-29_23h00.09.350,Simcolourproject_2stim_asymm_v5,2020.2.10,Win32,60,61025ae37ef11b136ea224fe,,,,,,,,,1625,-45,-27.5,1,0,0,response5disk,,2,3,3.5,1,0,0,rectangle,3,3.5,1,0,0,3,3.5,1,0,0,1,32,192,147,1,,,,,,,,
,,,,,,,,,,,,,FF,,,,,,,,1.467,,,,,,,,,,,,,,,,,,,,,,61036102a3f05e2ef6e4e3c6,61036b00debbc760859cd3b8,2021-07-29_23h00.09.350,Simcolourproject_2stim_asymm_v5,2020.2.10,Win32,60,61025ae37ef11b136ea224fe,,,,,,,,,4033,44,-50.5,1,0,0,response3disk,,4,5,-8.5,1,0,0,rectangle,-72,33.5,1,0,0,-1,1.5,1,0,0,1,33,193,148,1,,response7disk_3,TRUE,1,1,"[292,263,123,298,188,68,226,252,127,303,202,194,64,200,148,200,124,203,125,112]",1.183,rectangle
,,,,,,,,,,,,,FF,,,,,,,,0.783,,,,,,,,,,,,,,,,,,,,,,61036102a3f05e2ef6e4e3c6,61036b00debbc760859cd3b8,2021-07-29_23h00.09.350,Simcolourproject_2stim_asymm_v5,2020.2.10,Win32,60,61025ae37ef11b136ea224fe,,,,,,,,,2424,-58,-43.5,1,0,0,response5disk,,2,11,1.5,1,0,0,rectangle,11,1.5,1,0,0,11,1.5,1,0,0,1,34,194,120,1,,,,,,,,
,,,,,,,,,,,,,FF,,,,,,,,0.75,,,,,,,,,,,,,,,,,,,,,,61036102a3f05e2ef6e4e3c6,61036b00debbc760859cd3b8,2021-07-29_23h00.09.350,Simcolourproject_2stim_asymm_v5,2020.2.10,Win32,60,61025ae37ef11b136ea224fe,,,,,,,,,1949,59,-42.5,1,0,0,response3disk,,5,-8,-6.5,1,0,0,rectangle,-8,-6.5,1,0,0,-8,-6.5,1,0,0,1,35,195,109,1,,,,,,,,
,,,,,,,,,,,,,FF,,,,,,,,0.733,,,,,,,,,,,,,,,,,,,,,,61036102a3f05e2ef6e4e3c6,61036b00debbc760859cd3b8,2021-07-29_23h00.09.350,Simcolourproject_2stim_asymm_v5,2020.2.10,Win32,60,61025ae37ef11b136ea224fe,,,,,,,,,2316,57,56.5,1,0,0,response1disk,,6,0,7.5,1,0,0,rectangle,0,7.5,1,0,0,0,7.5,1,0,0,1,36,196,9,1,,,,,,,,
,,,,,,,,,,,,,FF,,,,,,,,0.899,,,,,,,,,,,,,,,,,,,,,,61036102a3f05e2ef6e4e3c6,61036b00debbc760859cd3b8,2021-07-29_23h00.09.350,Simcolourproject_2stim_asymm_v5,2020.2.10,Win32,60,61025ae37ef11b136ea224fe,,,,,,,,,2890,-68,-47.5,1,0,0,response5disk,,2,5,9.5,1,0,0,rectangle,5,9.5,1,0,0,5,9.5,1,0,0,1,37,197,67,1,,,,,,,,
,,,,,,,,,,,,,FF,,,,,,,,0.849,,,,,,,,,,,,,,,,,,,,,,61036102a3f05e2ef6e4e3c6,61036b00debbc760859cd3b8,2021-07-29_23h00.09.350,Simcolourproject_2stim_asymm_v5,2020.2.10,Win32,60,61025ae37ef11b136ea224fe,,,,,,,,,2492,-46,-51.5,1,0,0,response5disk,,3,-9,0.5,1,0,0,rectangle,-9,0.5,1,0,0,-9,0.5,1,0,0,1,38,198,23,1,,,,,,,,
,,,,,,,,,,,,,FF,,,,,,,,0.833,,,,,,,,,,,,,,,,,,,,,,61036102a3f05e2ef6e4e3c6,61036b00debbc760859cd3b8,2021-07-29_23h00.09.350,Simcolourproject_2stim_asymm_v5,2020.2.10,Win32,60,61025ae37ef11b136ea224fe,,,,,,,,,3784,29,-60.5,1,0,0,response3disk,,4,4,-3.5,1,0,0,rectangle,-31,69.5,1,0,0,4,-1.5,1,0,0,1,39,199,10,1,,response7disk_3,TRUE,0,0,"[292,263,123,298,188,68,226,252,127,303,202,194,64,200,148,200,124,203,125,112]",1.515,rectangle
,,,,,,,,,,,,,FF,,,,,,,,0.649,,,,,,,,,,,,,,,,,,,,,,61036102a3f05e2ef6e4e3c6,61036b00debbc760859cd3b8,2021-07-29_23h00.09.350,Simcolourproject_2stim_asymm_v5,2020.2.10,Win32,60,61025ae37ef11b136ea224fe,,,,,,,,,2862,46,29.5,1,0,0,response1disk,,6,-17,-3.5,1,0,0,rectangle,-17,-3.5,1,0,0,-17,-3.5,1,0,0,1,40,200,80,1,,,,,,,,
,,,,,,,,,,,,,FF,,,,,,,,0.699,,,,,,,,,,,,,,,,,,,,,,61036102a3f05e2ef6e4e3c6,61036b00debbc760859cd3b8,2021-07-29_23h00.09.350,Simcolourproject_2stim_asymm_v5,2020.2.10,Win32,60,61025ae37ef11b136ea224fe,,,,,,,,,875,47,-29.5,1,0,0,response3disk,,5,-4,-9.5,1,0,0,rectangle,-23,-64.5,1,0,0,12,-8.5,1,0,0,1,41,201,110,1,,response5disk_3,TRUE,3,3,"[292,263,123,298,188,68,226,252,127,303,202,194,64,200,148,200,124,203,125,112]",1.449,rectangle
,,,,,,,,,,,,,FF,,,,,,,,0.634,,,,,,,,,,,,,,,,,,,,,,61036102a3f05e2ef6e4e3c6,61036b00debbc760859cd3b8,2021-07-29_23h00.09.350,Simcolourproject_2stim_asymm_v5,2020.2.10,Win32,60,61025ae37ef11b136ea224fe,,,,,,,,,3648,47,-28.5,1,0,0,response3disk,,5,-6,-8.5,1,0,0,rectangle,31,-66.5,1,0,0,-7,-2.5,1,0,0,1,42,202,90,1,,response3disk_3,TRUE,4,4,"[292,263,123,298,188,68,226,252,127,303,202,194,64,200,148,200,124,203,125,112]",1.383,rectangle
,,,,,,,,,,,,,FF,,,,,,,,0.85,,,,,,,,,,,,,,,,,,,,,,61036102a3f05e2ef6e4e3c6,61036b00debbc760859cd3b8,2021-07-29_23h00.09.350,Simcolourproject_2stim_asymm_v5,2020.2.10,Win32,60,61025ae37ef11b136ea224fe,,,,,,,,,60,-52,-50.5,1,0,0,response5disk,,2,-6,-2.5,1,0,0,rectangle,-6,-2.5,1,0,0,-6,-2.5,1,0,0,1,43,203,155,1,,,,,,,,
,,,,,,,,,,,,,FF,,,,,,,,1.068,,,,,,,,,,,,,,,,,,,,,,61036102a3f05e2ef6e4e3c6,61036b00debbc760859cd3b8,2021-07-29_23h00.09.350,Simcolourproject_2stim_asymm_v5,2020.2.10,Win32,60,61025ae37ef11b136ea224fe,,,,,,,,,948,93,49.5,1,0,0,response1disk,,6,-13,-8.5,1,0,0,rectangle,-13,-8.5,1,0,0,-13,-8.5,1,0,0,1,44,204,151,1,,,,,,,,
,,,,,,,,,,,,,FF,,,,,,,,1.016,,,,,,,,,,,,,,,,,,,,,,61036102a3f05e2ef6e4e3c6,61036b00debbc760859cd3b8,2021-07-29_23h00.09.350,Simcolourproject_2stim_asymm_v5,2020.2.10,Win32,60,61025ae37ef11b136ea224fe,,,,,,,,,1147,44,-41.5,1,0,0,response3disk,,5,-20,1.5,1,0,0,rectangle,-20,1.5,1,0,0,-20,1.5,1,0,0,1,45,205,6,1,,,,,,,,
,,,,,,,,,,,,,FF,,,,,,,,1.366,,,,,,,,,,,,,,,,,,,,,,61036102a3f05e2ef6e4e3c6,61036b00debbc760859cd3b8,2021-07-29_23h00.09.350,Simcolourproject_2stim_asymm_v5,2020.2.10,Win32,60,61025ae37ef11b136ea224fe,,,,,,,,,2911,31,61.5,1,0,0,response1disk,,7,-1,6.5,1,0,0,rectangle,-1,6.5,1,0,0,-1,6.5,1,0,0,1,46,206,156,1,,,,,,,,
,,,,,,,,,,,,,FF,,,,,,,,0.733,,,,,,,,,,,,,,,,,,,,,,61036102a3f05e2ef6e4e3c6,61036b00debbc760859cd3b8,2021-07-29_23h00.09.350,Simcolourproject_2stim_asymm_v5,2020.2.10,Win32,60,61025ae37ef11b136ea224fe,,,,,,,,,2626,48,73.5,1,0,0,response1disk,,7,-9,3.5,0,0,1,rectangle,-9,3.5,0,0,1,-9,3.5,0,0,1,1,47,207,17,1,,,,,,,,
,,,,,,,,,,,,,FF,,,,,,,,1.499,,,,,,,,,,,,,,,,,,,,,,61036102a3f05e2ef6e4e3c6,61036b00debbc760859cd3b8,2021-07-29_23h00.09.350,Simcolourproject_2stim_asymm_v5,2020.2.10,Win32,60,61025ae37ef11b136ea224fe,,,,,,,,,4320,31,51.5,1,0,0,response1disk,,7,3,1.5,1,0,0,rectangle,3,1.5,1,0,0,3,1.5,1,0,0,1,48,208,15,1,,,,,,,,
,,,,,,,,,,,,,FF,,,,,,,,1.182,,,,,,,,,,,,,,,,,,,,,,61036102a3f05e2ef6e4e3c6,61036b00debbc760859cd3b8,2021-07-29_23h00.09.350,Simcolourproject_2stim_asymm_v5,2020.2.10,Win32,60,61025ae37ef11b136ea224fe,,,,,,,,,167,29,-42.5,1,0,0,response3disk,,4,5,-10.5,1,0,0,rectangle,5,-10.5,1,0,0,5,-10.5,1,0,0,1,49,209,88,1,,,,,,,,
,,,,,,,,,,,,,FF,,,,,,,,0.833,,,,,,,,,,,,,,,,,,,,,,61036102a3f05e2ef6e4e3c6,61036b00debbc760859cd3b8,2021-07-29_23h00.09.350,Simcolourproject_2stim_asymm_v5,2020.2.10,Win32,60,61025ae37ef11b136ea224fe,,,,,,,,,699,43,-21.5,1,0,0,response3disk,,5,7,1.5,1,0,0,rectangle,7,1.5,1,0,0,7,1.5,1,0,0,1,50,210,27,1,,,,,,,,
,,,,,,,,,,,,,FF,,,,,,,,0.666,,,,,,,,,,,,,,,,,,,,,,61036102a3f05e2ef6e4e3c6,61036b00debbc760859cd3b8,2021-07-29_23h00.09.350,Simcolourproject_2stim_asymm_v5,2020.2.10,Win32,60,61025ae37ef11b136ea224fe,,,,,,,,,4028,81,48.5,1,0,0,response1disk,,6,8,9.5,1,0,0,rectangle,8,9.5,1,0,0,8,9.5,1,0,0,1,51,211,18,1,,,,,,,,
,,,,,,,,,,,,,FF,,,,,,,,0.684,,,,,,,,,,,,,,,,,,,,,,61036102a3f05e2ef6e4e3c6,61036b00debbc760859cd3b8,2021-07-29_23h00.09.350,Simcolourproject_2stim_asymm_v5,2020.2.10,Win32,60,61025ae37ef11b136ea224fe,,,,,,,,,3324,62,-18.5,1,0,0,response3disk,,5,4,-6.5,1,0,0,rectangle,4,-6.5,1,0,0,4,-6.5,1,0,0,1,52,212,112,1,,,,,,,,
,,,,,,,,,,,,,FF,,,,,,,,0.866,,,,,,,,,,,,,,,,,,,,,,61036102a3f05e2ef6e4e3c6,61036b00debbc760859cd3b8,2021-07-29_23h00.09.350,Simcolourproject_2stim_asymm_v5,2020.2.10,Win32,60,61025ae37ef11b136ea224fe,,,,,,,,,3966,-55,24.5,1,0,0,response7disk,,1,9,-9.5,1,0,0,rectangle,9,-9.5,1,0,0,9,-9.5,1,0,0,1,53,213,106,1,,,,,,,,
,,,,,,,,,,,,,FF,,,,,,,,0.7,,,,,,,,,,,,,,,,,,,,,,61036102a3f05e2ef6e4e3c6,61036b00debbc760859cd3b8,2021-07-29_23h00.09.350,Simcolourproject_2stim_asymm_v5,2020.2.10,Win32,60,61025ae37ef11b136ea224fe,,,,,,,,,3894,47,22.5,1,0,0,response1disk,,6,0,-0.5,1,0,0,rectangle,0,-0.5,1,0,0,0,-0.5,1,0,0,1,54,214,74,1,,,,,,,,
,,,,,,,,,,,,,FF,,,,,,,,0.634,,,,,,,,,,,,,,,,,,,,,,61036102a3f05e2ef6e4e3c6,61036b00debbc760859cd3b8,2021-07-29_23h00.09.350,Simcolourproject_2stim_asymm_v5,2020.2.10,Win32,60,61025ae37ef11b136ea224fe,,,,,,,,,4204,18,17.5,1,0,0,response1disk,,6,-9,-6.5,1,0,0,rectangle,-9,-6.5,1,0,0,-9,-6.5,1,0,0,1,55,215,26,1,,,,,,,,
,,,,,,,,,,,,,FF,,,,,,,,0.649,,,,,,,,,,,,,,,,,,,,,,61036102a3f05e2ef6e4e3c6,61036b00debbc760859cd3b8,2021-07-29_23h00.09.350,Simcolourproject_2stim_asymm_v5,2020.2.10,Win32,60,61025ae37ef11b136ea224fe,,,,,,,,,828,33,-50.5,1,0,0,response3disk,,4,-18,-2.5,1,0,0,rectangle,-18,-2.5,1,0,0,-18,-2.5,1,0,0,1,56,216,133,1,,,,,,,,
,,,,,,,,,,,,,FF,,,,,,,,0.801,,,,,,,,,,,,,,,,,,,,,,61036102a3f05e2ef6e4e3c6,61036b00debbc760859cd3b8,2021-07-29_23h00.09.350,Simcolourproject_2stim_asymm_v5,2020.2.10,Win32,60,61025ae37ef11b136ea224fe,,,,,,,,,2945,-54,-20.5,1,0,0,response5disk,,2,-5,3.5,1,0,0,rectangle,-5,3.5,1,0,0,-5,3.5,1,0,0,1,57,217,52,1,,,,,,,,
,,,,,,,,,,,,,FF,,,,,,,,0.667,,,,,,,,,,,,,,,,,,,,,,61036102a3f05e2ef6e4e3c6,61036b00debbc760859cd3b8,2021-07-29_23h00.09.350,Simcolourproject_2stim_asymm_v5,2020.2.10,Win32,60,61025ae37ef11b136ea224fe,,,,,,,,,2248,76,-19.5,1,0,0,response3disk,,5,6,-0.5,1,0,0,rectangle,6,-0.5,1,0,0,6,-0.5,1,0,0,1,58,218,86,1,,,,,,,,
,,,,,,,,,,,,,FF,,,,,,,,0.766,,,,,,,,,,,,,,,,,,,,,,61036102a3f05e2ef6e4e3c6,61036b00debbc760859cd3b8,2021-07-29_23h00.09.350,Simcolourproject_2stim_asymm_v5,2020.2.10,Win32,60,61025ae37ef11b136ea224fe,,,,,,,,,3790,44,86.5,1,0,0,response1disk,,7,3,6.5,1,0,0,rectangle,3,6.5,1,0,0,3,6.5,1,0,0,1,59,219,138,1,,,,,,,,
,,,,,,,,,,,,,FF,,,,,,,,0.633,,,,,,,,,,,,,,,,,,,,,,61036102a3f05e2ef6e4e3c6,61036b00debbc760859cd3b8,2021-07-29_23h00.09.350,Simcolourproject_2stim_asymm_v5,2020.2.10,Win32,60,61025ae37ef11b136ea224fe,,,,,,,,,881,76,38.5,1,0,0,response1disk,,6,7,5.5,1,0,0,rectangle,7,5.5,1,0,0,7,5.5,1,0,0,1,60,220,4,1,,,,,,,,
,,,,,,,,,,,,,FF,,,,,,,,1.183,,,,,,,,,,,,,,,,,,,,,,61036102a3f05e2ef6e4e3c6,61036b00debbc760859cd3b8,2021-07-29_23h00.09.350,Simcolourproject_2stim_asymm_v5,2020.2.10,Win32,60,61025ae37ef11b136ea224fe,,,,,,,,,1252,61,37.5,1,0,0,response1disk,,6,5,1.5,1,0,0,rectangle,5,1.5,1,0,0,5,1.5,1,0,0,1,61,221,85,1,,,,,,,,
,,,,,,,,,,,,,FF,,,,,,,,0.583,,,,,,,,,,,,,,,,,,,,,,61036102a3f05e2ef6e4e3c6,61036b00debbc760859cd3b8,2021-07-29_23h00.09.350,Simcolourproject_2stim_asymm_v5,2020.2.10,Win32,60,61025ae37ef11b136ea224fe,,,,,,,,,154,55,-30.5,1,0,0,response3disk,,5,4,-6.5,1,0,0,rectangle,4,-6.5,1,0,0,4,-6.5,1,0,0,1,62,222,61,1,,,,,,,,
,,,,,,,,,,,,,FF,,,,,,,,0.833,,,,,,,,,,,,,,,,,,,,,,61036102a3f05e2ef6e4e3c6,61036b00debbc760859cd3b8,2021-07-29_23h00.09.350,Simcolourproject_2stim_asymm_v5,2020.2.10,Win32,60,61025ae37ef11b136ea224fe,,,,,,,,,3591,-47,62.5,1,0,0,response7disk,,0,-7,3.5,1,0,0,rectangle,-7,3.5,1,0,0,-7,3.5,1,0,0,1,63,223,107,1,,,,,,,,
,,,,,,,,,,,,,FF,,,,,,,,0.799,,,,,,,,,,,,,,,,,,,,,,61036102a3f05e2ef6e4e3c6,61036b00debbc760859cd3b8,2021-07-29_23h00.09.350,Simcolourproject_2stim_asymm_v5,2020.2.10,Win32,60,61025ae37ef11b136ea224fe,,,,,,,,,2978,39,-44.5,1,0,0,response3disk,,4,-1,-6.5,1,0,0,rectangle,-1,-6.5,1,0,0,-1,-6.5,1,0,0,1,64,224,16,1,,,,,,,,
,,,,,,,,,,,,,FF,,,,,,,,0.784,,,,,,,,,,,,,,,,,,,,,,61036102a3f05e2ef6e4e3c6,61036b00debbc760859cd3b8,2021-07-29_23h00.09.350,Simcolourproject_2stim_asymm_v5,2020.2.10,Win32,60,61025ae37ef11b136ea224fe,,,,,,,,,4119,-49,-29.5,1,0,0,response5disk,,2,-12,-8.5,1,0,0,rectangle,103,37.5,1,0,0,4,-9.5,1,0,0,1,65,225,126,1,,response1disk_3,TRUE,6,6,"[292,263,123,298,188,68,226,252,127,303,202,194,64,200,148,200,124,203,125,112]",1.401,rectangle
,,,,,,,,,,,,,FF,,,,,,,,0.783,,,,,,,,,,,,,,,,,,,,,,61036102a3f05e2ef6e4e3c6,61036b00debbc760859cd3b8,2021-07-29_23h00.09.350,Simcolourproject_2stim_asymm_v5,2020.2.10,Win32,60,61025ae37ef11b136ea224fe,,,,,,,,,414,43,-26.5,1,0,0,response3disk,,5,-4,0.5,1,0,0,rectangle,-4,0.5,1,0,0,-4,0.5,1,0,0,1,66,226,132,1,,,,,,,,
,,,,,,,,,,,,,FF,,,,,,,,0.867,,,,,,,,,,,,,,,,,,,,,,61036102a3f05e2ef6e4e3c6,61036b00debbc760859cd3b8,2021-07-29_23h00.09.350,Simcolourproject_2stim_asymm_v5,2020.2.10,Win32,60,61025ae37ef11b136ea224fe,,,,,,,,,2318,21,-54.5,1,0,0,response3disk,,4,-13,5.5,1,0,0,rectangle,-13,5.5,1,0,0,-13,5.5,1,0,0,1,67,227,72,1,,,,,,,,
,,,,,,,,,,,,,FF,,,,,,,,1.418,,,,,,,,,,,,,,,,,,,,,,61036102a3f05e2ef6e4e3c6,61036b00debbc760859cd3b8,2021-07-29_23h00.09.350,Simcolourproject_2stim_asymm_v5,2020.2.10,Win32,60,61025ae37ef11b136ea224fe,,,,,,,,,387,-45,-34.5,1,0,0,response5disk,,2,21,9.5,1,0,0,rectangle,21,9.5,1,0,0,21,9.5,1,0,0,1,68,228,141,1,,,,,,,,
,,,,,,,,,,,,,FF,,,,,,,,0.9,,,,,,,,,,,,,,,,,,,,,,61036102a3f05e2ef6e4e3c6,61036b00debbc760859cd3b8,2021-07-29_23h00.09.350,Simcolourproject_2stim_asymm_v5,2020.2.10,Win32,60,61025ae37ef11b136ea224fe,,,,,,,,,934,57,72.5,1,0,0,response1disk,,7,9,-4.5,1,0,0,rectangle,9,-4.5,1,0,0,9,-4.5,1,0,0,1,69,229,149,1,,,,,,,,
,,,,,,,,,,,,,FF,,,,,,,,1.365,,,,,,,,,,,,,,,,,,,,,,61036102a3f05e2ef6e4e3c6,61036b00debbc760859cd3b8,2021-07-29_23h00.09.350,Simcolourproject_2stim_asymm_v5,2020.2.10,Win32,60,61025ae37ef11b136ea224fe,,,,,,,,,2664,-75,37.5,1,0,0,response7disk,,1,-13,-0.5,1,0,0,rectangle,-13,-0.5,1,0,0,-13,-0.5,1,0,0,1,70,230,101,1,,,,,,,,
,,,,,,,,,,,,,FF,,,,,,,,1.15,,,,,,,,,,,,,,,,,,,,,,61036102a3f05e2ef6e4e3c6,61036b00debbc760859cd3b8,2021-07-29_23h00.09.350,Simcolourproject_2stim_asymm_v5,2020.2.10,Win32,60,61025ae37ef11b136ea224fe,,,,,,,,,1859,30,105.5,1,0,0,response1disk,,7,-7,3.5,1,0,0,rectangle,-7,3.5,1,0,0,-7,3.5,1,0,0,1,71,231,145,1,,,,,,,,
,,,,,,,,,,,,,FF,,,,,,,,0.584,,,,,,,,,,,,,,,,,,,,,,61036102a3f05e2ef6e4e3c6,61036b00debbc760859cd3b8,2021-07-29_23h00.09.350,Simcolourproject_2stim_asymm_v5,2020.2.10,Win32,60,61025ae37ef11b136ea224fe,,,,,,,,,26,57,34.5,1,0,0,response1disk,,6,14,3.5,1,0,0,rectangle,14,3.5,1,0,0,14,3.5,1,0,0,1,72,232,129,1,,,,,,,,
,,,,,,,,,,,,,FF,,,,,,,,0.999,,,,,,,,,,,,,,,,,,,,,,61036102a3f05e2ef6e4e3c6,61036b00debbc760859cd3b8,2021-07-29_23h00.09.350,Simcolourproject_2stim_asymm_v5,2020.2.10,Win32,60,61025ae37ef11b136ea224fe,,,,,,,,,3660,-43,-61.5,1,0,0,response5disk,,3,-6,-4.5,1,0,0,rectangle,-6,-4.5,1,0,0,-6,-4.5,1,0,0,1,73,233,83,1,,,,,,,,
,,,,,,,,,,,,,FF,,,,,,,,0.634,,,,,,,,,,,,,,,,,,,,,,61036102a3f05e2ef6e4e3c6,61036b00debbc760859cd3b8,2021-07-29_23h00.09.350,Simcolourproject_2stim_asymm_v5,2020.2.10,Win32,60,61025ae37ef11b136ea224fe,,,,,,,,,2983,47,-14.5,1,0,0,response3disk,,5,3,-2.5,1,0,0,rectangle,3,-2.5,1,0,0,3,-2.5,1,0,0,1,74,234,0,1,,,,,,,,
,,,,,,,,,,,,,FF,,,,,,,,1.1,,,,,,,,,,,,,,,,,,,,,,61036102a3f05e2ef6e4e3c6,61036b00debbc760859cd3b8,2021-07-29_23h00.09.350,Simcolourproject_2stim_asymm_v5,2020.2.10,Win32,60,61025ae37ef11b136ea224fe,,,,,,,,,3080,38,31.5,1,0,0,response1disk,,6,-15,-4.5,1,0,0,rectangle,-15,-4.5,1,0,0,-15,-4.5,1,0,0,1,75,235,30,1,,,,,,,,
,,,,,,,,,,,,,FF,,,,,,,,0.899,,,,,,,,,,,,,,,,,,,,,,61036102a3f05e2ef6e4e3c6,61036b00debbc760859cd3b8,2021-07-29_23h00.09.350,Simcolourproject_2stim_asymm_v5,2020.2.10,Win32,60,61025ae37ef11b136ea224fe,,,,,,,,,4311,41,-51.5,1,0,0,response3disk,,4,3,-7.5,1,0,0,rectangle,3,-7.5,1,0,0,3,-7.5,1,0,0,1,76,236,92,1,,,,,,,,
,,,,,,,,,,,,,FF,,,,,,,,0.867,,,,,,,,,,,,,,,,,,,,,,61036102a3f05e2ef6e4e3c6,61036b00debbc760859cd3b8,2021-07-29_23h00.09.350,Simcolourproject_2stim_asymm_v5,2020.2.10,Win32,60,61025ae37ef11b136ea224fe,,,,,,,,,1776,-23,-38.5,1,0,0,response5disk,,3,-3,-6.5,1,0,0,rectangle,-3,-6.5,1,0,0,-3,-6.5,1,0,0,1,77,237,105,1,,,,,,,,
,,,,,,,,,,,,,FF,,,,,,,,0.983,,,,,,,,,,,,,,,,,,,,,,61036102a3f05e2ef6e4e3c6,61036b00debbc760859cd3b8,2021-07-29_23h00.09.350,Simcolourproject_2stim_asymm_v5,2020.2.10,Win32,60,61025ae37ef11b136ea224fe,,,,,,,,,1504,32,51.5,1,0,0,response1disk,,7,-5,-1.5,1,0,0,rectangle,-5,-1.5,1,0,0,-5,-1.5,1,0,0,1,78,238,34,1,,,,,,,,
,,,,,,,,,,,,,FF,,,,,,,,0.7,,,,,,,,,,,,,,,,,,,,,,61036102a3f05e2ef6e4e3c6,61036b00debbc760859cd3b8,2021-07-29_23h00.09.350,Simcolourproject_2stim_asymm_v5,2020.2.10,Win32,60,61025ae37ef11b136ea224fe,,,,,,,,,858,56,23.5,1,0,0,response1disk,,6,20,4.5,1,0,0,rectangle,20,4.5,1,0,0,20,4.5,1,0,0,1,79,239,128,1,,,,,,,,
,,,,,,,,,,,,,FF,,,,,,,,0.633,,,,,,,,,,,,,,,,,,,,,,61036102a3f05e2ef6e4e3c6,61036b00debbc760859cd3b8,2021-07-29_23h00.09.350,Simcolourproject_2stim_asymm_v5,2020.2.10,Win32,60,61025ae37ef11b136ea224fe,,,,,,,,,148,46,-24.5,1,0,0,response3disk,,5,16,-8.5,1,0,0,rectangle,16,-8.5,1,0,0,16,-8.5,1,0,0,1,80,240,134,1,,,,,,,,
,,,,,,,,,,,,,FF,,,,,,,,0.383,,,,,,,,,,,,,,,,,,,,,,61036102a3f05e2ef6e4e3c6,61036b00debbc760859cd3b8,2021-07-29_23h00.09.350,Simcolourproject_2stim_asymm_v5,2020.2.10,Win32,60,61025ae37ef11b136ea224fe,,,,,,,,,1658,28,-35.5,1,0,0,response3disk,,4,5,-6.5,1,0,0,rectangle,5,-6.5,1,0,0,5,-6.5,1,0,0,1,81,241,137,1,,,,,,,,
,,,,,,,,,,,,,FF,,,,,,,,0.632,,,,,,,,,,,,,,,,,,,,,,61036102a3f05e2ef6e4e3c6,61036b00debbc760859cd3b8,2021-07-29_23h00.09.350,Simcolourproject_2stim_asymm_v5,2020.2.10,Win32,60,61025ae37ef11b136ea224fe,,,,,,,,,3494,51,-20.5,1,0,0,response3disk,,5,25,-5.5,1,0,0,rectangle,25,-5.5,1,0,0,25,-5.5,1,0,0,1,82,242,111,1,,,,,,,,
,,,,,,,,,,,,,FF,,,,,,,,0.601,,,,,,,,,,,,,,,,,,,,,,61036102a3f05e2ef6e4e3c6,61036b00debbc760859cd3b8,2021-07-29_23h00.09.350,Simcolourproject_2stim_asymm_v5,2020.2.10,Win32,60,61025ae37ef11b136ea224fe,,,,,,,,,109,57,-25.5,1,0,0,response3disk,,5,-3,2.5,1,0,0,rectangle,-3,2.5,1,0,0,-3,2.5,1,0,0,1,83,243,89,1,,,,,,,,
,,,,,,,,,,,,,FF,,,,,,,,0.65,,,,,,,,,,,,,,,,,,,,,,61036102a3f05e2ef6e4e3c6,61036b00debbc760859cd3b8,2021-07-29_23h00.09.350,Simcolourproject_2stim_asymm_v5,2020.2.10,Win32,60,61025ae37ef11b136ea224fe,,,,,,,,,3891,79,40.5,1,0,0,response1disk,,6,5,1.5,1,0,0,rectangle,5,1.5,1,0,0,5,1.5,1,0,0,1,84,244,50,1,,,,,,,,
,,,,,,,,,,,,,FF,,,,,,,,0.701,,,,,,,,,,,,,,,,,,,,,,61036102a3f05e2ef6e4e3c6,61036b00debbc760859cd3b8,2021-07-29_23h00.09.350,Simcolourproject_2stim_asymm_v5,2020.2.10,Win32,60,61025ae37ef11b136ea224fe,,,,,,,,,1707,26,39.5,1,0,0,response1disk,,7,1,10.5,1,0,0,rectangle,1,10.5,1,0,0,1,10.5,1,0,0,1,85,245,21,1,,,,,,,,
,,,,,,,,,,,,,FF,,,,,,,,1.283,,,,,,,,,,,,,,,,,,,,,,61036102a3f05e2ef6e4e3c6,61036b00debbc760859cd3b8,2021-07-29_23h00.09.350,Simcolourproject_2stim_asymm_v5,2020.2.10,Win32,60,61025ae37ef11b136ea224fe,,,,,,,,,1916,-28,-39.5,1,0,0,response5disk,,3,1,-8.5,1,0,0,rectangle,1,-8.5,1,0,0,1,-8.5,1,0,0,1,86,246,127,1,,,,,,,,
,,,,,,,,,,,,,FF,,,,,,,,2.483,,,,,,,,,,,,,,,,,,,,,,61036102a3f05e2ef6e4e3c6,61036b00debbc760859cd3b8,2021-07-29_23h00.09.350,Simcolourproject_2stim_asymm_v5,2020.2.10,Win32,60,61025ae37ef11b136ea224fe,,,,,,,,,4086,-80,-48.5,1,0,0,response5disk,,2,-3,3.5,1,0,0,rectangle,-3,3.5,1,0,0,-3,3.5,1,0,0,1,87,247,36,1,,,,,,,,
,,,,,,,,,,,,,FF,,,,,,,,1.533,,,,,,,,,,,,,,,,,,,,,,61036102a3f05e2ef6e4e3c6,61036b00debbc760859cd3b8,2021-07-29_23h00.09.350,Simcolourproject_2stim_asymm_v5,2020.2.10,Win32,60,61025ae37ef11b136ea224fe,,,,,,,,,207,52,-25.5,1,0,0,response3disk,,5,5,-8.5,1,0,0,rectangle,5,-8.5,1,0,0,5,-8.5,1,0,0,1,88,248,31,1,,,,,,,,
,,,,,,,,,,,,,FF,,,,,,,,0.617,,,,,,,,,,,,,,,,,,,,,,61036102a3f05e2ef6e4e3c6,61036b00debbc760859cd3b8,2021-07-29_23h00.09.350,Simcolourproject_2stim_asymm_v5,2020.2.10,Win32,60,61025ae37ef11b136ea224fe,,,,,,,,,1689,63,30.5,1,0,0,response1disk,,6,1,-1.5,1,0,0,rectangle,1,-1.5,1,0,0,1,-1.5,1,0,0,1,89,249,100,1,,,,,,,,
,,,,,,,,,,,,,FF,,,,,,,,0.517,,,,,,,,,,,,,,,,,,,,,,61036102a3f05e2ef6e4e3c6,61036b00debbc760859cd3b8,2021-07-29_23h00.09.350,Simcolourproject_2stim_asymm_v5,2020.2.10,Win32,60,61025ae37ef11b136ea224fe,,,,,,,,,618,35,65.5,1,0,0,response1disk,,7,-6,-1.5,1,0,0,rectangle,-6,-1.5,1,0,0,-6,-1.5,1,0,0,1,90,250,44,1,,,,,,,,
,,,,,,,,,,,,,FF,,,,,,,,0.717,,,,,,,,,,,,,,,,,,,,,,61036102a3f05e2ef6e4e3c6,61036b00debbc760859cd3b8,2021-07-29_23h00.09.350,Simcolourproject_2stim_asymm_v5,2020.2.10,Win32,60,61025ae37ef11b136ea224fe,,,,,,,,,3131,45,-34.5,1,0,0,response3disk,,5,-25,-3.5,1,0,0,rectangle,-67,37.5,1,0,0,-2,7.5,1,0,0,1,91,251,140,1,,response7disk_3,TRUE,1,1,"[292,263,123,298,188,68,226,252,127,303,202,194,64,200,148,200,124,203,125,112]",1.484,rectangle
,,,,,,,,,,,,,FF,,,,,,,,0.685,,,,,,,,,,,,,,,,,,,,,,61036102a3f05e2ef6e4e3c6,61036b00debbc760859cd3b8,2021-07-29_23h00.09.350,Simcolourproject_2stim_asymm_v5,2020.2.10,Win32,60,61025ae37ef11b136ea224fe,,,,,,,,,233,38,-28.5,1,0,0,response3disk,,5,-12,-6.5,1,0,0,rectangle,-12,-6.5,1,0,0,-12,-6.5,1,0,0,1,92,252,121,1,,,,,,,,
,,,,,,,,,,,,,FF,,,,,,,,1.35,,,,,,,,,,,,,,,,,,,,,,61036102a3f05e2ef6e4e3c6,61036b00debbc760859cd3b8,2021-07-29_23h00.09.350,Simcolourproject_2stim_asymm_v5,2020.2.10,Win32,60,61025ae37ef11b136ea224fe,,,,,,,,,1109,35,67.5,1,0,0,response1disk,,7,-5,-8.5,1,0,0,rectangle,-5,-8.5,1,0,0,-5,-8.5,1,0,0,1,93,253,87,1,,,,,,,,
,,,,,,,,,,,,,FF,,,,,,,,0.7,,,,,,,,,,,,,,,,,,,,,,61036102a3f05e2ef6e4e3c6,61036b00debbc760859cd3b8,2021-07-29_23h00.09.350,Simcolourproject_2stim_asymm_v5,2020.2.10,Win32,60,61025ae37ef11b136ea224fe,,,,,,,,,3495,24,-40.5,1,0,0,response3disk,,4,3,-7.5,1,0,0,rectangle,3,-7.5,1,0,0,3,-7.5,1,0,0,1,94,254,124,1,,,,,,,,
,,,,,,,,,,,,,FF,,,,,,,,0.75,,,,,,,,,,,,,,,,,,,,,,61036102a3f05e2ef6e4e3c6,61036b00debbc760859cd3b8,2021-07-29_23h00.09.350,Simcolourproject_2stim_asymm_v5,2020.2.10,Win32,60,61025ae37ef11b136ea224fe,,,,,,,,,678,75,25.5,1,0,0,response1disk,,6,17,9.5,1,0,0,rectangle,17,9.5,1,0,0,17,9.5,1,0,0,1,95,255,39,1,,,,,,,,
,,,,,,,,,,,,,FF,,,,,,,,1.066,,,,,,,,,,,,,,,,,,,,,,61036102a3f05e2ef6e4e3c6,61036b00debbc760859cd3b8,2021-07-29_23h00.09.350,Simcolourproject_2stim_asymm_v5,2020.2.10,Win32,60,61025ae37ef11b136ea224fe,,,,,,,,,1726,19,-40.5,1,0,0,response3disk,,4,-9,-8.5,1,0,0,rectangle,-9,-8.5,1,0,0,-9,-8.5,1,0,0,1,96,256,104,1,,,,,,,,
,,,,,,,,,,,,,FF,,,,,,,,0.916,,,,,,,,,,,,,,,,,,,,,,61036102a3f05e2ef6e4e3c6,61036b00debbc760859cd3b8,2021-07-29_23h00.09.350,Simcolourproject_2stim_asymm_v5,2020.2.10,Win32,60,61025ae37ef11b136ea224fe,,,,,,,,,1568,46,-20.5,1,0,0,response3disk,,5,0,-6.5,1,0,0,rectangle,0,-6.5,1,0,0,0,-6.5,1,0,0,1,97,257,2,1,,,,,,,,
,,,,,,,,,,,,,FF,,,,,,,,0.916,,,,,,,,,,,,,,,,,,,,,,61036102a3f05e2ef6e4e3c6,61036b00debbc760859cd3b8,2021-07-29_23h00.09.350,Simcolourproject_2stim_asymm_v5,2020.2.10,Win32,60,61025ae37ef11b136ea224fe,,,,,,,,,1914,-17,-34.5,1,0,0,response5disk,,3,19,-5.5,1,0,0,rectangle,19,-5.5,1,0,0,19,-5.5,1,0,0,1,98,258,125,1,,,,,,,,
,,,,,,,,,,,,,FF,,,,,,,,1.2,,,,,,,,,,,,,,,,,,,,,,61036102a3f05e2ef6e4e3c6,61036b00debbc760859cd3b8,2021-07-29_23h00.09.350,Simcolourproject_2stim_asymm_v5,2020.2.10,Win32,60,61025ae37ef11b136ea224fe,,,,,,,,,2976,35,21.5,1,0,0,response1disk,,6,-4,3.5,1,0,0,rectangle,-4,3.5,1,0,0,-4,3.5,1,0,0,1,99,259,13,1,,,,,,,,
,,,,,,,,,,,,,FF,,,,,,,,0.683,,,,,,,,,,,,,,,,,,,,,,61036102a3f05e2ef6e4e3c6,61036b00debbc760859cd3b8,2021-07-29_23h00.09.350,Simcolourproject_2stim_asymm_v5,2020.2.10,Win32,60,61025ae37ef11b136ea224fe,,,,,,,,,4213,37,45.5,1,0,0,response1disk,,7,8,10.5,1,0,0,rectangle,8,10.5,1,0,0,8,10.5,1,0,0,1,100,260,115,1,,,,,,,,
,,,,,,,,,,,,,FF,,,,,,,,1.6,,,,,,,,,,,,,,,,,,,,,,61036102a3f05e2ef6e4e3c6,61036b00debbc760859cd3b8,2021-07-29_23h00.09.350,Simcolourproject_2stim_asymm_v5,2020.2.10,Win32,60,61025ae37ef11b136ea224fe,,,,,,,,,3772,93,-20.5,1,0,0,response3disk,,5,11,-4.5,1,0,0,rectangle,11,-4.5,1,0,0,11,-4.5,1,0,0,1,101,261,24,1,,,,,,,,
,,,,,,,,,,,,,FF,,,,,,,,0.684,,,,,,,,,,,,,,,,,,,,,,61036102a3f05e2ef6e4e3c6,61036b00debbc760859cd3b8,2021-07-29_23h00.09.350,Simcolourproject_2stim_asymm_v5,2020.2.10,Win32,60,61025ae37ef11b136ea224fe,,,,,,,,,518,69,45.5,1,0,0,response1disk,,6,5,6.5,1,0,0,rectangle,23,87.5,1,0,0,3,9.5,1,0,0,1,102,262,55,1,,response1disk_3,TRUE,7,7,"[292,263,123,298,188,68,226,252,127,303,202,194,64,200,148,200,124,203,125,112]",1.449,rectangle
,,,,,,,,,,,,,FF,,,,,,,,0.667,,,,,,,,,,,,,,,,,,,,,,61036102a3f05e2ef6e4e3c6,61036b00debbc760859cd3b8,2021-07-29_23h00.09.350,Simcolourproject_2stim_asymm_v5,2020.2.10,Win32,60,61025ae37ef11b136ea224fe,,,,,,,,,4193,37,-26.5,1,0,0,response3disk,,5,-5,-5.5,1,0,0,rectangle,-5,-5.5,1,0,0,-5,-5.5,1,0,0,1,103,263,12,1,,,,,,,,
,,,,,,,,,,,,,FF,,,,,,,,0.849,,,,,,,,,,,,,,,,,,,,,,61036102a3f05e2ef6e4e3c6,61036b00debbc760859cd3b8,2021-07-29_23h00.09.350,Simcolourproject_2stim_asymm_v5,2020.2.10,Win32,60,61025ae37ef11b136ea224fe,,,,,,,,,3778,-66,-34.5,1,0,0,response5disk,,2,-17,-1.5,1,0,0,rectangle,-17,-1.5,1,0,0,-17,-1.5,1,0,0,1,104,264,131,1,,,,,,,,
,,,,,,,,,,,,,FF,,,,,,,,0.766,,,,,,,,,,,,,,,,,,,,,,61036102a3f05e2ef6e4e3c6,61036b00debbc760859cd3b8,2021-07-29_23h00.09.350,Simcolourproject_2stim_asymm_v5,2020.2.10,Win32,60,61025ae37ef11b136ea224fe,,,,,,,,,3282,53,-22.5,1,0,0,response3disk,,5,9,-0.5,1,0,0,rectangle,9,-0.5,1,0,0,9,-0.5,1,0,0,1,105,265,84,1,,,,,,,,
,,,,,,,,,,,,,FF,,,,,,,,0.984,,,,,,,,,,,,,,,,,,,,,,61036102a3f05e2ef6e4e3c6,61036b00debbc760859cd3b8,2021-07-29_23h00.09.350,Simcolourproject_2stim_asymm_v5,2020.2.10,Win32,60,61025ae37ef11b136ea224fe,,,,,,,,,1972,-47,21.5,1,0,0,response7disk,,1,1,0.5,1,0,0,rectangle,1,0.5,1,0,0,1,0.5,1,0,0,1,106,266,96,1,,,,,,,,
,,,,,,,,,,,,,FF,,,,,,,,0.916,,,,,,,,,,,,,,,,,,,,,,61036102a3f05e2ef6e4e3c6,61036b00debbc760859cd3b8,2021-07-29_23h00.09.350,Simcolourproject_2stim_asymm_v5,2020.2.10,Win32,60,61025ae37ef11b136ea224fe,,,,,,,,,1877,35,102.5,1,0,0,response1disk,,7,6,8.5,1,0,0,rectangle,6,8.5,1,0,0,6,8.5,1,0,0,1,107,267,117,1,,,,,,,,
,,,,,,,,,,,,,FF,,,,,,,,0.667,,,,,,,,,,,,,,,,,,,,,,61036102a3f05e2ef6e4e3c6,61036b00debbc760859cd3b8,2021-07-29_23h00.09.350,Simcolourproject_2stim_asymm_v5,2020.2.10,Win32,60,61025ae37ef11b136ea224fe,,,,,,,,,3617,67,33.5,1,0,0,response1disk,,6,-3,-7.5,1,0,0,rectangle,-3,-7.5,1,0,0,-3,-7.5,1,0,0,1,108,268,3,1,,,,,,,,
,,,,,,,,,,,,,FF,,,,,,,,0.683,,,,,,,,,,,,,,,,,,,,,,61036102a3f05e2ef6e4e3c6,61036b00debbc760859cd3b8,2021-07-29_23h00.09.350,Simcolourproject_2stim_asymm_v5,2020.2.10,Win32,60,61025ae37ef11b136ea224fe,,,,,,,,,1029,49,-43.5,1,0,0,response3disk,,5,-15,3.5,1,0,0,rectangle,-15,3.5,1,0,0,-15,3.5,1,0,0,1,109,269,40,1,,,,,,,,
,,,,,,,,,,,,,FF,,,,,,,,1.117,,,,,,,,,,,,,,,,,,,,,,61036102a3f05e2ef6e4e3c6,61036b00debbc760859cd3b8,2021-07-29_23h00.09.350,Simcolourproject_2stim_asymm_v5,2020.2.10,Win32,60,61025ae37ef11b136ea224fe,,,,,,,,,1457,-60,-25.5,1,0,0,response5disk,,2,-13,2.5,1,0,0,rectangle,-13,2.5,1,0,0,-13,2.5,1,0,0,1,110,270,8,1,,,,,,,,
,,,,,,,,,,,,,FF,,,,,,,,1.432,,,,,,,,,,,,,,,,,,,,,,61036102a3f05e2ef6e4e3c6,61036b00debbc760859cd3b8,2021-07-29_23h00.09.350,Simcolourproject_2stim_asymm_v5,2020.2.10,Win32,60,61025ae37ef11b136ea224fe,,,,,,,,,2918,93,34.5,1,0,0,response1disk,,6,25,5.5,1,0,0,rectangle,25,5.5,1,0,0,25,5.5,1,0,0,1,111,271,76,1,,,,,,,,
,,,,,,,,,,,,,FF,,,,,,,,1.266,,,,,,,,,,,,,,,,,,,,,,61036102a3f05e2ef6e4e3c6,61036b00debbc760859cd3b8,2021-07-29_23h00.09.350,Simcolourproject_2stim_asymm_v5,2020.2.10,Win32,60,61025ae37ef11b136ea224fe,,,,,,,,,3097,-66,30.5,1,0,0,response7disk,,1,-11,3.5,1,0,0,rectangle,-11,3.5,1,0,0,-11,3.5,1,0,0,1,112,272,130,1,,,,,,,,
,,,,,,,,,,,,,FF,,,,,,,,1.034,,,,,,,,,,,,,,,,,,,,,,61036102a3f05e2ef6e4e3c6,61036b00debbc760859cd3b8,2021-07-29_23h00.09.350,Simcolourproject_2stim_asymm_v5,2020.2.10,Win32,60,61025ae37ef11b136ea224fe,,,,,,,,,3749,-41,35.5,1,0,0,response7disk,,1,-7,7.5,1,0,0,rectangle,-7,7.5,1,0,0,-7,7.5,1,0,0,1,113,273,47,1,,,,,,,,
,,,,,,,,,,,,,FF,,,,,,,,1.417,,,,,,,,,,,,,,,,,,,,,,61036102a3f05e2ef6e4e3c6,61036b00debbc760859cd3b8,2021-07-29_23h00.09.350,Simcolourproject_2stim_asymm_v5,2020.2.10,Win32,60,61025ae37ef11b136ea224fe,,,,,,,,,1348,65,-40.5,1,0,0,response3disk,,5,-11,-4.5,1,0,0,rectangle,-11,-4.5,1,0,0,-11,-4.5,1,0,0,1,114,274,53,1,,,,,,,,
,,,,,,,,,,,,,FF,,,,,,,,0.649,,,,,,,,,,,,,,,,,,,,,,61036102a3f05e2ef6e4e3c6,61036b00debbc760859cd3b8,2021-07-29_23h00.09.350,Simcolourproject_2stim_asymm_v5,2020.2.10,Win32,60,61025ae37ef11b136ea224fe,,,,,,,,,2188,51,47.5,1,0,0,response1disk,,6,-4,-2.5,1,0,0,rectangle,-4,-2.5,1,0,0,-4,-2.5,1,0,0,1,115,275,64,1,,,,,,,,
,,,,,,,,,,,,,FF,,,,,,,,0.767,,,,,,,,,,,,,,,,,,,,,,61036102a3f05e2ef6e4e3c6,61036b00debbc760859cd3b8,2021-07-29_23h00.09.350,Simcolourproject_2stim_asymm_v5,2020.2.10,Win32,60,61025ae37ef11b136ea224fe,,,,,,,,,1007,43,29.5,1,0,0,response1disk,,6,1,-6.5,1,0,0,rectangle,1,-6.5,1,0,0,1,-6.5,1,0,0,1,116,276,42,1,,,,,,,,
,,,,,,,,,,,,,FF,,,,,,,,1.233,,,,,,,,,,,,,,,,,,,,,,61036102a3f05e2ef6e4e3c6,61036b00debbc760859cd3b8,2021-07-29_23h00.09.350,Simcolourproject_2stim_asymm_v5,2020.2.10,Win32,60,61025ae37ef11b136ea224fe,,,,,,,,,3965,-42,46.5,1,0,0,response7disk,,0,-4,2.5,1,0,0,rectangle,-4,2.5,1,0,0,-4,2.5,1,0,0,1,117,277,150,1,,,,,,,,
,,,,,,,,,,,,,FF,,,,,,,,0.8,,,,,,,,,,,,,,,,,,,,,,61036102a3f05e2ef6e4e3c6,61036b00debbc760859cd3b8,2021-07-29_23h00.09.350,Simcolourproject_2stim_asymm_v5,2020.2.10,Win32,60,61025ae37ef11b136ea224fe,,,,,,,,,4098,-55,-25.5,1,0,0,response5disk,,2,-15,3.5,1,0,0,rectangle,-15,3.5,1,0,0,-15,3.5,1,0,0,1,118,278,113,1,,,,,,,,
,,,,,,,,,,,,,FF,,,,,,,,0.8,,,,,,,,,,,,,,,,,,,,,,61036102a3f05e2ef6e4e3c6,61036b00debbc760859cd3b8,2021-07-29_23h00.09.350,Simcolourproject_2stim_asymm_v5,2020.2.10,Win32,60,61025ae37ef11b136ea224fe,,,,,,,,,4118,-36,107.5,1,0,0,response7disk,,0,-3,-1.5,1,0,0,rectangle,-3,-1.5,1,0,0,-3,-1.5,1,0,0,1,119,279,136,1,,,,,,,,
,,,,,,,,,,,,,FF,,,,,,,,0.933,,,,,,,,,,,,,,,,,,,,,,61036102a3f05e2ef6e4e3c6,61036b00debbc760859cd3b8,2021-07-29_23h00.09.350,Simcolourproject_2stim_asymm_v5,2020.2.10,Win32,60,61025ae37ef11b136ea224fe,,,,,,,,,2889,-51,-26.5,1,0,0,response5disk,,2,13,8.5,1,0,0,rectangle,13,8.5,1,0,0,13,8.5,1,0,0,1,120,280,28,1,,,,,,,,
,,,,,,,,,,,,,FF,,,,,,,,1.067,,,,,,,,,,,,,,,,,,,,,,61036102a3f05e2ef6e4e3c6,61036b00debbc760859cd3b8,2021-07-29_23h00.09.350,Simcolourproject_2stim_asymm_v5,2020.2.10,Win32,60,61025ae37ef11b136ea224fe,,,,,,,,,2636,20,-42.5,1,0,0,response3disk,,4,-6,-6.5,1,0,0,rectangle,-6,-6.5,1,0,0,-6,-6.5,1,0,0,1,121,281,122,1,,,,,,,,
,,,,,,,,,,,,,FF,,,,,,,,0.7,,,,,,,,,,,,,,,,,,,,,,61036102a3f05e2ef6e4e3c6,61036b00debbc760859cd3b8,2021-07-29_23h00.09.350,Simcolourproject_2stim_asymm_v5,2020.2.10,Win32,60,61025ae37ef11b136ea224fe,,,,,,,,,4350,-25,37.5,1,0,0,response7disk,,0,-5,1.5,1,0,0,rectangle,-5,1.5,1,0,0,-5,1.5,1,0,0,1,122,282,81,1,,,,,,,,
,,,,,,,,,,,,,FF,,,,,,,,0.732,,,,,,,,,,,,,,,,,,,,,,61036102a3f05e2ef6e4e3c6,61036b00debbc760859cd3b8,2021-07-29_23h00.09.350,Simcolourproject_2stim_asymm_v5,2020.2.10,Win32,60,61025ae37ef11b136ea224fe,,,,,,,,,3610,59,-20.5,1,0,0,response3disk,,5,7,1.5,1,0,0,rectangle,7,1.5,1,0,0,7,1.5,1,0,0,1,123,283,54,1,,,,,,,,
,,,,,,,,,,,,,FF,,,,,,,,0.867,,,,,,,,,,,,,,,,,,,,,,61036102a3f05e2ef6e4e3c6,61036b00debbc760859cd3b8,2021-07-29_23h00.09.350,Simcolourproject_2stim_asymm_v5,2020.2.10,Win32,60,61025ae37ef11b136ea224fe,,,,,,,,,2023,70,36.5,1,0,0,response1disk,,6,10,1.5,1,0,0,rectangle,10,1.5,1,0,0,10,1.5,1,0,0,1,124,284,59,1,,,,,,,,
,,,,,,,,,,,,,FF,,,,,,,,0.584,,,,,,,,,,,,,,,,,,,,,,61036102a3f05e2ef6e4e3c6,61036b00debbc760859cd3b8,2021-07-29_23h00.09.350,Simcolourproject_2stim_asymm_v5,2020.2.10,Win32,60,61025ae37ef11b136ea224fe,,,,,,,,,437,49,-48.5,1,0,0,response3disk,,5,-16,4.5,1,0,0,rectangle,-16,4.5,1,0,0,-16,4.5,1,0,0,1,125,285,103,1,,,,,,,,
,,,,,,,,,,,,,FF,,,,,,,,0.717,,,,,,,,,,,,,,,,,,,,,,61036102a3f05e2ef6e4e3c6,61036b00debbc760859cd3b8,2021-07-29_23h00.09.350,Simcolourproject_2stim_asymm_v5,2020.2.10,Win32,60,61025ae37ef11b136ea224fe,,,,,,,,,2129,53,-30.5,1,0,0,response3disk,,5,10,-4.5,1,0,0,rectangle,10,-4.5,1,0,0,10,-4.5,1,0,0,1,126,286,65,1,,,,,,,,
,,,,,,,,,,,,,FF,,,,,,,,0.783,,,,,,,,,,,,,,,,,,,,,,61036102a3f05e2ef6e4e3c6,61036b00debbc760859cd3b8,2021-07-29_23h00.09.350,Simcolourproject_2stim_asymm_v5,2020.2.10,Win32,60,61025ae37ef11b136ea224fe,,,,,,,,,3458,76,106.5,1,0,0,response1disk,,7,-1,-2.5,1,0,0,rectangle,-1,-2.5,1,0,0,-1,-2.5,1,0,0,1,127,287,14,1,,,,,,,,
,,,,,,,,,,,,,FF,,,,,,,,0.734,,,,,,,,,,,,,,,,,,,,,,61036102a3f05e2ef6e4e3c6,61036b00debbc760859cd3b8,2021-07-29_23h00.09.350,Simcolourproject_2stim_asymm_v5,2020.2.10,Win32,60,61025ae37ef11b136ea224fe,,,,,,,,,3522,-49,-55.5,1,0,0,response5disk,,3,-17,-6.5,1,0,0,rectangle,-17,-6.5,1,0,0,-17,-6.5,1,0,0,1,128,288,118,1,,,,,,,,
,,,,,,,,,,,,,FF,,,,,,,,0.7,,,,,,,,,,,,,,,,,,,,,,61036102a3f05e2ef6e4e3c6,61036b00debbc760859cd3b8,2021-07-29_23h00.09.350,Simcolourproject_2stim_asymm_v5,2020.2.10,Win32,60,61025ae37ef11b136ea224fe,,,,,,,,,786,54,-61.5,1,0,0,response3disk,,4,4,-8.5,1,0,0,rectangle,4,-8.5,1,0,0,4,-8.5,1,0,0,1,129,289,32,1,,,,,,,,
,,,,,,,,,,,,,FF,,,,,,,,0.649,,,,,,,,,,,,,,,,,,,,,,61036102a3f05e2ef6e4e3c6,61036b00debbc760859cd3b8,2021-07-29_23h00.09.350,Simcolourproject_2stim_asymm_v5,2020.2.10,Win32,60,61025ae37ef11b136ea224fe,,,,,,,,,1686,49,15.5,1,0,0,response1disk,,6,-3,6.5,1,0,0,rectangle,-3,6.5,1,0,0,-3,6.5,1,0,0,1,130,290,48,1,,,,,,,,
,,,,,,,,,,,,,FF,,,,,,,,0.584,,,,,,,,,,,,,,,,,,,,,,61036102a3f05e2ef6e4e3c6,61036b00debbc760859cd3b8,2021-07-29_23h00.09.350,Simcolourproject_2stim_asymm_v5,2020.2.10,Win32,60,61025ae37ef11b136ea224fe,,,,,,,,,2965,31,-61.5,1,0,0,response3disk,,4,1,9.5,1,0,0,rectangle,25,77.5,1,0,0,-5,-0.5,1,0,0,1,131,291,78,1,,response1disk_3,TRUE,7,7,"[292,263,123,298,188,68,226,252,127,303,202,194,64,200,148,200,124,203,125,112]",1.565,rectangle
,,,,,,,,,,,,,FF,,,,,,,,0.682,,,,,,,,,,,,,,,,,,,,,,61036102a3f05e2ef6e4e3c6,61036b00debbc760859cd3b8,2021-07-29_23h00.09.350,Simcolourproject_2stim_asymm_v5,2020.2.10,Win32,60,61025ae37ef11b136ea224fe,,,,,,,,,1775,43,-39.5,1,0,0,response3disk,,5,2,-0.5,1,0,0,rectangle,2,-0.5,1,0,0,2,-0.5,1,0,0,1,132,292,11,1,,,,,,,,
,,,,,,,,,,,,,FF,,,,,,,,0.7,,,,,,,,,,,,,,,,,,,,,,61036102a3f05e2ef6e4e3c6,61036b00debbc760859cd3b8,2021-07-29_23h00.09.350,Simcolourproject_2stim_asymm_v5,2020.2.10,Win32,60,61025ae37ef11b136ea224fe,,,,,,,,,1786,-39,-46.5,1,0,0,response5disk,,3,-17,-0.5,1,0,0,rectangle,-17,-0.5,1,0,0,-17,-0.5,1,0,0,1,133,293,19,1,,,,,,,,
,,,,,,,,,,,,,FF,,,,,,,,0.599,,,,,,,,,,,,,,,,,,,,,,61036102a3f05e2ef6e4e3c6,61036b00debbc760859cd3b8,2021-07-29_23h00.09.350,Simcolourproject_2stim_asymm_v5,2020.2.10,Win32,60,61025ae37ef11b136ea224fe,,,,,,,,,774,45,-38.5,1,0,0,response3disk,,5,16,-10.5,1,0,0,rectangle,16,-10.5,1,0,0,16,-10.5,1,0,0,1,134,294,43,1,,,,,,,,
,,,,,,,,,,,,,FF,,,,,,,,0.467,,,,,,,,,,,,,,,,,,,,,,61036102a3f05e2ef6e4e3c6,61036b00debbc760859cd3b8,2021-07-29_23h00.09.350,Simcolourproject_2stim_asymm_v5,2020.2.10,Win32,60,61025ae37ef11b136ea224fe,,,,,,,,,110,54,27.5,1,0,0,response1disk,,6,14,2.5,1,0,0,rectangle,14,2.5,1,0,0,14,2.5,1,0,0,1,135,295,152,1,,,,,,,,
