key_resp.keys,key_resp.rt,key_resp_14.keys,key_resp_14.rt,key_resp_15.keys,key_resp_15.rt,key_resp_17.keys,key_resp_17.rt,key_resp_9.keys,key_resp_9.rt,key_resp_10.keys,key_resp_10.rt,practice_comparison,Ecc,mouse_5.x,mouse_5.y,mouse_5.leftButton,mouse_5.midButton,mouse_5.rightButton,mouse_5.clicked_name,pracsimilarity,response_time,mouse_10.x,mouse_10.y,mouse_10.leftButton,mouse_10.midButton,mouse_10.rightButton,mouse_10.clicked_name,mouse_7.x,mouse_7.y,mouse_7.leftButton,mouse_7.midButton,mouse_7.rightButton,mouse_6.x,mouse_6.y,mouse_6.leftButton,mouse_6.midButton,mouse_6.rightButton,duringprac.thisRepN,duringprac.thisTrialN,duringprac.thisN,duringprac.thisIndex,duringprac.ran,participant,session,date,expName,psychopyVersion,OS,frameRate,study_id,mouse_7.clicked_name,catchpracsimilarity,catch_response_time,catchnumberprac,catchtrialorderprac,mouse_6.clicked_name,key_resp_22.keys,key_resp_22.rt,realcomparison,mouse.x,mouse.y,mouse.leftButton,mouse.midButton,mouse.rightButton,mouse.clicked_name,Colour2,similarity,mouse_2.x,mouse_2.y,mouse_2.leftButton,mouse_2.midButton,mouse_2.rightButton,mouse_2.clicked_name,mouse_3.x,mouse_3.y,mouse_3.leftButton,mouse_3.midButton,mouse_3.rightButton,mouse_11.x,mouse_11.y,mouse_11.leftButton,mouse_11.midButton,mouse_11.rightButton,trials_2.thisRepN,trials_2.thisTrialN,trials_2.thisN,trials_2.thisIndex,trials_2.ran,Colour1,mouse_3.clicked_name,catchornah,catchsimilarity,catchnumber,catchtrialorder,catchRT,mouse_11.clicked_name
space,1.600975,space,7.060665,space,13.43768,space,1.60445,space,0.806095,space,2.93924,3,PF,87.203125,78.67578125,1,0,0,response1disk_5,6,7.304155,14.80078125,-1.96484375,1,0,0,rectangle_8,14.80078125,-1.96484375,1,0,0,14.80078125,-1.96484375,1,0,0,0,0,0,2,1,61035646f6f36bf75f71c354,610365e2f412eb22a7feccc9,2021-07-29_20h38.07.697,Simcolourproject_2stim_asymm_v5,2020.2.10,MacIntel,60,61025ae37ef11b136ea224fe,,,,,,,,,,,,,,,,,,,,,,,,,,,,,,,,,,,,,,,,,,,,,,
,,,,,,,,,,,,80,PF,110.9257813,43.39453125,1,0,0,response1disk_5,6,1.353495,-3.703125,-7.734375,1,0,0,rectangle_8,95.80859375,37.16796875,1,0,0,4.62890625,-1.640625,1,0,0,0,1,1,1,1,61035646f6f36bf75f71c354,610365e2f412eb22a7feccc9,2021-07-29_20h38.07.697,Simcolourproject_2stim_asymm_v5,2020.2.10,MacIntel,60,61025ae37ef11b136ea224fe,response1disk_7,6,2.12222,6,"[2,5]",rectangle_4,,,,,,,,,,,,,,,,,,,,,,,,,,,,,,,,,,,,,,,,
,,,,,,,,,,,,107,PF,54.0625,85.109375,1,0,0,response1disk_5,7,1.655255,5.31640625,1.73828125,1,0,0,rectangle_8,5.31640625,1.73828125,1,0,0,5.31640625,1.73828125,1,0,0,0,2,2,4,1,61035646f6f36bf75f71c354,610365e2f412eb22a7feccc9,2021-07-29_20h38.07.697,Simcolourproject_2stim_asymm_v5,2020.2.10,MacIntel,60,61025ae37ef11b136ea224fe,,,,,,,,,,,,,,,,,,,,,,,,,,,,,,,,,,,,,,,,,,,,,,
,,,,,,,,,,,,43,FF,126.6171875,39.09765625,1,0,0,response1disk_5,6,1.588335,5.40625,1.05859375,1,0,0,rectangle_8,5.40625,1.05859375,1,0,0,5.40625,1.05859375,1,0,0,0,3,3,5,1,61035646f6f36bf75f71c354,610365e2f412eb22a7feccc9,2021-07-29_20h38.07.697,Simcolourproject_2stim_asymm_v5,2020.2.10,MacIntel,60,61025ae37ef11b136ea224fe,,,,,,,,,,,,,,,,,,,,,,,,,,,,,,,,,,,,,,,,,,,,,,
,,,,,,,,,,,,13,FF,89.75,-33.69140625,1,0,0,response3disk_5,5,1.537935,-4.0703125,1.5,1,0,0,rectangle_8,88.70703125,36.30859375,1,0,0,4.0546875,-4.08984375,1,0,0,0,4,4,0,1,61035646f6f36bf75f71c354,610365e2f412eb22a7feccc9,2021-07-29_20h38.07.697,Simcolourproject_2stim_asymm_v5,2020.2.10,MacIntel,60,61025ae37ef11b136ea224fe,response1disk_7,6,2.492315,6,"[2,5]",rectangle_4,,,,,,,,,,,,,,,,,,,,,,,,,,,,,,,,,,,,,,,,
,,,,,,,,,,,,23,FF,58.74609375,-71.23828125,1,0,0,response3disk_5,4,4.176415,-0.2578125,1.84765625,1,0,0,rectangle_8,-0.2578125,1.84765625,1,0,0,-0.2578125,1.84765625,1,0,0,0,5,5,3,1,61035646f6f36bf75f71c354,610365e2f412eb22a7feccc9,2021-07-29_20h38.07.697,Simcolourproject_2stim_asymm_v5,2020.2.10,MacIntel,60,61025ae37ef11b136ea224fe,,,,,,,,,,,,,,,,,,,,,,,,,,,,,,,,,,,,,,,,,,,,,,
,,,,,,,,,,,,18,PF,97.1875,-48.875,1,0,0,response3disk_5,5,1.737875,2.78515625,0.69921875,1,0,0,rectangle_8,2.78515625,0.69921875,1,0,0,2.78515625,0.69921875,1,0,0,0,6,6,6,1,61035646f6f36bf75f71c354,610365e2f412eb22a7feccc9,2021-07-29_20h38.07.697,Simcolourproject_2stim_asymm_v5,2020.2.10,MacIntel,60,61025ae37ef11b136ea224fe,,,,,,,,,,,,,,,,,,,,,,,,,,,,,,,,,,,,,,,,,,,,,,
,,,,,,,,,,,,,FF,,,,,,,,2.473825,,,,,,,,,,,,,,,,,,,,,,61035646f6f36bf75f71c354,610365e2f412eb22a7feccc9,2021-07-29_20h38.07.697,Simcolourproject_2stim_asymm_v5,2020.2.10,MacIntel,60,61025ae37ef11b136ea224fe,,,,,,,space,2.28336,380,-30.9765625,-92,1,0,0,response5disk,,3,3.82421875,-2.5234375,1,0,0,rectangle,3.82421875,-2.5234375,1,0,0,3.82421875,-2.5234375,1,0,0,0,0,0,158,1,,,,,,,,
,,,,,,,,,,,,,FF,,,,,,,,2.15621,,,,,,,,,,,,,,,,,,,,,,61035646f6f36bf75f71c354,610365e2f412eb22a7feccc9,2021-07-29_20h38.07.697,Simcolourproject_2stim_asymm_v5,2020.2.10,MacIntel,60,61025ae37ef11b136ea224fe,,,,,,,,,2010,48.625,102.703125,1,0,0,response1disk,,7,1.62890625,-0.88671875,1,0,0,rectangle,1.62890625,-0.88671875,1,0,0,1.62890625,-0.88671875,1,0,0,0,1,1,34,1,,,,,,,,
,,,,,,,,,,,,,FF,,,,,,,,1.520325,,,,,,,,,,,,,,,,,,,,,,61035646f6f36bf75f71c354,610365e2f412eb22a7feccc9,2021-07-29_20h38.07.697,Simcolourproject_2stim_asymm_v5,2020.2.10,MacIntel,60,61025ae37ef11b136ea224fe,,,,,,,,,4155,113.90625,35.015625,1,0,0,response1disk,,6,-11.5390625,-10.98046875,1,0,0,rectangle,-11.5390625,-10.98046875,1,0,0,-11.5390625,-10.98046875,1,0,0,0,2,2,128,1,,,,,,,,
,,,,,,,,,,,,,FF,,,,,,,,2.190035,,,,,,,,,,,,,,,,,,,,,,61035646f6f36bf75f71c354,610365e2f412eb22a7feccc9,2021-07-29_20h38.07.697,Simcolourproject_2stim_asymm_v5,2020.2.10,MacIntel,60,61025ae37ef11b136ea224fe,,,,,,,,,3862,-40.515625,-74.7265625,1,0,0,response5disk,,3,5.69921875,1.37890625,1,0,0,rectangle,5.69921875,1.37890625,1,0,0,5.69921875,1.37890625,1,0,0,0,3,3,92,1,,,,,,,,
,,,,,,,,,,,,,FF,,,,,,,,2.08933,,,,,,,,,,,,,,,,,,,,,,61035646f6f36bf75f71c354,610365e2f412eb22a7feccc9,2021-07-29_20h38.07.697,Simcolourproject_2stim_asymm_v5,2020.2.10,MacIntel,60,61025ae37ef11b136ea224fe,,,,,,,,,2090,-94.765625,-31.09765625,1,0,0,response5disk,,2,5.98046875,4.95703125,1,0,0,rectangle,5.98046875,4.95703125,1,0,0,5.98046875,4.95703125,1,0,0,0,4,4,87,1,,,,,,,,
,,,,,,,,,,,,,FF,,,,,,,,0.902685,,,,,,,,,,,,,,,,,,,,,,61035646f6f36bf75f71c354,610365e2f412eb22a7feccc9,2021-07-29_20h38.07.697,Simcolourproject_2stim_asymm_v5,2020.2.10,MacIntel,60,61025ae37ef11b136ea224fe,,,,,,,,,678,66.84765625,74.2421875,1,0,0,response1disk,,7,-6.22265625,2.09765625,1,0,0,rectangle,-6.22265625,2.09765625,1,0,0,-6.22265625,2.09765625,1,0,0,0,5,5,122,1,,,,,,,,
,,,,,,,,,,,,,FF,,,,,,,,1.10369,,,,,,,,,,,,,,,,,,,,,,61035646f6f36bf75f71c354,610365e2f412eb22a7feccc9,2021-07-29_20h38.07.697,Simcolourproject_2stim_asymm_v5,2020.2.10,MacIntel,60,61025ae37ef11b136ea224fe,,,,,,,,,1415,36.1640625,56.890625,1,0,0,response1disk,,7,0.890625,1.66796875,1,0,0,rectangle,0.890625,1.66796875,1,0,0,0.890625,1.66796875,1,0,0,0,6,6,17,1,,,,,,,,
,,,,,,,,,,,,,FF,,,,,,,,0.834575,,,,,,,,,,,,,,,,,,,,,,61035646f6f36bf75f71c354,610365e2f412eb22a7feccc9,2021-07-29_20h38.07.697,Simcolourproject_2stim_asymm_v5,2020.2.10,MacIntel,60,61025ae37ef11b136ea224fe,,,,,,,,,3261,53.70703125,91.44921875,1,0,0,response1disk,,7,2.6328125,2.23828125,1,0,0,rectangle,2.6328125,2.23828125,1,0,0,2.6328125,2.23828125,1,0,0,0,7,7,90,1,,,,,,,,
,,,,,,,,,,,,,FF,,,,,,,,1.621725,,,,,,,,,,,,,,,,,,,,,,61035646f6f36bf75f71c354,610365e2f412eb22a7feccc9,2021-07-29_20h38.07.697,Simcolourproject_2stim_asymm_v5,2020.2.10,MacIntel,60,61025ae37ef11b136ea224fe,,,,,,,,,3045,-43.875,84.62890625,1,0,0,response7disk,,0,1.62109375,-2.43359375,1,0,0,rectangle,1.62109375,-2.43359375,1,0,0,1.62109375,-2.43359375,1,0,0,0,8,8,130,1,,,,,,,,
,,,,,,,,,,,,,FF,,,,,,,,1.05311,,,,,,,,,,,,,,,,,,,,,,61035646f6f36bf75f71c354,610365e2f412eb22a7feccc9,2021-07-29_20h38.07.697,Simcolourproject_2stim_asymm_v5,2020.2.10,MacIntel,60,61025ae37ef11b136ea224fe,,,,,,,,,3750,-90.06640625,-30.32421875,1,0,0,response5disk,,2,5.71875,-0.59375,1,0,0,rectangle,5.71875,-0.59375,1,0,0,5.71875,-0.59375,1,0,0,0,9,9,124,1,,,,,,,,
,,,,,,,,,,,,,FF,,,,,,,,1.52094,,,,,,,,,,,,,,,,,,,,,,61035646f6f36bf75f71c354,610365e2f412eb22a7feccc9,2021-07-29_20h38.07.697,Simcolourproject_2stim_asymm_v5,2020.2.10,MacIntel,60,61025ae37ef11b136ea224fe,,,,,,,,,3809,58.21484375,104.546875,1,0,0,response1disk,,7,-4.4453125,0.55078125,1,0,0,rectangle,-4.4453125,0.55078125,1,0,0,-4.4453125,0.55078125,1,0,0,0,10,10,24,1,,,,,,,,
,,,,,,,,,,,,,FF,,,,,,,,0.852465,,,,,,,,,,,,,,,,,,,,,,61035646f6f36bf75f71c354,610365e2f412eb22a7feccc9,2021-07-29_20h38.07.697,Simcolourproject_2stim_asymm_v5,2020.2.10,MacIntel,60,61025ae37ef11b136ea224fe,,,,,,,,,2949,41.08984375,70.21875,1,0,0,response1disk,,7,2.3828125,-4.06640625,1,0,0,rectangle,2.3828125,-4.06640625,1,0,0,2.3828125,-4.06640625,1,0,0,0,11,11,95,1,,,,,,,,
,,,,,,,,,,,,,FF,,,,,,,,1.07083,,,,,,,,,,,,,,,,,,,,,,61035646f6f36bf75f71c354,610365e2f412eb22a7feccc9,2021-07-29_20h38.07.697,Simcolourproject_2stim_asymm_v5,2020.2.10,MacIntel,60,61025ae37ef11b136ea224fe,,,,,,,,,22,44.3671875,-84.7109375,1,0,0,response3disk,,4,-3.3984375,-0.5546875,1,0,0,rectangle,-3.3984375,-0.5546875,1,0,0,-3.3984375,-0.5546875,1,0,0,0,12,12,51,1,,,,,,,,
,,,,,,,,,,,,,FF,,,,,,,,1.235795,,,,,,,,,,,,,,,,,,,,,,61035646f6f36bf75f71c354,610365e2f412eb22a7feccc9,2021-07-29_20h38.07.697,Simcolourproject_2stim_asymm_v5,2020.2.10,MacIntel,60,61025ae37ef11b136ea224fe,,,,,,,,,305,46.265625,-75.69140625,1,0,0,response3disk,,4,-3.3359375,7.890625,1,0,0,rectangle,-3.3359375,7.890625,1,0,0,-3.3359375,7.890625,1,0,0,0,13,13,58,1,,,,,,,,
,,,,,,,,,,,,,FF,,,,,,,,0.985675,,,,,,,,,,,,,,,,,,,,,,61035646f6f36bf75f71c354,610365e2f412eb22a7feccc9,2021-07-29_20h38.07.697,Simcolourproject_2stim_asymm_v5,2020.2.10,MacIntel,60,61025ae37ef11b136ea224fe,,,,,,,,,396,50.82421875,-72.54296875,1,0,0,response3disk,,4,-0.39453125,-5.66796875,1,0,0,rectangle,-0.39453125,-5.66796875,1,0,0,-0.39453125,-5.66796875,1,0,0,0,14,14,45,1,,,,,,,,
,,,,,,,,,,,,,FF,,,,,,,,0.8701,,,,,,,,,,,,,,,,,,,,,,61035646f6f36bf75f71c354,610365e2f412eb22a7feccc9,2021-07-29_20h38.07.697,Simcolourproject_2stim_asymm_v5,2020.2.10,MacIntel,60,61025ae37ef11b136ea224fe,,,,,,,,,2394,28.71484375,70.453125,1,0,0,response1disk,,7,3.546875,-0.6328125,1,0,0,rectangle,3.546875,-0.6328125,1,0,0,3.546875,-0.6328125,1,0,0,0,15,15,114,1,,,,,,,,
,,,,,,,,,,,,,FF,,,,,,,,1.13545,,,,,,,,,,,,,,,,,,,,,,61035646f6f36bf75f71c354,610365e2f412eb22a7feccc9,2021-07-29_20h38.07.697,Simcolourproject_2stim_asymm_v5,2020.2.10,MacIntel,60,61025ae37ef11b136ea224fe,,,,,,,,,2039,-41.8984375,-78.4765625,1,0,0,response5disk,,3,3.45703125,1.296875,1,0,0,rectangle,3.45703125,1.296875,1,0,0,3.45703125,1.296875,1,0,0,0,16,16,19,1,,,,,,,,
,,,,,,,,,,,,,FF,,,,,,,,2.07206,,,,,,,,,,,,,,,,,,,,,,61035646f6f36bf75f71c354,610365e2f412eb22a7feccc9,2021-07-29_20h38.07.697,Simcolourproject_2stim_asymm_v5,2020.2.10,MacIntel,60,61025ae37ef11b136ea224fe,,,,,,,,,798,36.6640625,89.4765625,1,0,0,response1disk,,7,4.95703125,3.3046875,1,0,0,rectangle,4.95703125,3.3046875,1,0,0,4.95703125,3.3046875,1,0,0,0,17,17,60,1,,,,,,,,
,,,,,,,,,,,,,FF,,,,,,,,1.103365,,,,,,,,,,,,,,,,,,,,,,61035646f6f36bf75f71c354,610365e2f412eb22a7feccc9,2021-07-29_20h38.07.697,Simcolourproject_2stim_asymm_v5,2020.2.10,MacIntel,60,61025ae37ef11b136ea224fe,,,,,,,,,1476,39.8828125,-105.6015625,1,0,0,response3disk,,4,-0.14453125,8.73046875,1,0,0,rectangle,-0.14453125,8.73046875,1,0,0,-0.14453125,8.73046875,1,0,0,0,18,18,83,1,,,,,,,,
,,,,,,,,,,,,,FF,,,,,,,,1.43713,,,,,,,,,,,,,,,,,,,,,,61035646f6f36bf75f71c354,610365e2f412eb22a7feccc9,2021-07-29_20h38.07.697,Simcolourproject_2stim_asymm_v5,2020.2.10,MacIntel,60,61025ae37ef11b136ea224fe,,,,,,,,,1285,97.1953125,34.71484375,1,0,0,response1disk,,6,0.6171875,4.8125,1,0,0,rectangle,0.6171875,4.8125,1,0,0,0.6171875,4.8125,1,0,0,0,19,19,85,1,,,,,,,,
,,,,,,,,,,,,,FF,,,,,,,,1.35384,,,,,,,,,,,,,,,,,,,,,,61035646f6f36bf75f71c354,610365e2f412eb22a7feccc9,2021-07-29_20h38.07.697,Simcolourproject_2stim_asymm_v5,2020.2.10,MacIntel,60,61025ae37ef11b136ea224fe,,,,,,,,,3201,-71.19140625,-42.56640625,1,0,0,response5disk,,2,11.1796875,2.26953125,1,0,0,rectangle,49.73828125,89.39453125,1,0,0,11.90625,-0.09765625,1,0,0,0,20,20,1,1,,response1disk_3,TRUE,7,7,"[140,45,224,236,206,52,227,254,191,21,125,92,44,209,161,72,81,107,152,135]",1.724455,rectangle
,,,,,,,,,,,,,FF,,,,,,,,1.219865,,,,,,,,,,,,,,,,,,,,,,61035646f6f36bf75f71c354,610365e2f412eb22a7feccc9,2021-07-29_20h38.07.697,Simcolourproject_2stim_asymm_v5,2020.2.10,MacIntel,60,61025ae37ef11b136ea224fe,,,,,,,,,1004,88.68359375,-30.4375,1,0,0,response3disk,,5,-2.3046875,-0.9296875,1,0,0,rectangle,-2.3046875,-0.9296875,1,0,0,-2.3046875,-0.9296875,1,0,0,0,21,21,110,1,,,,,,,,
,,,,,,,,,,,,,FF,,,,,,,,0.733965,,,,,,,,,,,,,,,,,,,,,,61035646f6f36bf75f71c354,610365e2f412eb22a7feccc9,2021-07-29_20h38.07.697,Simcolourproject_2stim_asymm_v5,2020.2.10,MacIntel,60,61025ae37ef11b136ea224fe,,,,,,,,,3810,-49.02734375,95.2421875,1,0,0,response7disk,,0,1.20703125,4.671875,1,0,0,rectangle,1.20703125,4.671875,1,0,0,1.20703125,4.671875,1,0,0,0,22,22,101,1,,,,,,,,
,,,,,,,,,,,,,FF,,,,,,,,0.90163,,,,,,,,,,,,,,,,,,,,,,61035646f6f36bf75f71c354,610365e2f412eb22a7feccc9,2021-07-29_20h38.07.697,Simcolourproject_2stim_asymm_v5,2020.2.10,MacIntel,60,61025ae37ef11b136ea224fe,,,,,,,,,2840,-55.609375,-28.515625,1,0,0,response5disk,,2,3.828125,1.41015625,1,0,0,rectangle,3.828125,1.41015625,1,0,0,3.828125,1.41015625,1,0,0,0,23,23,116,1,,,,,,,,
,,,,,,,,,,,,,FF,,,,,,,,0.868485,,,,,,,,,,,,,,,,,,,,,,61035646f6f36bf75f71c354,610365e2f412eb22a7feccc9,2021-07-29_20h38.07.697,Simcolourproject_2stim_asymm_v5,2020.2.10,MacIntel,60,61025ae37ef11b136ea224fe,,,,,,,,,3480,93.421875,33.02734375,1,0,0,response1disk,,6,6.8125,-2.72265625,1,0,0,rectangle,6.8125,-2.72265625,1,0,0,6.8125,-2.72265625,1,0,0,0,24,24,84,1,,,,,,,,
,,,,,,,,,,,,,FF,,,,,,,,1.82213,,,,,,,,,,,,,,,,,,,,,,61035646f6f36bf75f71c354,610365e2f412eb22a7feccc9,2021-07-29_20h38.07.697,Simcolourproject_2stim_asymm_v5,2020.2.10,MacIntel,60,61025ae37ef11b136ea224fe,,,,,,,,,3202,-69.6953125,-47.125,1,0,0,response5disk,,2,3.71484375,5.47265625,1,0,0,rectangle,3.71484375,5.47265625,1,0,0,3.71484375,5.47265625,1,0,0,0,25,25,3,1,,,,,,,,
,,,,,,,,,,,,,FF,,,,,,,,0.96928,,,,,,,,,,,,,,,,,,,,,,61035646f6f36bf75f71c354,610365e2f412eb22a7feccc9,2021-07-29_20h38.07.697,Simcolourproject_2stim_asymm_v5,2020.2.10,MacIntel,60,61025ae37ef11b136ea224fe,,,,,,,,,86,85.01953125,63.20703125,1,0,0,response1disk,,6,-4.25390625,1.9453125,1,0,0,rectangle,-4.25390625,1.9453125,1,0,0,-4.25390625,1.9453125,1,0,0,0,26,26,72,1,,,,,,,,
,,,,,,,,,,,,,FF,,,,,,,,1.45478,,,,,,,,,,,,,,,,,,,,,,61035646f6f36bf75f71c354,610365e2f412eb22a7feccc9,2021-07-29_20h38.07.697,Simcolourproject_2stim_asymm_v5,2020.2.10,MacIntel,60,61025ae37ef11b136ea224fe,,,,,,,,,2995,-78.76171875,-41.765625,1,0,0,response5disk,,2,3.984375,0.984375,1,0,0,rectangle,3.984375,0.984375,1,0,0,3.984375,0.984375,1,0,0,0,27,27,28,1,,,,,,,,
,,,,,,,,,,,,,FF,,,,,,,,1.40442,,,,,,,,,,,,,,,,,,,,,,61035646f6f36bf75f71c354,610365e2f412eb22a7feccc9,2021-07-29_20h38.07.697,Simcolourproject_2stim_asymm_v5,2020.2.10,MacIntel,60,61025ae37ef11b136ea224fe,,,,,,,,,4087,79.37890625,-32.19140625,1,0,0,response3disk,,5,1.19140625,-8.6484375,1,0,0,rectangle,1.19140625,-8.6484375,1,0,0,1.19140625,-8.6484375,1,0,0,0,28,28,33,1,,,,,,,,
,,,,,,,,,,,,,FF,,,,,,,,0.802025,,,,,,,,,,,,,,,,,,,,,,61035646f6f36bf75f71c354,610365e2f412eb22a7feccc9,2021-07-29_20h38.07.697,Simcolourproject_2stim_asymm_v5,2020.2.10,MacIntel,60,61025ae37ef11b136ea224fe,,,,,,,,,3886,46.33984375,68.4765625,1,0,0,response1disk,,7,-1.3671875,-1.51953125,1,0,0,rectangle,-1.3671875,-1.51953125,1,0,0,-1.3671875,-1.51953125,1,0,0,0,29,29,147,1,,,,,,,,
,,,,,,,,,,,,,FF,,,,,,,,1.002525,,,,,,,,,,,,,,,,,,,,,,61035646f6f36bf75f71c354,610365e2f412eb22a7feccc9,2021-07-29_20h38.07.697,Simcolourproject_2stim_asymm_v5,2020.2.10,MacIntel,60,61025ae37ef11b136ea224fe,,,,,,,,,752,50.80859375,74.16015625,1,0,0,response1disk,,7,-1.13671875,-11.06640625,1,0,0,rectangle,-1.13671875,-11.06640625,1,0,0,-1.13671875,-11.06640625,1,0,0,0,30,30,120,1,,,,,,,,
,,,,,,,,,,,,,FF,,,,,,,,3.02494,,,,,,,,,,,,,,,,,,,,,,61035646f6f36bf75f71c354,610365e2f412eb22a7feccc9,2021-07-29_20h38.07.697,Simcolourproject_2stim_asymm_v5,2020.2.10,MacIntel,60,61025ae37ef11b136ea224fe,,,,,,,,,2038,-89.1015625,-40.109375,1,0,0,response5disk,,2,-6.2421875,-3.04296875,1,0,0,rectangle,-6.2421875,-3.04296875,1,0,0,-6.2421875,-3.04296875,1,0,0,0,31,31,107,1,,,,,,,,
,,,,,,,,,,,,,FF,,,,,,,,0.98493,,,,,,,,,,,,,,,,,,,,,,61035646f6f36bf75f71c354,610365e2f412eb22a7feccc9,2021-07-29_20h38.07.697,Simcolourproject_2stim_asymm_v5,2020.2.10,MacIntel,60,61025ae37ef11b136ea224fe,,,,,,,,,3905,100.5976563,48.296875,1,0,0,response1disk,,6,-3.1875,0.89453125,1,0,0,rectangle,-3.1875,0.89453125,1,0,0,-3.1875,0.89453125,1,0,0,0,32,32,11,1,,,,,,,,
,,,,,,,,,,,,,FF,,,,,,,,1.08552,,,,,,,,,,,,,,,,,,,,,,61035646f6f36bf75f71c354,610365e2f412eb22a7feccc9,2021-07-29_20h38.07.697,Simcolourproject_2stim_asymm_v5,2020.2.10,MacIntel,60,61025ae37ef11b136ea224fe,,,,,,,,,3627,-39.96484375,-75.046875,1,0,0,response5disk,,3,2.05078125,10.19921875,1,0,0,rectangle,2.05078125,10.19921875,1,0,0,2.05078125,10.19921875,1,0,0,0,33,33,35,1,,,,,,,,
,,,,,,,,,,,,,FF,,,,,,,,1.155445,,,,,,,,,,,,,,,,,,,,,,61035646f6f36bf75f71c354,610365e2f412eb22a7feccc9,2021-07-29_20h38.07.697,Simcolourproject_2stim_asymm_v5,2020.2.10,MacIntel,60,61025ae37ef11b136ea224fe,,,,,,,,,1905,-30.21875,-56.9765625,1,0,0,response5disk,,3,8.22265625,2.05078125,1,0,0,rectangle,8.22265625,2.05078125,1,0,0,8.22265625,2.05078125,1,0,0,0,34,34,14,1,,,,,,,,
,,,,,,,,,,,,,FF,,,,,,,,1.137305,,,,,,,,,,,,,,,,,,,,,,61035646f6f36bf75f71c354,610365e2f412eb22a7feccc9,2021-07-29_20h38.07.697,Simcolourproject_2stim_asymm_v5,2020.2.10,MacIntel,60,61025ae37ef11b136ea224fe,,,,,,,,,57,-31.46484375,-70.80078125,1,0,0,response5disk,,3,1.89453125,-3.5390625,1,0,0,rectangle,1.89453125,-3.5390625,1,0,0,1.89453125,-3.5390625,1,0,0,0,35,35,100,1,,,,,,,,
,,,,,,,,,,,,,FF,,,,,,,,1.285625,,,,,,,,,,,,,,,,,,,,,,61035646f6f36bf75f71c354,610365e2f412eb22a7feccc9,2021-07-29_20h38.07.697,Simcolourproject_2stim_asymm_v5,2020.2.10,MacIntel,60,61025ae37ef11b136ea224fe,,,,,,,,,1907,24.15234375,-78.18359375,1,0,0,response3disk,,4,1.17578125,-6.0625,1,0,0,rectangle,1.17578125,-6.0625,1,0,0,1.17578125,-6.0625,1,0,0,0,36,36,133,1,,,,,,,,
,,,,,,,,,,,,,FF,,,,,,,,0.852775,,,,,,,,,,,,,,,,,,,,,,61035646f6f36bf75f71c354,610365e2f412eb22a7feccc9,2021-07-29_20h38.07.697,Simcolourproject_2stim_asymm_v5,2020.2.10,MacIntel,60,61025ae37ef11b136ea224fe,,,,,,,,,2297,-90.88671875,-32.83203125,1,0,0,response5disk,,2,-1.2578125,4.63671875,1,0,0,rectangle,-1.2578125,4.63671875,1,0,0,-1.2578125,4.63671875,1,0,0,0,37,37,157,1,,,,,,,,
,,,,,,,,,,,,,FF,,,,,,,,0.76761,,,,,,,,,,,,,,,,,,,,,,61035646f6f36bf75f71c354,610365e2f412eb22a7feccc9,2021-07-29_20h38.07.697,Simcolourproject_2stim_asymm_v5,2020.2.10,MacIntel,60,61025ae37ef11b136ea224fe,,,,,,,,,4161,-38.0625,95.26171875,1,0,0,response7disk,,0,0.0625,-9.828125,1,0,0,rectangle,0.0625,-9.828125,1,0,0,0.0625,-9.828125,1,0,0,0,38,38,37,1,,,,,,,,
,,,,,,,,,,,,,FF,,,,,,,,0.934965,,,,,,,,,,,,,,,,,,,,,,61035646f6f36bf75f71c354,610365e2f412eb22a7feccc9,2021-07-29_20h38.07.697,Simcolourproject_2stim_asymm_v5,2020.2.10,MacIntel,60,61025ae37ef11b136ea224fe,,,,,,,,,870,-70.96484375,-43.046875,1,0,0,response5disk,,2,-5.78515625,-11.71875,1,0,0,rectangle,-5.78515625,-11.71875,1,0,0,-5.78515625,-11.71875,1,0,0,0,39,39,151,1,,,,,,,,
,,,,,,,,,,,,,FF,,,,,,,,0.669,,,,,,,,,,,,,,,,,,,,,,61035646f6f36bf75f71c354,610365e2f412eb22a7feccc9,2021-07-29_20h38.07.697,Simcolourproject_2stim_asymm_v5,2020.2.10,MacIntel,60,61025ae37ef11b136ea224fe,,,,,,,,,4140,-30.2734375,83.1875,1,0,0,response7disk,,0,8.7265625,1.2734375,1,0,0,rectangle,8.7265625,1.2734375,1,0,0,8.7265625,1.2734375,1,0,0,0,40,40,79,1,,,,,,,,
,,,,,,,,,,,,,FF,,,,,,,,0.953725,,,,,,,,,,,,,,,,,,,,,,61035646f6f36bf75f71c354,610365e2f412eb22a7feccc9,2021-07-29_20h38.07.697,Simcolourproject_2stim_asymm_v5,2020.2.10,MacIntel,60,61025ae37ef11b136ea224fe,,,,,,,,,2173,-41.4375,-75.15234375,1,0,0,response5disk,,3,5.125,0.70703125,1,0,0,rectangle,5.125,0.70703125,1,0,0,5.125,0.70703125,1,0,0,0,41,41,105,1,,,,,,,,
,,,,,,,,,,,,,FF,,,,,,,,1.10324,,,,,,,,,,,,,,,,,,,,,,61035646f6f36bf75f71c354,610365e2f412eb22a7feccc9,2021-07-29_20h38.07.697,Simcolourproject_2stim_asymm_v5,2020.2.10,MacIntel,60,61025ae37ef11b136ea224fe,,,,,,,,,3205,-74.53515625,-46.359375,1,0,0,response5disk,,2,-2.7890625,2.890625,1,0,0,rectangle,-2.7890625,2.890625,1,0,0,-2.7890625,2.890625,1,0,0,0,42,42,104,1,,,,,,,,
,,,,,,,,,,,,,FF,,,,,,,,0.85235,,,,,,,,,,,,,,,,,,,,,,61035646f6f36bf75f71c354,610365e2f412eb22a7feccc9,2021-07-29_20h38.07.697,Simcolourproject_2stim_asymm_v5,2020.2.10,MacIntel,60,61025ae37ef11b136ea224fe,,,,,,,,,3689,88.8046875,30.0078125,1,0,0,response1disk,,6,-1.46875,5.88671875,1,0,0,rectangle,107.3085938,55.453125,1,0,0,-5.3203125,-1.5,1,0,0,0,43,43,68,1,,response1disk_3,TRUE,6,6,"[140,45,224,236,206,52,227,254,191,21,125,92,44,209,161,72,81,107,152,135]",1.37075,rectangle
,,,,,,,,,,,,,FF,,,,,,,,1.20479,,,,,,,,,,,,,,,,,,,,,,61035646f6f36bf75f71c354,610365e2f412eb22a7feccc9,2021-07-29_20h38.07.697,Simcolourproject_2stim_asymm_v5,2020.2.10,MacIntel,60,61025ae37ef11b136ea224fe,,,,,,,,,1976,-32.578125,-72.4140625,1,0,0,response5disk,,3,5.5,-2.98046875,1,0,0,rectangle,-35.1171875,-81.27734375,1,0,0,-3.1640625,-1.92578125,1,0,0,0,44,44,106,1,,response5disk_3,TRUE,3,4,"[140,45,224,236,206,52,227,254,191,21,125,92,44,209,161,72,81,107,152,135]",1.75439,rectangle
,,,,,,,,,,,,,FF,,,,,,,,0.935365,,,,,,,,,,,,,,,,,,,,,,61035646f6f36bf75f71c354,610365e2f412eb22a7feccc9,2021-07-29_20h38.07.697,Simcolourproject_2stim_asymm_v5,2020.2.10,MacIntel,60,61025ae37ef11b136ea224fe,,,,,,,,,4153,58.91015625,32.28515625,1,0,0,response1disk,,6,-7.69921875,-3.5,1,0,0,rectangle,-7.69921875,-3.5,1,0,0,-7.69921875,-3.5,1,0,0,0,45,45,12,1,,,,,,,,
,,,,,,,,,,,,,FF,,,,,,,,1.203895,,,,,,,,,,,,,,,,,,,,,,61035646f6f36bf75f71c354,610365e2f412eb22a7feccc9,2021-07-29_20h38.07.697,Simcolourproject_2stim_asymm_v5,2020.2.10,MacIntel,60,61025ae37ef11b136ea224fe,,,,,,,,,951,78.23828125,-28.08984375,1,0,0,response3disk,,5,-0.60546875,-4.37890625,1,0,0,rectangle,-0.60546875,-4.37890625,1,0,0,-0.60546875,-4.37890625,1,0,0,0,46,46,42,1,,,,,,,,
,,,,,,,,,,,,,FF,,,,,,,,1.25294,,,,,,,,,,,,,,,,,,,,,,61035646f6f36bf75f71c354,610365e2f412eb22a7feccc9,2021-07-29_20h38.07.697,Simcolourproject_2stim_asymm_v5,2020.2.10,MacIntel,60,61025ae37ef11b136ea224fe,,,,,,,,,2308,55.44921875,-36.67578125,1,0,0,response3disk,,5,16.58984375,-5.8671875,1,0,0,rectangle,16.58984375,-5.8671875,1,0,0,16.58984375,-5.8671875,1,0,0,0,47,47,43,1,,,,,,,,
,,,,,,,,,,,,,FF,,,,,,,,1.88828,,,,,,,,,,,,,,,,,,,,,,61035646f6f36bf75f71c354,610365e2f412eb22a7feccc9,2021-07-29_20h38.07.697,Simcolourproject_2stim_asymm_v5,2020.2.10,MacIntel,60,61025ae37ef11b136ea224fe,,,,,,,,,635,-41.54296875,-63.09375,1,0,0,response5disk,,3,-0.3046875,6.4765625,1,0,0,rectangle,-0.3046875,6.4765625,1,0,0,-0.3046875,6.4765625,1,0,0,0,48,48,49,1,,,,,,,,
,,,,,,,,,,,,,FF,,,,,,,,0.90342,,,,,,,,,,,,,,,,,,,,,,61035646f6f36bf75f71c354,610365e2f412eb22a7feccc9,2021-07-29_20h38.07.697,Simcolourproject_2stim_asymm_v5,2020.2.10,MacIntel,60,61025ae37ef11b136ea224fe,,,,,,,,,631,-80.11328125,-33.8984375,1,0,0,response5disk,,2,-4.41015625,2.90625,1,0,0,rectangle,-4.41015625,2.90625,1,0,0,-4.41015625,2.90625,1,0,0,0,49,49,65,1,,,,,,,,
,,,,,,,,,,,,,FF,,,,,,,,0.65279,,,,,,,,,,,,,,,,,,,,,,61035646f6f36bf75f71c354,610365e2f412eb22a7feccc9,2021-07-29_20h38.07.697,Simcolourproject_2stim_asymm_v5,2020.2.10,MacIntel,60,61025ae37ef11b136ea224fe,,,,,,,,,2159,92.91796875,35.02734375,1,0,0,response1disk,,6,-4.76953125,-0.7265625,1,0,0,rectangle,-4.76953125,-0.7265625,1,0,0,-4.76953125,-0.7265625,1,0,0,0,50,50,73,1,,,,,,,,
,,,,,,,,,,,,,FF,,,,,,,,1.839185,,,,,,,,,,,,,,,,,,,,,,61035646f6f36bf75f71c354,610365e2f412eb22a7feccc9,2021-07-29_20h38.07.697,Simcolourproject_2stim_asymm_v5,2020.2.10,MacIntel,60,61025ae37ef11b136ea224fe,,,,,,,,,190,34.69140625,-62.1796875,1,0,0,response3disk,,4,-4.421875,2,1,0,0,rectangle,78.19921875,36.55859375,1,0,0,8.984375,-5.8046875,1,0,0,0,51,51,96,1,,response1disk_3,TRUE,6,6,"[140,45,224,236,206,52,227,254,191,21,125,92,44,209,161,72,81,107,152,135]",1.185635,rectangle
,,,,,,,,,,,,,FF,,,,,,,,0.801675,,,,,,,,,,,,,,,,,,,,,,61035646f6f36bf75f71c354,610365e2f412eb22a7feccc9,2021-07-29_20h38.07.697,Simcolourproject_2stim_asymm_v5,2020.2.10,MacIntel,60,61025ae37ef11b136ea224fe,,,,,,,,,4369,-33.1015625,81.58203125,1,0,0,response7disk,,0,2.0390625,2.72265625,1,0,0,rectangle,2.0390625,2.72265625,1,0,0,2.0390625,2.72265625,1,0,0,0,52,52,91,1,,,,,,,,
,,,,,,,,,,,,,FF,,,,,,,,0.86983,,,,,,,,,,,,,,,,,,,,,,61035646f6f36bf75f71c354,610365e2f412eb22a7feccc9,2021-07-29_20h38.07.697,Simcolourproject_2stim_asymm_v5,2020.2.10,MacIntel,60,61025ae37ef11b136ea224fe,,,,,,,,,2103,-20.00390625,-69.1015625,1,0,0,response5disk,,3,9.7421875,6.91796875,1,0,0,rectangle,9.7421875,6.91796875,1,0,0,9.7421875,6.91796875,1,0,0,0,53,53,142,1,,,,,,,,
,,,,,,,,,,,,,FF,,,,,,,,1.03444,,,,,,,,,,,,,,,,,,,,,,61035646f6f36bf75f71c354,610365e2f412eb22a7feccc9,2021-07-29_20h38.07.697,Simcolourproject_2stim_asymm_v5,2020.2.10,MacIntel,60,61025ae37ef11b136ea224fe,,,,,,,,,1829,-29.19140625,-64.0078125,1,0,0,response5disk,,3,-0.609375,3.79296875,1,0,0,rectangle,-0.609375,3.79296875,1,0,0,-0.609375,3.79296875,1,0,0,0,54,54,97,1,,,,,,,,
,,,,,,,,,,,,,FF,,,,,,,,0.75181,,,,,,,,,,,,,,,,,,,,,,61035646f6f36bf75f71c354,610365e2f412eb22a7feccc9,2021-07-29_20h38.07.697,Simcolourproject_2stim_asymm_v5,2020.2.10,MacIntel,60,61025ae37ef11b136ea224fe,,,,,,,,,1268,99.921875,-53.18359375,1,0,0,response3disk,,5,-0.75,-1.94921875,1,0,0,rectangle,-0.75,-1.94921875,1,0,0,-0.75,-1.94921875,1,0,0,0,55,55,40,1,,,,,,,,
,,,,,,,,,,,,,FF,,,,,,,,0.78386,,,,,,,,,,,,,,,,,,,,,,61035646f6f36bf75f71c354,610365e2f412eb22a7feccc9,2021-07-29_20h38.07.697,Simcolourproject_2stim_asymm_v5,2020.2.10,MacIntel,60,61025ae37ef11b136ea224fe,,,,,,,,,410,84.359375,42.62890625,1,0,0,response1disk,,6,3.34375,4.32421875,1,0,0,rectangle,3.34375,4.32421875,1,0,0,3.34375,4.32421875,1,0,0,0,56,56,8,1,,,,,,,,
,,,,,,,,,,,,,FF,,,,,,,,1.45402,,,,,,,,,,,,,,,,,,,,,,61035646f6f36bf75f71c354,610365e2f412eb22a7feccc9,2021-07-29_20h38.07.697,Simcolourproject_2stim_asymm_v5,2020.2.10,MacIntel,60,61025ae37ef11b136ea224fe,,,,,,,,,2595,95.75,-55.36328125,1,0,0,response3disk,,5,2.6953125,6.0234375,1,0,0,rectangle,2.6953125,6.0234375,1,0,0,2.6953125,6.0234375,1,0,0,0,57,57,7,1,,,,,,,,
,,,,,,,,,,,,,FF,,,,,,,,0.80328,,,,,,,,,,,,,,,,,,,,,,61035646f6f36bf75f71c354,610365e2f412eb22a7feccc9,2021-07-29_20h38.07.697,Simcolourproject_2stim_asymm_v5,2020.2.10,MacIntel,60,61025ae37ef11b136ea224fe,,,,,,,,,795,95.58203125,53.6953125,1,0,0,response1disk,,6,-4.90234375,-3.18359375,1,0,0,rectangle,-4.90234375,-3.18359375,1,0,0,-4.90234375,-3.18359375,1,0,0,0,58,58,86,1,,,,,,,,
,,,,,,,,,,,,,FF,,,,,,,,1.204295,,,,,,,,,,,,,,,,,,,,,,61035646f6f36bf75f71c354,610365e2f412eb22a7feccc9,2021-07-29_20h38.07.697,Simcolourproject_2stim_asymm_v5,2020.2.10,MacIntel,60,61025ae37ef11b136ea224fe,,,,,,,,,4012,39.765625,85.79296875,1,0,0,response1disk,,7,-0.0859375,-9.9140625,1,0,0,rectangle,-0.0859375,-9.9140625,1,0,0,-0.0859375,-9.9140625,1,0,0,0,59,59,41,1,,,,,,,,
,,,,,,,,,,,,,FF,,,,,,,,1.45518,,,,,,,,,,,,,,,,,,,,,,61035646f6f36bf75f71c354,610365e2f412eb22a7feccc9,2021-07-29_20h38.07.697,Simcolourproject_2stim_asymm_v5,2020.2.10,MacIntel,60,61025ae37ef11b136ea224fe,,,,,,,,,2946,-59.640625,-34.98828125,1,0,0,response5disk,,2,-3.80859375,6.15625,1,0,0,rectangle,-3.80859375,6.15625,1,0,0,-3.80859375,6.15625,1,0,0,0,60,60,131,1,,,,,,,,
,,,,,,,,,,,,,FF,,,,,,,,0.836025,,,,,,,,,,,,,,,,,,,,,,61035646f6f36bf75f71c354,610365e2f412eb22a7feccc9,2021-07-29_20h38.07.697,Simcolourproject_2stim_asymm_v5,2020.2.10,MacIntel,60,61025ae37ef11b136ea224fe,,,,,,,,,3341,-73.125,-42.7578125,1,0,0,response5disk,,2,3.8203125,-7.890625,1,0,0,rectangle,3.8203125,-7.890625,1,0,0,3.8203125,-7.890625,1,0,0,0,61,61,57,1,,,,,,,,
,,,,,,,,,,,,,FF,,,,,,,,1.32049,,,,,,,,,,,,,,,,,,,,,,61035646f6f36bf75f71c354,610365e2f412eb22a7feccc9,2021-07-29_20h38.07.697,Simcolourproject_2stim_asymm_v5,2020.2.10,MacIntel,60,61025ae37ef11b136ea224fe,,,,,,,,,63,39.9453125,-99.10546875,1,0,0,response3disk,,4,-0.35546875,-3.72265625,1,0,0,rectangle,-0.35546875,-3.72265625,1,0,0,-0.35546875,-3.72265625,1,0,0,0,62,62,69,1,,,,,,,,
,,,,,,,,,,,,,FF,,,,,,,,4.57818,,,,,,,,,,,,,,,,,,,,,,61035646f6f36bf75f71c354,610365e2f412eb22a7feccc9,2021-07-29_20h38.07.697,Simcolourproject_2stim_asymm_v5,2020.2.10,MacIntel,60,61025ae37ef11b136ea224fe,,,,,,,,,2529,79.94921875,-32.796875,1,0,0,response3disk,,5,6.41796875,-0.46875,1,0,0,rectangle,6.41796875,-0.46875,1,0,0,6.41796875,-0.46875,1,0,0,0,63,63,20,1,,,,,,,,
,,,,,,,,,,,,,FF,,,,,,,,1.189085,,,,,,,,,,,,,,,,,,,,,,61035646f6f36bf75f71c354,610365e2f412eb22a7feccc9,2021-07-29_20h38.07.697,Simcolourproject_2stim_asymm_v5,2020.2.10,MacIntel,60,61025ae37ef11b136ea224fe,,,,,,,,,1457,-38.3828125,-82.21875,1,0,0,response5disk,,3,-0.16015625,-0.0703125,1,0,0,rectangle,-0.16015625,-0.0703125,1,0,0,-0.16015625,-0.0703125,1,0,0,0,64,64,153,1,,,,,,,,
,,,,,,,,,,,,,FF,,,,,,,,1.87165,,,,,,,,,,,,,,,,,,,,,,61035646f6f36bf75f71c354,610365e2f412eb22a7feccc9,2021-07-29_20h38.07.697,Simcolourproject_2stim_asymm_v5,2020.2.10,MacIntel,60,61025ae37ef11b136ea224fe,,,,,,,,,2856,88.41796875,25.35546875,1,0,0,response1disk,,6,1.30078125,-2.984375,1,0,0,rectangle,1.30078125,-2.984375,1,0,0,1.30078125,-2.984375,1,0,0,0,65,65,118,1,,,,,,,,
,,,,,,,,,,,,,FF,,,,,,,,1.187905,,,,,,,,,,,,,,,,,,,,,,61035646f6f36bf75f71c354,610365e2f412eb22a7feccc9,2021-07-29_20h38.07.697,Simcolourproject_2stim_asymm_v5,2020.2.10,MacIntel,60,61025ae37ef11b136ea224fe,,,,,,,,,2174,-86.7421875,-32.87890625,1,0,0,response5disk,,2,-2.94921875,-6.53515625,1,0,0,rectangle,-2.94921875,-6.53515625,1,0,0,-2.94921875,-6.53515625,1,0,0,0,66,66,77,1,,,,,,,,
,,,,,,,,,,,,,FF,,,,,,,,1.033095,,,,,,,,,,,,,,,,,,,,,,61035646f6f36bf75f71c354,610365e2f412eb22a7feccc9,2021-07-29_20h38.07.697,Simcolourproject_2stim_asymm_v5,2020.2.10,MacIntel,60,61025ae37ef11b136ea224fe,,,,,,,,,3151,98.9296875,-31.09375,1,0,0,response3disk,,5,-2.94921875,9.984375,1,0,0,rectangle,-2.94921875,9.984375,1,0,0,-2.94921875,9.984375,1,0,0,0,67,67,132,1,,,,,,,,
,,,,,,,,,,,,,FF,,,,,,,,1.971825,,,,,,,,,,,,,,,,,,,,,,61035646f6f36bf75f71c354,610365e2f412eb22a7feccc9,2021-07-29_20h38.07.697,Simcolourproject_2stim_asymm_v5,2020.2.10,MacIntel,60,61025ae37ef11b136ea224fe,,,,,,,,,3865,62.80859375,-23.984375,1,0,0,response3disk,,5,-10.65625,7.671875,1,0,0,rectangle,-10.65625,7.671875,1,0,0,-10.65625,7.671875,1,0,0,0,68,68,134,1,,,,,,,,
,,,,,,,,,,,,,FF,,,,,,,,1.069135,,,,,,,,,,,,,,,,,,,,,,61035646f6f36bf75f71c354,610365e2f412eb22a7feccc9,2021-07-29_20h38.07.697,Simcolourproject_2stim_asymm_v5,2020.2.10,MacIntel,60,61025ae37ef11b136ea224fe,,,,,,,,,3474,-27.68359375,-60.05859375,1,0,0,response5disk,,3,6.1484375,-0.61328125,1,0,0,rectangle,6.1484375,-0.61328125,1,0,0,6.1484375,-0.61328125,1,0,0,0,69,69,54,1,,,,,,,,
,,,,,,,,,,,,,FF,,,,,,,,1.054855,,,,,,,,,,,,,,,,,,,,,,61035646f6f36bf75f71c354,610365e2f412eb22a7feccc9,2021-07-29_20h38.07.697,Simcolourproject_2stim_asymm_v5,2020.2.10,MacIntel,60,61025ae37ef11b136ea224fe,,,,,,,,,2266,46.99609375,85.1484375,1,0,0,response1disk,,7,0.15234375,2.1484375,1,0,0,rectangle,0.15234375,2.1484375,1,0,0,0.15234375,2.1484375,1,0,0,0,70,70,5,1,,,,,,,,
,,,,,,,,,,,,,FF,,,,,,,,0.835195,,,,,,,,,,,,,,,,,,,,,,61035646f6f36bf75f71c354,610365e2f412eb22a7feccc9,2021-07-29_20h38.07.697,Simcolourproject_2stim_asymm_v5,2020.2.10,MacIntel,60,61025ae37ef11b136ea224fe,,,,,,,,,222,96.04296875,46.7734375,1,0,0,response1disk,,6,1.18359375,0.65625,1,0,0,rectangle,34.2578125,-96.5703125,1,0,0,-2.36328125,-0.96875,1,0,0,0,71,71,136,1,,response3disk_3,TRUE,4,4,"[140,45,224,236,206,52,227,254,191,21,125,92,44,209,161,72,81,107,152,135]",1.806625,rectangle
,,,,,,,,,,,,,FF,,,,,,,,1.519305,,,,,,,,,,,,,,,,,,,,,,61035646f6f36bf75f71c354,610365e2f412eb22a7feccc9,2021-07-29_20h38.07.697,Simcolourproject_2stim_asymm_v5,2020.2.10,MacIntel,60,61025ae37ef11b136ea224fe,,,,,,,,,175,-35.7109375,-100.6132813,1,0,0,response5disk,,3,-0.62890625,-4.28125,1,0,0,rectangle,-0.62890625,-4.28125,1,0,0,-0.62890625,-4.28125,1,0,0,0,72,72,59,1,,,,,,,,
,,,,,,,,,,,,,FF,,,,,,,,0.869075,,,,,,,,,,,,,,,,,,,,,,61035646f6f36bf75f71c354,610365e2f412eb22a7feccc9,2021-07-29_20h38.07.697,Simcolourproject_2stim_asymm_v5,2020.2.10,MacIntel,60,61025ae37ef11b136ea224fe,,,,,,,,,223,128.7304688,49.3359375,1,0,0,response1disk,,6,4.2890625,-0.0546875,1,0,0,rectangle,4.2890625,-0.0546875,1,0,0,4.2890625,-0.0546875,1,0,0,0,73,73,144,1,,,,,,,,
,,,,,,,,,,,,,FF,,,,,,,,2.55811,,,,,,,,,,,,,,,,,,,,,,61035646f6f36bf75f71c354,610365e2f412eb22a7feccc9,2021-07-29_20h38.07.697,Simcolourproject_2stim_asymm_v5,2020.2.10,MacIntel,60,61025ae37ef11b136ea224fe,,,,,,,,,1471,73.34375,16.49609375,1,0,0,response1disk,,6,-1.859375,-6,1,0,0,rectangle,-1.859375,-6,1,0,0,-1.859375,-6,1,0,0,0,74,74,62,1,,,,,,,,
,,,,,,,,,,,,,FF,,,,,,,,0.73481,,,,,,,,,,,,,,,,,,,,,,61035646f6f36bf75f71c354,610365e2f412eb22a7feccc9,2021-07-29_20h38.07.697,Simcolourproject_2stim_asymm_v5,2020.2.10,MacIntel,60,61025ae37ef11b136ea224fe,,,,,,,,,1324,52.55078125,96.8359375,1,0,0,response1disk,,7,7.21484375,5.19921875,1,0,0,rectangle,7.21484375,5.19921875,1,0,0,7.21484375,5.19921875,1,0,0,0,75,75,27,1,,,,,,,,
,,,,,,,,,,,,,FF,,,,,,,,0.63388,,,,,,,,,,,,,,,,,,,,,,61035646f6f36bf75f71c354,610365e2f412eb22a7feccc9,2021-07-29_20h38.07.697,Simcolourproject_2stim_asymm_v5,2020.2.10,MacIntel,60,61025ae37ef11b136ea224fe,,,,,,,,,1983,41.69921875,81.4609375,1,0,0,response1disk,,7,-1.1953125,-1.89453125,1,0,0,rectangle,-1.1953125,-1.89453125,1,0,0,-1.1953125,-1.89453125,1,0,0,0,76,76,80,1,,,,,,,,
,,,,,,,,,,,,,FF,,,,,,,,1.63789,,,,,,,,,,,,,,,,,,,,,,61035646f6f36bf75f71c354,610365e2f412eb22a7feccc9,2021-07-29_20h38.07.697,Simcolourproject_2stim_asymm_v5,2020.2.10,MacIntel,60,61025ae37ef11b136ea224fe,,,,,,,,,4,-41.76171875,-60.79296875,1,0,0,response5disk,,3,6.74609375,12.20703125,1,0,0,rectangle,6.74609375,12.20703125,1,0,0,6.74609375,12.20703125,1,0,0,0,77,77,121,1,,,,,,,,
,,,,,,,,,,,,,FF,,,,,,,,0.91869,,,,,,,,,,,,,,,,,,,,,,61035646f6f36bf75f71c354,610365e2f412eb22a7feccc9,2021-07-29_20h38.07.697,Simcolourproject_2stim_asymm_v5,2020.2.10,MacIntel,60,61025ae37ef11b136ea224fe,,,,,,,,,2695,57.8984375,96.48828125,1,0,0,response1disk,,7,-1.7265625,-8.421875,1,0,0,rectangle,-1.7265625,-8.421875,1,0,0,-1.7265625,-8.421875,1,0,0,0,78,78,148,1,,,,,,,,
,,,,,,,,,,,,,FF,,,,,,,,1.32242,,,,,,,,,,,,,,,,,,,,,,61035646f6f36bf75f71c354,610365e2f412eb22a7feccc9,2021-07-29_20h38.07.697,Simcolourproject_2stim_asymm_v5,2020.2.10,MacIntel,60,61025ae37ef11b136ea224fe,,,,,,,,,2219,90.14453125,-30.890625,1,0,0,response3disk,,5,-1.34765625,-3.09765625,1,0,0,rectangle,-1.34765625,-3.09765625,1,0,0,-1.34765625,-3.09765625,1,0,0,0,79,79,66,1,,,,,,,,
,,,,,,,,,,,,,FF,,,,,,,,2.85583,,,,,,,,,,,,,,,,,,,,,,61035646f6f36bf75f71c354,610365e2f412eb22a7feccc9,2021-07-29_20h38.07.697,Simcolourproject_2stim_asymm_v5,2020.2.10,MacIntel,60,61025ae37ef11b136ea224fe,,,,,,,,,3802,45.1015625,87.12109375,1,0,0,response1disk,,7,-1.046875,-5.92578125,1,0,0,rectangle,89.17578125,-46.17578125,1,0,0,7.078125,8.42578125,1,0,0,0,80,80,70,1,,response3disk_3,TRUE,5,5,"[140,45,224,236,206,52,227,254,191,21,125,92,44,209,161,72,81,107,152,135]",1.536825,rectangle
,,,,,,,,,,,,,FF,,,,,,,,0.952035,,,,,,,,,,,,,,,,,,,,,,61035646f6f36bf75f71c354,610365e2f412eb22a7feccc9,2021-07-29_20h38.07.697,Simcolourproject_2stim_asymm_v5,2020.2.10,MacIntel,60,61025ae37ef11b136ea224fe,,,,,,,,,2240,-42.6484375,-91.41796875,1,0,0,response5disk,,3,2.04296875,-0.52734375,1,0,0,rectangle,2.04296875,-0.52734375,1,0,0,2.04296875,-0.52734375,1,0,0,0,81,81,32,1,,,,,,,,
,,,,,,,,,,,,,FF,,,,,,,,0.7866,,,,,,,,,,,,,,,,,,,,,,61035646f6f36bf75f71c354,610365e2f412eb22a7feccc9,2021-07-29_20h38.07.697,Simcolourproject_2stim_asymm_v5,2020.2.10,MacIntel,60,61025ae37ef11b136ea224fe,,,,,,,,,2453,43.96875,90.890625,1,0,0,response1disk,,7,2.2421875,0.48046875,1,0,0,rectangle,2.2421875,0.48046875,1,0,0,2.2421875,0.48046875,1,0,0,0,82,82,94,1,,,,,,,,
,,,,,,,,,,,,,FF,,,,,,,,0.953185,,,,,,,,,,,,,,,,,,,,,,61035646f6f36bf75f71c354,610365e2f412eb22a7feccc9,2021-07-29_20h38.07.697,Simcolourproject_2stim_asymm_v5,2020.2.10,MacIntel,60,61025ae37ef11b136ea224fe,,,,,,,,,194,23.30078125,-66.87890625,1,0,0,response3disk,,4,0.46484375,2.69921875,1,0,0,rectangle,0.46484375,2.69921875,1,0,0,0.46484375,2.69921875,1,0,0,0,83,83,129,1,,,,,,,,
,,,,,,,,,,,,,FF,,,,,,,,1.104535,,,,,,,,,,,,,,,,,,,,,,61035646f6f36bf75f71c354,610365e2f412eb22a7feccc9,2021-07-29_20h38.07.697,Simcolourproject_2stim_asymm_v5,2020.2.10,MacIntel,60,61025ae37ef11b136ea224fe,,,,,,,,,2318,56.53515625,76.97265625,1,0,0,response1disk,,7,4.3125,1.72265625,1,0,0,rectangle,4.3125,1.72265625,1,0,0,4.3125,1.72265625,1,0,0,0,84,84,13,1,,,,,,,,
,,,,,,,,,,,,,FF,,,,,,,,0.720335,,,,,,,,,,,,,,,,,,,,,,61035646f6f36bf75f71c354,610365e2f412eb22a7feccc9,2021-07-29_20h38.07.697,Simcolourproject_2stim_asymm_v5,2020.2.10,MacIntel,60,61025ae37ef11b136ea224fe,,,,,,,,,1646,53.26953125,85.58203125,1,0,0,response1disk,,7,7.38671875,4.25,1,0,0,rectangle,7.38671875,4.25,1,0,0,7.38671875,4.25,1,0,0,0,85,85,25,1,,,,,,,,
,,,,,,,,,,,,,FF,,,,,,,,2.13874,,,,,,,,,,,,,,,,,,,,,,61035646f6f36bf75f71c354,610365e2f412eb22a7feccc9,2021-07-29_20h38.07.697,Simcolourproject_2stim_asymm_v5,2020.2.10,MacIntel,60,61025ae37ef11b136ea224fe,,,,,,,,,2761,79.5234375,-36.5234375,1,0,0,response3disk,,5,3.7890625,-4.234375,1,0,0,rectangle,3.7890625,-4.234375,1,0,0,3.7890625,-4.234375,1,0,0,0,86,86,117,1,,,,,,,,
,,,,,,,,,,,,,FF,,,,,,,,0.81893,,,,,,,,,,,,,,,,,,,,,,61035646f6f36bf75f71c354,610365e2f412eb22a7feccc9,2021-07-29_20h38.07.697,Simcolourproject_2stim_asymm_v5,2020.2.10,MacIntel,60,61025ae37ef11b136ea224fe,,,,,,,,,1380,86.03125,-42.93359375,1,0,0,response3disk,,5,7.84375,-11.828125,1,0,0,rectangle,7.84375,-11.828125,1,0,0,7.84375,-11.828125,1,0,0,0,87,87,108,1,,,,,,,,
,,,,,,,,,,,,,FF,,,,,,,,0.92034,,,,,,,,,,,,,,,,,,,,,,61035646f6f36bf75f71c354,610365e2f412eb22a7feccc9,2021-07-29_20h38.07.697,Simcolourproject_2stim_asymm_v5,2020.2.10,MacIntel,60,61025ae37ef11b136ea224fe,,,,,,,,,3731,30.4453125,111.96875,1,0,0,response1disk,,7,-1.10546875,-2.578125,1,0,0,rectangle,-1.10546875,-2.578125,1,0,0,-1.10546875,-2.578125,1,0,0,0,88,88,46,1,,,,,,,,
,,,,,,,,,,,,,FF,,,,,,,,1.071035,,,,,,,,,,,,,,,,,,,,,,61035646f6f36bf75f71c354,610365e2f412eb22a7feccc9,2021-07-29_20h38.07.697,Simcolourproject_2stim_asymm_v5,2020.2.10,MacIntel,60,61025ae37ef11b136ea224fe,,,,,,,,,3432,-76.484375,46.70703125,1,0,0,response7disk,,1,3.53125,3.69921875,1,0,0,rectangle,3.53125,3.69921875,1,0,0,3.53125,3.69921875,1,0,0,0,89,89,30,1,,,,,,,,
,,,,,,,,,,,,,FF,,,,,,,,1.73807,,,,,,,,,,,,,,,,,,,,,,61035646f6f36bf75f71c354,610365e2f412eb22a7feccc9,2021-07-29_20h38.07.697,Simcolourproject_2stim_asymm_v5,2020.2.10,MacIntel,60,61025ae37ef11b136ea224fe,,,,,,,,,4184,85.67578125,-65.29296875,1,0,0,response3disk,,5,-16.203125,9.99609375,1,0,0,rectangle,-16.203125,9.99609375,1,0,0,-16.203125,9.99609375,1,0,0,0,90,90,47,1,,,,,,,,
,,,,,,,,,,,,,FF,,,,,,,,0.734825,,,,,,,,,,,,,,,,,,,,,,61035646f6f36bf75f71c354,610365e2f412eb22a7feccc9,2021-07-29_20h38.07.697,Simcolourproject_2stim_asymm_v5,2020.2.10,MacIntel,60,61025ae37ef11b136ea224fe,,,,,,,,,2401,34.8671875,52.05078125,1,0,0,response1disk,,7,11.0703125,9.65234375,1,0,0,rectangle,-84.0390625,-52.17578125,1,0,0,7.44921875,1.4296875,1,0,0,0,91,91,61,1,,response5disk_3,TRUE,2,2,"[140,45,224,236,206,52,227,254,191,21,125,92,44,209,161,72,81,107,152,135]",1.687285,rectangle
,,,,,,,,,,,,,FF,,,,,,,,1.58854,,,,,,,,,,,,,,,,,,,,,,61035646f6f36bf75f71c354,610365e2f412eb22a7feccc9,2021-07-29_20h38.07.697,Simcolourproject_2stim_asymm_v5,2020.2.10,MacIntel,60,61025ae37ef11b136ea224fe,,,,,,,,,3053,40.18359375,-82.609375,1,0,0,response3disk,,4,6.328125,4.5,1,0,0,rectangle,6.328125,4.5,1,0,0,6.328125,4.5,1,0,0,0,92,92,23,1,,,,,,,,
,,,,,,,,,,,,,FF,,,,,,,,1.45466,,,,,,,,,,,,,,,,,,,,,,61035646f6f36bf75f71c354,610365e2f412eb22a7feccc9,2021-07-29_20h38.07.697,Simcolourproject_2stim_asymm_v5,2020.2.10,MacIntel,60,61025ae37ef11b136ea224fe,,,,,,,,,37,86.25,29.890625,1,0,0,response1disk,,6,-3.11328125,1.78125,1,0,0,rectangle,-3.11328125,1.78125,1,0,0,-3.11328125,1.78125,1,0,0,0,93,93,89,1,,,,,,,,
,,,,,,,,,,,,,FF,,,,,,,,0.87151,,,,,,,,,,,,,,,,,,,,,,61035646f6f36bf75f71c354,610365e2f412eb22a7feccc9,2021-07-29_20h38.07.697,Simcolourproject_2stim_asymm_v5,2020.2.10,MacIntel,60,61025ae37ef11b136ea224fe,,,,,,,,,924,38.5,67.5546875,1,0,0,response1disk,,7,-5.99609375,-1.9921875,1,0,0,rectangle,-5.99609375,-1.9921875,1,0,0,-5.99609375,-1.9921875,1,0,0,0,94,94,71,1,,,,,,,,
,,,,,,,,,,,,,FF,,,,,,,,0.91998,,,,,,,,,,,,,,,,,,,,,,61035646f6f36bf75f71c354,610365e2f412eb22a7feccc9,2021-07-29_20h38.07.697,Simcolourproject_2stim_asymm_v5,2020.2.10,MacIntel,60,61025ae37ef11b136ea224fe,,,,,,,,,1422,106.5976563,-36.79296875,1,0,0,response3disk,,5,-3.5078125,2.17578125,1,0,0,rectangle,-3.5078125,2.17578125,1,0,0,-3.5078125,2.17578125,1,0,0,0,95,95,75,1,,,,,,,,
,,,,,,,,,,,,,FF,,,,,,,,0.785695,,,,,,,,,,,,,,,,,,,,,,61035646f6f36bf75f71c354,610365e2f412eb22a7feccc9,2021-07-29_20h38.07.697,Simcolourproject_2stim_asymm_v5,2020.2.10,MacIntel,60,61025ae37ef11b136ea224fe,,,,,,,,,3269,55.3046875,105.578125,1,0,0,response1disk,,7,6.1875,5.96875,1,0,0,rectangle,6.1875,5.96875,1,0,0,6.1875,5.96875,1,0,0,0,96,96,67,1,,,,,,,,
,,,,,,,,,,,,,FF,,,,,,,,1.83732,,,,,,,,,,,,,,,,,,,,,,61035646f6f36bf75f71c354,610365e2f412eb22a7feccc9,2021-07-29_20h38.07.697,Simcolourproject_2stim_asymm_v5,2020.2.10,MacIntel,60,61025ae37ef11b136ea224fe,,,,,,,,,1900,100.8671875,-45.78125,1,0,0,response3disk,,5,-2.25,-7.65625,1,0,0,rectangle,-2.25,-7.65625,1,0,0,-2.25,-7.65625,1,0,0,0,97,97,39,1,,,,,,,,
,,,,,,,,,,,,,FF,,,,,,,,0.752,,,,,,,,,,,,,,,,,,,,,,61035646f6f36bf75f71c354,610365e2f412eb22a7feccc9,2021-07-29_20h38.07.697,Simcolourproject_2stim_asymm_v5,2020.2.10,MacIntel,60,61025ae37ef11b136ea224fe,,,,,,,,,2592,36.82421875,72.203125,1,0,0,response1disk,,7,2.57421875,3.31640625,1,0,0,rectangle,2.57421875,3.31640625,1,0,0,2.57421875,3.31640625,1,0,0,0,98,98,125,1,,,,,,,,
,,,,,,,,,,,,,FF,,,,,,,,1.336505,,,,,,,,,,,,,,,,,,,,,,61035646f6f36bf75f71c354,610365e2f412eb22a7feccc9,2021-07-29_20h38.07.697,Simcolourproject_2stim_asymm_v5,2020.2.10,MacIntel,60,61025ae37ef11b136ea224fe,,,,,,,,,4352,-77.8359375,-32.16015625,1,0,0,response5disk,,2,6.14453125,6.1171875,1,0,0,rectangle,6.14453125,6.1171875,1,0,0,6.14453125,6.1171875,1,0,0,0,99,99,50,1,,,,,,,,
,,,,,,,,,,,,,FF,,,,,,,,0.721245,,,,,,,,,,,,,,,,,,,,,,61035646f6f36bf75f71c354,610365e2f412eb22a7feccc9,2021-07-29_20h38.07.697,Simcolourproject_2stim_asymm_v5,2020.2.10,MacIntel,60,61025ae37ef11b136ea224fe,,,,,,,,,2349,61.58203125,82.24609375,1,0,0,response1disk,,7,3.70703125,6.66015625,1,0,0,rectangle,3.70703125,6.66015625,1,0,0,3.70703125,6.66015625,1,0,0,0,100,100,53,1,,,,,,,,
,,,,,,,,,,,,,FF,,,,,,,,1.238915,,,,,,,,,,,,,,,,,,,,,,61035646f6f36bf75f71c354,610365e2f412eb22a7feccc9,2021-07-29_20h38.07.697,Simcolourproject_2stim_asymm_v5,2020.2.10,MacIntel,60,61025ae37ef11b136ea224fe,,,,,,,,,3138,42.59375,-75.80859375,1,0,0,response3disk,,4,0.42578125,3.6875,1,0,0,rectangle,0.42578125,3.6875,1,0,0,0.42578125,3.6875,1,0,0,0,101,101,143,1,,,,,,,,
,,,,,,,,,,,,,FF,,,,,,,,0.801495,,,,,,,,,,,,,,,,,,,,,,61035646f6f36bf75f71c354,610365e2f412eb22a7feccc9,2021-07-29_20h38.07.697,Simcolourproject_2stim_asymm_v5,2020.2.10,MacIntel,60,61025ae37ef11b136ea224fe,,,,,,,,,1527,94.74609375,-35.375,1,0,0,response3disk,,5,-1.0078125,8.73828125,1,0,0,rectangle,-1.0078125,8.73828125,1,0,0,-1.0078125,8.73828125,1,0,0,0,102,102,149,1,,,,,,,,
,,,,,,,,,,,,,FF,,,,,,,,0.83822,,,,,,,,,,,,,,,,,,,,,,61035646f6f36bf75f71c354,610365e2f412eb22a7feccc9,2021-07-29_20h38.07.697,Simcolourproject_2stim_asymm_v5,2020.2.10,MacIntel,60,61025ae37ef11b136ea224fe,,,,,,,,,3704,88.0078125,50.09765625,1,0,0,response1disk,,6,-0.50390625,4.37109375,1,0,0,rectangle,-0.50390625,4.37109375,1,0,0,-0.50390625,4.37109375,1,0,0,0,103,103,103,1,,,,,,,,
,,,,,,,,,,,,,FF,,,,,,,,0.85138,,,,,,,,,,,,,,,,,,,,,,61035646f6f36bf75f71c354,610365e2f412eb22a7feccc9,2021-07-29_20h38.07.697,Simcolourproject_2stim_asymm_v5,2020.2.10,MacIntel,60,61025ae37ef11b136ea224fe,,,,,,,,,3512,-60.15234375,-90.4921875,1,0,0,response5disk,,3,12.03515625,6.38671875,1,0,0,rectangle,12.03515625,6.38671875,1,0,0,12.03515625,6.38671875,1,0,0,0,104,104,76,1,,,,,,,,
,,,,,,,,,,,,,FF,,,,,,,,0.73524,,,,,,,,,,,,,,,,,,,,,,61035646f6f36bf75f71c354,610365e2f412eb22a7feccc9,2021-07-29_20h38.07.697,Simcolourproject_2stim_asymm_v5,2020.2.10,MacIntel,60,61025ae37ef11b136ea224fe,,,,,,,,,807,-41.140625,-95.53125,1,0,0,response5disk,,3,-5.03125,-1.77734375,1,0,0,rectangle,-5.03125,-1.77734375,1,0,0,-5.03125,-1.77734375,1,0,0,0,105,105,6,1,,,,,,,,
,,,,,,,,,,,,,FF,,,,,,,,1.83659,,,,,,,,,,,,,,,,,,,,,,61035646f6f36bf75f71c354,610365e2f412eb22a7feccc9,2021-07-29_20h38.07.697,Simcolourproject_2stim_asymm_v5,2020.2.10,MacIntel,60,61025ae37ef11b136ea224fe,,,,,,,,,3257,64.93359375,29.171875,1,0,0,response1disk,,6,-4.75390625,-3.6015625,1,0,0,rectangle,34.77734375,96.40234375,1,0,0,10.10546875,-4.5234375,1,0,0,0,106,106,31,1,,response1disk_3,TRUE,7,7,"[140,45,224,236,206,52,227,254,191,21,125,92,44,209,161,72,81,107,152,135]",1.352915,rectangle
,,,,,,,,,,,,,FF,,,,,,,,0.76676,,,,,,,,,,,,,,,,,,,,,,61035646f6f36bf75f71c354,610365e2f412eb22a7feccc9,2021-07-29_20h38.07.697,Simcolourproject_2stim_asymm_v5,2020.2.10,MacIntel,60,61025ae37ef11b136ea224fe,,,,,,,,,4310,44.7109375,80.6328125,1,0,0,response1disk,,7,12.984375,10.2109375,1,0,0,rectangle,12.984375,10.2109375,1,0,0,12.984375,10.2109375,1,0,0,0,107,107,145,1,,,,,,,,
,,,,,,,,,,,,,FF,,,,,,,,0.616535,,,,,,,,,,,,,,,,,,,,,,61035646f6f36bf75f71c354,610365e2f412eb22a7feccc9,2021-07-29_20h38.07.697,Simcolourproject_2stim_asymm_v5,2020.2.10,MacIntel,60,61025ae37ef11b136ea224fe,,,,,,,,,3369,36.15234375,85.7421875,1,0,0,response1disk,,7,7.421875,7.578125,1,0,0,rectangle,7.421875,7.578125,1,0,0,7.421875,7.578125,1,0,0,0,108,108,81,1,,,,,,,,
,,,,,,,,,,,,,FF,,,,,,,,1.439085,,,,,,,,,,,,,,,,,,,,,,61035646f6f36bf75f71c354,610365e2f412eb22a7feccc9,2021-07-29_20h38.07.697,Simcolourproject_2stim_asymm_v5,2020.2.10,MacIntel,60,61025ae37ef11b136ea224fe,,,,,,,,,3753,117.9921875,-46.44921875,1,0,0,response3disk,,5,-11.95703125,8.421875,1,0,0,rectangle,-11.95703125,8.421875,1,0,0,-11.95703125,8.421875,1,0,0,0,109,109,152,1,,,,,,,,
,,,,,,,,,,,,,FF,,,,,,,,0.70359,,,,,,,,,,,,,,,,,,,,,,61035646f6f36bf75f71c354,610365e2f412eb22a7feccc9,2021-07-29_20h38.07.697,Simcolourproject_2stim_asymm_v5,2020.2.10,MacIntel,60,61025ae37ef11b136ea224fe,,,,,,,,,202,100.890625,39.66015625,1,0,0,response1disk,,6,-13.1875,-2.3125,1,0,0,rectangle,-13.1875,-2.3125,1,0,0,-13.1875,-2.3125,1,0,0,0,110,110,48,1,,,,,,,,
,,,,,,,,,,,,,FF,,,,,,,,1.168795,,,,,,,,,,,,,,,,,,,,,,61035646f6f36bf75f71c354,610365e2f412eb22a7feccc9,2021-07-29_20h38.07.697,Simcolourproject_2stim_asymm_v5,2020.2.10,MacIntel,60,61025ae37ef11b136ea224fe,,,,,,,,,1832,85.09375,-50.19921875,1,0,0,response3disk,,5,5.2890625,-7.48828125,1,0,0,rectangle,5.2890625,-7.48828125,1,0,0,5.2890625,-7.48828125,1,0,0,0,111,111,26,1,,,,,,,,
,,,,,,,,,,,,,FF,,,,,,,,2.055545,,,,,,,,,,,,,,,,,,,,,,61035646f6f36bf75f71c354,610365e2f412eb22a7feccc9,2021-07-29_20h38.07.697,Simcolourproject_2stim_asymm_v5,2020.2.10,MacIntel,60,61025ae37ef11b136ea224fe,,,,,,,,,160,66.4453125,-49.90625,1,0,0,response3disk,,5,-8.57421875,2.5234375,1,0,0,rectangle,-8.57421875,2.5234375,1,0,0,-8.57421875,2.5234375,1,0,0,0,112,112,4,1,,,,,,,,
,,,,,,,,,,,,,FF,,,,,,,,0.851925,,,,,,,,,,,,,,,,,,,,,,61035646f6f36bf75f71c354,610365e2f412eb22a7feccc9,2021-07-29_20h38.07.697,Simcolourproject_2stim_asymm_v5,2020.2.10,MacIntel,60,61025ae37ef11b136ea224fe,,,,,,,,,4243,49.6015625,112.2304688,1,0,0,response1disk,,7,11.421875,7.90625,1,0,0,rectangle,11.421875,7.90625,1,0,0,11.421875,7.90625,1,0,0,0,113,113,111,1,,,,,,,,
,,,,,,,,,,,,,FF,,,,,,,,0.767145,,,,,,,,,,,,,,,,,,,,,,61035646f6f36bf75f71c354,610365e2f412eb22a7feccc9,2021-07-29_20h38.07.697,Simcolourproject_2stim_asymm_v5,2020.2.10,MacIntel,60,61025ae37ef11b136ea224fe,,,,,,,,,3834,51.4296875,81.5546875,1,0,0,response1disk,,7,11.1015625,8.44921875,1,0,0,rectangle,11.1015625,8.44921875,1,0,0,11.1015625,8.44921875,1,0,0,0,114,114,159,1,,,,,,,,
,,,,,,,,,,,,,FF,,,,,,,,0.767795,,,,,,,,,,,,,,,,,,,,,,61035646f6f36bf75f71c354,610365e2f412eb22a7feccc9,2021-07-29_20h38.07.697,Simcolourproject_2stim_asymm_v5,2020.2.10,MacIntel,60,61025ae37ef11b136ea224fe,,,,,,,,,4313,70.08203125,108.3242188,1,0,0,response1disk,,7,1.984375,2.890625,1,0,0,rectangle,1.984375,2.890625,1,0,0,1.984375,2.890625,1,0,0,0,115,115,64,1,,,,,,,,
,,,,,,,,,,,,,FF,,,,,,,,1.050235,,,,,,,,,,,,,,,,,,,,,,61035646f6f36bf75f71c354,610365e2f412eb22a7feccc9,2021-07-29_20h38.07.697,Simcolourproject_2stim_asymm_v5,2020.2.10,MacIntel,60,61025ae37ef11b136ea224fe,,,,,,,,,4025,85.8203125,-40.1953125,1,0,0,response3disk,,5,-0.70703125,-0.76171875,1,0,0,rectangle,-0.70703125,-0.76171875,1,0,0,-0.70703125,-0.76171875,1,0,0,0,116,116,119,1,,,,,,,,
,,,,,,,,,,,,,FF,,,,,,,,0.836585,,,,,,,,,,,,,,,,,,,,,,61035646f6f36bf75f71c354,610365e2f412eb22a7feccc9,2021-07-29_20h38.07.697,Simcolourproject_2stim_asymm_v5,2020.2.10,MacIntel,60,61025ae37ef11b136ea224fe,,,,,,,,,962,50.828125,89.8046875,1,0,0,response1disk,,7,15.72265625,7.91796875,1,0,0,rectangle,15.72265625,7.91796875,1,0,0,15.72265625,7.91796875,1,0,0,0,117,117,56,1,,,,,,,,
,,,,,,,,,,,,,FF,,,,,,,,0.920065,,,,,,,,,,,,,,,,,,,,,,61035646f6f36bf75f71c354,610365e2f412eb22a7feccc9,2021-07-29_20h38.07.697,Simcolourproject_2stim_asymm_v5,2020.2.10,MacIntel,60,61025ae37ef11b136ea224fe,,,,,,,,,2030,-46.796875,-82.56640625,1,0,0,response5disk,,3,-9.0546875,5.80859375,1,0,0,rectangle,-9.0546875,5.80859375,1,0,0,-9.0546875,5.80859375,1,0,0,0,118,118,52,1,,,,,,,,
,,,,,,,,,,,,,FF,,,,,,,,2.5414,,,,,,,,,,,,,,,,,,,,,,61035646f6f36bf75f71c354,610365e2f412eb22a7feccc9,2021-07-29_20h38.07.697,Simcolourproject_2stim_asymm_v5,2020.2.10,MacIntel,60,61025ae37ef11b136ea224fe,,,,,,,,,1081,40.38671875,107.4492188,1,0,0,response1disk,,7,4.96875,3.0390625,1,0,0,rectangle,4.96875,3.0390625,1,0,0,4.96875,3.0390625,1,0,0,0,119,119,10,1,,,,,,,,
,,,,,,,,,,,,,FF,,,,,,,,1.135265,,,,,,,,,,,,,,,,,,,,,,61035646f6f36bf75f71c354,610365e2f412eb22a7feccc9,2021-07-29_20h38.07.697,Simcolourproject_2stim_asymm_v5,2020.2.10,MacIntel,60,61025ae37ef11b136ea224fe,,,,,,,,,3001,53.76171875,83.4296875,1,0,0,response1disk,,7,-6.2421875,1.01953125,1,0,0,rectangle,-6.2421875,1.01953125,1,0,0,-6.2421875,1.01953125,1,0,0,0,120,120,0,1,,,,,,,,
,,,,,,,,,,,,,FF,,,,,,,,1.187525,,,,,,,,,,,,,,,,,,,,,,61035646f6f36bf75f71c354,610365e2f412eb22a7feccc9,2021-07-29_20h38.07.697,Simcolourproject_2stim_asymm_v5,2020.2.10,MacIntel,60,61025ae37ef11b136ea224fe,,,,,,,,,3960,47.203125,85.7734375,1,0,0,response1disk,,7,0.25390625,0.09375,1,0,0,rectangle,0.25390625,0.09375,1,0,0,0.25390625,0.09375,1,0,0,0,121,121,113,1,,,,,,,,
,,,,,,,,,,,,,FF,,,,,,,,0.953645,,,,,,,,,,,,,,,,,,,,,,61035646f6f36bf75f71c354,610365e2f412eb22a7feccc9,2021-07-29_20h38.07.697,Simcolourproject_2stim_asymm_v5,2020.2.10,MacIntel,60,61025ae37ef11b136ea224fe,,,,,,,,,4277,42.06640625,87.48828125,1,0,0,response1disk,,7,2.6328125,6.1015625,1,0,0,rectangle,2.6328125,6.1015625,1,0,0,2.6328125,6.1015625,1,0,0,0,122,122,127,1,,,,,,,,
,,,,,,,,,,,,,FF,,,,,,,,1.05514,,,,,,,,,,,,,,,,,,,,,,61035646f6f36bf75f71c354,610365e2f412eb22a7feccc9,2021-07-29_20h38.07.697,Simcolourproject_2stim_asymm_v5,2020.2.10,MacIntel,60,61025ae37ef11b136ea224fe,,,,,,,,,2614,85.91796875,-60.1875,1,0,0,response3disk,,5,-7.5625,5.5859375,1,0,0,rectangle,-7.5625,5.5859375,1,0,0,-7.5625,5.5859375,1,0,0,0,123,123,78,1,,,,,,,,
,,,,,,,,,,,,,FF,,,,,,,,0.78505,,,,,,,,,,,,,,,,,,,,,,61035646f6f36bf75f71c354,610365e2f412eb22a7feccc9,2021-07-29_20h38.07.697,Simcolourproject_2stim_asymm_v5,2020.2.10,MacIntel,60,61025ae37ef11b136ea224fe,,,,,,,,,2457,30.64453125,95.67578125,1,0,0,response1disk,,7,12.4375,-5.05859375,1,0,0,rectangle,-96.7265625,44.79296875,1,0,0,-2.68359375,1.5078125,1,0,0,0,124,124,155,1,,response7disk_3,TRUE,1,1,"[140,45,224,236,206,52,227,254,191,21,125,92,44,209,161,72,81,107,152,135]",1.201215,rectangle
,,,,,,,,,,,,,FF,,,,,,,,0.96894,,,,,,,,,,,,,,,,,,,,,,61035646f6f36bf75f71c354,610365e2f412eb22a7feccc9,2021-07-29_20h38.07.697,Simcolourproject_2stim_asymm_v5,2020.2.10,MacIntel,60,61025ae37ef11b136ea224fe,,,,,,,,,3817,57.19140625,-85.92578125,1,0,0,response3disk,,4,-7.328125,7.8671875,1,0,0,rectangle,-7.328125,7.8671875,1,0,0,-7.328125,7.8671875,1,0,0,0,125,125,38,1,,,,,,,,
,,,,,,,,,,,,,FF,,,,,,,,2.44071,,,,,,,,,,,,,,,,,,,,,,61035646f6f36bf75f71c354,610365e2f412eb22a7feccc9,2021-07-29_20h38.07.697,Simcolourproject_2stim_asymm_v5,2020.2.10,MacIntel,60,61025ae37ef11b136ea224fe,,,,,,,,,3276,80.8359375,44.97265625,1,0,0,response1disk,,6,2.4140625,-4.6328125,1,0,0,rectangle,2.4140625,-4.6328125,1,0,0,2.4140625,-4.6328125,1,0,0,0,126,126,137,1,,,,,,,,
,,,,,,,,,,,,,FF,,,,,,,,1.068305,,,,,,,,,,,,,,,,,,,,,,61035646f6f36bf75f71c354,610365e2f412eb22a7feccc9,2021-07-29_20h38.07.697,Simcolourproject_2stim_asymm_v5,2020.2.10,MacIntel,60,61025ae37ef11b136ea224fe,,,,,,,,,1356,114.734375,-38.34375,1,0,0,response3disk,,5,-8.77734375,8.0859375,1,0,0,rectangle,-8.77734375,8.0859375,1,0,0,-8.77734375,8.0859375,1,0,0,0,127,127,98,1,,,,,,,,
,,,,,,,,,,,,,FF,,,,,,,,0.986175,,,,,,,,,,,,,,,,,,,,,,61035646f6f36bf75f71c354,610365e2f412eb22a7feccc9,2021-07-29_20h38.07.697,Simcolourproject_2stim_asymm_v5,2020.2.10,MacIntel,60,61025ae37ef11b136ea224fe,,,,,,,,,3807,20.93359375,51.859375,1,0,0,response1disk,,7,0.23046875,3.51953125,1,0,0,rectangle,0.23046875,3.51953125,1,0,0,0.23046875,3.51953125,1,0,0,0,128,128,9,1,,,,,,,,
,,,,,,,,,,,,,FF,,,,,,,,0.650145,,,,,,,,,,,,,,,,,,,,,,61035646f6f36bf75f71c354,610365e2f412eb22a7feccc9,2021-07-29_20h38.07.697,Simcolourproject_2stim_asymm_v5,2020.2.10,MacIntel,60,61025ae37ef11b136ea224fe,,,,,,,,,2225,31.92578125,67.09375,1,0,0,response1disk,,7,-2.95703125,-7.5078125,1,0,0,rectangle,-2.95703125,-7.5078125,1,0,0,-2.95703125,-7.5078125,1,0,0,0,129,129,16,1,,,,,,,,
,,,,,,,,,,,,,FF,,,,,,,,1.07119,,,,,,,,,,,,,,,,,,,,,,61035646f6f36bf75f71c354,610365e2f412eb22a7feccc9,2021-07-29_20h38.07.697,Simcolourproject_2stim_asymm_v5,2020.2.10,MacIntel,60,61025ae37ef11b136ea224fe,,,,,,,,,367,-28.75,-69.20703125,1,0,0,response5disk,,3,-5.109375,-1.67578125,1,0,0,rectangle,-5.109375,-1.67578125,1,0,0,-5.109375,-1.67578125,1,0,0,0,130,130,44,1,,,,,,,,
,,,,,,,,,,,,,FF,,,,,,,,0.805,,,,,,,,,,,,,,,,,,,,,,61035646f6f36bf75f71c354,610365e2f412eb22a7feccc9,2021-07-29_20h38.07.697,Simcolourproject_2stim_asymm_v5,2020.2.10,MacIntel,60,61025ae37ef11b136ea224fe,,,,,,,,,2637,29.4921875,52.84765625,1,0,0,response1disk,,7,1.12109375,-1.96484375,1,0,0,rectangle,1.12109375,-1.96484375,1,0,0,1.12109375,-1.96484375,1,0,0,0,131,131,22,1,,,,,,,,
,,,,,,,,,,,,,FF,,,,,,,,1.437865,,,,,,,,,,,,,,,,,,,,,,61035646f6f36bf75f71c354,610365e2f412eb22a7feccc9,2021-07-29_20h38.07.697,Simcolourproject_2stim_asymm_v5,2020.2.10,MacIntel,60,61025ae37ef11b136ea224fe,,,,,,,,,2648,109.0742188,40.9375,1,0,0,response1disk,,6,0.0234375,-1.6796875,1,0,0,rectangle,0.0234375,-1.6796875,1,0,0,0.0234375,-1.6796875,1,0,0,0,132,132,88,1,,,,,,,,
,,,,,,,,,,,,,FF,,,,,,,,0.667625,,,,,,,,,,,,,,,,,,,,,,61035646f6f36bf75f71c354,610365e2f412eb22a7feccc9,2021-07-29_20h38.07.697,Simcolourproject_2stim_asymm_v5,2020.2.10,MacIntel,60,61025ae37ef11b136ea224fe,,,,,,,,,3423,37.75,95.1015625,1,0,0,response1disk,,7,2.3203125,5.546875,1,0,0,rectangle,2.3203125,5.546875,1,0,0,2.3203125,5.546875,1,0,0,0,133,133,93,1,,,,,,,,
,,,,,,,,,,,,,FF,,,,,,,,0.787255,,,,,,,,,,,,,,,,,,,,,,61035646f6f36bf75f71c354,610365e2f412eb22a7feccc9,2021-07-29_20h38.07.697,Simcolourproject_2stim_asymm_v5,2020.2.10,MacIntel,60,61025ae37ef11b136ea224fe,,,,,,,,,971,-56.75,-98.0625,1,0,0,response5disk,,3,1.02734375,-2.90625,1,0,0,rectangle,-18.70703125,80.328125,1,0,0,-5.04296875,0.34765625,1,0,0,0,134,134,82,1,,response7disk_3,TRUE,0,0,"[140,45,224,236,206,52,227,254,191,21,125,92,44,209,161,72,81,107,152,135]",1.368935,rectangle
,,,,,,,,,,,,,FF,,,,,,,,1.135335,,,,,,,,,,,,,,,,,,,,,,61035646f6f36bf75f71c354,610365e2f412eb22a7feccc9,2021-07-29_20h38.07.697,Simcolourproject_2stim_asymm_v5,2020.2.10,MacIntel,60,61025ae37ef11b136ea224fe,,,,,,,,,2077,92.3984375,-48.31640625,1,0,0,response3disk,,5,-15.4375,6.7421875,1,0,0,rectangle,-15.4375,6.7421875,1,0,0,-15.4375,6.7421875,1,0,0,0,135,135,150,1,,,,,,,,
,,,,,,,,,,,,,FF,,,,,,,,0.686285,,,,,,,,,,,,,,,,,,,,,,61035646f6f36bf75f71c354,610365e2f412eb22a7feccc9,2021-07-29_20h38.07.697,Simcolourproject_2stim_asymm_v5,2020.2.10,MacIntel,60,61025ae37ef11b136ea224fe,,,,,,,,,2851,84.6171875,-41.16015625,1,0,0,response3disk,,5,-0.96484375,13.2421875,1,0,0,rectangle,-0.96484375,13.2421875,1,0,0,-0.96484375,13.2421875,1,0,0,0,136,136,146,1,,,,,,,,
,,,,,,,,,,,,,FF,,,,,,,,1.454915,,,,,,,,,,,,,,,,,,,,,,61035646f6f36bf75f71c354,610365e2f412eb22a7feccc9,2021-07-29_20h38.07.697,Simcolourproject_2stim_asymm_v5,2020.2.10,MacIntel,60,61025ae37ef11b136ea224fe,,,,,,,,,1824,-42.70703125,-56.15625,1,0,0,response5disk,,3,-7.09765625,-5.13671875,1,0,0,rectangle,-7.09765625,-5.13671875,1,0,0,-7.09765625,-5.13671875,1,0,0,0,137,137,156,1,,,,,,,,
,,,,,,,,,,,,,FF,,,,,,,,0.62138,,,,,,,,,,,,,,,,,,,,,,61035646f6f36bf75f71c354,610365e2f412eb22a7feccc9,2021-07-29_20h38.07.697,Simcolourproject_2stim_asymm_v5,2020.2.10,MacIntel,60,61025ae37ef11b136ea224fe,,,,,,,,,1853,42.875,65.88671875,1,0,0,response1disk,,7,-2.7265625,-2.171875,1,0,0,rectangle,-2.7265625,-2.171875,1,0,0,-2.7265625,-2.171875,1,0,0,0,138,138,109,1,,,,,,,,
,,,,,,,,,,,,,FF,,,,,,,,1.102105,,,,,,,,,,,,,,,,,,,,,,61035646f6f36bf75f71c354,610365e2f412eb22a7feccc9,2021-07-29_20h38.07.697,Simcolourproject_2stim_asymm_v5,2020.2.10,MacIntel,60,61025ae37ef11b136ea224fe,,,,,,,,,1046,31.01171875,52,1,0,0,response1disk,,7,-2.94921875,-3.640625,1,0,0,rectangle,128.6796875,49.49609375,1,0,0,16.33203125,2.90234375,1,0,0,0,139,139,55,1,,response1disk_3,TRUE,6,6,"[140,45,224,236,206,52,227,254,191,21,125,92,44,209,161,72,81,107,152,135]",1.20305,rectangle
,,,,,,,,,,,,,FF,,,,,,,,1.438415,,,,,,,,,,,,,,,,,,,,,,61035646f6f36bf75f71c354,610365e2f412eb22a7feccc9,2021-07-29_20h38.07.697,Simcolourproject_2stim_asymm_v5,2020.2.10,MacIntel,60,61025ae37ef11b136ea224fe,,,,,,,,,4097,-48.6328125,-80.2265625,1,0,0,response5disk,,3,11.51171875,4.84765625,1,0,0,rectangle,11.51171875,4.84765625,1,0,0,11.51171875,4.84765625,1,0,0,0,140,140,115,1,,,,,,,,
,,,,,,,,,,,,,FF,,,,,,,,1.12018,,,,,,,,,,,,,,,,,,,,,,61035646f6f36bf75f71c354,610365e2f412eb22a7feccc9,2021-07-29_20h38.07.697,Simcolourproject_2stim_asymm_v5,2020.2.10,MacIntel,60,61025ae37ef11b136ea224fe,,,,,,,,,1525,49.2890625,-70.49609375,1,0,0,response3disk,,4,-7.2109375,2.76953125,1,0,0,rectangle,-7.2109375,2.76953125,1,0,0,-7.2109375,2.76953125,1,0,0,0,141,141,138,1,,,,,,,,
,,,,,,,,,,,,,FF,,,,,,,,0.70178,,,,,,,,,,,,,,,,,,,,,,61035646f6f36bf75f71c354,610365e2f412eb22a7feccc9,2021-07-29_20h38.07.697,Simcolourproject_2stim_asymm_v5,2020.2.10,MacIntel,60,61025ae37ef11b136ea224fe,,,,,,,,,936,36.46875,81.25,1,0,0,response1disk,,7,3.65625,8.375,1,0,0,rectangle,3.65625,8.375,1,0,0,3.65625,8.375,1,0,0,0,142,142,99,1,,,,,,,,
,,,,,,,,,,,,,FF,,,,,,,,1.85561,,,,,,,,,,,,,,,,,,,,,,61035646f6f36bf75f71c354,610365e2f412eb22a7feccc9,2021-07-29_20h38.07.697,Simcolourproject_2stim_asymm_v5,2020.2.10,MacIntel,60,61025ae37ef11b136ea224fe,,,,,,,,,2111,80.03515625,39.0703125,1,0,0,response1disk,,6,3.37890625,2.3359375,1,0,0,rectangle,3.37890625,2.3359375,1,0,0,3.37890625,2.3359375,1,0,0,0,143,143,123,1,,,,,,,,
,,,,,,,,,,,,,FF,,,,,,,,1.58852,,,,,,,,,,,,,,,,,,,,,,61035646f6f36bf75f71c354,610365e2f412eb22a7feccc9,2021-07-29_20h38.07.697,Simcolourproject_2stim_asymm_v5,2020.2.10,MacIntel,60,61025ae37ef11b136ea224fe,,,,,,,,,4190,32.9921875,-87.56640625,1,0,0,response3disk,,4,17.15625,-1.078125,1,0,0,rectangle,17.15625,-1.078125,1,0,0,17.15625,-1.078125,1,0,0,0,144,144,112,1,,,,,,,,
,,,,,,,,,,,,,FF,,,,,,,,1.17007,,,,,,,,,,,,,,,,,,,,,,61035646f6f36bf75f71c354,610365e2f412eb22a7feccc9,2021-07-29_20h38.07.697,Simcolourproject_2stim_asymm_v5,2020.2.10,MacIntel,60,61025ae37ef11b136ea224fe,,,,,,,,,3757,90.88671875,-45.0078125,1,0,0,response3disk,,5,-5.35546875,-8.515625,1,0,0,rectangle,-5.35546875,-8.515625,1,0,0,-5.35546875,-8.515625,1,0,0,0,145,145,154,1,,,,,,,,
,,,,,,,,,,,,,FF,,,,,,,,1.002385,,,,,,,,,,,,,,,,,,,,,,61035646f6f36bf75f71c354,610365e2f412eb22a7feccc9,2021-07-29_20h38.07.697,Simcolourproject_2stim_asymm_v5,2020.2.10,MacIntel,60,61025ae37ef11b136ea224fe,,,,,,,,,382,69.51953125,35.1484375,1,0,0,response1disk,,6,7.8984375,6.05078125,1,0,0,rectangle,7.8984375,6.05078125,1,0,0,7.8984375,6.05078125,1,0,0,0,146,146,15,1,,,,,,,,
,,,,,,,,,,,,,FF,,,,,,,,1.404645,,,,,,,,,,,,,,,,,,,,,,61035646f6f36bf75f71c354,610365e2f412eb22a7feccc9,2021-07-29_20h38.07.697,Simcolourproject_2stim_asymm_v5,2020.2.10,MacIntel,60,61025ae37ef11b136ea224fe,,,,,,,,,3435,-44.86328125,-84.02734375,1,0,0,response5disk,,3,2.91015625,-4.703125,1,0,0,rectangle,2.91015625,-4.703125,1,0,0,2.91015625,-4.703125,1,0,0,0,147,147,2,1,,,,,,,,
,,,,,,,,,,,,,FF,,,,,,,,0.718405,,,,,,,,,,,,,,,,,,,,,,61035646f6f36bf75f71c354,610365e2f412eb22a7feccc9,2021-07-29_20h38.07.697,Simcolourproject_2stim_asymm_v5,2020.2.10,MacIntel,60,61025ae37ef11b136ea224fe,,,,,,,,,2600,32.11328125,58.48828125,1,0,0,response1disk,,7,3.265625,-1.9453125,1,0,0,rectangle,3.265625,-1.9453125,1,0,0,3.265625,-1.9453125,1,0,0,0,148,148,126,1,,,,,,,,
,,,,,,,,,,,,,FF,,,,,,,,0.885085,,,,,,,,,,,,,,,,,,,,,,61035646f6f36bf75f71c354,610365e2f412eb22a7feccc9,2021-07-29_20h38.07.697,Simcolourproject_2stim_asymm_v5,2020.2.10,MacIntel,60,61025ae37ef11b136ea224fe,,,,,,,,,847,50.66796875,86.109375,1,0,0,response1disk,,7,1.859375,0.375,1,0,0,rectangle,1.859375,0.375,1,0,0,1.859375,0.375,1,0,0,0,149,149,36,1,,,,,,,,
,,,,,,,,,,,,,FF,,,,,,,,0.8848,,,,,,,,,,,,,,,,,,,,,,61035646f6f36bf75f71c354,610365e2f412eb22a7feccc9,2021-07-29_20h38.07.697,Simcolourproject_2stim_asymm_v5,2020.2.10,MacIntel,60,61025ae37ef11b136ea224fe,,,,,,,,,106,81.65234375,30.125,1,0,0,response1disk,,6,-4.08203125,-6.53515625,1,0,0,rectangle,-4.08203125,-6.53515625,1,0,0,-4.08203125,-6.53515625,1,0,0,0,150,150,29,1,,,,,,,,
,,,,,,,,,,,,,FF,,,,,,,,1.287455,,,,,,,,,,,,,,,,,,,,,,61035646f6f36bf75f71c354,610365e2f412eb22a7feccc9,2021-07-29_20h38.07.697,Simcolourproject_2stim_asymm_v5,2020.2.10,MacIntel,60,61025ae37ef11b136ea224fe,,,,,,,,,3156,24.47265625,-83.140625,1,0,0,response3disk,,4,-1.0078125,-8.2265625,1,0,0,rectangle,100.4375,51.96484375,1,0,0,13.10546875,6.6015625,1,0,0,0,151,151,63,1,,response1disk_3,TRUE,6,6,"[140,45,224,236,206,52,227,254,191,21,125,92,44,209,161,72,81,107,152,135]",1.487985,rectangle
,,,,,,,,,,,,,FF,,,,,,,,1.23653,,,,,,,,,,,,,,,,,,,,,,61035646f6f36bf75f71c354,610365e2f412eb22a7feccc9,2021-07-29_20h38.07.697,Simcolourproject_2stim_asymm_v5,2020.2.10,MacIntel,60,61025ae37ef11b136ea224fe,,,,,,,,,403,82.8984375,51.78125,1,0,0,response1disk,,6,-10.4921875,-3.91015625,1,0,0,rectangle,-10.4921875,-3.91015625,1,0,0,-10.4921875,-3.91015625,1,0,0,0,152,152,21,1,,,,,,,,
,,,,,,,,,,,,,FF,,,,,,,,0.667895,,,,,,,,,,,,,,,,,,,,,,61035646f6f36bf75f71c354,610365e2f412eb22a7feccc9,2021-07-29_20h38.07.697,Simcolourproject_2stim_asymm_v5,2020.2.10,MacIntel,60,61025ae37ef11b136ea224fe,,,,,,,,,1124,67.609375,88.22265625,1,0,0,response1disk,,7,0.62890625,1.109375,1,0,0,rectangle,0.62890625,1.109375,1,0,0,0.62890625,1.109375,1,0,0,0,153,153,18,1,,,,,,,,
,,,,,,,,,,,,,FF,,,,,,,,0.65108,,,,,,,,,,,,,,,,,,,,,,61035646f6f36bf75f71c354,610365e2f412eb22a7feccc9,2021-07-29_20h38.07.697,Simcolourproject_2stim_asymm_v5,2020.2.10,MacIntel,60,61025ae37ef11b136ea224fe,,,,,,,,,2869,43.39453125,68.96484375,1,0,0,response1disk,,7,14.8515625,12.8671875,1,0,0,rectangle,14.8515625,12.8671875,1,0,0,14.8515625,12.8671875,1,0,0,0,154,154,141,1,,,,,,,,
,,,,,,,,,,,,,FF,,,,,,,,1.78781,,,,,,,,,,,,,,,,,,,,,,61035646f6f36bf75f71c354,610365e2f412eb22a7feccc9,2021-07-29_20h38.07.697,Simcolourproject_2stim_asymm_v5,2020.2.10,MacIntel,60,61025ae37ef11b136ea224fe,,,,,,,,,3844,75.59765625,-51.3046875,1,0,0,response3disk,,5,11.7421875,-7.0390625,1,0,0,rectangle,11.7421875,-7.0390625,1,0,0,11.7421875,-7.0390625,1,0,0,0,155,155,74,1,,,,,,,,
,,,,,,,,,,,,,FF,,,,,,,,1.1542,,,,,,,,,,,,,,,,,,,,,,61035646f6f36bf75f71c354,610365e2f412eb22a7feccc9,2021-07-29_20h38.07.697,Simcolourproject_2stim_asymm_v5,2020.2.10,MacIntel,60,61025ae37ef11b136ea224fe,,,,,,,,,4103,31.796875,-99.8203125,1,0,0,response3disk,,4,-16.81640625,12.03515625,1,0,0,rectangle,-16.81640625,12.03515625,1,0,0,-16.81640625,12.03515625,1,0,0,0,156,156,102,1,,,,,,,,
,,,,,,,,,,,,,FF,,,,,,,,0.65156,,,,,,,,,,,,,,,,,,,,,,61035646f6f36bf75f71c354,610365e2f412eb22a7feccc9,2021-07-29_20h38.07.697,Simcolourproject_2stim_asymm_v5,2020.2.10,MacIntel,60,61025ae37ef11b136ea224fe,,,,,,,,,302,38.58984375,83.7578125,1,0,0,response1disk,,7,1.09375,-2.6171875,1,0,0,rectangle,1.09375,-2.6171875,1,0,0,1.09375,-2.6171875,1,0,0,0,157,157,135,1,,,,,,,,
,,,,,,,,,,,,,FF,,,,,,,,0.66812,,,,,,,,,,,,,,,,,,,,,,61035646f6f36bf75f71c354,610365e2f412eb22a7feccc9,2021-07-29_20h38.07.697,Simcolourproject_2stim_asymm_v5,2020.2.10,MacIntel,60,61025ae37ef11b136ea224fe,,,,,,,,,351,-37.66796875,-72.8203125,1,0,0,response5disk,,3,-7.1796875,2.734375,1,0,0,rectangle,-7.1796875,2.734375,1,0,0,-7.1796875,2.734375,1,0,0,0,158,158,139,1,,,,,,,,
,,,,,,,,,,,,,FF,,,,,,,,0.58572,,,,,,,,,,,,,,,,,,,,,,61035646f6f36bf75f71c354,610365e2f412eb22a7feccc9,2021-07-29_20h38.07.697,Simcolourproject_2stim_asymm_v5,2020.2.10,MacIntel,60,61025ae37ef11b136ea224fe,,,,,,,,,2462,41.80078125,81.12109375,1,0,0,response1disk,,7,-0.34375,1.21484375,1,0,0,rectangle,-0.34375,1.21484375,1,0,0,-0.34375,1.21484375,1,0,0,0,159,159,140,1,,,,,,,,
,,,,,,,,,,,,,FF,,,,,,,,1.11911,,,,,,,,,,,,,,,,,,,,,,61035646f6f36bf75f71c354,610365e2f412eb22a7feccc9,2021-07-29_20h38.07.697,Simcolourproject_2stim_asymm_v5,2020.2.10,MacIntel,60,61025ae37ef11b136ea224fe,,,,,,,,,380,97.8671875,-46.39453125,1,0,0,response3disk,,5,12.140625,-8.36328125,1,0,0,rectangle,-36.91015625,68.8046875,1,0,0,-0.09765625,-7.38671875,1,0,0,1,0,160,103,1,,response7disk_3,TRUE,0,0,"[140,45,224,236,206,52,227,254,191,21,125,92,44,209,161,72,81,107,152,135]",1.35422,rectangle
,,,,,,,,,,,,,FF,,,,,,,,0.752435,,,,,,,,,,,,,,,,,,,,,,61035646f6f36bf75f71c354,610365e2f412eb22a7feccc9,2021-07-29_20h38.07.697,Simcolourproject_2stim_asymm_v5,2020.2.10,MacIntel,60,61025ae37ef11b136ea224fe,,,,,,,,,2010,37.921875,79.1015625,1,0,0,response1disk,,7,13.85546875,10.0546875,1,0,0,rectangle,13.85546875,10.0546875,1,0,0,13.85546875,10.0546875,1,0,0,1,1,161,139,1,,,,,,,,
,,,,,,,,,,,,,FF,,,,,,,,1.88836,,,,,,,,,,,,,,,,,,,,,,61035646f6f36bf75f71c354,610365e2f412eb22a7feccc9,2021-07-29_20h38.07.697,Simcolourproject_2stim_asymm_v5,2020.2.10,MacIntel,60,61025ae37ef11b136ea224fe,,,,,,,,,4155,88.2734375,27.94140625,1,0,0,response1disk,,6,12.453125,2.36328125,1,0,0,rectangle,12.453125,2.36328125,1,0,0,12.453125,2.36328125,1,0,0,1,2,162,112,1,,,,,,,,
,,,,,,,,,,,,,FF,,,,,,,,0.803515,,,,,,,,,,,,,,,,,,,,,,61035646f6f36bf75f71c354,610365e2f412eb22a7feccc9,2021-07-29_20h38.07.697,Simcolourproject_2stim_asymm_v5,2020.2.10,MacIntel,60,61025ae37ef11b136ea224fe,,,,,,,,,3862,103.7890625,60.9609375,1,0,0,response1disk,,6,3.7109375,-2.41796875,1,0,0,rectangle,3.7109375,-2.41796875,1,0,0,3.7109375,-2.41796875,1,0,0,1,3,163,114,1,,,,,,,,
,,,,,,,,,,,,,FF,,,,,,,,1.489045,,,,,,,,,,,,,,,,,,,,,,61035646f6f36bf75f71c354,610365e2f412eb22a7feccc9,2021-07-29_20h38.07.697,Simcolourproject_2stim_asymm_v5,2020.2.10,MacIntel,60,61025ae37ef11b136ea224fe,,,,,,,,,2090,96.68359375,-48.17578125,1,0,0,response3disk,,5,4.3515625,0.3046875,1,0,0,rectangle,4.3515625,0.3046875,1,0,0,4.3515625,0.3046875,1,0,0,1,4,164,58,1,,,,,,,,
,,,,,,,,,,,,,FF,,,,,,,,0.63509,,,,,,,,,,,,,,,,,,,,,,61035646f6f36bf75f71c354,610365e2f412eb22a7feccc9,2021-07-29_20h38.07.697,Simcolourproject_2stim_asymm_v5,2020.2.10,MacIntel,60,61025ae37ef11b136ea224fe,,,,,,,,,678,30.55078125,60.421875,1,0,0,response1disk,,7,10.015625,10.7109375,1,0,0,rectangle,10.015625,10.7109375,1,0,0,10.015625,10.7109375,1,0,0,1,5,165,141,1,,,,,,,,
,,,,,,,,,,,,,FF,,,,,,,,0.651035,,,,,,,,,,,,,,,,,,,,,,61035646f6f36bf75f71c354,610365e2f412eb22a7feccc9,2021-07-29_20h38.07.697,Simcolourproject_2stim_asymm_v5,2020.2.10,MacIntel,60,61025ae37ef11b136ea224fe,,,,,,,,,1415,48.1796875,80.87890625,1,0,0,response1disk,,7,0.6640625,-3.38671875,1,0,0,rectangle,0.6640625,-3.38671875,1,0,0,0.6640625,-3.38671875,1,0,0,1,6,166,138,1,,,,,,,,
,,,,,,,,,,,,,FF,,,,,,,,0.54975,,,,,,,,,,,,,,,,,,,,,,61035646f6f36bf75f71c354,610365e2f412eb22a7feccc9,2021-07-29_20h38.07.697,Simcolourproject_2stim_asymm_v5,2020.2.10,MacIntel,60,61025ae37ef11b136ea224fe,,,,,,,,,3261,50.04296875,73.09765625,1,0,0,response1disk,,7,5.515625,3.93359375,1,0,0,rectangle,5.515625,3.93359375,1,0,0,5.515625,3.93359375,1,0,0,1,7,167,67,1,,,,,,,,
,,,,,,,,,,,,,FF,,,,,,,,1.152525,,,,,,,,,,,,,,,,,,,,,,61035646f6f36bf75f71c354,610365e2f412eb22a7feccc9,2021-07-29_20h38.07.697,Simcolourproject_2stim_asymm_v5,2020.2.10,MacIntel,60,61025ae37ef11b136ea224fe,,,,,,,,,3045,-48.33203125,80.87890625,1,0,0,response7disk,,0,-9.56640625,-0.8984375,1,0,0,rectangle,-9.56640625,-0.8984375,1,0,0,-9.56640625,-0.8984375,1,0,0,1,8,168,17,1,,,,,,,,
,,,,,,,,,,,,,FF,,,,,,,,0.852095,,,,,,,,,,,,,,,,,,,,,,61035646f6f36bf75f71c354,610365e2f412eb22a7feccc9,2021-07-29_20h38.07.697,Simcolourproject_2stim_asymm_v5,2020.2.10,MacIntel,60,61025ae37ef11b136ea224fe,,,,,,,,,3750,-29.2734375,-94.79296875,1,0,0,response5disk,,3,1.37109375,8.99609375,1,0,0,rectangle,1.37109375,8.99609375,1,0,0,1.37109375,8.99609375,1,0,0,1,9,169,9,1,,,,,,,,
,,,,,,,,,,,,,FF,,,,,,,,0.65051,,,,,,,,,,,,,,,,,,,,,,61035646f6f36bf75f71c354,610365e2f412eb22a7feccc9,2021-07-29_20h38.07.697,Simcolourproject_2stim_asymm_v5,2020.2.10,MacIntel,60,61025ae37ef11b136ea224fe,,,,,,,,,3809,33.37890625,62.34765625,1,0,0,response1disk,,7,14.83984375,1.1796875,1,0,0,rectangle,14.83984375,1.1796875,1,0,0,14.83984375,1.1796875,1,0,0,1,10,170,130,1,,,,,,,,
,,,,,,,,,,,,,FF,,,,,,,,1.167835,,,,,,,,,,,,,,,,,,,,,,61035646f6f36bf75f71c354,610365e2f412eb22a7feccc9,2021-07-29_20h38.07.697,Simcolourproject_2stim_asymm_v5,2020.2.10,MacIntel,60,61025ae37ef11b136ea224fe,,,,,,,,,2949,85.10546875,36.05078125,1,0,0,response1disk,,6,-8.51171875,-6.86328125,1,0,0,rectangle,-8.51171875,-6.86328125,1,0,0,-8.51171875,-6.86328125,1,0,0,1,11,171,123,1,,,,,,,,
,,,,,,,,,,,,,FF,,,,,,,,0.835645,,,,,,,,,,,,,,,,,,,,,,61035646f6f36bf75f71c354,610365e2f412eb22a7feccc9,2021-07-29_20h38.07.697,Simcolourproject_2stim_asymm_v5,2020.2.10,MacIntel,60,61025ae37ef11b136ea224fe,,,,,,,,,22,57.88671875,106.4414063,1,0,0,response1disk,,7,3.84375,1.375,1,0,0,rectangle,3.84375,1.375,1,0,0,3.84375,1.375,1,0,0,1,12,172,0,1,,,,,,,,
,,,,,,,,,,,,,FF,,,,,,,,0.920455,,,,,,,,,,,,,,,,,,,,,,61035646f6f36bf75f71c354,610365e2f412eb22a7feccc9,2021-07-29_20h38.07.697,Simcolourproject_2stim_asymm_v5,2020.2.10,MacIntel,60,61025ae37ef11b136ea224fe,,,,,,,,,305,36.2421875,69.96484375,1,0,0,response1disk,,7,9.5078125,3.375,1,0,0,rectangle,9.5078125,3.375,1,0,0,9.5078125,3.375,1,0,0,1,13,173,70,1,,,,,,,,
,,,,,,,,,,,,,FF,,,,,,,,0.66932,,,,,,,,,,,,,,,,,,,,,,61035646f6f36bf75f71c354,610365e2f412eb22a7feccc9,2021-07-29_20h38.07.697,Simcolourproject_2stim_asymm_v5,2020.2.10,MacIntel,60,61025ae37ef11b136ea224fe,,,,,,,,,396,99.71484375,39.078125,1,0,0,response1disk,,6,10.33203125,2.078125,1,0,0,rectangle,10.33203125,2.078125,1,0,0,10.33203125,2.078125,1,0,0,1,14,174,56,1,,,,,,,,
,,,,,,,,,,,,,FF,,,,,,,,0.618135,,,,,,,,,,,,,,,,,,,,,,61035646f6f36bf75f71c354,610365e2f412eb22a7feccc9,2021-07-29_20h38.07.697,Simcolourproject_2stim_asymm_v5,2020.2.10,MacIntel,60,61025ae37ef11b136ea224fe,,,,,,,,,2394,42.27734375,78.80078125,1,0,0,response1disk,,7,1.55859375,-1.69921875,1,0,0,rectangle,1.55859375,-1.69921875,1,0,0,1.55859375,-1.69921875,1,0,0,1,15,175,101,1,,,,,,,,
,,,,,,,,,,,,,FF,,,,,,,,1.42046,,,,,,,,,,,,,,,,,,,,,,61035646f6f36bf75f71c354,610365e2f412eb22a7feccc9,2021-07-29_20h38.07.697,Simcolourproject_2stim_asymm_v5,2020.2.10,MacIntel,60,61025ae37ef11b136ea224fe,,,,,,,,,2039,44.0390625,-66.6875,1,0,0,response3disk,,4,5.88671875,-6.953125,1,0,0,rectangle,5.88671875,-6.953125,1,0,0,5.88671875,-6.953125,1,0,0,1,16,176,126,1,,,,,,,,
,,,,,,,,,,,,,FF,,,,,,,,0.853865,,,,,,,,,,,,,,,,,,,,,,61035646f6f36bf75f71c354,610365e2f412eb22a7feccc9,2021-07-29_20h38.07.697,Simcolourproject_2stim_asymm_v5,2020.2.10,MacIntel,60,61025ae37ef11b136ea224fe,,,,,,,,,798,52.7890625,79.58203125,1,0,0,response1disk,,7,-11.72265625,-5.1640625,1,0,0,rectangle,-11.72265625,-5.1640625,1,0,0,-11.72265625,-5.1640625,1,0,0,1,17,177,1,1,,,,,,,,
,,,,,,,,,,,,,FF,,,,,,,,0.66813,,,,,,,,,,,,,,,,,,,,,,61035646f6f36bf75f71c354,610365e2f412eb22a7feccc9,2021-07-29_20h38.07.697,Simcolourproject_2stim_asymm_v5,2020.2.10,MacIntel,60,61025ae37ef11b136ea224fe,,,,,,,,,1476,47.51953125,85.12890625,1,0,0,response1disk,,7,-4.14453125,-10.25,1,0,0,rectangle,-4.14453125,-10.25,1,0,0,-4.14453125,-10.25,1,0,0,1,18,178,14,1,,,,,,,,
,,,,,,,,,,,,,FF,,,,,,,,0.8535,,,,,,,,,,,,,,,,,,,,,,61035646f6f36bf75f71c354,610365e2f412eb22a7feccc9,2021-07-29_20h38.07.697,Simcolourproject_2stim_asymm_v5,2020.2.10,MacIntel,60,61025ae37ef11b136ea224fe,,,,,,,,,1285,90.50390625,36.99609375,1,0,0,response1disk,,6,-0.1328125,0.68359375,1,0,0,rectangle,-0.1328125,0.68359375,1,0,0,-0.1328125,0.68359375,1,0,0,1,19,179,37,1,,,,,,,,
,,,,,,,,,,,,,FF,,,,,,,,0.88524,,,,,,,,,,,,,,,,,,,,,,61035646f6f36bf75f71c354,610365e2f412eb22a7feccc9,2021-07-29_20h38.07.697,Simcolourproject_2stim_asymm_v5,2020.2.10,MacIntel,60,61025ae37ef11b136ea224fe,,,,,,,,,3201,85.58203125,-52.19140625,1,0,0,response3disk,,5,-2.68359375,-3.8984375,1,0,0,rectangle,-2.68359375,-3.8984375,1,0,0,-2.68359375,-3.8984375,1,0,0,1,20,180,43,1,,,,,,,,
,,,,,,,,,,,,,FF,,,,,,,,1.10287,,,,,,,,,,,,,,,,,,,,,,61035646f6f36bf75f71c354,610365e2f412eb22a7feccc9,2021-07-29_20h38.07.697,Simcolourproject_2stim_asymm_v5,2020.2.10,MacIntel,60,61025ae37ef11b136ea224fe,,,,,,,,,1004,48.63671875,91.2265625,1,0,0,response1disk,,7,8.21875,7.7890625,1,0,0,rectangle,8.21875,7.7890625,1,0,0,8.21875,7.7890625,1,0,0,1,21,181,125,1,,,,,,,,
,,,,,,,,,,,,,FF,,,,,,,,0.75161,,,,,,,,,,,,,,,,,,,,,,61035646f6f36bf75f71c354,610365e2f412eb22a7feccc9,2021-07-29_20h38.07.697,Simcolourproject_2stim_asymm_v5,2020.2.10,MacIntel,60,61025ae37ef11b136ea224fe,,,,,,,,,3810,-53.36328125,100.8515625,1,0,0,response7disk,,0,3.9609375,-8.30859375,1,0,0,rectangle,3.9609375,-8.30859375,1,0,0,3.9609375,-8.30859375,1,0,0,1,22,182,87,1,,,,,,,,
,,,,,,,,,,,,,FF,,,,,,,,0.75289,,,,,,,,,,,,,,,,,,,,,,61035646f6f36bf75f71c354,610365e2f412eb22a7feccc9,2021-07-29_20h38.07.697,Simcolourproject_2stim_asymm_v5,2020.2.10,MacIntel,60,61025ae37ef11b136ea224fe,,,,,,,,,2840,-32.9375,-88.28515625,1,0,0,response5disk,,3,-10.01953125,-5.03515625,1,0,0,rectangle,-10.01953125,-5.03515625,1,0,0,-10.01953125,-5.03515625,1,0,0,1,23,183,39,1,,,,,,,,
,,,,,,,,,,,,,FF,,,,,,,,1.941875,,,,,,,,,,,,,,,,,,,,,,61035646f6f36bf75f71c354,610365e2f412eb22a7feccc9,2021-07-29_20h38.07.697,Simcolourproject_2stim_asymm_v5,2020.2.10,MacIntel,60,61025ae37ef11b136ea224fe,,,,,,,,,3480,38.0625,-98.50390625,1,0,0,response3disk,,4,4.19921875,-11.20703125,1,0,0,rectangle,4.19921875,-11.20703125,1,0,0,4.19921875,-11.20703125,1,0,0,1,24,184,154,1,,,,,,,,
,,,,,,,,,,,,,FF,,,,,,,,0.81841,,,,,,,,,,,,,,,,,,,,,,61035646f6f36bf75f71c354,610365e2f412eb22a7feccc9,2021-07-29_20h38.07.697,Simcolourproject_2stim_asymm_v5,2020.2.10,MacIntel,60,61025ae37ef11b136ea224fe,,,,,,,,,3202,-24.890625,-69.6796875,1,0,0,response5disk,,3,0.20703125,9.515625,1,0,0,rectangle,0.20703125,9.515625,1,0,0,0.20703125,9.515625,1,0,0,1,25,185,98,1,,,,,,,,
,,,,,,,,,,,,,FF,,,,,,,,0.619895,,,,,,,,,,,,,,,,,,,,,,61035646f6f36bf75f71c354,610365e2f412eb22a7feccc9,2021-07-29_20h38.07.697,Simcolourproject_2stim_asymm_v5,2020.2.10,MacIntel,60,61025ae37ef11b136ea224fe,,,,,,,,,86,41.734375,85.11328125,1,0,0,response1disk,,7,-0.48828125,1.62109375,1,0,0,rectangle,-0.48828125,1.62109375,1,0,0,-0.48828125,1.62109375,1,0,0,1,26,186,124,1,,,,,,,,
,,,,,,,,,,,,,FF,,,,,,,,1.336395,,,,,,,,,,,,,,,,,,,,,,61035646f6f36bf75f71c354,610365e2f412eb22a7feccc9,2021-07-29_20h38.07.697,Simcolourproject_2stim_asymm_v5,2020.2.10,MacIntel,60,61025ae37ef11b136ea224fe,,,,,,,,,2995,82.109375,-46.40234375,1,0,0,response3disk,,5,13.50390625,4.19921875,1,0,0,rectangle,13.50390625,4.19921875,1,0,0,13.50390625,4.19921875,1,0,0,1,27,187,68,1,,,,,,,,
,,,,,,,,,,,,,FF,,,,,,,,0.533835,,,,,,,,,,,,,,,,,,,,,,61035646f6f36bf75f71c354,610365e2f412eb22a7feccc9,2021-07-29_20h38.07.697,Simcolourproject_2stim_asymm_v5,2020.2.10,MacIntel,60,61025ae37ef11b136ea224fe,,,,,,,,,4087,30.65625,86.08984375,1,0,0,response1disk,,7,-3.00390625,-5.44921875,1,0,0,rectangle,-3.00390625,-5.44921875,1,0,0,-3.00390625,-5.44921875,1,0,0,1,28,188,97,1,,,,,,,,
,,,,,,,,,,,,,FF,,,,,,,,0.702375,,,,,,,,,,,,,,,,,,,,,,61035646f6f36bf75f71c354,610365e2f412eb22a7feccc9,2021-07-29_20h38.07.697,Simcolourproject_2stim_asymm_v5,2020.2.10,MacIntel,60,61025ae37ef11b136ea224fe,,,,,,,,,3886,28.53125,60.6875,1,0,0,response1disk,,7,13.91015625,6.765625,1,0,0,rectangle,13.91015625,6.765625,1,0,0,13.91015625,6.765625,1,0,0,1,29,189,18,1,,,,,,,,
,,,,,,,,,,,,,FF,,,,,,,,1.220385,,,,,,,,,,,,,,,,,,,,,,61035646f6f36bf75f71c354,610365e2f412eb22a7feccc9,2021-07-29_20h38.07.697,Simcolourproject_2stim_asymm_v5,2020.2.10,MacIntel,60,61025ae37ef11b136ea224fe,,,,,,,,,752,80.91015625,24.83203125,1,0,0,response1disk,,6,5.8515625,-0.08203125,1,0,0,rectangle,-20.24609375,-94.47265625,1,0,0,7.69921875,0.171875,1,0,0,1,30,190,111,1,,response5disk_3,TRUE,3,3,"[140,45,224,236,206,52,227,254,191,21,125,92,44,209,161,72,81,107,152,135]",1.838415,rectangle
,,,,,,,,,,,,,FF,,,,,,,,1.53934,,,,,,,,,,,,,,,,,,,,,,61035646f6f36bf75f71c354,610365e2f412eb22a7feccc9,2021-07-29_20h38.07.697,Simcolourproject_2stim_asymm_v5,2020.2.10,MacIntel,60,61025ae37ef11b136ea224fe,,,,,,,,,2038,-29.6875,-83.9921875,1,0,0,response5disk,,3,5.9765625,1.51171875,1,0,0,rectangle,5.9765625,1.51171875,1,0,0,5.9765625,1.51171875,1,0,0,1,31,191,62,1,,,,,,,,
,,,,,,,,,,,,,FF,,,,,,,,0.585795,,,,,,,,,,,,,,,,,,,,,,61035646f6f36bf75f71c354,610365e2f412eb22a7feccc9,2021-07-29_20h38.07.697,Simcolourproject_2stim_asymm_v5,2020.2.10,MacIntel,60,61025ae37ef11b136ea224fe,,,,,,,,,3905,36.33203125,55.74609375,1,0,0,response1disk,,7,-7.01953125,-7.48046875,1,0,0,rectangle,-7.01953125,-7.48046875,1,0,0,-7.01953125,-7.48046875,1,0,0,1,32,192,91,1,,,,,,,,
,,,,,,,,,,,,,FF,,,,,,,,1.636745,,,,,,,,,,,,,,,,,,,,,,61035646f6f36bf75f71c354,610365e2f412eb22a7feccc9,2021-07-29_20h38.07.697,Simcolourproject_2stim_asymm_v5,2020.2.10,MacIntel,60,61025ae37ef11b136ea224fe,,,,,,,,,3627,79,-42.04296875,1,0,0,response3disk,,5,-4.7734375,-3.73046875,1,0,0,rectangle,-4.7734375,-3.73046875,1,0,0,-4.7734375,-3.73046875,1,0,0,1,33,193,15,1,,,,,,,,
,,,,,,,,,,,,,FF,,,,,,,,0.83463,,,,,,,,,,,,,,,,,,,,,,61035646f6f36bf75f71c354,610365e2f412eb22a7feccc9,2021-07-29_20h38.07.697,Simcolourproject_2stim_asymm_v5,2020.2.10,MacIntel,60,61025ae37ef11b136ea224fe,,,,,,,,,1905,86.10546875,37.46875,1,0,0,response1disk,,6,-0.09375,-4.16796875,1,0,0,rectangle,-0.09375,-4.16796875,1,0,0,-0.09375,-4.16796875,1,0,0,1,34,194,22,1,,,,,,,,
,,,,,,,,,,,,,FF,,,,,,,,0.76751,,,,,,,,,,,,,,,,,,,,,,61035646f6f36bf75f71c354,610365e2f412eb22a7feccc9,2021-07-29_20h38.07.697,Simcolourproject_2stim_asymm_v5,2020.2.10,MacIntel,60,61025ae37ef11b136ea224fe,,,,,,,,,57,31.234375,76.9921875,1,0,0,response1disk,,7,-1.70703125,6.921875,1,0,0,rectangle,-1.70703125,6.921875,1,0,0,-1.70703125,6.921875,1,0,0,1,35,195,109,1,,,,,,,,
,,,,,,,,,,,,,FF,,,,,,,,1.287885,,,,,,,,,,,,,,,,,,,,,,61035646f6f36bf75f71c354,610365e2f412eb22a7feccc9,2021-07-29_20h38.07.697,Simcolourproject_2stim_asymm_v5,2020.2.10,MacIntel,60,61025ae37ef11b136ea224fe,,,,,,,,,1907,76.80859375,-37.55859375,1,0,0,response3disk,,5,-3.46484375,-6.171875,1,0,0,rectangle,-3.46484375,-6.171875,1,0,0,-3.46484375,-6.171875,1,0,0,1,36,196,24,1,,,,,,,,
,,,,,,,,,,,,,FF,,,,,,,,0.869115,,,,,,,,,,,,,,,,,,,,,,61035646f6f36bf75f71c354,610365e2f412eb22a7feccc9,2021-07-29_20h38.07.697,Simcolourproject_2stim_asymm_v5,2020.2.10,MacIntel,60,61025ae37ef11b136ea224fe,,,,,,,,,2297,-36.48046875,-93.5625,1,0,0,response5disk,,3,-12.296875,-4.453125,1,0,0,rectangle,-12.296875,-4.453125,1,0,0,-12.296875,-4.453125,1,0,0,1,37,197,31,1,,,,,,,,
,,,,,,,,,,,,,FF,,,,,,,,1.086335,,,,,,,,,,,,,,,,,,,,,,61035646f6f36bf75f71c354,610365e2f412eb22a7feccc9,2021-07-29_20h38.07.697,Simcolourproject_2stim_asymm_v5,2020.2.10,MacIntel,60,61025ae37ef11b136ea224fe,,,,,,,,,4161,-48.7578125,88.12109375,1,0,0,response7disk,,0,17.15625,-7.1875,1,0,0,rectangle,17.15625,-7.1875,1,0,0,17.15625,-7.1875,1,0,0,1,38,198,132,1,,,,,,,,
,,,,,,,,,,,,,FF,,,,,,,,1.169295,,,,,,,,,,,,,,,,,,,,,,61035646f6f36bf75f71c354,610365e2f412eb22a7feccc9,2021-07-29_20h38.07.697,Simcolourproject_2stim_asymm_v5,2020.2.10,MacIntel,60,61025ae37ef11b136ea224fe,,,,,,,,,870,43.0859375,-72.5234375,1,0,0,response3disk,,4,0.546875,-9.8828125,1,0,0,rectangle,0.546875,-9.8828125,1,0,0,0.546875,-9.8828125,1,0,0,1,39,199,79,1,,,,,,,,
,,,,,,,,,,,,,FF,,,,,,,,4.46323,,,,,,,,,,,,,,,,,,,,,,61035646f6f36bf75f71c354,610365e2f412eb22a7feccc9,2021-07-29_20h38.07.697,Simcolourproject_2stim_asymm_v5,2020.2.10,MacIntel,60,61025ae37ef11b136ea224fe,,,,,,,,,4140,-44.4453125,120.3359375,1,0,0,response7disk,,0,4.62109375,-6.36328125,1,0,0,rectangle,4.62109375,-6.36328125,1,0,0,4.62109375,-6.36328125,1,0,0,1,40,200,30,1,,,,,,,,
,,,,,,,,,,,,,FF,,,,,,,,3.893305,,,,,,,,,,,,,,,,,,,,,,61035646f6f36bf75f71c354,610365e2f412eb22a7feccc9,2021-07-29_20h38.07.697,Simcolourproject_2stim_asymm_v5,2020.2.10,MacIntel,60,61025ae37ef11b136ea224fe,,,,,,,,,2173,-45.05859375,-72.08984375,1,0,0,response5disk,,3,1.64453125,2.9140625,1,0,0,rectangle,1.64453125,2.9140625,1,0,0,1.64453125,2.9140625,1,0,0,1,41,201,156,1,,,,,,,,
,,,,,,,,,,,,,FF,,,,,,,,0.704285,,,,,,,,,,,,,,,,,,,,,,61035646f6f36bf75f71c354,610365e2f412eb22a7feccc9,2021-07-29_20h38.07.697,Simcolourproject_2stim_asymm_v5,2020.2.10,MacIntel,60,61025ae37ef11b136ea224fe,,,,,,,,,3205,-37.1796875,-76.33984375,1,0,0,response5disk,,3,-11.20703125,-10.97265625,1,0,0,rectangle,-11.20703125,-10.97265625,1,0,0,-11.20703125,-10.97265625,1,0,0,1,42,202,11,1,,,,,,,,
,,,,,,,,,,,,,FF,,,,,,,,0.73577,,,,,,,,,,,,,,,,,,,,,,61035646f6f36bf75f71c354,610365e2f412eb22a7feccc9,2021-07-29_20h38.07.697,Simcolourproject_2stim_asymm_v5,2020.2.10,MacIntel,60,61025ae37ef11b136ea224fe,,,,,,,,,3689,34.9296875,59.34375,1,0,0,response1disk,,7,14.625,11.82421875,1,0,0,rectangle,14.625,11.82421875,1,0,0,14.625,11.82421875,1,0,0,1,43,203,28,1,,,,,,,,
,,,,,,,,,,,,,FF,,,,,,,,0.869065,,,,,,,,,,,,,,,,,,,,,,61035646f6f36bf75f71c354,610365e2f412eb22a7feccc9,2021-07-29_20h38.07.697,Simcolourproject_2stim_asymm_v5,2020.2.10,MacIntel,60,61025ae37ef11b136ea224fe,,,,,,,,,1976,79.359375,-41.87109375,1,0,0,response3disk,,5,-11.20703125,-1.56640625,1,0,0,rectangle,-11.20703125,-1.56640625,1,0,0,-11.20703125,-1.56640625,1,0,0,1,44,204,76,1,,,,,,,,
,,,,,,,,,,,,,FF,,,,,,,,0.58282,,,,,,,,,,,,,,,,,,,,,,61035646f6f36bf75f71c354,610365e2f412eb22a7feccc9,2021-07-29_20h38.07.697,Simcolourproject_2stim_asymm_v5,2020.2.10,MacIntel,60,61025ae37ef11b136ea224fe,,,,,,,,,4153,27.44921875,88.2109375,1,0,0,response1disk,,7,1.90234375,0.9765625,1,0,0,rectangle,38.640625,-80.875,1,0,0,-3.2109375,-1.14453125,1,0,0,1,45,205,61,1,,response3disk_3,TRUE,4,4,"[140,45,224,236,206,52,227,254,191,21,125,92,44,209,161,72,81,107,152,135]",2.79387,rectangle
,,,,,,,,,,,,,FF,,,,,,,,0.98695,,,,,,,,,,,,,,,,,,,,,,61035646f6f36bf75f71c354,610365e2f412eb22a7feccc9,2021-07-29_20h38.07.697,Simcolourproject_2stim_asymm_v5,2020.2.10,MacIntel,60,61025ae37ef11b136ea224fe,,,,,,,,,951,96.51953125,-21.34375,1,0,0,response3disk,,5,-19.87890625,-5.4453125,1,0,0,rectangle,-19.87890625,-5.4453125,1,0,0,-19.87890625,-5.4453125,1,0,0,1,46,206,119,1,,,,,,,,
,,,,,,,,,,,,,FF,,,,,,,,1.220995,,,,,,,,,,,,,,,,,,,,,,61035646f6f36bf75f71c354,610365e2f412eb22a7feccc9,2021-07-29_20h38.07.697,Simcolourproject_2stim_asymm_v5,2020.2.10,MacIntel,60,61025ae37ef11b136ea224fe,,,,,,,,,2308,85.3515625,-37.9375,1,0,0,response3disk,,5,3.55859375,-7.3359375,1,0,0,rectangle,3.55859375,-7.3359375,1,0,0,3.55859375,-7.3359375,1,0,0,1,47,207,3,1,,,,,,,,
,,,,,,,,,,,,,FF,,,,,,,,1.23679,,,,,,,,,,,,,,,,,,,,,,61035646f6f36bf75f71c354,610365e2f412eb22a7feccc9,2021-07-29_20h38.07.697,Simcolourproject_2stim_asymm_v5,2020.2.10,MacIntel,60,61025ae37ef11b136ea224fe,,,,,,,,,635,21.890625,-70.390625,1,0,0,response3disk,,4,2.8671875,-4.9921875,1,0,0,rectangle,-107.1992188,66.125,1,0,0,2.5703125,-4.09375,1,0,0,1,48,208,46,1,,response7disk_3,TRUE,1,1,"[140,45,224,236,206,52,227,254,191,21,125,92,44,209,161,72,81,107,152,135]",1.48537,rectangle
,,,,,,,,,,,,,FF,,,,,,,,1.119505,,,,,,,,,,,,,,,,,,,,,,61035646f6f36bf75f71c354,610365e2f412eb22a7feccc9,2021-07-29_20h38.07.697,Simcolourproject_2stim_asymm_v5,2020.2.10,MacIntel,60,61025ae37ef11b136ea224fe,,,,,,,,,631,-86.8359375,-36.00390625,1,0,0,response5disk,,2,4.5703125,-12.11328125,1,0,0,rectangle,4.5703125,-12.11328125,1,0,0,4.5703125,-12.11328125,1,0,0,1,49,209,82,1,,,,,,,,
,,,,,,,,,,,,,FF,,,,,,,,0.768575,,,,,,,,,,,,,,,,,,,,,,61035646f6f36bf75f71c354,610365e2f412eb22a7feccc9,2021-07-29_20h38.07.697,Simcolourproject_2stim_asymm_v5,2020.2.10,MacIntel,60,61025ae37ef11b136ea224fe,,,,,,,,,2159,36.98828125,69.83203125,1,0,0,response1disk,,7,-2.58984375,1.87109375,1,0,0,rectangle,-2.58984375,1.87109375,1,0,0,-2.58984375,1.87109375,1,0,0,1,50,210,55,1,,,,,,,,
,,,,,,,,,,,,,FF,,,,,,,,1.655695,,,,,,,,,,,,,,,,,,,,,,61035646f6f36bf75f71c354,610365e2f412eb22a7feccc9,2021-07-29_20h38.07.697,Simcolourproject_2stim_asymm_v5,2020.2.10,MacIntel,60,61025ae37ef11b136ea224fe,,,,,,,,,190,58.71875,-68.24609375,1,0,0,response3disk,,4,0.6171875,1.15625,1,0,0,rectangle,0.6171875,1.15625,1,0,0,0.6171875,1.15625,1,0,0,1,51,211,117,1,,,,,,,,
,,,,,,,,,,,,,FF,,,,,,,,0.720395,,,,,,,,,,,,,,,,,,,,,,61035646f6f36bf75f71c354,610365e2f412eb22a7feccc9,2021-07-29_20h38.07.697,Simcolourproject_2stim_asymm_v5,2020.2.10,MacIntel,60,61025ae37ef11b136ea224fe,,,,,,,,,4369,-54.63671875,83.2890625,1,0,0,response7disk,,0,1.67578125,-14.60546875,1,0,0,rectangle,1.67578125,-14.60546875,1,0,0,1.67578125,-14.60546875,1,0,0,1,52,212,34,1,,,,,,,,
,,,,,,,,,,,,,FF,,,,,,,,0.784745,,,,,,,,,,,,,,,,,,,,,,61035646f6f36bf75f71c354,610365e2f412eb22a7feccc9,2021-07-29_20h38.07.697,Simcolourproject_2stim_asymm_v5,2020.2.10,MacIntel,60,61025ae37ef11b136ea224fe,,,,,,,,,2103,-35.77734375,-65.17578125,1,0,0,response5disk,,3,-8.1640625,-0.4921875,1,0,0,rectangle,-8.1640625,-0.4921875,1,0,0,-8.1640625,-0.4921875,1,0,0,1,53,213,38,1,,,,,,,,
,,,,,,,,,,,,,FF,,,,,,,,0.587385,,,,,,,,,,,,,,,,,,,,,,61035646f6f36bf75f71c354,610365e2f412eb22a7feccc9,2021-07-29_20h38.07.697,Simcolourproject_2stim_asymm_v5,2020.2.10,MacIntel,60,61025ae37ef11b136ea224fe,,,,,,,,,1829,-44.15234375,-78.90625,1,0,0,response5disk,,3,4.6875,12.8828125,1,0,0,rectangle,4.6875,12.8828125,1,0,0,4.6875,12.8828125,1,0,0,1,54,214,66,1,,,,,,,,
,,,,,,,,,,,,,FF,,,,,,,,0.503125,,,,,,,,,,,,,,,,,,,,,,61035646f6f36bf75f71c354,610365e2f412eb22a7feccc9,2021-07-29_20h38.07.697,Simcolourproject_2stim_asymm_v5,2020.2.10,MacIntel,60,61025ae37ef11b136ea224fe,,,,,,,,,1268,21.14453125,57.828125,1,0,0,response1disk,,7,14.6875,8.66015625,1,0,0,rectangle,14.6875,8.66015625,1,0,0,14.6875,8.66015625,1,0,0,1,55,215,54,1,,,,,,,,
,,,,,,,,,,,,,FF,,,,,,,,1.28614,,,,,,,,,,,,,,,,,,,,,,61035646f6f36bf75f71c354,610365e2f412eb22a7feccc9,2021-07-29_20h38.07.697,Simcolourproject_2stim_asymm_v5,2020.2.10,MacIntel,60,61025ae37ef11b136ea224fe,,,,,,,,,410,35.8046875,82.2734375,1,0,0,response1disk,,7,3.9375,9.91796875,1,0,0,rectangle,3.9375,9.91796875,1,0,0,3.9375,9.91796875,1,0,0,1,56,216,64,1,,,,,,,,
,,,,,,,,,,,,,FF,,,,,,,,0.56795,,,,,,,,,,,,,,,,,,,,,,61035646f6f36bf75f71c354,610365e2f412eb22a7feccc9,2021-07-29_20h38.07.697,Simcolourproject_2stim_asymm_v5,2020.2.10,MacIntel,60,61025ae37ef11b136ea224fe,,,,,,,,,2595,46.9140625,63.8125,1,0,0,response1disk,,7,7.1640625,4.8828125,1,0,0,rectangle,7.1640625,4.8828125,1,0,0,7.1640625,4.8828125,1,0,0,1,57,217,78,1,,,,,,,,
,,,,,,,,,,,,,FF,,,,,,,,0.718205,,,,,,,,,,,,,,,,,,,,,,61035646f6f36bf75f71c354,610365e2f412eb22a7feccc9,2021-07-29_20h38.07.697,Simcolourproject_2stim_asymm_v5,2020.2.10,MacIntel,60,61025ae37ef11b136ea224fe,,,,,,,,,795,32.3984375,69.29296875,1,0,0,response1disk,,7,-3.11328125,-9.28515625,1,0,0,rectangle,-3.11328125,-9.28515625,1,0,0,-3.11328125,-9.28515625,1,0,0,1,58,218,65,1,,,,,,,,
,,,,,,,,,,,,,FF,,,,,,,,1.11951,,,,,,,,,,,,,,,,,,,,,,61035646f6f36bf75f71c354,610365e2f412eb22a7feccc9,2021-07-29_20h38.07.697,Simcolourproject_2stim_asymm_v5,2020.2.10,MacIntel,60,61025ae37ef11b136ea224fe,,,,,,,,,4012,35.98828125,58.29296875,1,0,0,response1disk,,7,13.9140625,14.4140625,1,0,0,rectangle,13.9140625,14.4140625,1,0,0,13.9140625,14.4140625,1,0,0,1,59,219,92,1,,,,,,,,
,,,,,,,,,,,,,FF,,,,,,,,0.85339,,,,,,,,,,,,,,,,,,,,,,61035646f6f36bf75f71c354,610365e2f412eb22a7feccc9,2021-07-29_20h38.07.697,Simcolourproject_2stim_asymm_v5,2020.2.10,MacIntel,60,61025ae37ef11b136ea224fe,,,,,,,,,2946,36.2421875,-75.9765625,1,0,0,response3disk,,4,-4.57421875,9.44140625,1,0,0,rectangle,-4.57421875,9.44140625,1,0,0,-4.57421875,9.44140625,1,0,0,1,60,220,144,1,,,,,,,,
,,,,,,,,,,,,,FF,,,,,,,,0.802585,,,,,,,,,,,,,,,,,,,,,,61035646f6f36bf75f71c354,610365e2f412eb22a7feccc9,2021-07-29_20h38.07.697,Simcolourproject_2stim_asymm_v5,2020.2.10,MacIntel,60,61025ae37ef11b136ea224fe,,,,,,,,,3341,-39.8359375,-78.7734375,1,0,0,response5disk,,3,-10.87890625,-7.72265625,1,0,0,rectangle,-10.87890625,-7.72265625,1,0,0,-10.87890625,-7.72265625,1,0,0,1,61,221,137,1,,,,,,,,
,,,,,,,,,,,,,FF,,,,,,,,1.320255,,,,,,,,,,,,,,,,,,,,,,61035646f6f36bf75f71c354,610365e2f412eb22a7feccc9,2021-07-29_20h38.07.697,Simcolourproject_2stim_asymm_v5,2020.2.10,MacIntel,60,61025ae37ef11b136ea224fe,,,,,,,,,63,93.6875,-26.77734375,1,0,0,response3disk,,5,12.6015625,-5.5703125,1,0,0,rectangle,12.6015625,-5.5703125,1,0,0,12.6015625,-5.5703125,1,0,0,1,62,222,36,1,,,,,,,,
,,,,,,,,,,,,,FF,,,,,,,,0.78573,,,,,,,,,,,,,,,,,,,,,,61035646f6f36bf75f71c354,610365e2f412eb22a7feccc9,2021-07-29_20h38.07.697,Simcolourproject_2stim_asymm_v5,2020.2.10,MacIntel,60,61025ae37ef11b136ea224fe,,,,,,,,,2529,36.6015625,60.63671875,1,0,0,response1disk,,7,14.6328125,5.94921875,1,0,0,rectangle,-81.5859375,44.2421875,1,0,0,3.078125,-10.37109375,1,0,0,1,63,223,7,1,,response7disk_3,TRUE,1,1,"[140,45,224,236,206,52,227,254,191,21,125,92,44,209,161,72,81,107,152,135]",1.58857,rectangle
,,,,,,,,,,,,,FF,,,,,,,,0.97051,,,,,,,,,,,,,,,,,,,,,,61035646f6f36bf75f71c354,610365e2f412eb22a7feccc9,2021-07-29_20h38.07.697,Simcolourproject_2stim_asymm_v5,2020.2.10,MacIntel,60,61025ae37ef11b136ea224fe,,,,,,,,,1457,42.49609375,-88.48046875,1,0,0,response3disk,,4,-0.7890625,-0.453125,1,0,0,rectangle,-0.7890625,-0.453125,1,0,0,-0.7890625,-0.453125,1,0,0,1,64,224,84,1,,,,,,,,
,,,,,,,,,,,,,FF,,,,,,,,0.550245,,,,,,,,,,,,,,,,,,,,,,61035646f6f36bf75f71c354,610365e2f412eb22a7feccc9,2021-07-29_20h38.07.697,Simcolourproject_2stim_asymm_v5,2020.2.10,MacIntel,60,61025ae37ef11b136ea224fe,,,,,,,,,2856,25.02734375,58.171875,1,0,0,response1disk,,7,-4.140625,-13.890625,1,0,0,rectangle,-4.140625,-13.890625,1,0,0,-4.140625,-13.890625,1,0,0,1,65,225,26,1,,,,,,,,
,,,,,,,,,,,,,FF,,,,,,,,0.634915,,,,,,,,,,,,,,,,,,,,,,61035646f6f36bf75f71c354,610365e2f412eb22a7feccc9,2021-07-29_20h38.07.697,Simcolourproject_2stim_asymm_v5,2020.2.10,MacIntel,60,61025ae37ef11b136ea224fe,,,,,,,,,2174,-36.13671875,-62.83984375,1,0,0,response5disk,,3,-3.35546875,-5.6875,1,0,0,rectangle,-99.109375,29.03125,1,0,0,10.93359375,-4.6640625,1,0,0,1,66,226,25,1,,response7disk_3,TRUE,1,1,"[140,45,224,236,206,52,227,254,191,21,125,92,44,209,161,72,81,107,152,135]",1.13859,rectangle
,,,,,,,,,,,,,FF,,,,,,,,1.55478,,,,,,,,,,,,,,,,,,,,,,61035646f6f36bf75f71c354,610365e2f412eb22a7feccc9,2021-07-29_20h38.07.697,Simcolourproject_2stim_asymm_v5,2020.2.10,MacIntel,60,61025ae37ef11b136ea224fe,,,,,,,,,3151,29.2578125,-75.55859375,1,0,0,response3disk,,4,-3.98828125,-2.75,1,0,0,rectangle,-3.98828125,-2.75,1,0,0,-3.98828125,-2.75,1,0,0,1,67,227,142,1,,,,,,,,
,,,,,,,,,,,,,FF,,,,,,,,1.45492,,,,,,,,,,,,,,,,,,,,,,61035646f6f36bf75f71c354,610365e2f412eb22a7feccc9,2021-07-29_20h38.07.697,Simcolourproject_2stim_asymm_v5,2020.2.10,MacIntel,60,61025ae37ef11b136ea224fe,,,,,,,,,3865,75,34.52734375,1,0,0,response1disk,,6,9.34375,-4.01953125,1,0,0,rectangle,9.34375,-4.01953125,1,0,0,9.34375,-4.01953125,1,0,0,1,68,228,104,1,,,,,,,,
,,,,,,,,,,,,,FF,,,,,,,,0.65383,,,,,,,,,,,,,,,,,,,,,,61035646f6f36bf75f71c354,610365e2f412eb22a7feccc9,2021-07-29_20h38.07.697,Simcolourproject_2stim_asymm_v5,2020.2.10,MacIntel,60,61025ae37ef11b136ea224fe,,,,,,,,,3474,97.75,34.546875,1,0,0,response1disk,,6,10.00390625,6.765625,1,0,0,rectangle,10.00390625,6.765625,1,0,0,10.00390625,6.765625,1,0,0,1,69,229,44,1,,,,,,,,
,,,,,,,,,,,,,FF,,,,,,,,0.753835,,,,,,,,,,,,,,,,,,,,,,61035646f6f36bf75f71c354,610365e2f412eb22a7feccc9,2021-07-29_20h38.07.697,Simcolourproject_2stim_asymm_v5,2020.2.10,MacIntel,60,61025ae37ef11b136ea224fe,,,,,,,,,2266,29.484375,90.07421875,1,0,0,response1disk,,7,1.83203125,6.59375,1,0,0,rectangle,1.83203125,6.59375,1,0,0,1.83203125,6.59375,1,0,0,1,70,230,128,1,,,,,,,,
,,,,,,,,,,,,,FF,,,,,,,,0.63556,,,,,,,,,,,,,,,,,,,,,,61035646f6f36bf75f71c354,610365e2f412eb22a7feccc9,2021-07-29_20h38.07.697,Simcolourproject_2stim_asymm_v5,2020.2.10,MacIntel,60,61025ae37ef11b136ea224fe,,,,,,,,,222,48.58203125,75.1484375,1,0,0,response1disk,,7,11.265625,11.72265625,1,0,0,rectangle,11.265625,11.72265625,1,0,0,11.265625,11.72265625,1,0,0,1,71,231,51,1,,,,,,,,
,,,,,,,,,,,,,FF,,,,,,,,1.153355,,,,,,,,,,,,,,,,,,,,,,61035646f6f36bf75f71c354,610365e2f412eb22a7feccc9,2021-07-29_20h38.07.697,Simcolourproject_2stim_asymm_v5,2020.2.10,MacIntel,60,61025ae37ef11b136ea224fe,,,,,,,,,175,44.71875,-73.96484375,1,0,0,response3disk,,4,0.38671875,9.29296875,1,0,0,rectangle,0.38671875,9.29296875,1,0,0,0.38671875,9.29296875,1,0,0,1,72,232,134,1,,,,,,,,
,,,,,,,,,,,,,FF,,,,,,,,0.60152,,,,,,,,,,,,,,,,,,,,,,61035646f6f36bf75f71c354,610365e2f412eb22a7feccc9,2021-07-29_20h38.07.697,Simcolourproject_2stim_asymm_v5,2020.2.10,MacIntel,60,61025ae37ef11b136ea224fe,,,,,,,,,223,35.00390625,74.87109375,1,0,0,response1disk,,7,2.90234375,-1.4609375,1,0,0,rectangle,2.90234375,-1.4609375,1,0,0,2.90234375,-1.4609375,1,0,0,1,73,233,12,1,,,,,,,,
,,,,,,,,,,,,,FF,,,,,,,,0.78565,,,,,,,,,,,,,,,,,,,,,,61035646f6f36bf75f71c354,610365e2f412eb22a7feccc9,2021-07-29_20h38.07.697,Simcolourproject_2stim_asymm_v5,2020.2.10,MacIntel,60,61025ae37ef11b136ea224fe,,,,,,,,,1471,74.078125,-42.0234375,1,0,0,response3disk,,5,-0.01171875,7.12109375,1,0,0,rectangle,-0.01171875,7.12109375,1,0,0,-0.01171875,7.12109375,1,0,0,1,74,234,10,1,,,,,,,,
,,,,,,,,,,,,,FF,,,,,,,,0.600525,,,,,,,,,,,,,,,,,,,,,,61035646f6f36bf75f71c354,610365e2f412eb22a7feccc9,2021-07-29_20h38.07.697,Simcolourproject_2stim_asymm_v5,2020.2.10,MacIntel,60,61025ae37ef11b136ea224fe,,,,,,,,,1324,45.84375,80.046875,1,0,0,response1disk,,7,12.59375,3.88671875,1,0,0,rectangle,43.0859375,-104.8789063,1,0,0,-4.08203125,4.73046875,1,0,0,1,75,235,53,1,,response3disk_3,TRUE,4,4,"[140,45,224,236,206,52,227,254,191,21,125,92,44,209,161,72,81,107,152,135]",1.636595,rectangle
,,,,,,,,,,,,,FF,,,,,,,,0.68545,,,,,,,,,,,,,,,,,,,,,,61035646f6f36bf75f71c354,610365e2f412eb22a7feccc9,2021-07-29_20h38.07.697,Simcolourproject_2stim_asymm_v5,2020.2.10,MacIntel,60,61025ae37ef11b136ea224fe,,,,,,,,,1983,38.3515625,52.63671875,1,0,0,response1disk,,7,16.53515625,8.546875,1,0,0,rectangle,16.53515625,8.546875,1,0,0,16.53515625,8.546875,1,0,0,1,76,236,69,1,,,,,,,,
,,,,,,,,,,,,,FF,,,,,,,,0.70138,,,,,,,,,,,,,,,,,,,,,,61035646f6f36bf75f71c354,610365e2f412eb22a7feccc9,2021-07-29_20h38.07.697,Simcolourproject_2stim_asymm_v5,2020.2.10,MacIntel,60,61025ae37ef11b136ea224fe,,,,,,,,,4,-25.234375,-69.6796875,1,0,0,response5disk,,3,-10.02734375,-17.9375,1,0,0,rectangle,-10.02734375,-17.9375,1,0,0,-10.02734375,-17.9375,1,0,0,1,77,237,89,1,,,,,,,,
,,,,,,,,,,,,,FF,,,,,,,,0.633905,,,,,,,,,,,,,,,,,,,,,,61035646f6f36bf75f71c354,610365e2f412eb22a7feccc9,2021-07-29_20h38.07.697,Simcolourproject_2stim_asymm_v5,2020.2.10,MacIntel,60,61025ae37ef11b136ea224fe,,,,,,,,,2695,50.09765625,76.78125,1,0,0,response1disk,,7,13.20703125,2.64453125,1,0,0,rectangle,13.20703125,2.64453125,1,0,0,13.20703125,2.64453125,1,0,0,1,78,238,129,1,,,,,,,,
,,,,,,,,,,,,,FF,,,,,,,,0.985165,,,,,,,,,,,,,,,,,,,,,,61035646f6f36bf75f71c354,610365e2f412eb22a7feccc9,2021-07-29_20h38.07.697,Simcolourproject_2stim_asymm_v5,2020.2.10,MacIntel,60,61025ae37ef11b136ea224fe,,,,,,,,,2219,94.32421875,46.046875,1,0,0,response1disk,,6,-7.42578125,-3.0546875,1,0,0,rectangle,-7.42578125,-3.0546875,1,0,0,-7.42578125,-3.0546875,1,0,0,1,79,239,147,1,,,,,,,,
,,,,,,,,,,,,,FF,,,,,,,,0.70313,,,,,,,,,,,,,,,,,,,,,,61035646f6f36bf75f71c354,610365e2f412eb22a7feccc9,2021-07-29_20h38.07.697,Simcolourproject_2stim_asymm_v5,2020.2.10,MacIntel,60,61025ae37ef11b136ea224fe,,,,,,,,,3802,43.55078125,89.2421875,1,0,0,response1disk,,7,-2.41015625,5.0859375,1,0,0,rectangle,-2.41015625,5.0859375,1,0,0,-2.41015625,5.0859375,1,0,0,1,80,240,153,1,,,,,,,,
,,,,,,,,,,,,,FF,,,,,,,,1.00453,,,,,,,,,,,,,,,,,,,,,,61035646f6f36bf75f71c354,610365e2f412eb22a7feccc9,2021-07-29_20h38.07.697,Simcolourproject_2stim_asymm_v5,2020.2.10,MacIntel,60,61025ae37ef11b136ea224fe,,,,,,,,,2240,35.140625,-80.44921875,1,0,0,response3disk,,4,2.63671875,-7.3984375,1,0,0,rectangle,2.63671875,-7.3984375,1,0,0,2.63671875,-7.3984375,1,0,0,1,81,241,146,1,,,,,,,,
,,,,,,,,,,,,,FF,,,,,,,,0.6844,,,,,,,,,,,,,,,,,,,,,,61035646f6f36bf75f71c354,610365e2f412eb22a7feccc9,2021-07-29_20h38.07.697,Simcolourproject_2stim_asymm_v5,2020.2.10,MacIntel,60,61025ae37ef11b136ea224fe,,,,,,,,,2453,43.44921875,79.5234375,1,0,0,response1disk,,7,3.21875,8.18359375,1,0,0,rectangle,3.21875,8.18359375,1,0,0,3.21875,8.18359375,1,0,0,1,82,242,83,1,,,,,,,,
,,,,,,,,,,,,,FF,,,,,,,,0.83501,,,,,,,,,,,,,,,,,,,,,,61035646f6f36bf75f71c354,610365e2f412eb22a7feccc9,2021-07-29_20h38.07.697,Simcolourproject_2stim_asymm_v5,2020.2.10,MacIntel,60,61025ae37ef11b136ea224fe,,,,,,,,,194,52.27734375,-71.39453125,1,0,0,response3disk,,4,-7.20703125,4.05078125,1,0,0,rectangle,-7.20703125,4.05078125,1,0,0,-7.20703125,4.05078125,1,0,0,1,83,243,149,1,,,,,,,,
,,,,,,,,,,,,,FF,,,,,,,,0.617705,,,,,,,,,,,,,,,,,,,,,,61035646f6f36bf75f71c354,610365e2f412eb22a7feccc9,2021-07-29_20h38.07.697,Simcolourproject_2stim_asymm_v5,2020.2.10,MacIntel,60,61025ae37ef11b136ea224fe,,,,,,,,,2318,22.3125,75.33203125,1,0,0,response1disk,,7,-3.265625,-6.21484375,1,0,0,rectangle,-3.265625,-6.21484375,1,0,0,-3.265625,-6.21484375,1,0,0,1,84,244,63,1,,,,,,,,
,,,,,,,,,,,,,FF,,,,,,,,1.37174,,,,,,,,,,,,,,,,,,,,,,61035646f6f36bf75f71c354,610365e2f412eb22a7feccc9,2021-07-29_20h38.07.697,Simcolourproject_2stim_asymm_v5,2020.2.10,MacIntel,60,61025ae37ef11b136ea224fe,,,,,,,,,1646,27.625,71.109375,1,0,0,response1disk,,7,4.23828125,-4.6640625,1,0,0,rectangle,4.23828125,-4.6640625,1,0,0,4.23828125,-4.6640625,1,0,0,1,85,245,106,1,,,,,,,,
,,,,,,,,,,,,,FF,,,,,,,,0.768865,,,,,,,,,,,,,,,,,,,,,,61035646f6f36bf75f71c354,610365e2f412eb22a7feccc9,2021-07-29_20h38.07.697,Simcolourproject_2stim_asymm_v5,2020.2.10,MacIntel,60,61025ae37ef11b136ea224fe,,,,,,,,,2761,89.9765625,29.85546875,1,0,0,response1disk,,6,-1.1015625,0.43359375,1,0,0,rectangle,-1.1015625,0.43359375,1,0,0,-1.1015625,0.43359375,1,0,0,1,86,246,16,1,,,,,,,,
,,,,,,,,,,,,,FF,,,,,,,,1.15366,,,,,,,,,,,,,,,,,,,,,,61035646f6f36bf75f71c354,610365e2f412eb22a7feccc9,2021-07-29_20h38.07.697,Simcolourproject_2stim_asymm_v5,2020.2.10,MacIntel,60,61025ae37ef11b136ea224fe,,,,,,,,,1380,96.68359375,-37.05859375,1,0,0,response3disk,,5,-3.40625,7.19921875,1,0,0,rectangle,-3.40625,7.19921875,1,0,0,-3.40625,7.19921875,1,0,0,1,87,247,21,1,,,,,,,,
