key_resp.keys,key_resp.rt,key_resp_14.keys,key_resp_14.rt,key_resp_15.keys,key_resp_15.rt,key_resp_17.keys,key_resp_17.rt,key_resp_9.keys,key_resp_9.rt,key_resp_10.keys,key_resp_10.rt,practice_comparison,Ecc,mouse_5.x,mouse_5.y,mouse_5.leftButton,mouse_5.midButton,mouse_5.rightButton,mouse_5.clicked_name,pracsimilarity,response_time,mouse_10.x,mouse_10.y,mouse_10.leftButton,mouse_10.midButton,mouse_10.rightButton,mouse_10.clicked_name,mouse_7.x,mouse_7.y,mouse_7.leftButton,mouse_7.midButton,mouse_7.rightButton,mouse_6.x,mouse_6.y,mouse_6.leftButton,mouse_6.midButton,mouse_6.rightButton,duringprac.thisRepN,duringprac.thisTrialN,duringprac.thisN,duringprac.thisIndex,duringprac.ran,participant,session,date,expName,psychopyVersion,OS,frameRate,study_id,mouse_7.clicked_name,catchpracsimilarity,catch_response_time,catchnumberprac,catchtrialorderprac,mouse_6.clicked_name,key_resp_22.keys,key_resp_22.rt,realcomparison,mouse.x,mouse.y,mouse.leftButton,mouse.midButton,mouse.rightButton,mouse.clicked_name,Colour2,similarity,mouse_2.x,mouse_2.y,mouse_2.leftButton,mouse_2.midButton,mouse_2.rightButton,mouse_2.clicked_name,mouse_3.x,mouse_3.y,mouse_3.leftButton,mouse_3.midButton,mouse_3.rightButton,mouse_11.x,mouse_11.y,mouse_11.leftButton,mouse_11.midButton,mouse_11.rightButton,trials_2.thisRepN,trials_2.thisTrialN,trials_2.thisN,trials_2.thisIndex,trials_2.ran,Colour1,mouse_3.clicked_name,catchornah,catchsimilarity,catchnumber,catchtrialorder,catchRT,mouse_11.clicked_name
space,1.1167,space,57.8133,space,34.3501,space,14.9861,space,2.1286,space,7.0398,73,PF,88.0000217,39.99999046,1,0,0,response1disk_5,6,7.2292,-6.666607102,6.666656137,1,0,0,rectangle_8,-6.666607102,6.666656137,1,0,0,-6.666607102,6.666656137,1,0,0,0,0,0,1,1,610316373c7163da28a978f8,61036bd1a0b9920bb45a69a9,2021-07-29_23h03.15.517,Simcolourproject_2stim_asymm_v5,2020.2.10,Win32,60,61025ae37ef11b136ea224fe,,,,,,,,,,,,,,,,,,,,,,,,,,,,,,,,,,,,,,,,,,,,,,
,,,,,,,,,,,,62,FF,54.00002068,-30.00001162,1,0,0,response3disk_5,5,3.5169,-3.999981046,5.99998945,1,0,0,rectangle_8,30.66668665,-64.00001264,1,0,0,-0.666606923,8.666656196,1,0,0,0,1,1,0,1,610316373c7163da28a978f8,61036bd1a0b9920bb45a69a9,2021-07-29_23h03.15.517,Simcolourproject_2stim_asymm_v5,2020.2.10,Win32,60,61025ae37ef11b136ea224fe,response3disk_7,4,8.6436,4,"[2,5]",rectangle_4,,,,,,,,,,,,,,,,,,,,,,,,,,,,,,,,,,,,,,,,
,,,,,,,,,,,,143,PF,64.00002098,35.33330331,1,0,0,response1disk_5,6,4.3823,-9.333314538,-0.666677415,1,0,0,rectangle_8,-9.333314538,-0.666677415,1,0,0,-9.333314538,-0.666677415,1,0,0,0,2,2,6,1,610316373c7163da28a978f8,61036bd1a0b9920bb45a69a9,2021-07-29_23h03.15.517,Simcolourproject_2stim_asymm_v5,2020.2.10,Win32,60,61025ae37ef11b136ea224fe,,,,,,,,,,,,,,,,,,,,,,,,,,,,,,,,,,,,,,,,,,,,,,
,,,,,,,,,,,,77,PF,73.33335459,35.33330331,1,0,0,response1disk_5,6,3.1,-10.66660722,5.333322763,1,0,0,rectangle_8,-10.66660722,5.333322763,1,0,0,-10.66660722,5.333322763,1,0,0,0,3,3,4,1,610316373c7163da28a978f8,61036bd1a0b9920bb45a69a9,2021-07-29_23h03.15.517,Simcolourproject_2stim_asymm_v5,2020.2.10,Win32,60,61025ae37ef11b136ea224fe,,,,,,,,,,,,,,,,,,,,,,,,,,,,,,,,,,,,,,,,,,,,,,
,,,,,,,,,,,,56,PF,70.00002116,23.33330295,1,0,0,response1disk_5,6,1.0661,-8.666607161,-0.666677415,1,0,0,rectangle_8,-24.66660764,67.9999913,1,0,0,-4.666607042,-2.666677475,1,0,0,0,4,4,2,1,610316373c7163da28a978f8,61036bd1a0b9920bb45a69a9,2021-07-29_23h03.15.517,Simcolourproject_2stim_asymm_v5,2020.2.10,Win32,60,61025ae37ef11b136ea224fe,response7disk_7,0,3.9171,4,"[2,5]",rectangle_4,,,,,,,,,,,,,,,,,,,,,,,,,,,,,,,,,,,,,,,,
,,,,,,,,,,,,8,FF,97.33335531,-60.6666792,1,0,0,response3disk_5,5,2.7451,-7.333314478,2.166657656,1,0,0,rectangle_8,-7.333314478,2.166657656,1,0,0,-7.333314478,2.166657656,1,0,0,0,5,5,3,1,610316373c7163da28a978f8,61036bd1a0b9920bb45a69a9,2021-07-29_23h03.15.517,Simcolourproject_2stim_asymm_v5,2020.2.10,Win32,60,61025ae37ef11b136ea224fe,,,,,,,,,,,,,,,,,,,,,,,,,,,,,,,,,,,,,,,,,,,,,,
,,,,,,,,,,,,26,FF,46.00002044,-84.50001159,1,0,0,response3disk_5,4,3.8041,-13.99998134,0.833303938,1,0,0,rectangle_8,-13.99998134,0.833303938,1,0,0,-13.99998134,0.833303938,1,0,0,0,6,6,5,1,610316373c7163da28a978f8,61036bd1a0b9920bb45a69a9,2021-07-29_23h03.15.517,Simcolourproject_2stim_asymm_v5,2020.2.10,Win32,60,61025ae37ef11b136ea224fe,,,,,,,,,,,,,,,,,,,,,,,,,,,,,,,,,,,,,,,,,,,,,,
,,,,,,,,,,,,,FF,,,,,,,,3.1334,,,,,,,,,,,,,,,,,,,,,,610316373c7163da28a978f8,61036bd1a0b9920bb45a69a9,2021-07-29_23h03.15.517,Simcolourproject_2stim_asymm_v5,2020.2.10,Win32,60,61025ae37ef11b136ea224fe,,,,,,,space,21.6858,2026,-49.33331573,-71.16667786,1,0,0,response5disk,,3,-6.666607102,5.499991089,1,0,0,rectangle,-6.666607102,5.499991089,1,0,0,-6.666607102,5.499991089,1,0,0,0,0,0,154,1,,,,,,,,
,,,,,,,,,,,,,FF,,,,,,,,2.901,,,,,,,,,,,,,,,,,,,,,,610316373c7163da28a978f8,61036bd1a0b9920bb45a69a9,2021-07-29_23h03.15.517,Simcolourproject_2stim_asymm_v5,2020.2.10,Win32,60,61025ae37ef11b136ea224fe,,,,,,,,,2830,81.33335483,24.83330465,1,0,0,response1disk,,6,-9.999981225,-1.166696121,1,0,0,rectangle,-9.999981225,-1.166696121,1,0,0,-9.999981225,-1.166696121,1,0,0,0,1,1,69,1,,,,,,,,
,,,,,,,,,,,,,FF,,,,,,,,2.3008,,,,,,,,,,,,,,,,,,,,,,610316373c7163da28a978f8,61036bd1a0b9920bb45a69a9,2021-07-29_23h03.15.517,Simcolourproject_2stim_asymm_v5,2020.2.10,Win32,60,61025ae37ef11b136ea224fe,,,,,,,,,2898,62.00002092,18.16665813,1,0,0,response1disk,,6,-7.999981165,4.166657716,1,0,0,rectangle,-7.999981165,4.166657716,1,0,0,-7.999981165,4.166657716,1,0,0,0,2,2,35,1,,,,,,,,
,,,,,,,,,,,,,FF,,,,,,,,0.8502,,,,,,,,,,,,,,,,,,,,,,610316373c7163da28a978f8,61036bd1a0b9920bb45a69a9,2021-07-29_23h03.15.517,Simcolourproject_2stim_asymm_v5,2020.2.10,Win32,60,61025ae37ef11b136ea224fe,,,,,,,,,302,58.66668749,26.83330471,1,0,0,response1disk,,6,-4.666607042,2.166657656,1,0,0,rectangle,-4.666607042,2.166657656,1,0,0,-4.666607042,2.166657656,1,0,0,0,3,3,60,1,,,,,,,,
,,,,,,,,,,,,,FF,,,,,,,,1.283,,,,,,,,,,,,,,,,,,,,,,610316373c7163da28a978f8,61036bd1a0b9920bb45a69a9,2021-07-29_23h03.15.517,Simcolourproject_2stim_asymm_v5,2020.2.10,Win32,60,61025ae37ef11b136ea224fe,,,,,,,,,2539,45.33335376,69.499993,1,0,0,response1disk,,7,-9.333314538,2.833303998,1,0,0,rectangle,-9.333314538,2.833303998,1,0,0,-9.333314538,2.833303998,1,0,0,0,4,4,107,1,,,,,,,,
,,,,,,,,,,,,,FF,,,,,,,,2.4489,,,,,,,,,,,,,,,,,,,,,,610316373c7163da28a978f8,61036bd1a0b9920bb45a69a9,2021-07-29_23h03.15.517,Simcolourproject_2stim_asymm_v5,2020.2.10,Win32,60,61025ae37ef11b136ea224fe,,,,,,,,,109,52.00002062,42.83330519,1,0,0,response1disk,,6,-1.3333143,5.499991089,1,0,0,rectangle,-1.3333143,5.499991089,1,0,0,-1.3333143,5.499991089,1,0,0,0,5,5,130,1,,,,,,,,
,,,,,,,,,,,,,FF,,,,,,,,10.6315,,,,,,,,,,,,,,,,,,,,,,610316373c7163da28a978f8,61036bd1a0b9920bb45a69a9,2021-07-29_23h03.15.517,Simcolourproject_2stim_asymm_v5,2020.2.10,Win32,60,61025ae37ef11b136ea224fe,,,,,,,,,2892,-21.3333149,-71.83334455,1,0,0,response5disk,,3,-5.333314419,2.833303998,1,0,0,rectangle,-5.333314419,2.833303998,1,0,0,-5.333314419,2.833303998,1,0,0,0,6,6,84,1,,,,,,,,
,,,,,,,,,,,,,FF,,,,,,,,1.8176,,,,,,,,,,,,,,,,,,,,,,610316373c7163da28a978f8,61036bd1a0b9920bb45a69a9,2021-07-29_23h03.15.517,Simcolourproject_2stim_asymm_v5,2020.2.10,Win32,60,61025ae37ef11b136ea224fe,,,,,,,,,978,62.66668761,-35.83334348,1,0,0,response3disk,,5,-0.666606923,0.833303938,1,0,0,rectangle,-0.666606923,0.833303938,1,0,0,-0.666606923,0.833303938,1,0,0,0,7,7,33,1,,,,,,,,
,,,,,,,,,,,,,FF,,,,,,,,1.6003,,,,,,,,,,,,,,,,,,,,,,610316373c7163da28a978f8,61036bd1a0b9920bb45a69a9,2021-07-29_23h03.15.517,Simcolourproject_2stim_asymm_v5,2020.2.10,Win32,60,61025ae37ef11b136ea224fe,,,,,,,,,1239,66.00002104,-25.83334318,1,0,0,response3disk,,5,-3.999981046,8.166657835,1,0,0,rectangle,-3.999981046,8.166657835,1,0,0,-3.999981046,8.166657835,1,0,0,0,8,8,151,1,,,,,,,,
,,,,,,,,,,,,,FF,,,,,,,,3.1512,,,,,,,,,,,,,,,,,,,,,,610316373c7163da28a978f8,61036bd1a0b9920bb45a69a9,2021-07-29_23h03.15.517,Simcolourproject_2stim_asymm_v5,2020.2.10,Win32,60,61025ae37ef11b136ea224fe,,,,,,,,,3395,75.33335465,-27.83334324,1,0,0,response3disk,,5,-7.333314478,2.166657656,1,0,0,rectangle,-7.333314478,2.166657656,1,0,0,-7.333314478,2.166657656,1,0,0,0,9,9,12,1,,,,,,,,
,,,,,,,,,,,,,FF,,,,,,,,3.0498,,,,,,,,,,,,,,,,,,,,,,610316373c7163da28a978f8,61036bd1a0b9920bb45a69a9,2021-07-29_23h03.15.517,Simcolourproject_2stim_asymm_v5,2020.2.10,Win32,60,61025ae37ef11b136ea224fe,,,,,,,,,1676,-42.66660817,-66.50001106,1,0,0,response5disk,,3,-0.666606923,0.166657597,1,0,0,rectangle,-0.666606923,0.166657597,1,0,0,-0.666606923,0.166657597,1,0,0,0,10,10,64,1,,,,,,,,
,,,,,,,,,,,,,FF,,,,,,,,1.2507,,,,,,,,,,,,,,,,,,,,,,610316373c7163da28a978f8,61036bd1a0b9920bb45a69a9,2021-07-29_23h03.15.517,Simcolourproject_2stim_asymm_v5,2020.2.10,Win32,60,61025ae37ef11b136ea224fe,,,,,,,,,1686,68.0000211,50.83330543,1,0,0,response1disk,,6,-12.66660728,5.499991089,1,0,0,rectangle,-12.66660728,5.499991089,1,0,0,-12.66660728,5.499991089,1,0,0,0,11,11,135,1,,,,,,,,
,,,,,,,,,,,,,FF,,,,,,,,0.817,,,,,,,,,,,,,,,,,,,,,,610316373c7163da28a978f8,61036bd1a0b9920bb45a69a9,2021-07-29_23h03.15.517,Simcolourproject_2stim_asymm_v5,2020.2.10,Win32,60,61025ae37ef11b136ea224fe,,,,,,,,,3087,40.00002027,78.83330626,1,0,0,response1disk,,7,-15.33331472,7.499991149,1,0,0,rectangle,-15.33331472,7.499991149,1,0,0,-15.33331472,7.499991149,1,0,0,0,12,12,149,1,,,,,,,,
,,,,,,,,,,,,,FF,,,,,,,,1.1,,,,,,,,,,,,,,,,,,,,,,610316373c7163da28a978f8,61036bd1a0b9920bb45a69a9,2021-07-29_23h03.15.517,Simcolourproject_2stim_asymm_v5,2020.2.10,Win32,60,61025ae37ef11b136ea224fe,,,,,,,,,3881,59.33335418,25.49999169,1,0,0,response1disk,,6,11.33339343,-0.50000909,1,0,0,rectangle,11.33339343,-0.50000909,1,0,0,11.33339343,-0.50000909,1,0,0,0,13,13,125,1,,,,,,,,
,,,,,,,,,,,,,FF,,,,,,,,1.1174,,,,,,,,,,,,,,,,,,,,,,610316373c7163da28a978f8,61036bd1a0b9920bb45a69a9,2021-07-29_23h03.15.517,Simcolourproject_2stim_asymm_v5,2020.2.10,Win32,60,61025ae37ef11b136ea224fe,,,,,,,,,493,62.66668761,44.16665891,1,0,0,response1disk,,6,6.666685939,8.833304177,1,0,0,rectangle,6.666685939,8.833304177,1,0,0,6.666685939,8.833304177,1,0,0,0,14,14,150,1,,,,,,,,
,,,,,,,,,,,,,FF,,,,,,,,1.0403,,,,,,,,,,,,,,,,,,,,,,610316373c7163da28a978f8,61036bd1a0b9920bb45a69a9,2021-07-29_23h03.15.517,Simcolourproject_2stim_asymm_v5,2020.2.10,Win32,60,61025ae37ef11b136ea224fe,,,,,,,,,1256,26.00001985,58.83330567,1,0,0,response1disk,,7,-7.333314478,-1.166696121,1,0,0,rectangle,-7.333314478,-1.166696121,1,0,0,-7.333314478,-1.166696121,1,0,0,0,15,15,127,1,,,,,,,,
,,,,,,,,,,,,,FF,,,,,,,,0.6506,,,,,,,,,,,,,,,,,,,,,,610316373c7163da28a978f8,61036bd1a0b9920bb45a69a9,2021-07-29_23h03.15.517,Simcolourproject_2stim_asymm_v5,2020.2.10,Win32,60,61025ae37ef11b136ea224fe,,,,,,,,,4056,30.00001997,62.83330579,1,0,0,response1disk,,7,-3.333314359,0.833303938,1,0,0,rectangle,-3.333314359,0.833303938,1,0,0,-3.333314359,0.833303938,1,0,0,0,16,16,105,1,,,,,,,,
,,,,,,,,,,,,,FF,,,,,,,,1.1662,,,,,,,,,,,,,,,,,,,,,,610316373c7163da28a978f8,61036bd1a0b9920bb45a69a9,2021-07-29_23h03.15.517,Simcolourproject_2stim_asymm_v5,2020.2.10,Win32,60,61025ae37ef11b136ea224fe,,,,,,,,,2853,46.66668713,18.16665813,1,0,0,response1disk,,6,1.333393137,-3.166696181,1,0,0,rectangle,1.333393137,-3.166696181,1,0,0,1.333393137,-3.166696181,1,0,0,0,17,17,86,1,,,,,,,,
,,,,,,,,,,,,,FF,,,,,,,,3.1335,,,,,,,,,,,,,,,,,,,,,,610316373c7163da28a978f8,61036bd1a0b9920bb45a69a9,2021-07-29_23h03.15.517,Simcolourproject_2stim_asymm_v5,2020.2.10,Win32,60,61025ae37ef11b136ea224fe,,,,,,,,,175,64.00002098,-25.16669684,1,0,0,response3disk,,5,-15.9999814,3.49999103,1,0,0,rectangle,-15.9999814,3.49999103,1,0,0,-15.9999814,3.49999103,1,0,0,0,18,18,78,1,,,,,,,,
,,,,,,,,,,,,,FF,,,,,,,,2.4329,,,,,,,,,,,,,,,,,,,,,,610316373c7163da28a978f8,61036bd1a0b9920bb45a69a9,2021-07-29_23h03.15.517,Simcolourproject_2stim_asymm_v5,2020.2.10,Win32,60,61025ae37ef11b136ea224fe,,,,,,,,,745,52.00002062,26.16665837,1,0,0,response1disk,,6,-6.666607102,3.49999103,1,0,0,rectangle,-6.666607102,3.49999103,1,0,0,-6.666607102,3.49999103,1,0,0,0,19,19,137,1,,,,,,,,
,,,,,,,,,,,,,FF,,,,,,,,0.7669,,,,,,,,,,,,,,,,,,,,,,610316373c7163da28a978f8,61036bd1a0b9920bb45a69a9,2021-07-29_23h03.15.517,Simcolourproject_2stim_asymm_v5,2020.2.10,Win32,60,61025ae37ef11b136ea224fe,,,,,,,,,1407,52.66668731,33.49999192,1,0,0,response1disk,,6,1.333393137,0.833303938,1,0,0,rectangle,1.333393137,0.833303938,1,0,0,1.333393137,0.833303938,1,0,0,0,20,20,62,1,,,,,,,,
,,,,,,,,,,,,,FF,,,,,,,,1.25,,,,,,,,,,,,,,,,,,,,,,610316373c7163da28a978f8,61036bd1a0b9920bb45a69a9,2021-07-29_23h03.15.517,Simcolourproject_2stim_asymm_v5,2020.2.10,Win32,60,61025ae37ef11b136ea224fe,,,,,,,,,652,52.66668731,32.83330489,1,0,0,response1disk,,6,2.66668582,3.49999103,1,0,0,rectangle,26.66668653,79.49999329,1,0,0,-9.333314538,0.833303938,1,0,0,0,21,21,53,1,,response1disk_3,TRUE,7,7,"[262,224,242,189,247,311,261,220,204,61,297,259,182,41,46,171,73,231,22,222]",9.1656,rectangle
,,,,,,,,,,,,,FF,,,,,,,,1.0003,,,,,,,,,,,,,,,,,,,,,,610316373c7163da28a978f8,61036bd1a0b9920bb45a69a9,2021-07-29_23h03.15.517,Simcolourproject_2stim_asymm_v5,2020.2.10,Win32,60,61025ae37ef11b136ea224fe,,,,,,,,,1059,48.0000205,67.49999294,1,0,0,response1disk,,7,-12.66660728,6.166657776,1,0,0,rectangle,-12.66660728,6.166657776,1,0,0,-12.66660728,6.166657776,1,0,0,0,22,22,114,1,,,,,,,,
,,,,,,,,,,,,,FF,,,,,,,,0.9339,,,,,,,,,,,,,,,,,,,,,,610316373c7163da28a978f8,61036bd1a0b9920bb45a69a9,2021-07-29_23h03.15.517,Simcolourproject_2stim_asymm_v5,2020.2.10,Win32,60,61025ae37ef11b136ea224fe,,,,,,,,,703,50.66668725,72.16665974,1,0,0,response1disk,,7,12.00001943,4.833304058,1,0,0,rectangle,12.00001943,4.833304058,1,0,0,12.00001943,4.833304058,1,0,0,0,23,23,121,1,,,,,,,,
,,,,,,,,,,,,,FF,,,,,,,,1.9495,,,,,,,,,,,,,,,,,,,,,,610316373c7163da28a978f8,61036bd1a0b9920bb45a69a9,2021-07-29_23h03.15.517,Simcolourproject_2stim_asymm_v5,2020.2.10,Win32,60,61025ae37ef11b136ea224fe,,,,,,,,,3423,56.00002074,-19.16669666,1,0,0,response3disk,,5,-6.666607102,6.833304117,1,0,0,rectangle,-6.666607102,6.833304117,1,0,0,-6.666607102,6.833304117,1,0,0,0,24,24,112,1,,,,,,,,
,,,,,,,,,,,,,FF,,,,,,,,0.8997,,,,,,,,,,,,,,,,,,,,,,610316373c7163da28a978f8,61036bd1a0b9920bb45a69a9,2021-07-29_23h03.15.517,Simcolourproject_2stim_asymm_v5,2020.2.10,Win32,60,61025ae37ef11b136ea224fe,,,,,,,,,3371,48.66668719,37.49999204,1,0,0,response1disk,,6,-3.999981046,-1.166696121,1,0,0,rectangle,-3.999981046,-1.166696121,1,0,0,-3.999981046,-1.166696121,1,0,0,0,25,25,32,1,,,,,,,,
,,,,,,,,,,,,,FF,,,,,,,,2.8673,,,,,,,,,,,,,,,,,,,,,,610316373c7163da28a978f8,61036bd1a0b9920bb45a69a9,2021-07-29_23h03.15.517,Simcolourproject_2stim_asymm_v5,2020.2.10,Win32,60,61025ae37ef11b136ea224fe,,,,,,,,,1829,58.0000208,-36.50001016,1,0,0,response3disk,,5,-7.999981165,2.166657656,1,0,0,rectangle,-7.999981165,2.166657656,1,0,0,-7.999981165,2.166657656,1,0,0,0,26,26,47,1,,,,,,,,
,,,,,,,,,,,,,FF,,,,,,,,1.7498,,,,,,,,,,,,,,,,,,,,,,610316373c7163da28a978f8,61036bd1a0b9920bb45a69a9,2021-07-29_23h03.15.517,Simcolourproject_2stim_asymm_v5,2020.2.10,Win32,60,61025ae37ef11b136ea224fe,,,,,,,,,2214,50.00002056,44.83330525,1,0,0,response1disk,,6,-13.99998134,1.49999097,1,0,0,rectangle,-13.99998134,1.49999097,1,0,0,-13.99998134,1.49999097,1,0,0,0,27,27,104,1,,,,,,,,
,,,,,,,,,,,,,FF,,,,,,,,0.9668,,,,,,,,,,,,,,,,,,,,,,610316373c7163da28a978f8,61036bd1a0b9920bb45a69a9,2021-07-29_23h03.15.517,Simcolourproject_2stim_asymm_v5,2020.2.10,Win32,60,61025ae37ef11b136ea224fe,,,,,,,,,4332,24.66668648,76.8333062,1,0,0,response1disk,,7,-12.66660728,8.166657835,1,0,0,rectangle,-12.66660728,8.166657835,1,0,0,-12.66660728,8.166657835,1,0,0,0,28,28,79,1,,,,,,,,
,,,,,,,,,,,,,FF,,,,,,,,1.3834,,,,,,,,,,,,,,,,,,,,,,610316373c7163da28a978f8,61036bd1a0b9920bb45a69a9,2021-07-29_23h03.15.517,Simcolourproject_2stim_asymm_v5,2020.2.10,Win32,60,61025ae37ef11b136ea224fe,,,,,,,,,2593,75.33335465,36.83330501,1,0,0,response1disk,,6,-3.333314359,4.833304058,1,0,0,rectangle,-3.333314359,4.833304058,1,0,0,-3.333314359,4.833304058,1,0,0,0,29,29,41,1,,,,,,,,
,,,,,,,,,,,,,FF,,,,,,,,2.1606,,,,,,,,,,,,,,,,,,,,,,610316373c7163da28a978f8,61036bd1a0b9920bb45a69a9,2021-07-29_23h03.15.517,Simcolourproject_2stim_asymm_v5,2020.2.10,Win32,60,61025ae37ef11b136ea224fe,,,,,,,,,1604,-41.99998218,-91.83334514,1,0,0,response5disk,,3,-5.999981105,3.49999103,1,0,0,rectangle,-5.999981105,3.49999103,1,0,0,-5.999981105,3.49999103,1,0,0,0,30,30,119,1,,,,,,,,
,,,,,,,,,,,,,FF,,,,,,,,1.0835,,,,,,,,,,,,,,,,,,,,,,610316373c7163da28a978f8,61036bd1a0b9920bb45a69a9,2021-07-29_23h03.15.517,Simcolourproject_2stim_asymm_v5,2020.2.10,Win32,60,61025ae37ef11b136ea224fe,,,,,,,,,3318,75.33335465,47.49999234,1,0,0,response1disk,,6,4.666685879,-5.166696241,1,0,0,rectangle,4.666685879,-5.166696241,1,0,0,4.666685879,-5.166696241,1,0,0,0,31,31,74,1,,,,,,,,
,,,,,,,,,,,,,FF,,,,,,,,0.6667,,,,,,,,,,,,,,,,,,,,,,610316373c7163da28a978f8,61036bd1a0b9920bb45a69a9,2021-07-29_23h03.15.517,Simcolourproject_2stim_asymm_v5,2020.2.10,Win32,60,61025ae37ef11b136ea224fe,,,,,,,,,3865,33.33339409,66.83330591,1,0,0,response1disk,,7,-1.3333143,0.166657597,1,0,0,rectangle,-1.3333143,0.166657597,1,0,0,-1.3333143,0.166657597,1,0,0,0,32,32,145,1,,,,,,,,
,,,,,,,,,,,,,FF,,,,,,,,1.55,,,,,,,,,,,,,,,,,,,,,,610316373c7163da28a978f8,61036bd1a0b9920bb45a69a9,2021-07-29_23h03.15.517,Simcolourproject_2stim_asymm_v5,2020.2.10,Win32,60,61025ae37ef11b136ea224fe,,,,,,,,,368,-28.66660776,-62.50001094,1,0,0,response5disk,,3,-13.99998134,6.833304117,1,0,0,rectangle,-13.99998134,6.833304117,1,0,0,-13.99998134,6.833304117,1,0,0,0,33,33,22,1,,,,,,,,
,,,,,,,,,,,,,FF,,,,,,,,0.9834,,,,,,,,,,,,,,,,,,,,,,610316373c7163da28a978f8,61036bd1a0b9920bb45a69a9,2021-07-29_23h03.15.517,Simcolourproject_2stim_asymm_v5,2020.2.10,Win32,60,61025ae37ef11b136ea224fe,,,,,,,,,2372,64.00002098,34.16665861,1,0,0,response1disk,,6,-7.999981165,-3.166696181,1,0,0,rectangle,-7.999981165,-3.166696181,1,0,0,-7.999981165,-3.166696181,1,0,0,0,34,34,36,1,,,,,,,,
,,,,,,,,,,,,,FF,,,,,,,,0.7676,,,,,,,,,,,,,,,,,,,,,,610316373c7163da28a978f8,61036bd1a0b9920bb45a69a9,2021-07-29_23h03.15.517,Simcolourproject_2stim_asymm_v5,2020.2.10,Win32,60,61025ae37ef11b136ea224fe,,,,,,,,,4045,37.33339421,74.83330614,1,0,0,response1disk,,7,1.333393137,4.166657716,1,0,0,rectangle,1.333393137,4.166657716,1,0,0,1.333393137,4.166657716,1,0,0,0,35,35,141,1,,,,,,,,
,,,,,,,,,,,,,FF,,,,,,,,3.7494,,,,,,,,,,,,,,,,,,,,,,610316373c7163da28a978f8,61036bd1a0b9920bb45a69a9,2021-07-29_23h03.15.517,Simcolourproject_2stim_asymm_v5,2020.2.10,Win32,60,61025ae37ef11b136ea224fe,,,,,,,,,4357,27.33339391,-52.50001064,1,0,0,response3disk,,4,2.000019133,2.833303998,1,0,0,rectangle,2.000019133,2.833303998,1,0,0,2.000019133,2.833303998,1,0,0,0,36,36,147,1,,,,,,,,
,,,,,,,,,,,,,FF,,,,,,,,1.9165,,,,,,,,,,,,,,,,,,,,,,610316373c7163da28a978f8,61036bd1a0b9920bb45a69a9,2021-07-29_23h03.15.517,Simcolourproject_2stim_asymm_v5,2020.2.10,Win32,60,61025ae37ef11b136ea224fe,,,,,,,,,4047,33.33339409,-54.5000107,1,0,0,response3disk,,4,6.000019252,4.833304058,1,0,0,rectangle,6.000019252,4.833304058,1,0,0,6.000019252,4.833304058,1,0,0,0,37,37,100,1,,,,,,,,
,,,,,,,,,,,,,FF,,,,,,,,0.8668,,,,,,,,,,,,,,,,,,,,,,610316373c7163da28a978f8,61036bd1a0b9920bb45a69a9,2021-07-29_23h03.15.517,Simcolourproject_2stim_asymm_v5,2020.2.10,Win32,60,61025ae37ef11b136ea224fe,,,,,,,,,2761,60.00002086,47.49999234,1,0,0,response1disk,,6,-6.666607102,-5.166696241,1,0,0,rectangle,-6.666607102,-5.166696241,1,0,0,-6.666607102,-5.166696241,1,0,0,0,38,38,97,1,,,,,,,,
,,,,,,,,,,,,,FF,,,,,,,,2.2997,,,,,,,,,,,,,,,,,,,,,,610316373c7163da28a978f8,61036bd1a0b9920bb45a69a9,2021-07-29_23h03.15.517,Simcolourproject_2stim_asymm_v5,2020.2.10,Win32,60,61025ae37ef11b136ea224fe,,,,,,,,,1897,69.33335447,-23.16669678,1,0,0,response3disk,,5,1.9735E-05,8.166657835,1,0,0,rectangle,1.9735E-05,8.166657835,1,0,0,1.9735E-05,8.166657835,1,0,0,0,39,39,117,1,,,,,,,,
,,,,,,,,,,,,,FF,,,,,,,,0.8839,,,,,,,,,,,,,,,,,,,,,,610316373c7163da28a978f8,61036bd1a0b9920bb45a69a9,2021-07-29_23h03.15.517,Simcolourproject_2stim_asymm_v5,2020.2.10,Win32,60,61025ae37ef11b136ea224fe,,,,,,,,,357,30.00001997,61.49999276,1,0,0,response1disk,,7,-0.666606923,-1.166696121,1,0,0,rectangle,-72.66660907,37.49999204,1,0,0,-7.999981165,2.833303998,1,0,0,0,40,40,129,1,,response7disk_3,TRUE,1,1,"[262,224,242,189,247,311,261,220,204,61,297,259,182,41,46,171,73,231,22,222]",3.0708,rectangle
,,,,,,,,,,,,,FF,,,,,,,,0.9498,,,,,,,,,,,,,,,,,,,,,,610316373c7163da28a978f8,61036bd1a0b9920bb45a69a9,2021-07-29_23h03.15.517,Simcolourproject_2stim_asymm_v5,2020.2.10,Win32,60,61025ae37ef11b136ea224fe,,,,,,,,,1840,22.00001973,48.83330537,1,0,0,response1disk,,7,-11.99998128,-2.500009149,1,0,0,rectangle,-11.99998128,-2.500009149,1,0,0,-11.99998128,-2.500009149,1,0,0,0,41,41,15,1,,,,,,,,
,,,,,,,,,,,,,FF,,,,,,,,0.6501,,,,,,,,,,,,,,,,,,,,,,610316373c7163da28a978f8,61036bd1a0b9920bb45a69a9,2021-07-29_23h03.15.517,Simcolourproject_2stim_asymm_v5,2020.2.10,Win32,60,61025ae37ef11b136ea224fe,,,,,,,,,1503,23.33339379,49.4999924,1,0,0,response1disk,,7,-5.333314419,1.49999097,1,0,0,rectangle,-5.333314419,1.49999097,1,0,0,-5.333314419,1.49999097,1,0,0,0,42,42,99,1,,,,,,,,
,,,,,,,,,,,,,FF,,,,,,,,1.4336,,,,,,,,,,,,,,,,,,,,,,610316373c7163da28a978f8,61036bd1a0b9920bb45a69a9,2021-07-29_23h03.15.517,Simcolourproject_2stim_asymm_v5,2020.2.10,Win32,60,61025ae37ef11b136ea224fe,,,,,,,,,3807,47.33335382,25.49999169,1,0,0,response1disk,,6,0.66668576,-1.833342463,1,0,0,rectangle,0.66668576,-1.833342463,1,0,0,0.66668576,-1.833342463,1,0,0,0,43,43,26,1,,,,,,,,
,,,,,,,,,,,,,FF,,,,,,,,1.3834,,,,,,,,,,,,,,,,,,,,,,610316373c7163da28a978f8,61036bd1a0b9920bb45a69a9,2021-07-29_23h03.15.517,Simcolourproject_2stim_asymm_v5,2020.2.10,Win32,60,61025ae37ef11b136ea224fe,,,,,,,,,3329,47.33335382,-19.833343,1,0,0,response3disk,,5,-6.666607102,6.166657776,1,0,0,rectangle,-6.666607102,6.166657776,1,0,0,-6.666607102,6.166657776,1,0,0,0,44,44,29,1,,,,,,,,
,,,,,,,,,,,,,FF,,,,,,,,1.4833,,,,,,,,,,,,,,,,,,,,,,610316373c7163da28a978f8,61036bd1a0b9920bb45a69a9,2021-07-29_23h03.15.517,Simcolourproject_2stim_asymm_v5,2020.2.10,Win32,60,61025ae37ef11b136ea224fe,,,,,,,,,3741,-63.33331615,-27.83334324,1,0,0,response5disk,,2,-5.999981105,4.833304058,1,0,0,rectangle,-77.33331656,-38.50001022,1,0,0,4.000019193,4.833304058,1,0,0,0,45,45,133,1,,response5disk_3,TRUE,2,2,"[262,224,242,189,247,311,261,220,204,61,297,259,182,41,46,171,73,231,22,222]",3.0499,rectangle
,,,,,,,,,,,,,FF,,,,,,,,0.8831,,,,,,,,,,,,,,,,,,,,,,610316373c7163da28a978f8,61036bd1a0b9920bb45a69a9,2021-07-29_23h03.15.517,Simcolourproject_2stim_asymm_v5,2020.2.10,Win32,60,61025ae37ef11b136ea224fe,,,,,,,,,1419,58.0000208,30.83330483,1,0,0,response1disk,,6,-15.33331472,-3.833342522,1,0,0,rectangle,-15.33331472,-3.833342522,1,0,0,-15.33331472,-3.833342522,1,0,0,0,46,46,0,1,,,,,,,,
,,,,,,,,,,,,,FF,,,,,,,,1.2995,,,,,,,,,,,,,,,,,,,,,,610316373c7163da28a978f8,61036bd1a0b9920bb45a69a9,2021-07-29_23h03.15.517,Simcolourproject_2stim_asymm_v5,2020.2.10,Win32,60,61025ae37ef11b136ea224fe,,,,,,,,,490,67.33335441,36.83330501,1,0,0,response1disk,,6,3.333393196,0.166657597,1,0,0,rectangle,3.333393196,0.166657597,1,0,0,3.333393196,0.166657597,1,0,0,0,47,47,143,1,,,,,,,,
,,,,,,,,,,,,,FF,,,,,,,,1.0832,,,,,,,,,,,,,,,,,,,,,,610316373c7163da28a978f8,61036bd1a0b9920bb45a69a9,2021-07-29_23h03.15.517,Simcolourproject_2stim_asymm_v5,2020.2.10,Win32,60,61025ae37ef11b136ea224fe,,,,,,,,,1888,-22.66660758,-53.16667733,1,0,0,response5disk,,3,1.333393137,-2.500009149,1,0,0,rectangle,1.333393137,-2.500009149,1,0,0,1.333393137,-2.500009149,1,0,0,0,48,48,21,1,,,,,,,,
,,,,,,,,,,,,,FF,,,,,,,,1.1169,,,,,,,,,,,,,,,,,,,,,,610316373c7163da28a978f8,61036bd1a0b9920bb45a69a9,2021-07-29_23h03.15.517,Simcolourproject_2stim_asymm_v5,2020.2.10,Win32,60,61025ae37ef11b136ea224fe,,,,,,,,,383,60.66668755,28.83330477,1,0,0,response1disk,,6,-11.99998128,3.49999103,1,0,0,rectangle,-11.99998128,3.49999103,1,0,0,-11.99998128,3.49999103,1,0,0,0,49,49,95,1,,,,,,,,
,,,,,,,,,,,,,FF,,,,,,,,0.8008,,,,,,,,,,,,,,,,,,,,,,610316373c7163da28a978f8,61036bd1a0b9920bb45a69a9,2021-07-29_23h03.15.517,Simcolourproject_2stim_asymm_v5,2020.2.10,Win32,60,61025ae37ef11b136ea224fe,,,,,,,,,165,59.33335418,40.16665879,1,0,0,response1disk,,6,-5.333314419,7.499991149,1,0,0,rectangle,-5.333314419,7.499991149,1,0,0,-5.333314419,7.499991149,1,0,0,0,50,50,52,1,,,,,,,,
,,,,,,,,,,,,,FF,,,,,,,,1.1498,,,,,,,,,,,,,,,,,,,,,,610316373c7163da28a978f8,61036bd1a0b9920bb45a69a9,2021-07-29_23h03.15.517,Simcolourproject_2stim_asymm_v5,2020.2.10,Win32,60,61025ae37ef11b136ea224fe,,,,,,,,,2819,70.00002116,-29.16669696,1,0,0,response3disk,,5,15.33339355,1.49999097,1,0,0,rectangle,15.33339355,1.49999097,1,0,0,15.33339355,1.49999097,1,0,0,0,51,51,72,1,,,,,,,,
,,,,,,,,,,,,,FF,,,,,,,,0.6572,,,,,,,,,,,,,,,,,,,,,,610316373c7163da28a978f8,61036bd1a0b9920bb45a69a9,2021-07-29_23h03.15.517,Simcolourproject_2stim_asymm_v5,2020.2.10,Win32,60,61025ae37ef11b136ea224fe,,,,,,,,,3497,57.33335412,42.16665885,1,0,0,response1disk,,6,7.333393315,12.16665795,1,0,0,rectangle,7.333393315,12.16665795,1,0,0,7.333393315,12.16665795,1,0,0,0,52,52,24,1,,,,,,,,
,,,,,,,,,,,,,FF,,,,,,,,2.2502,,,,,,,,,,,,,,,,,,,,,,610316373c7163da28a978f8,61036bd1a0b9920bb45a69a9,2021-07-29_23h03.15.517,Simcolourproject_2stim_asymm_v5,2020.2.10,Win32,60,61025ae37ef11b136ea224fe,,,,,,,,,3621,28.00001991,48.83330537,1,0,0,response1disk,,7,4.666685879,2.833303998,1,0,0,rectangle,4.666685879,2.833303998,1,0,0,4.666685879,2.833303998,1,0,0,0,53,53,28,1,,,,,,,,
,,,,,,,,,,,,,FF,,,,,,,,0.6669,,,,,,,,,,,,,,,,,,,,,,610316373c7163da28a978f8,61036bd1a0b9920bb45a69a9,2021-07-29_23h03.15.517,Simcolourproject_2stim_asymm_v5,2020.2.10,Win32,60,61025ae37ef11b136ea224fe,,,,,,,,,3230,34.00002009,69.499993,1,0,0,response1disk,,7,-7.999981165,2.833303998,1,0,0,rectangle,-7.999981165,2.833303998,1,0,0,-7.999981165,2.833303998,1,0,0,0,54,54,139,1,,,,,,,,
,,,,,,,,,,,,,FF,,,,,,,,0.6503,,,,,,,,,,,,,,,,,,,,,,610316373c7163da28a978f8,61036bd1a0b9920bb45a69a9,2021-07-29_23h03.15.517,Simcolourproject_2stim_asymm_v5,2020.2.10,Win32,60,61025ae37ef11b136ea224fe,,,,,,,,,839,22.00001973,51.49999246,1,0,0,response1disk,,7,-6.666607102,2.166657656,1,0,0,rectangle,-6.666607102,2.166657656,1,0,0,-6.666607102,2.166657656,1,0,0,0,55,55,158,1,,,,,,,,
,,,,,,,,,,,,,FF,,,,,,,,0.9833,,,,,,,,,,,,,,,,,,,,,,610316373c7163da28a978f8,61036bd1a0b9920bb45a69a9,2021-07-29_23h03.15.517,Simcolourproject_2stim_asymm_v5,2020.2.10,Win32,60,61025ae37ef11b136ea224fe,,,,,,,,,3569,58.66668749,32.16665855,1,0,0,response1disk,,6,1.9735E-05,4.833304058,1,0,0,rectangle,1.9735E-05,4.833304058,1,0,0,1.9735E-05,4.833304058,1,0,0,0,56,56,71,1,,,,,,,,
,,,,,,,,,,,,,FF,,,,,,,,2.1005,,,,,,,,,,,,,,,,,,,,,,610316373c7163da28a978f8,61036bd1a0b9920bb45a69a9,2021-07-29_23h03.15.517,Simcolourproject_2stim_asymm_v5,2020.2.10,Win32,60,61025ae37ef11b136ea224fe,,,,,,,,,95,32.00002003,-57.83334413,1,0,0,response3disk,,4,-3.333314359,0.833303938,1,0,0,rectangle,-3.333314359,0.833303938,1,0,0,-3.333314359,0.833303938,1,0,0,0,57,57,3,1,,,,,,,,
,,,,,,,,,,,,,FF,,,,,,,,1.95,,,,,,,,,,,,,,,,,,,,,,610316373c7163da28a978f8,61036bd1a0b9920bb45a69a9,2021-07-29_23h03.15.517,Simcolourproject_2stim_asymm_v5,2020.2.10,Win32,60,61025ae37ef11b136ea224fe,,,,,,,,,4201,-25.9999817,-55.83334407,1,0,0,response5disk,,3,-4.666607042,-1.166696121,1,0,0,rectangle,-4.666607042,-1.166696121,1,0,0,-4.666607042,-1.166696121,1,0,0,0,58,58,106,1,,,,,,,,
,,,,,,,,,,,,,FF,,,,,,,,1.4503,,,,,,,,,,,,,,,,,,,,,,610316373c7163da28a978f8,61036bd1a0b9920bb45a69a9,2021-07-29_23h03.15.517,Simcolourproject_2stim_asymm_v5,2020.2.10,Win32,60,61025ae37ef11b136ea224fe,,,,,,,,,3627,55.33335406,-35.16669713,1,0,0,response3disk,,5,-11.3333146,2.833303998,1,0,0,rectangle,-11.3333146,2.833303998,1,0,0,-11.3333146,2.833303998,1,0,0,0,59,59,81,1,,,,,,,,
,,,,,,,,,,,,,FF,,,,,,,,1.4661,,,,,,,,,,,,,,,,,,,,,,610316373c7163da28a978f8,61036bd1a0b9920bb45a69a9,2021-07-29_23h03.15.517,Simcolourproject_2stim_asymm_v5,2020.2.10,Win32,60,61025ae37ef11b136ea224fe,,,,,,,,,374,55.33335406,-31.16669702,1,0,0,response3disk,,5,-1.3333143,-3.833342522,1,0,0,rectangle,-77.99998325,-65.16667768,1,0,0,-10.66660722,-1.166696121,1,0,0,0,60,60,98,1,,response5disk_3,TRUE,2,3,"[262,224,242,189,247,311,261,220,204,61,297,259,182,41,46,171,73,231,22,222]",2.2665,rectangle
,,,,,,,,,,,,,FF,,,,,,,,1.4829,,,,,,,,,,,,,,,,,,,,,,610316373c7163da28a978f8,61036bd1a0b9920bb45a69a9,2021-07-29_23h03.15.517,Simcolourproject_2stim_asymm_v5,2020.2.10,Win32,60,61025ae37ef11b136ea224fe,,,,,,,,,2091,72.00002122,-16.50000957,1,0,0,response3disk,,5,-3.333314359,1.49999097,1,0,0,rectangle,-3.333314359,1.49999097,1,0,0,-3.333314359,1.49999097,1,0,0,0,61,61,63,1,,,,,,,,
,,,,,,,,,,,,,FF,,,,,,,,1.4832,,,,,,,,,,,,,,,,,,,,,,610316373c7163da28a978f8,61036bd1a0b9920bb45a69a9,2021-07-29_23h03.15.517,Simcolourproject_2stim_asymm_v5,2020.2.10,Win32,60,61025ae37ef11b136ea224fe,,,,,,,,,1872,70.66668785,32.83330489,1,0,0,response1disk,,6,-11.99998128,2.166657656,1,0,0,rectangle,-11.99998128,2.166657656,1,0,0,-11.99998128,2.166657656,1,0,0,0,62,62,146,1,,,,,,,,
,,,,,,,,,,,,,FF,,,,,,,,0.9994,,,,,,,,,,,,,,,,,,,,,,610316373c7163da28a978f8,61036bd1a0b9920bb45a69a9,2021-07-29_23h03.15.517,Simcolourproject_2stim_asymm_v5,2020.2.10,Win32,60,61025ae37ef11b136ea224fe,,,,,,,,,4155,80.66668814,38.16665873,1,0,0,response1disk,,6,6.666685939,7.499991149,1,0,0,rectangle,6.666685939,7.499991149,1,0,0,6.666685939,7.499991149,1,0,0,0,63,63,38,1,,,,,,,,
,,,,,,,,,,,,,FF,,,,,,,,1.0668,,,,,,,,,,,,,,,,,,,,,,610316373c7163da28a978f8,61036bd1a0b9920bb45a69a9,2021-07-29_23h03.15.517,Simcolourproject_2stim_asymm_v5,2020.2.10,Win32,60,61025ae37ef11b136ea224fe,,,,,,,,,3180,33.33339409,51.49999246,1,0,0,response1disk,,7,-2.666606983,-1.833342463,1,0,0,rectangle,-2.666606983,-1.833342463,1,0,0,-2.666606983,-1.833342463,1,0,0,0,64,64,51,1,,,,,,,,
,,,,,,,,,,,,,FF,,,,,,,,1.2336,,,,,,,,,,,,,,,,,,,,,,610316373c7163da28a978f8,61036bd1a0b9920bb45a69a9,2021-07-29_23h03.15.517,Simcolourproject_2stim_asymm_v5,2020.2.10,Win32,60,61025ae37ef11b136ea224fe,,,,,,,,,691,32.66668671,57.49999264,1,0,0,response1disk,,7,1.9735E-05,0.833303938,1,0,0,rectangle,1.9735E-05,0.833303938,1,0,0,1.9735E-05,0.833303938,1,0,0,0,65,65,90,1,,,,,,,,
,,,,,,,,,,,,,FF,,,,,,,,3.2003,,,,,,,,,,,,,,,,,,,,,,610316373c7163da28a978f8,61036bd1a0b9920bb45a69a9,2021-07-29_23h03.15.517,Simcolourproject_2stim_asymm_v5,2020.2.10,Win32,60,61025ae37ef11b136ea224fe,,,,,,,,,107,50.00002056,-23.83334312,1,0,0,response3disk,,5,-4.666607042,10.16665789,1,0,0,rectangle,-4.666607042,10.16665789,1,0,0,-4.666607042,10.16665789,1,0,0,0,66,66,39,1,,,,,,,,
,,,,,,,,,,,,,FF,,,,,,,,1.4494,,,,,,,,,,,,,,,,,,,,,,610316373c7163da28a978f8,61036bd1a0b9920bb45a69a9,2021-07-29_23h03.15.517,Simcolourproject_2stim_asymm_v5,2020.2.10,Win32,60,61025ae37ef11b136ea224fe,,,,,,,,,1472,39.33339427,32.83330489,1,0,0,response1disk,,6,-12.66660728,0.166657597,1,0,0,rectangle,-12.66660728,0.166657597,1,0,0,-12.66660728,0.166657597,1,0,0,0,67,67,80,1,,,,,,,,
,,,,,,,,,,,,,FF,,,,,,,,1.5497,,,,,,,,,,,,,,,,,,,,,,610316373c7163da28a978f8,61036bd1a0b9920bb45a69a9,2021-07-29_23h03.15.517,Simcolourproject_2stim_asymm_v5,2020.2.10,Win32,60,61025ae37ef11b136ea224fe,,,,,,,,,1151,56.66668743,-37.83334354,1,0,0,response3disk,,5,2.66668582,3.49999103,1,0,0,rectangle,2.66668582,3.49999103,1,0,0,2.66668582,3.49999103,1,0,0,0,68,68,5,1,,,,,,,,
,,,,,,,,,,,,,FF,,,,,,,,0.9503,,,,,,,,,,,,,,,,,,,,,,610316373c7163da28a978f8,61036bd1a0b9920bb45a69a9,2021-07-29_23h03.15.517,Simcolourproject_2stim_asymm_v5,2020.2.10,Win32,60,61025ae37ef11b136ea224fe,,,,,,,,,1236,61.33335423,34.16665861,1,0,0,response1disk,,6,8.666685998,2.166657656,1,0,0,rectangle,8.666685998,2.166657656,1,0,0,8.666685998,2.166657656,1,0,0,0,69,69,54,1,,,,,,,,
,,,,,,,,,,,,,FF,,,,,,,,0.9836,,,,,,,,,,,,,,,,,,,,,,610316373c7163da28a978f8,61036bd1a0b9920bb45a69a9,2021-07-29_23h03.15.517,Simcolourproject_2stim_asymm_v5,2020.2.10,Win32,60,61025ae37ef11b136ea224fe,,,,,,,,,3225,29.33339397,65.49999288,1,0,0,response1disk,,7,-5.999981105,-4.500009209,1,0,0,rectangle,-5.999981105,-4.500009209,1,0,0,-5.999981105,-4.500009209,1,0,0,0,70,70,109,1,,,,,,,,
,,,,,,,,,,,,,FF,,,,,,,,0.6839,,,,,,,,,,,,,,,,,,,,,,610316373c7163da28a978f8,61036bd1a0b9920bb45a69a9,2021-07-29_23h03.15.517,Simcolourproject_2stim_asymm_v5,2020.2.10,Win32,60,61025ae37ef11b136ea224fe,,,,,,,,,2433,31.33339403,65.49999288,1,0,0,response1disk,,7,4.666685879,6.833304117,1,0,0,rectangle,4.666685879,6.833304117,1,0,0,4.666685879,6.833304117,1,0,0,0,71,71,11,1,,,,,,,,
,,,,,,,,,,,,,FF,,,,,,,,0.6664,,,,,,,,,,,,,,,,,,,,,,610316373c7163da28a978f8,61036bd1a0b9920bb45a69a9,2021-07-29_23h03.15.517,Simcolourproject_2stim_asymm_v5,2020.2.10,Win32,60,61025ae37ef11b136ea224fe,,,,,,,,,3825,26.66668653,56.83330561,1,0,0,response1disk,,7,4.666685879,-5.166696241,1,0,0,rectangle,-26.6666077,-83.83334491,1,0,0,-1.3333143,1.49999097,1,0,0,0,72,72,92,1,,response5disk_3,TRUE,3,3,"[262,224,242,189,247,311,261,220,204,61,297,259,182,41,46,171,73,231,22,222]",1.4994,rectangle
,,,,,,,,,,,,,FF,,,,,,,,0.9999,,,,,,,,,,,,,,,,,,,,,,610316373c7163da28a978f8,61036bd1a0b9920bb45a69a9,2021-07-29_23h03.15.517,Simcolourproject_2stim_asymm_v5,2020.2.10,Win32,60,61025ae37ef11b136ea224fe,,,,,,,,,1144,42.00002033,61.49999276,1,0,0,response1disk,,7,1.9735E-05,-0.50000909,1,0,0,rectangle,1.9735E-05,-0.50000909,1,0,0,1.9735E-05,-0.50000909,1,0,0,0,73,73,25,1,,,,,,,,
,,,,,,,,,,,,,FF,,,,,,,,1.4663,,,,,,,,,,,,,,,,,,,,,,610316373c7163da28a978f8,61036bd1a0b9920bb45a69a9,2021-07-29_23h03.15.517,Simcolourproject_2stim_asymm_v5,2020.2.10,Win32,60,61025ae37ef11b136ea224fe,,,,,,,,,1489,32.00002003,53.49999252,1,0,0,response1disk,,7,14.66668618,4.166657716,1,0,0,rectangle,14.66668618,4.166657716,1,0,0,14.66668618,4.166657716,1,0,0,0,74,74,108,1,,,,,,,,
,,,,,,,,,,,,,FF,,,,,,,,5.8008,,,,,,,,,,,,,,,,,,,,,,610316373c7163da28a978f8,61036bd1a0b9920bb45a69a9,2021-07-29_23h03.15.517,Simcolourproject_2stim_asymm_v5,2020.2.10,Win32,60,61025ae37ef11b136ea224fe,,,,,,,,,3850,-24.66660764,-73.83334461,1,0,0,response5disk,,3,-11.99998128,2.166657656,1,0,0,rectangle,-11.99998128,2.166657656,1,0,0,-11.99998128,2.166657656,1,0,0,0,75,75,48,1,,,,,,,,
,,,,,,,,,,,,,FF,,,,,,,,1.2832,,,,,,,,,,,,,,,,,,,,,,610316373c7163da28a978f8,61036bd1a0b9920bb45a69a9,2021-07-29_23h03.15.517,Simcolourproject_2stim_asymm_v5,2020.2.10,Win32,60,61025ae37ef11b136ea224fe,,,,,,,,,673,51.33335394,76.16665986,1,0,0,response1disk,,7,-1.999980986,7.499991149,1,0,0,rectangle,-1.999980986,7.499991149,1,0,0,-1.999980986,7.499991149,1,0,0,0,76,76,136,1,,,,,,,,
,,,,,,,,,,,,,FF,,,,,,,,1.8495,,,,,,,,,,,,,,,,,,,,,,610316373c7163da28a978f8,61036bd1a0b9920bb45a69a9,2021-07-29_23h03.15.517,Simcolourproject_2stim_asymm_v5,2020.2.10,Win32,60,61025ae37ef11b136ea224fe,,,,,,,,,624,57.33335412,31.49999186,1,0,0,response1disk,,6,-8.666607161,1.49999097,1,0,0,rectangle,-8.666607161,1.49999097,1,0,0,-8.666607161,1.49999097,1,0,0,0,77,77,6,1,,,,,,,,
,,,,,,,,,,,,,FF,,,,,,,,2.2429,,,,,,,,,,,,,,,,,,,,,,610316373c7163da28a978f8,61036bd1a0b9920bb45a69a9,2021-07-29_23h03.15.517,Simcolourproject_2stim_asymm_v5,2020.2.10,Win32,60,61025ae37ef11b136ea224fe,,,,,,,,,75,63.33335429,-35.16669713,1,0,0,response3disk,,5,-11.3333146,6.833304117,1,0,0,rectangle,-11.3333146,6.833304117,1,0,0,-11.3333146,6.833304117,1,0,0,0,78,78,16,1,,,,,,,,
,,,,,,,,,,,,,FF,,,,,,,,0.9837,,,,,,,,,,,,,,,,,,,,,,610316373c7163da28a978f8,61036bd1a0b9920bb45a69a9,2021-07-29_23h03.15.517,Simcolourproject_2stim_asymm_v5,2020.2.10,Win32,60,61025ae37ef11b136ea224fe,,,,,,,,,4110,22.66668642,73.49999312,1,0,0,response1disk,,7,-5.999981105,2.833303998,1,0,0,rectangle,-5.999981105,2.833303998,1,0,0,-5.999981105,2.833303998,1,0,0,0,79,79,57,1,,,,,,,,
,,,,,,,,,,,,,FF,,,,,,,,0.7164,,,,,,,,,,,,,,,,,,,,,,610316373c7163da28a978f8,61036bd1a0b9920bb45a69a9,2021-07-29_23h03.15.517,Simcolourproject_2stim_asymm_v5,2020.2.10,Win32,60,61025ae37ef11b136ea224fe,,,,,,,,,4210,32.00002003,50.83330543,1,0,0,response1disk,,7,-5.999981105,-1.166696121,1,0,0,rectangle,-5.999981105,-1.166696121,1,0,0,-5.999981105,-1.166696121,1,0,0,0,80,80,122,1,,,,,,,,
,,,,,,,,,,,,,FF,,,,,,,,0.8501,,,,,,,,,,,,,,,,,,,,,,610316373c7163da28a978f8,61036bd1a0b9920bb45a69a9,2021-07-29_23h03.15.517,Simcolourproject_2stim_asymm_v5,2020.2.10,Win32,60,61025ae37ef11b136ea224fe,,,,,,,,,2816,58.0000208,34.16665861,1,0,0,response1disk,,6,1.9735E-05,6.166657776,1,0,0,rectangle,1.9735E-05,6.166657776,1,0,0,1.9735E-05,6.166657776,1,0,0,0,81,81,138,1,,,,,,,,
,,,,,,,,,,,,,FF,,,,,,,,1.8833,,,,,,,,,,,,,,,,,,,,,,610316373c7163da28a978f8,61036bd1a0b9920bb45a69a9,2021-07-29_23h03.15.517,Simcolourproject_2stim_asymm_v5,2020.2.10,Win32,60,61025ae37ef11b136ea224fe,,,,,,,,,3064,50.66668725,34.83330495,1,0,0,response1disk,,6,-0.666606923,1.49999097,1,0,0,rectangle,-0.666606923,1.49999097,1,0,0,-0.666606923,1.49999097,1,0,0,0,82,82,17,1,,,,,,,,
,,,,,,,,,,,,,FF,,,,,,,,1.3663,,,,,,,,,,,,,,,,,,,,,,610316373c7163da28a978f8,61036bd1a0b9920bb45a69a9,2021-07-29_23h03.15.517,Simcolourproject_2stim_asymm_v5,2020.2.10,Win32,60,61025ae37ef11b136ea224fe,,,,,,,,,3822,28.66668659,60.83330573,1,0,0,response1disk,,7,18.00001961,7.499991149,1,0,0,rectangle,18.00001961,7.499991149,1,0,0,18.00001961,7.499991149,1,0,0,0,83,83,91,1,,,,,,,,
,,,,,,,,,,,,,FF,,,,,,,,0.7999,,,,,,,,,,,,,,,,,,,,,,610316373c7163da28a978f8,61036bd1a0b9920bb45a69a9,2021-07-29_23h03.15.517,Simcolourproject_2stim_asymm_v5,2020.2.10,Win32,60,61025ae37ef11b136ea224fe,,,,,,,,,3957,23.33339379,61.49999276,1,0,0,response1disk,,7,-6.666607102,-1.166696121,1,0,0,rectangle,-6.666607102,-1.166696121,1,0,0,-6.666607102,-1.166696121,1,0,0,0,84,84,77,1,,,,,,,,
,,,,,,,,,,,,,FF,,,,,,,,1.0173,,,,,,,,,,,,,,,,,,,,,,610316373c7163da28a978f8,61036bd1a0b9920bb45a69a9,2021-07-29_23h03.15.517,Simcolourproject_2stim_asymm_v5,2020.2.10,Win32,60,61025ae37ef11b136ea224fe,,,,,,,,,2598,63.33335429,32.16665855,1,0,0,response1disk,,6,-7.999981165,5.499991089,1,0,0,rectangle,-7.999981165,5.499991089,1,0,0,-7.999981165,5.499991089,1,0,0,0,85,85,101,1,,,,,,,,
,,,,,,,,,,,,,FF,,,,,,,,0.6996,,,,,,,,,,,,,,,,,,,,,,610316373c7163da28a978f8,61036bd1a0b9920bb45a69a9,2021-07-29_23h03.15.517,Simcolourproject_2stim_asymm_v5,2020.2.10,Win32,60,61025ae37ef11b136ea224fe,,,,,,,,,918,60.66668755,36.16665867,1,0,0,response1disk,,6,-3.333314359,0.166657597,1,0,0,rectangle,-3.333314359,0.166657597,1,0,0,-3.333314359,0.166657597,1,0,0,0,86,86,94,1,,,,,,,,
,,,,,,,,,,,,,FF,,,,,,,,2.9336,,,,,,,,,,,,,,,,,,,,,,610316373c7163da28a978f8,61036bd1a0b9920bb45a69a9,2021-07-29_23h03.15.517,Simcolourproject_2stim_asymm_v5,2020.2.10,Win32,60,61025ae37ef11b136ea224fe,,,,,,,,,1733,78.66668808,-20.50000969,1,0,0,response3disk,,5,4.000019193,2.166657656,1,0,0,rectangle,4.000019193,2.166657656,1,0,0,4.000019193,2.166657656,1,0,0,0,87,87,126,1,,,,,,,,
,,,,,,,,,,,,,FF,,,,,,,,0.9829,,,,,,,,,,,,,,,,,,,,,,610316373c7163da28a978f8,61036bd1a0b9920bb45a69a9,2021-07-29_23h03.15.517,Simcolourproject_2stim_asymm_v5,2020.2.10,Win32,60,61025ae37ef11b136ea224fe,,,,,,,,,1981,54.66668737,36.16665867,1,0,0,response1disk,,6,-10.66660722,4.166657716,1,0,0,rectangle,-10.66660722,4.166657716,1,0,0,-10.66660722,4.166657716,1,0,0,0,88,88,76,1,,,,,,,,
,,,,,,,,,,,,,FF,,,,,,,,2.9668,,,,,,,,,,,,,,,,,,,,,,610316373c7163da28a978f8,61036bd1a0b9920bb45a69a9,2021-07-29_23h03.15.517,Simcolourproject_2stim_asymm_v5,2020.2.10,Win32,60,61025ae37ef11b136ea224fe,,,,,,,,,2069,64.66668767,40.16665879,1,0,0,response1disk,,6,1.9735E-05,7.499991149,1,0,0,rectangle,1.9735E-05,7.499991149,1,0,0,1.9735E-05,7.499991149,1,0,0,0,89,89,31,1,,,,,,,,
,,,,,,,,,,,,,FF,,,,,,,,0.6774,,,,,,,,,,,,,,,,,,,,,,610316373c7163da28a978f8,61036bd1a0b9920bb45a69a9,2021-07-29_23h03.15.517,Simcolourproject_2stim_asymm_v5,2020.2.10,Win32,60,61025ae37ef11b136ea224fe,,,,,,,,,1581,52.66668731,31.49999186,1,0,0,response1disk,,6,-2.666606983,-0.50000909,1,0,0,rectangle,-2.666606983,-0.50000909,1,0,0,-2.666606983,-0.50000909,1,0,0,0,90,90,10,1,,,,,,,,
,,,,,,,,,,,,,FF,,,,,,,,0.6173,,,,,,,,,,,,,,,,,,,,,,610316373c7163da28a978f8,61036bd1a0b9920bb45a69a9,2021-07-29_23h03.15.517,Simcolourproject_2stim_asymm_v5,2020.2.10,Win32,60,61025ae37ef11b136ea224fe,,,,,,,,,1024,46.66668713,31.49999186,1,0,0,response1disk,,6,10.66668606,-0.50000909,1,0,0,rectangle,10.66668606,-0.50000909,1,0,0,10.66668606,-0.50000909,1,0,0,0,91,91,43,1,,,,,,,,
,,,,,,,,,,,,,FF,,,,,,,,0.5831,,,,,,,,,,,,,,,,,,,,,,610316373c7163da28a978f8,61036bd1a0b9920bb45a69a9,2021-07-29_23h03.15.517,Simcolourproject_2stim_asymm_v5,2020.2.10,Win32,60,61025ae37ef11b136ea224fe,,,,,,,,,3166,44.00002038,29.4999918,1,0,0,response1disk,,6,11.33339343,6.833304117,1,0,0,rectangle,11.33339343,6.833304117,1,0,0,11.33339343,6.833304117,1,0,0,0,92,92,9,1,,,,,,,,
,,,,,,,,,,,,,FF,,,,,,,,1.9492,,,,,,,,,,,,,,,,,,,,,,610316373c7163da28a978f8,61036bd1a0b9920bb45a69a9,2021-07-29_23h03.15.517,Simcolourproject_2stim_asymm_v5,2020.2.10,Win32,60,61025ae37ef11b136ea224fe,,,,,,,,,1449,29.33339397,-47.83334383,1,0,0,response3disk,,4,4.666685879,0.833303938,1,0,0,rectangle,4.666685879,0.833303938,1,0,0,4.666685879,0.833303938,1,0,0,0,93,93,116,1,,,,,,,,
,,,,,,,,,,,,,FF,,,,,,,,1.3997,,,,,,,,,,,,,,,,,,,,,,610316373c7163da28a978f8,61036bd1a0b9920bb45a69a9,2021-07-29_23h03.15.517,Simcolourproject_2stim_asymm_v5,2020.2.10,Win32,60,61025ae37ef11b136ea224fe,,,,,,,,,803,-23.99998164,-51.83334395,1,0,0,response5disk,,3,0.66668576,6.166657776,1,0,0,rectangle,0.66668576,6.166657776,1,0,0,0.66668576,6.166657776,1,0,0,0,94,94,20,1,,,,,,,,
,,,,,,,,,,,,,FF,,,,,,,,2.0163,,,,,,,,,,,,,,,,,,,,,,610316373c7163da28a978f8,61036bd1a0b9920bb45a69a9,2021-07-29_23h03.15.517,Simcolourproject_2stim_asymm_v5,2020.2.10,Win32,60,61025ae37ef11b136ea224fe,,,,,,,,,2990,26.00001985,-61.83334425,1,0,0,response3disk,,4,-1.3333143,6.833304117,1,0,0,rectangle,-1.3333143,6.833304117,1,0,0,-1.3333143,6.833304117,1,0,0,0,95,95,96,1,,,,,,,,
,,,,,,,,,,,,,FF,,,,,,,,2.0498,,,,,,,,,,,,,,,,,,,,,,610316373c7163da28a978f8,61036bd1a0b9920bb45a69a9,2021-07-29_23h03.15.517,Simcolourproject_2stim_asymm_v5,2020.2.10,Win32,60,61025ae37ef11b136ea224fe,,,,,,,,,2727,86.00002164,-19.833343,1,0,0,response3disk,,5,5.333393256,3.49999103,1,0,0,rectangle,5.333393256,3.49999103,1,0,0,5.333393256,3.49999103,1,0,0,0,96,96,110,1,,,,,,,,
,,,,,,,,,,,,,FF,,,,,,,,1.1166,,,,,,,,,,,,,,,,,,,,,,610316373c7163da28a978f8,61036bd1a0b9920bb45a69a9,2021-07-29_23h03.15.517,Simcolourproject_2stim_asymm_v5,2020.2.10,Win32,60,61025ae37ef11b136ea224fe,,,,,,,,,1708,35.33339415,61.49999276,1,0,0,response1disk,,7,-9.999981225,8.166657835,1,0,0,rectangle,-9.999981225,8.166657835,1,0,0,-9.999981225,8.166657835,1,0,0,0,97,97,49,1,,,,,,,,
,,,,,,,,,,,,,FF,,,,,,,,1.2169,,,,,,,,,,,,,,,,,,,,,,610316373c7163da28a978f8,61036bd1a0b9920bb45a69a9,2021-07-29_23h03.15.517,Simcolourproject_2stim_asymm_v5,2020.2.10,Win32,60,61025ae37ef11b136ea224fe,,,,,,,,,78,33.33339409,-55.16667739,1,0,0,response3disk,,4,-5.333314419,3.49999103,1,0,0,rectangle,-5.333314419,3.49999103,1,0,0,-5.333314419,3.49999103,1,0,0,0,98,98,46,1,,,,,,,,
,,,,,,,,,,,,,FF,,,,,,,,1.9335,,,,,,,,,,,,,,,,,,,,,,610316373c7163da28a978f8,61036bd1a0b9920bb45a69a9,2021-07-29_23h03.15.517,Simcolourproject_2stim_asymm_v5,2020.2.10,Win32,60,61025ae37ef11b136ea224fe,,,,,,,,,4336,-74.66660913,-31.16669702,1,0,0,response5disk,,2,-11.99998128,4.166657716,1,0,0,rectangle,-11.99998128,4.166657716,1,0,0,-11.99998128,4.166657716,1,0,0,0,99,99,18,1,,,,,,,,
,,,,,,,,,,,,,FF,,,,,,,,1.4004,,,,,,,,,,,,,,,,,,,,,,610316373c7163da28a978f8,61036bd1a0b9920bb45a69a9,2021-07-29_23h03.15.517,Simcolourproject_2stim_asymm_v5,2020.2.10,Win32,60,61025ae37ef11b136ea224fe,,,,,,,,,844,60.00002086,36.83330501,1,0,0,response1disk,,6,2.000019133,2.833303998,1,0,0,rectangle,2.000019133,2.833303998,1,0,0,2.000019133,2.833303998,1,0,0,0,100,100,88,1,,,,,,,,
,,,,,,,,,,,,,FF,,,,,,,,0.7167,,,,,,,,,,,,,,,,,,,,,,610316373c7163da28a978f8,61036bd1a0b9920bb45a69a9,2021-07-29_23h03.15.517,Simcolourproject_2stim_asymm_v5,2020.2.10,Win32,60,61025ae37ef11b136ea224fe,,,,,,,,,651,52.00002062,38.83330507,1,0,0,response1disk,,6,-5.333314419,5.499991089,1,0,0,rectangle,-5.333314419,5.499991089,1,0,0,-5.333314419,5.499991089,1,0,0,0,101,101,42,1,,,,,,,,
,,,,,,,,,,,,,FF,,,,,,,,0.667,,,,,,,,,,,,,,,,,,,,,,610316373c7163da28a978f8,61036bd1a0b9920bb45a69a9,2021-07-29_23h03.15.517,Simcolourproject_2stim_asymm_v5,2020.2.10,Win32,60,61025ae37ef11b136ea224fe,,,,,,,,,182,56.66668743,24.83330465,1,0,0,response1disk,,6,-1.3333143,-2.500009149,1,0,0,rectangle,-1.3333143,-2.500009149,1,0,0,-1.3333143,-2.500009149,1,0,0,0,102,102,73,1,,,,,,,,
,,,,,,,,,,,,,FF,,,,,,,,0.7167,,,,,,,,,,,,,,,,,,,,,,610316373c7163da28a978f8,61036bd1a0b9920bb45a69a9,2021-07-29_23h03.15.517,Simcolourproject_2stim_asymm_v5,2020.2.10,Win32,60,61025ae37ef11b136ea224fe,,,,,,,,,59,60.00002086,24.83330465,1,0,0,response1disk,,6,9.333393375,3.49999103,1,0,0,rectangle,9.333393375,3.49999103,1,0,0,9.333393375,3.49999103,1,0,0,0,103,103,87,1,,,,,,,,
,,,,,,,,,,,,,FF,,,,,,,,1.1663,,,,,,,,,,,,,,,,,,,,,,610316373c7163da28a978f8,61036bd1a0b9920bb45a69a9,2021-07-29_23h03.15.517,Simcolourproject_2stim_asymm_v5,2020.2.10,Win32,60,61025ae37ef11b136ea224fe,,,,,,,,,587,28.00001991,55.49999258,1,0,0,response1disk,,7,10.00001937,10.16665789,1,0,0,rectangle,10.00001937,10.16665789,1,0,0,10.00001937,10.16665789,1,0,0,0,104,104,124,1,,,,,,,,
,,,,,,,,,,,,,FF,,,,,,,,1.3497,,,,,,,,,,,,,,,,,,,,,,610316373c7163da28a978f8,61036bd1a0b9920bb45a69a9,2021-07-29_23h03.15.517,Simcolourproject_2stim_asymm_v5,2020.2.10,Win32,60,61025ae37ef11b136ea224fe,,,,,,,,,969,-33.33331525,-53.16667733,1,0,0,response5disk,,3,4.000019193,2.833303998,1,0,0,rectangle,4.000019193,2.833303998,1,0,0,4.000019193,2.833303998,1,0,0,0,105,105,159,1,,,,,,,,
,,,,,,,,,,,,,FF,,,,,,,,1.0497,,,,,,,,,,,,,,,,,,,,,,610316373c7163da28a978f8,61036bd1a0b9920bb45a69a9,2021-07-29_23h03.15.517,Simcolourproject_2stim_asymm_v5,2020.2.10,Win32,60,61025ae37ef11b136ea224fe,,,,,,,,,2634,41.33339433,67.49999294,1,0,0,response1disk,,7,4.666685879,-7.1666963,1,0,0,rectangle,4.666685879,-7.1666963,1,0,0,4.666685879,-7.1666963,1,0,0,0,106,106,34,1,,,,,,,,
,,,,,,,,,,,,,FF,,,,,,,,1.1002,,,,,,,,,,,,,,,,,,,,,,610316373c7163da28a978f8,61036bd1a0b9920bb45a69a9,2021-07-29_23h03.15.517,Simcolourproject_2stim_asymm_v5,2020.2.10,Win32,60,61025ae37ef11b136ea224fe,,,,,,,,,1317,24.66668648,72.83330608,1,0,0,response1disk,,7,5.333393256,2.833303998,1,0,0,rectangle,5.333393256,2.833303998,1,0,0,5.333393256,2.833303998,1,0,0,0,107,107,8,1,,,,,,,,
,,,,,,,,,,,,,FF,,,,,,,,1.4002,,,,,,,,,,,,,,,,,,,,,,610316373c7163da28a978f8,61036bd1a0b9920bb45a69a9,2021-07-29_23h03.15.517,Simcolourproject_2stim_asymm_v5,2020.2.10,Win32,60,61025ae37ef11b136ea224fe,,,,,,,,,4218,-71.33331639,-23.83334312,1,0,0,response5disk,,2,-1.3333143,6.166657776,1,0,0,rectangle,-1.3333143,6.166657776,1,0,0,-1.3333143,6.166657776,1,0,0,0,108,108,113,1,,,,,,,,
,,,,,,,,,,,,,FF,,,,,,,,1.7994,,,,,,,,,,,,,,,,,,,,,,610316373c7163da28a978f8,61036bd1a0b9920bb45a69a9,2021-07-29_23h03.15.517,Simcolourproject_2stim_asymm_v5,2020.2.10,Win32,60,61025ae37ef11b136ea224fe,,,,,,,,,3586,51.33335394,43.49999222,1,0,0,response1disk,,6,-3.333314359,-0.50000909,1,0,0,rectangle,-3.333314359,-0.50000909,1,0,0,-3.333314359,-0.50000909,1,0,0,0,109,109,30,1,,,,,,,,
,,,,,,,,,,,,,FF,,,,,,,,1.6506,,,,,,,,,,,,,,,,,,,,,,610316373c7163da28a978f8,61036bd1a0b9920bb45a69a9,2021-07-29_23h03.15.517,Simcolourproject_2stim_asymm_v5,2020.2.10,Win32,60,61025ae37ef11b136ea224fe,,,,,,,,,2707,46.00002044,78.16665992,1,0,0,response1disk,,7,14.66668618,11.49999127,1,0,0,rectangle,14.66668618,11.49999127,1,0,0,14.66668618,11.49999127,1,0,0,0,110,110,50,1,,,,,,,,
,,,,,,,,,,,,,FF,,,,,,,,0.6336,,,,,,,,,,,,,,,,,,,,,,610316373c7163da28a978f8,61036bd1a0b9920bb45a69a9,2021-07-29_23h03.15.517,Simcolourproject_2stim_asymm_v5,2020.2.10,Win32,60,61025ae37ef11b136ea224fe,,,,,,,,,1634,42.00002033,68.16665962,1,0,0,response1disk,,7,-3.333314359,2.833303998,1,0,0,rectangle,-3.333314359,2.833303998,1,0,0,-3.333314359,2.833303998,1,0,0,0,111,111,103,1,,,,,,,,
,,,,,,,,,,,,,FF,,,,,,,,0.8502,,,,,,,,,,,,,,,,,,,,,,610316373c7163da28a978f8,61036bd1a0b9920bb45a69a9,2021-07-29_23h03.15.517,Simcolourproject_2stim_asymm_v5,2020.2.10,Win32,60,61025ae37ef11b136ea224fe,,,,,,,,,2522,23.33339379,56.16665927,1,0,0,response1disk,,7,-9.333314538,6.166657776,1,0,0,rectangle,-9.333314538,6.166657776,1,0,0,-9.333314538,6.166657776,1,0,0,0,112,112,120,1,,,,,,,,
,,,,,,,,,,,,,FF,,,,,,,,0.7,,,,,,,,,,,,,,,,,,,,,,610316373c7163da28a978f8,61036bd1a0b9920bb45a69a9,2021-07-29_23h03.15.517,Simcolourproject_2stim_asymm_v5,2020.2.10,Win32,60,61025ae37ef11b136ea224fe,,,,,,,,,2190,30.00001997,60.16665938,1,0,0,response1disk,,7,5.333393256,8.166657835,1,0,0,rectangle,5.333393256,8.166657835,1,0,0,5.333393256,8.166657835,1,0,0,0,113,113,61,1,,,,,,,,
,,,,,,,,,,,,,FF,,,,,,,,1.1335,,,,,,,,,,,,,,,,,,,,,,610316373c7163da28a978f8,61036bd1a0b9920bb45a69a9,2021-07-29_23h03.15.517,Simcolourproject_2stim_asymm_v5,2020.2.10,Win32,60,61025ae37ef11b136ea224fe,,,,,,,,,3758,33.33339409,51.49999246,1,0,0,response1disk,,7,7.333393315,4.166657716,1,0,0,rectangle,7.333393315,4.166657716,1,0,0,7.333393315,4.166657716,1,0,0,0,114,114,83,1,,,,,,,,
,,,,,,,,,,,,,FF,,,,,,,,0.6993,,,,,,,,,,,,,,,,,,,,,,610316373c7163da28a978f8,61036bd1a0b9920bb45a69a9,2021-07-29_23h03.15.517,Simcolourproject_2stim_asymm_v5,2020.2.10,Win32,60,61025ae37ef11b136ea224fe,,,,,,,,,1913,29.33339397,49.4999924,1,0,0,response1disk,,7,0.66668576,0.166657597,1,0,0,rectangle,0.66668576,0.166657597,1,0,0,0.66668576,0.166657597,1,0,0,0,115,115,123,1,,,,,,,,
,,,,,,,,,,,,,FF,,,,,,,,0.7,,,,,,,,,,,,,,,,,,,,,,610316373c7163da28a978f8,61036bd1a0b9920bb45a69a9,2021-07-29_23h03.15.517,Simcolourproject_2stim_asymm_v5,2020.2.10,Win32,60,61025ae37ef11b136ea224fe,,,,,,,,,3490,22.66668642,40.83330513,1,0,0,response1disk,,7,4.000019193,-4.500009209,1,0,0,rectangle,4.000019193,-4.500009209,1,0,0,4.000019193,-4.500009209,1,0,0,0,116,116,140,1,,,,,,,,
,,,,,,,,,,,,,FF,,,,,,,,0.7329,,,,,,,,,,,,,,,,,,,,,,610316373c7163da28a978f8,61036bd1a0b9920bb45a69a9,2021-07-29_23h03.15.517,Simcolourproject_2stim_asymm_v5,2020.2.10,Win32,60,61025ae37ef11b136ea224fe,,,,,,,,,3226,29.33339397,54.16665921,1,0,0,response1disk,,7,1.333393137,0.833303938,1,0,0,rectangle,1.333393137,0.833303938,1,0,0,1.333393137,0.833303938,1,0,0,0,117,117,2,1,,,,,,,,
,,,,,,,,,,,,,FF,,,,,,,,1.2661,,,,,,,,,,,,,,,,,,,,,,610316373c7163da28a978f8,61036bd1a0b9920bb45a69a9,2021-07-29_23h03.15.517,Simcolourproject_2stim_asymm_v5,2020.2.10,Win32,60,61025ae37ef11b136ea224fe,,,,,,,,,613,42.66668701,-22.50000975,1,0,0,response3disk,,5,-6.666607102,5.499991089,1,0,0,rectangle,-6.666607102,5.499991089,1,0,0,-6.666607102,5.499991089,1,0,0,0,118,118,115,1,,,,,,,,
,,,,,,,,,,,,,FF,,,,,,,,0.6167,,,,,,,,,,,,,,,,,,,,,,610316373c7163da28a978f8,61036bd1a0b9920bb45a69a9,2021-07-29_23h03.15.517,Simcolourproject_2stim_asymm_v5,2020.2.10,Win32,60,61025ae37ef11b136ea224fe,,,,,,,,,1252,26.00001985,54.83330555,1,0,0,response1disk,,7,-1.999980986,0.833303938,1,0,0,rectangle,-1.999980986,0.833303938,1,0,0,-1.999980986,0.833303938,1,0,0,0,119,119,14,1,,,,,,,,
,,,,,,,,,,,,,FF,,,,,,,,1.0999,,,,,,,,,,,,,,,,,,,,,,610316373c7163da28a978f8,61036bd1a0b9920bb45a69a9,2021-07-29_23h03.15.517,Simcolourproject_2stim_asymm_v5,2020.2.10,Win32,60,61025ae37ef11b136ea224fe,,,,,,,,,4370,-29.33331513,60.16665938,1,0,0,response7disk,,0,-1.999980986,0.166657597,1,0,0,rectangle,-1.999980986,0.166657597,1,0,0,-1.999980986,0.166657597,1,0,0,0,120,120,1,1,,,,,,,,
,,,,,,,,,,,,,FF,,,,,,,,2.2162,,,,,,,,,,,,,,,,,,,,,,610316373c7163da28a978f8,61036bd1a0b9920bb45a69a9,2021-07-29_23h03.15.517,Simcolourproject_2stim_asymm_v5,2020.2.10,Win32,60,61025ae37ef11b136ea224fe,,,,,,,,,2038,26.00001985,-46.50001046,1,0,0,response3disk,,4,0.66668576,3.49999103,1,0,0,rectangle,0.66668576,3.49999103,1,0,0,0.66668576,3.49999103,1,0,0,0,121,121,156,1,,,,,,,,
,,,,,,,,,,,,,FF,,,,,,,,0.9668,,,,,,,,,,,,,,,,,,,,,,610316373c7163da28a978f8,61036bd1a0b9920bb45a69a9,2021-07-29_23h03.15.517,Simcolourproject_2stim_asymm_v5,2020.2.10,Win32,60,61025ae37ef11b136ea224fe,,,,,,,,,2632,27.33339391,66.16665956,1,0,0,response1disk,,7,-2.666606983,-1.833342463,1,0,0,rectangle,-2.666606983,-1.833342463,1,0,0,-2.666606983,-1.833342463,1,0,0,0,122,122,55,1,,,,,,,,
,,,,,,,,,,,,,FF,,,,,,,,0.7005,,,,,,,,,,,,,,,,,,,,,,610316373c7163da28a978f8,61036bd1a0b9920bb45a69a9,2021-07-29_23h03.15.517,Simcolourproject_2stim_asymm_v5,2020.2.10,Win32,60,61025ae37ef11b136ea224fe,,,,,,,,,3574,21.33339373,41.49999216,1,0,0,response1disk,,7,-4.666607042,-7.833342642,1,0,0,rectangle,-4.666607042,-7.833342642,1,0,0,-4.666607042,-7.833342642,1,0,0,0,123,123,152,1,,,,,,,,
,,,,,,,,,,,,,FF,,,,,,,,1.1839,,,,,,,,,,,,,,,,,,,,,,610316373c7163da28a978f8,61036bd1a0b9920bb45a69a9,2021-07-29_23h03.15.517,Simcolourproject_2stim_asymm_v5,2020.2.10,Win32,60,61025ae37ef11b136ea224fe,,,,,,,,,351,18.00001961,-49.83334389,1,0,0,response3disk,,4,-13.33331466,0.833303938,1,0,0,rectangle,-13.33331466,0.833303938,1,0,0,-13.33331466,0.833303938,1,0,0,0,124,124,45,1,,,,,,,,
,,,,,,,,,,,,,FF,,,,,,,,0.7493,,,,,,,,,,,,,,,,,,,,,,610316373c7163da28a978f8,61036bd1a0b9920bb45a69a9,2021-07-29_23h03.15.517,Simcolourproject_2stim_asymm_v5,2020.2.10,Win32,60,61025ae37ef11b136ea224fe,,,,,,,,,4309,32.66668671,52.83330549,1,0,0,response1disk,,7,12.66668612,3.49999103,1,0,0,rectangle,12.66668612,3.49999103,1,0,0,12.66668612,3.49999103,1,0,0,0,125,125,134,1,,,,,,,,
,,,,,,,,,,,,,FF,,,,,,,,0.6846,,,,,,,,,,,,,,,,,,,,,,610316373c7163da28a978f8,61036bd1a0b9920bb45a69a9,2021-07-29_23h03.15.517,Simcolourproject_2stim_asymm_v5,2020.2.10,Win32,60,61025ae37ef11b136ea224fe,,,,,,,,,3928,26.00001985,46.16665897,1,0,0,response1disk,,7,4.666685879,6.166657776,1,0,0,rectangle,4.666685879,6.166657776,1,0,0,4.666685879,6.166657776,1,0,0,0,126,126,144,1,,,,,,,,
,,,,,,,,,,,,,FF,,,,,,,,0.7072,,,,,,,,,,,,,,,,,,,,,,610316373c7163da28a978f8,61036bd1a0b9920bb45a69a9,2021-07-29_23h03.15.517,Simcolourproject_2stim_asymm_v5,2020.2.10,Win32,60,61025ae37ef11b136ea224fe,,,,,,,,,1621,27.33339391,46.83330531,1,0,0,response1disk,,7,8.000019312,4.833304058,1,0,0,rectangle,8.000019312,4.833304058,1,0,0,8.000019312,4.833304058,1,0,0,0,127,127,75,1,,,,,,,,
,,,,,,,,,,,,,FF,,,,,,,,0.7166,,,,,,,,,,,,,,,,,,,,,,610316373c7163da28a978f8,61036bd1a0b9920bb45a69a9,2021-07-29_23h03.15.517,Simcolourproject_2stim_asymm_v5,2020.2.10,Win32,60,61025ae37ef11b136ea224fe,,,,,,,,,3687,28.66668659,55.49999258,1,0,0,response1disk,,7,8.666685998,2.833303998,1,0,0,rectangle,8.666685998,2.833303998,1,0,0,8.666685998,2.833303998,1,0,0,0,128,128,70,1,,,,,,,,
,,,,,,,,,,,,,FF,,,,,,,,0.6167,,,,,,,,,,,,,,,,,,,,,,610316373c7163da28a978f8,61036bd1a0b9920bb45a69a9,2021-07-29_23h03.15.517,Simcolourproject_2stim_asymm_v5,2020.2.10,Win32,60,61025ae37ef11b136ea224fe,,,,,,,,,4035,30.00001997,66.16665956,1,0,0,response1disk,,7,2.66668582,7.499991149,1,0,0,rectangle,2.66668582,7.499991149,1,0,0,2.66668582,7.499991149,1,0,0,0,129,129,19,1,,,,,,,,
,,,,,,,,,,,,,FF,,,,,,,,0.6169,,,,,,,,,,,,,,,,,,,,,,610316373c7163da28a978f8,61036bd1a0b9920bb45a69a9,2021-07-29_23h03.15.517,Simcolourproject_2stim_asymm_v5,2020.2.10,Win32,60,61025ae37ef11b136ea224fe,,,,,,,,,342,17.33339361,44.83330525,1,0,0,response1disk,,7,0.66668576,-8.500009328,1,0,0,rectangle,0.66668576,-8.500009328,1,0,0,0.66668576,-8.500009328,1,0,0,0,130,130,44,1,,,,,,,,
,,,,,,,,,,,,,FF,,,,,,,,1.45,,,,,,,,,,,,,,,,,,,,,,610316373c7163da28a978f8,61036bd1a0b9920bb45a69a9,2021-07-29_23h03.15.517,Simcolourproject_2stim_asymm_v5,2020.2.10,Win32,60,61025ae37ef11b136ea224fe,,,,,,,,,1784,29.33339397,68.16665962,1,0,0,response1disk,,7,7.333393315,10.83330424,1,0,0,rectangle,7.333393315,10.83330424,1,0,0,7.333393315,10.83330424,1,0,0,0,131,131,68,1,,,,,,,,
,,,,,,,,,,,,,FF,,,,,,,,0.6664,,,,,,,,,,,,,,,,,,,,,,610316373c7163da28a978f8,61036bd1a0b9920bb45a69a9,2021-07-29_23h03.15.517,Simcolourproject_2stim_asymm_v5,2020.2.10,Win32,60,61025ae37ef11b136ea224fe,,,,,,,,,1146,33.33339409,60.83330573,1,0,0,response1disk,,7,3.333393196,3.49999103,1,0,0,rectangle,3.333393196,3.49999103,1,0,0,3.333393196,3.49999103,1,0,0,0,132,132,132,1,,,,,,,,
,,,,,,,,,,,,,FF,,,,,,,,1.4502,,,,,,,,,,,,,,,,,,,,,,610316373c7163da28a978f8,61036bd1a0b9920bb45a69a9,2021-07-29_23h03.15.517,Simcolourproject_2stim_asymm_v5,2020.2.10,Win32,60,61025ae37ef11b136ea224fe,,,,,,,,,4327,-78.66660925,38.16665873,1,0,0,response7disk,,1,-5.333314419,3.49999103,1,0,0,rectangle,-5.333314419,3.49999103,1,0,0,-5.333314419,3.49999103,1,0,0,0,133,133,13,1,,,,,,,,
,,,,,,,,,,,,,FF,,,,,,,,3.5826,,,,,,,,,,,,,,,,,,,,,,610316373c7163da28a978f8,61036bd1a0b9920bb45a69a9,2021-07-29_23h03.15.517,Simcolourproject_2stim_asymm_v5,2020.2.10,Win32,60,61025ae37ef11b136ea224fe,,,,,,,,,4,100.6666887,23.49999163,1,0,0,response1disk,,6,-13.99998134,1.49999097,1,0,0,rectangle,-13.99998134,1.49999097,1,0,0,-13.99998134,1.49999097,1,0,0,0,134,134,102,1,,,,,,,,
,,,,,,,,,,,,,FF,,,,,,,,0.8667,,,,,,,,,,,,,,,,,,,,,,610316373c7163da28a978f8,61036bd1a0b9920bb45a69a9,2021-07-29_23h03.15.517,Simcolourproject_2stim_asymm_v5,2020.2.10,Win32,60,61025ae37ef11b136ea224fe,,,,,,,,,1990,83.33335489,42.16665885,1,0,0,response1disk,,6,14.00001949,1.49999097,1,0,0,rectangle,14.00001949,1.49999097,1,0,0,14.00001949,1.49999097,1,0,0,0,135,135,148,1,,,,,,,,
,,,,,,,,,,,,,FF,,,,,,,,0.7159,,,,,,,,,,,,,,,,,,,,,,610316373c7163da28a978f8,61036bd1a0b9920bb45a69a9,2021-07-29_23h03.15.517,Simcolourproject_2stim_asymm_v5,2020.2.10,Win32,60,61025ae37ef11b136ea224fe,,,,,,,,,1666,72.00002122,46.16665897,1,0,0,response1disk,,6,4.666685879,8.166657835,1,0,0,rectangle,4.666685879,8.166657835,1,0,0,4.666685879,8.166657835,1,0,0,0,136,136,37,1,,,,,,,,
,,,,,,,,,,,,,FF,,,,,,,,1.1495,,,,,,,,,,,,,,,,,,,,,,610316373c7163da28a978f8,61036bd1a0b9920bb45a69a9,2021-07-29_23h03.15.517,Simcolourproject_2stim_asymm_v5,2020.2.10,Win32,60,61025ae37ef11b136ea224fe,,,,,,,,,4183,29.33339397,-52.50001064,1,0,0,response3disk,,4,10.00001937,2.166657656,1,0,0,rectangle,10.00001937,2.166657656,1,0,0,10.00001937,2.166657656,1,0,0,0,137,137,4,1,,,,,,,,
,,,,,,,,,,,,,FF,,,,,,,,0.9834,,,,,,,,,,,,,,,,,,,,,,610316373c7163da28a978f8,61036bd1a0b9920bb45a69a9,2021-07-29_23h03.15.517,Simcolourproject_2stim_asymm_v5,2020.2.10,Win32,60,61025ae37ef11b136ea224fe,,,,,,,,,952,50.00002056,36.83330501,1,0,0,response1disk,,6,-13.99998134,-0.50000909,1,0,0,rectangle,-13.99998134,-0.50000909,1,0,0,-13.99998134,-0.50000909,1,0,0,0,138,138,93,1,,,,,,,,
,,,,,,,,,,,,,FF,,,,,,,,0.7836,,,,,,,,,,,,,,,,,,,,,,610316373c7163da28a978f8,61036bd1a0b9920bb45a69a9,2021-07-29_23h03.15.517,Simcolourproject_2stim_asymm_v5,2020.2.10,Win32,60,61025ae37ef11b136ea224fe,,,,,,,,,46,20.00001967,56.16665927,1,0,0,response1disk,,7,-15.9999814,-4.500009209,1,0,0,rectangle,-15.9999814,-4.500009209,1,0,0,-15.9999814,-4.500009209,1,0,0,0,139,139,23,1,,,,,,,,
,,,,,,,,,,,,,FF,,,,,,,,0.6007,,,,,,,,,,,,,,,,,,,,,,610316373c7163da28a978f8,61036bd1a0b9920bb45a69a9,2021-07-29_23h03.15.517,Simcolourproject_2stim_asymm_v5,2020.2.10,Win32,60,61025ae37ef11b136ea224fe,,,,,,,,,2110,22.66668642,42.16665885,1,0,0,response1disk,,7,4.666685879,10.16665789,1,0,0,rectangle,4.666685879,10.16665789,1,0,0,4.666685879,10.16665789,1,0,0,0,140,140,118,1,,,,,,,,
,,,,,,,,,,,,,FF,,,,,,,,0.5998,,,,,,,,,,,,,,,,,,,,,,610316373c7163da28a978f8,61036bd1a0b9920bb45a69a9,2021-07-29_23h03.15.517,Simcolourproject_2stim_asymm_v5,2020.2.10,Win32,60,61025ae37ef11b136ea224fe,,,,,,,,,1115,39.33339427,66.16665956,1,0,0,response1disk,,7,20.00001967,8.166657835,1,0,0,rectangle,20.00001967,8.166657835,1,0,0,20.00001967,8.166657835,1,0,0,0,141,141,65,1,,,,,,,,
,,,,,,,,,,,,,FF,,,,,,,,0.5674,,,,,,,,,,,,,,,,,,,,,,610316373c7163da28a978f8,61036bd1a0b9920bb45a69a9,2021-07-29_23h03.15.517,Simcolourproject_2stim_asymm_v5,2020.2.10,Win32,60,61025ae37ef11b136ea224fe,,,,,,,,,3366,34.00002009,51.49999246,1,0,0,response1disk,,7,14.00001949,6.833304117,1,0,0,rectangle,14.00001949,6.833304117,1,0,0,14.00001949,6.833304117,1,0,0,0,142,142,67,1,,,,,,,,
,,,,,,,,,,,,,FF,,,,,,,,1.9169,,,,,,,,,,,,,,,,,,,,,,610316373c7163da28a978f8,61036bd1a0b9920bb45a69a9,2021-07-29_23h03.15.517,Simcolourproject_2stim_asymm_v5,2020.2.10,Win32,60,61025ae37ef11b136ea224fe,,,,,,,,,1223,40.00002027,-55.16667739,1,0,0,response3disk,,4,9.333393375,2.166657656,1,0,0,rectangle,9.333393375,2.166657656,1,0,0,9.333393375,2.166657656,1,0,0,0,143,143,7,1,,,,,,,,
,,,,,,,,,,,,,FF,,,,,,,,1.7332,,,,,,,,,,,,,,,,,,,,,,610316373c7163da28a978f8,61036bd1a0b9920bb45a69a9,2021-07-29_23h03.15.517,Simcolourproject_2stim_asymm_v5,2020.2.10,Win32,60,61025ae37ef11b136ea224fe,,,,,,,,,2007,30.66668665,62.83330579,1,0,0,response1disk,,7,4.666685879,2.166657656,1,0,0,rectangle,4.666685879,2.166657656,1,0,0,4.666685879,2.166657656,1,0,0,0,144,144,85,1,,,,,,,,
,,,,,,,,,,,,,FF,,,,,,,,0.6499,,,,,,,,,,,,,,,,,,,,,,610316373c7163da28a978f8,61036bd1a0b9920bb45a69a9,2021-07-29_23h03.15.517,Simcolourproject_2stim_asymm_v5,2020.2.10,Win32,60,61025ae37ef11b136ea224fe,,,,,,,,,4011,17.33339361,59.4999927,1,0,0,response1disk,,7,-0.666606923,-9.833342701,1,0,0,rectangle,-0.666606923,-9.833342701,1,0,0,-0.666606923,-9.833342701,1,0,0,0,145,145,82,1,,,,,,,,
,,,,,,,,,,,,,FF,,,,,,,,0.8836,,,,,,,,,,,,,,,,,,,,,,610316373c7163da28a978f8,61036bd1a0b9920bb45a69a9,2021-07-29_23h03.15.517,Simcolourproject_2stim_asymm_v5,2020.2.10,Win32,60,61025ae37ef11b136ea224fe,,,,,,,,,318,28.00001991,50.16665909,1,0,0,response1disk,,7,-1.3333143,3.49999103,1,0,0,rectangle,-1.3333143,3.49999103,1,0,0,-1.3333143,3.49999103,1,0,0,0,146,146,142,1,,,,,,,,
,,,,,,,,,,,,,FF,,,,,,,,1.5504,,,,,,,,,,,,,,,,,,,,,,610316373c7163da28a978f8,61036bd1a0b9920bb45a69a9,2021-07-29_23h03.15.517,Simcolourproject_2stim_asymm_v5,2020.2.10,Win32,60,61025ae37ef11b136ea224fe,,,,,,,,,237,28.00001991,55.49999258,1,0,0,response1disk,,7,7.333393315,9.499991208,1,0,0,rectangle,7.333393315,9.499991208,1,0,0,7.333393315,9.499991208,1,0,0,0,147,147,58,1,,,,,,,,
,,,,,,,,,,,,,FF,,,,,,,,0.4857,,,,,,,,,,,,,,,,,,,,,,610316373c7163da28a978f8,61036bd1a0b9920bb45a69a9,2021-07-29_23h03.15.517,Simcolourproject_2stim_asymm_v5,2020.2.10,Win32,60,61025ae37ef11b136ea224fe,,,,,,,,,1347,31.33339403,44.83330525,1,0,0,response1disk,,7,14.66668618,4.833304058,1,0,0,rectangle,14.66668618,4.833304058,1,0,0,14.66668618,4.833304058,1,0,0,0,148,148,59,1,,,,,,,,
,,,,,,,,,,,,,FF,,,,,,,,1.1506,,,,,,,,,,,,,,,,,,,,,,610316373c7163da28a978f8,61036bd1a0b9920bb45a69a9,2021-07-29_23h03.15.517,Simcolourproject_2stim_asymm_v5,2020.2.10,Win32,60,61025ae37ef11b136ea224fe,,,,,,,,,1421,66.00002104,35.49999198,1,0,0,response1disk,,6,6.666685939,0.166657597,1,0,0,rectangle,6.666685939,0.166657597,1,0,0,6.666685939,0.166657597,1,0,0,0,149,149,56,1,,,,,,,,
,,,,,,,,,,,,,FF,,,,,,,,1.2003,,,,,,,,,,,,,,,,,,,,,,610316373c7163da28a978f8,61036bd1a0b9920bb45a69a9,2021-07-29_23h03.15.517,Simcolourproject_2stim_asymm_v5,2020.2.10,Win32,60,61025ae37ef11b136ea224fe,,,,,,,,,1820,48.0000205,-19.833343,1,0,0,response3disk,,5,1.333393137,9.499991208,1,0,0,rectangle,1.333393137,9.499991208,1,0,0,1.333393137,9.499991208,1,0,0,0,150,150,111,1,,,,,,,,
,,,,,,,,,,,,,FF,,,,,,,,1.0818,,,,,,,,,,,,,,,,,,,,,,610316373c7163da28a978f8,61036bd1a0b9920bb45a69a9,2021-07-29_23h03.15.517,Simcolourproject_2stim_asymm_v5,2020.2.10,Win32,60,61025ae37ef11b136ea224fe,,,,,,,,,1394,67.33335441,-41.16667697,1,0,0,response3disk,,5,14.00001949,-5.833342582,1,0,0,rectangle,14.00001949,-5.833342582,1,0,0,14.00001949,-5.833342582,1,0,0,0,151,151,157,1,,,,,,,,
,,,,,,,,,,,,,FF,,,,,,,,2.6674,,,,,,,,,,,,,,,,,,,,,,610316373c7163da28a978f8,61036bd1a0b9920bb45a69a9,2021-07-29_23h03.15.517,Simcolourproject_2stim_asymm_v5,2020.2.10,Win32,60,61025ae37ef11b136ea224fe,,,,,,,,,3019,24.00001979,65.49999288,1,0,0,response1disk,,7,6.000019252,0.833303938,1,0,0,rectangle,6.000019252,0.833303938,1,0,0,6.000019252,0.833303938,1,0,0,0,152,152,128,1,,,,,,,,
,,,,,,,,,,,,,FF,,,,,,,,0.6834,,,,,,,,,,,,,,,,,,,,,,610316373c7163da28a978f8,61036bd1a0b9920bb45a69a9,2021-07-29_23h03.15.517,Simcolourproject_2stim_asymm_v5,2020.2.10,Win32,60,61025ae37ef11b136ea224fe,,,,,,,,,1183,30.00001997,66.16665956,1,0,0,response1disk,,7,6.000019252,0.166657597,1,0,0,rectangle,6.000019252,0.166657597,1,0,0,6.000019252,0.166657597,1,0,0,0,153,153,155,1,,,,,,,,
,,,,,,,,,,,,,FF,,,,,,,,4.6487,,,,,,,,,,,,,,,,,,,,,,610316373c7163da28a978f8,61036bd1a0b9920bb45a69a9,2021-07-29_23h03.15.517,Simcolourproject_2stim_asymm_v5,2020.2.10,Win32,60,61025ae37ef11b136ea224fe,,,,,,,,,2361,-51.33331579,39.4999921,1,0,0,response7disk,,1,5.333393256,4.833304058,1,0,0,rectangle,5.333393256,4.833304058,1,0,0,5.333393256,4.833304058,1,0,0,0,154,154,153,1,,,,,,,,
,,,,,,,,,,,,,FF,,,,,,,,1.2835,,,,,,,,,,,,,,,,,,,,,,610316373c7163da28a978f8,61036bd1a0b9920bb45a69a9,2021-07-29_23h03.15.517,Simcolourproject_2stim_asymm_v5,2020.2.10,Win32,60,61025ae37ef11b136ea224fe,,,,,,,,,2641,25.33339385,62.16665944,1,0,0,response1disk,,7,6.000019252,0.166657597,1,0,0,rectangle,6.000019252,0.166657597,1,0,0,6.000019252,0.166657597,1,0,0,0,155,155,27,1,,,,,,,,
,,,,,,,,,,,,,FF,,,,,,,,0.8495,,,,,,,,,,,,,,,,,,,,,,610316373c7163da28a978f8,61036bd1a0b9920bb45a69a9,2021-07-29_23h03.15.517,Simcolourproject_2stim_asymm_v5,2020.2.10,Win32,60,61025ae37ef11b136ea224fe,,,,,,,,,2392,39.33339427,29.4999918,1,0,0,response1disk,,6,-1.999980986,-0.50000909,1,0,0,rectangle,-1.999980986,-0.50000909,1,0,0,-1.999980986,-0.50000909,1,0,0,0,156,156,131,1,,,,,,,,
,,,,,,,,,,,,,FF,,,,,,,,1.3495,,,,,,,,,,,,,,,,,,,,,,610316373c7163da28a978f8,61036bd1a0b9920bb45a69a9,2021-07-29_23h03.15.517,Simcolourproject_2stim_asymm_v5,2020.2.10,Win32,60,61025ae37ef11b136ea224fe,,,,,,,,,1555,22.66668642,67.49999294,1,0,0,response1disk,,7,1.333393137,7.499991149,1,0,0,rectangle,1.333393137,7.499991149,1,0,0,1.333393137,7.499991149,1,0,0,0,157,157,40,1,,,,,,,,
,,,,,,,,,,,,,FF,,,,,,,,2.0337,,,,,,,,,,,,,,,,,,,,,,610316373c7163da28a978f8,61036bd1a0b9920bb45a69a9,2021-07-29_23h03.15.517,Simcolourproject_2stim_asymm_v5,2020.2.10,Win32,60,61025ae37ef11b136ea224fe,,,,,,,,,580,39.33339427,25.49999169,1,0,0,response1disk,,6,1.9735E-05,2.833303998,1,0,0,rectangle,1.9735E-05,2.833303998,1,0,0,1.9735E-05,2.833303998,1,0,0,0,158,158,66,1,,,,,,,,
,,,,,,,,,,,,,FF,,,,,,,,1.6842,,,,,,,,,,,,,,,,,,,,,,610316373c7163da28a978f8,61036bd1a0b9920bb45a69a9,2021-07-29_23h03.15.517,Simcolourproject_2stim_asymm_v5,2020.2.10,Win32,60,61025ae37ef11b136ea224fe,,,,,,,,,4269,41.33339433,24.16665831,1,0,0,response1disk,,6,1.333393137,-0.50000909,1,0,0,rectangle,1.333393137,-0.50000909,1,0,0,1.333393137,-0.50000909,1,0,0,0,159,159,89,1,,,,,,,,
,,,,,,,,,,,,,FF,,,,,,,,0.9838,,,,,,,,,,,,,,,,,,,,,,610316373c7163da28a978f8,61036bd1a0b9920bb45a69a9,2021-07-29_23h03.15.517,Simcolourproject_2stim_asymm_v5,2020.2.10,Win32,60,61025ae37ef11b136ea224fe,,,,,,,,,2026,24.00001979,-44.5000104,1,0,0,response3disk,,4,8.000019312,3.49999103,1,0,0,rectangle,8.000019312,3.49999103,1,0,0,8.000019312,3.49999103,1,0,0,1,0,160,106,1,,,,,,,,
,,,,,,,,,,,,,FF,,,,,,,,1.9164,,,,,,,,,,,,,,,,,,,,,,610316373c7163da28a978f8,61036bd1a0b9920bb45a69a9,2021-07-29_23h03.15.517,Simcolourproject_2stim_asymm_v5,2020.2.10,Win32,60,61025ae37ef11b136ea224fe,,,,,,,,,2830,25.33339385,-55.83334407,1,0,0,response3disk,,4,-4.666607042,1.49999097,1,0,0,rectangle,-4.666607042,1.49999097,1,0,0,-4.666607042,1.49999097,1,0,0,1,1,161,91,1,,,,,,,,
,,,,,,,,,,,,,FF,,,,,,,,1.5498,,,,,,,,,,,,,,,,,,,,,,610316373c7163da28a978f8,61036bd1a0b9920bb45a69a9,2021-07-29_23h03.15.517,Simcolourproject_2stim_asymm_v5,2020.2.10,Win32,60,61025ae37ef11b136ea224fe,,,,,,,,,2898,44.00002038,-25.16669684,1,0,0,response3disk,,5,-6.666607102,12.16665795,1,0,0,rectangle,-6.666607102,12.16665795,1,0,0,-6.666607102,12.16665795,1,0,0,1,2,162,139,1,,,,,,,,
,,,,,,,,,,,,,FF,,,,,,,,0.7667,,,,,,,,,,,,,,,,,,,,,,610316373c7163da28a978f8,61036bd1a0b9920bb45a69a9,2021-07-29_23h03.15.517,Simcolourproject_2stim_asymm_v5,2020.2.10,Win32,60,61025ae37ef11b136ea224fe,,,,,,,,,302,59.33335418,-36.50001016,1,0,0,response3disk,,5,3.333393196,-0.50000909,1,0,0,rectangle,3.333393196,-0.50000909,1,0,0,3.333393196,-0.50000909,1,0,0,1,3,163,109,1,,,,,,,,
,,,,,,,,,,,,,FF,,,,,,,,1.3333,,,,,,,,,,,,,,,,,,,,,,610316373c7163da28a978f8,61036bd1a0b9920bb45a69a9,2021-07-29_23h03.15.517,Simcolourproject_2stim_asymm_v5,2020.2.10,Win32,60,61025ae37ef11b136ea224fe,,,,,,,,,2539,35.33339415,70.83330602,1,0,0,response1disk,,7,2.66668582,-1.833342463,1,0,0,rectangle,2.66668582,-1.833342463,1,0,0,2.66668582,-1.833342463,1,0,0,1,4,164,102,1,,,,,,,,
,,,,,,,,,,,,,FF,,,,,,,,0.8666,,,,,,,,,,,,,,,,,,,,,,610316373c7163da28a978f8,61036bd1a0b9920bb45a69a9,2021-07-29_23h03.15.517,Simcolourproject_2stim_asymm_v5,2020.2.10,Win32,60,61025ae37ef11b136ea224fe,,,,,,,,,109,24.00001979,54.16665921,1,0,0,response1disk,,7,-5.333314419,-3.166696181,1,0,0,rectangle,-5.333314419,-3.166696181,1,0,0,-5.333314419,-3.166696181,1,0,0,1,5,165,150,1,,,,,,,,
,,,,,,,,,,,,,FF,,,,,,,,0.8169,,,,,,,,,,,,,,,,,,,,,,610316373c7163da28a978f8,61036bd1a0b9920bb45a69a9,2021-07-29_23h03.15.517,Simcolourproject_2stim_asymm_v5,2020.2.10,Win32,60,61025ae37ef11b136ea224fe,,,,,,,,,2892,51.33335394,-66.50001106,1,0,0,response3disk,,4,8.666685998,-6.500009269,1,0,0,rectangle,8.666685998,-6.500009269,1,0,0,8.666685998,-6.500009269,1,0,0,1,6,166,70,1,,,,,,,,
,,,,,,,,,,,,,FF,,,,,,,,1.2162,,,,,,,,,,,,,,,,,,,,,,610316373c7163da28a978f8,61036bd1a0b9920bb45a69a9,2021-07-29_23h03.15.517,Simcolourproject_2stim_asymm_v5,2020.2.10,Win32,60,61025ae37ef11b136ea224fe,,,,,,,,,978,53.333354,27.49999174,1,0,0,response1disk,,6,-15.33331472,-1.166696121,1,0,0,rectangle,-15.33331472,-1.166696121,1,0,0,-15.33331472,-1.166696121,1,0,0,1,7,167,65,1,,,,,,,,
,,,,,,,,,,,,,FF,,,,,,,,2.3663,,,,,,,,,,,,,,,,,,,,,,610316373c7163da28a978f8,61036bd1a0b9920bb45a69a9,2021-07-29_23h03.15.517,Simcolourproject_2stim_asymm_v5,2020.2.10,Win32,60,61025ae37ef11b136ea224fe,,,,,,,,,1239,51.33335394,28.16665843,1,0,0,response1disk,,6,16.66668624,6.833304117,1,0,0,rectangle,16.66668624,6.833304117,1,0,0,16.66668624,6.833304117,1,0,0,1,8,168,99,1,,,,,,,,
,,,,,,,,,,,,,FF,,,,,,,,1.05,,,,,,,,,,,,,,,,,,,,,,610316373c7163da28a978f8,61036bd1a0b9920bb45a69a9,2021-07-29_23h03.15.517,Simcolourproject_2stim_asymm_v5,2020.2.10,Win32,60,61025ae37ef11b136ea224fe,,,,,,,,,3395,39.33339427,29.4999918,1,0,0,response1disk,,6,8.666685998,2.166657656,1,0,0,rectangle,8.666685998,2.166657656,1,0,0,8.666685998,2.166657656,1,0,0,1,9,169,157,1,,,,,,,,
,,,,,,,,,,,,,FF,,,,,,,,1.2331,,,,,,,,,,,,,,,,,,,,,,610316373c7163da28a978f8,61036bd1a0b9920bb45a69a9,2021-07-29_23h03.15.517,Simcolourproject_2stim_asymm_v5,2020.2.10,Win32,60,61025ae37ef11b136ea224fe,,,,,,,,,1676,16.66668624,-44.5000104,1,0,0,response3disk,,4,-5.999981105,0.833303938,1,0,0,rectangle,30.00001997,-59.83334419,1,0,0,-19.33331484,-1.166696121,1,0,0,1,10,170,34,1,,response3disk_3,TRUE,4,4,"[262,224,242,189,247,311,261,220,204,61,297,259,182,41,46,171,73,231,22,222]",3.0343,rectangle
,,,,,,,,,,,,,FF,,,,,,,,0.9669,,,,,,,,,,,,,,,,,,,,,,610316373c7163da28a978f8,61036bd1a0b9920bb45a69a9,2021-07-29_23h03.15.517,Simcolourproject_2stim_asymm_v5,2020.2.10,Win32,60,61025ae37ef11b136ea224fe,,,,,,,,,1686,44.66668707,-79.1666781,1,0,0,response3disk,,4,5.333393256,8.833304177,1,0,0,rectangle,5.333393256,8.833304177,1,0,0,5.333393256,8.833304177,1,0,0,1,11,171,44,1,,,,,,,,
,,,,,,,,,,,,,FF,,,,,,,,1.1332,,,,,,,,,,,,,,,,,,,,,,610316373c7163da28a978f8,61036bd1a0b9920bb45a69a9,2021-07-29_23h03.15.517,Simcolourproject_2stim_asymm_v5,2020.2.10,Win32,60,61025ae37ef11b136ea224fe,,,,,,,,,3087,32.00002003,70.16665968,1,0,0,response1disk,,7,6.666685939,8.166657835,1,0,0,rectangle,6.666685939,8.166657835,1,0,0,6.666685939,8.166657835,1,0,0,1,12,172,31,1,,,,,,,,
,,,,,,,,,,,,,FF,,,,,,,,1.8504,,,,,,,,,,,,,,,,,,,,,,610316373c7163da28a978f8,61036bd1a0b9920bb45a69a9,2021-07-29_23h03.15.517,Simcolourproject_2stim_asymm_v5,2020.2.10,Win32,60,61025ae37ef11b136ea224fe,,,,,,,,,3881,58.66668749,-19.833343,1,0,0,response3disk,,5,-3.333314359,2.166657656,1,0,0,rectangle,-3.333314359,2.166657656,1,0,0,-3.333314359,2.166657656,1,0,0,1,13,173,145,1,,,,,,,,
,,,,,,,,,,,,,FF,,,,,,,,0.7837,,,,,,,,,,,,,,,,,,,,,,610316373c7163da28a978f8,61036bd1a0b9920bb45a69a9,2021-07-29_23h03.15.517,Simcolourproject_2stim_asymm_v5,2020.2.10,Win32,60,61025ae37ef11b136ea224fe,,,,,,,,,493,25.33339385,66.16665956,1,0,0,response1disk,,7,-7.333314478,-9.16669636,1,0,0,rectangle,-7.333314478,-9.16669636,1,0,0,-7.333314478,-9.16669636,1,0,0,1,14,174,116,1,,,,,,,,
,,,,,,,,,,,,,FF,,,,,,,,0.5667,,,,,,,,,,,,,,,,,,,,,,610316373c7163da28a978f8,61036bd1a0b9920bb45a69a9,2021-07-29_23h03.15.517,Simcolourproject_2stim_asymm_v5,2020.2.10,Win32,60,61025ae37ef11b136ea224fe,,,,,,,,,1256,43.3333537,72.16665974,1,0,0,response1disk,,7,8.666685998,8.833304177,1,0,0,rectangle,8.666685998,8.833304177,1,0,0,8.666685998,8.833304177,1,0,0,1,15,175,114,1,,,,,,,,
,,,,,,,,,,,,,FF,,,,,,,,0.5507,,,,,,,,,,,,,,,,,,,,,,610316373c7163da28a978f8,61036bd1a0b9920bb45a69a9,2021-07-29_23h03.15.517,Simcolourproject_2stim_asymm_v5,2020.2.10,Win32,60,61025ae37ef11b136ea224fe,,,,,,,,,4056,21.33339373,49.4999924,1,0,0,response1disk,,7,2.000019133,2.166657656,1,0,0,rectangle,2.000019133,2.166657656,1,0,0,2.000019133,2.166657656,1,0,0,1,16,176,131,1,,,,,,,,
,,,,,,,,,,,,,FF,,,,,,,,0.9669,,,,,,,,,,,,,,,,,,,,,,610316373c7163da28a978f8,61036bd1a0b9920bb45a69a9,2021-07-29_23h03.15.517,Simcolourproject_2stim_asymm_v5,2020.2.10,Win32,60,61025ae37ef11b136ea224fe,,,,,,,,,2853,40.00002027,27.49999174,1,0,0,response1disk,,6,-2.666606983,-1.166696121,1,0,0,rectangle,-2.666606983,-1.166696121,1,0,0,-2.666606983,-1.166696121,1,0,0,1,17,177,89,1,,,,,,,,
,,,,,,,,,,,,,FF,,,,,,,,0.6831,,,,,,,,,,,,,,,,,,,,,,610316373c7163da28a978f8,61036bd1a0b9920bb45a69a9,2021-07-29_23h03.15.517,Simcolourproject_2stim_asymm_v5,2020.2.10,Win32,60,61025ae37ef11b136ea224fe,,,,,,,,,175,48.66668719,28.83330477,1,0,0,response1disk,,6,17.33339361,-0.50000909,1,0,0,rectangle,17.33339361,-0.50000909,1,0,0,17.33339361,-0.50000909,1,0,0,1,18,178,121,1,,,,,,,,
,,,,,,,,,,,,,FF,,,,,,,,0.8832,,,,,,,,,,,,,,,,,,,,,,610316373c7163da28a978f8,61036bd1a0b9920bb45a69a9,2021-07-29_23h03.15.517,Simcolourproject_2stim_asymm_v5,2020.2.10,Win32,60,61025ae37ef11b136ea224fe,,,,,,,,,745,50.66668725,-28.50000992,1,0,0,response3disk,,5,16.00001955,4.166657716,1,0,0,rectangle,16.00001955,4.166657716,1,0,0,16.00001955,4.166657716,1,0,0,1,19,179,90,1,,,,,,,,
,,,,,,,,,,,,,FF,,,,,,,,0.5499,,,,,,,,,,,,,,,,,,,,,,610316373c7163da28a978f8,61036bd1a0b9920bb45a69a9,2021-07-29_23h03.15.517,Simcolourproject_2stim_asymm_v5,2020.2.10,Win32,60,61025ae37ef11b136ea224fe,,,,,,,,,1407,40.00002027,24.83330465,1,0,0,response1disk,,6,8.000019312,-7.833342642,1,0,0,rectangle,8.000019312,-7.833342642,1,0,0,8.000019312,-7.833342642,1,0,0,1,20,180,2,1,,,,,,,,
,,,,,,,,,,,,,FF,,,,,,,,1.0503,,,,,,,,,,,,,,,,,,,,,,610316373c7163da28a978f8,61036bd1a0b9920bb45a69a9,2021-07-29_23h03.15.517,Simcolourproject_2stim_asymm_v5,2020.2.10,Win32,60,61025ae37ef11b136ea224fe,,,,,,,,,652,42.66668701,22.83330459,1,0,0,response1disk,,6,0.66668576,-8.500009328,1,0,0,rectangle,-78.66660925,42.16665885,1,0,0,-9.333314538,1.49999097,1,0,0,1,21,181,143,1,,response7disk_3,TRUE,1,1,"[262,224,242,189,247,311,261,220,204,61,297,259,182,41,46,171,73,231,22,222]",1.6833,rectangle
,,,,,,,,,,,,,FF,,,,,,,,2.7667,,,,,,,,,,,,,,,,,,,,,,610316373c7163da28a978f8,61036bd1a0b9920bb45a69a9,2021-07-29_23h03.15.517,Simcolourproject_2stim_asymm_v5,2020.2.10,Win32,60,61025ae37ef11b136ea224fe,,,,,,,,,1059,56.00002074,36.83330501,1,0,0,response1disk,,6,3.333393196,-4.500009209,1,0,0,rectangle,3.333393196,-4.500009209,1,0,0,3.333393196,-4.500009209,1,0,0,1,22,182,137,1,,,,,,,,
,,,,,,,,,,,,,FF,,,,,,,,1.3502,,,,,,,,,,,,,,,,,,,,,,610316373c7163da28a978f8,61036bd1a0b9920bb45a69a9,2021-07-29_23h03.15.517,Simcolourproject_2stim_asymm_v5,2020.2.10,Win32,60,61025ae37ef11b136ea224fe,,,,,,,,,703,22.66668642,62.16665944,1,0,0,response1disk,,7,10.00001937,12.16665795,1,0,0,rectangle,10.00001937,12.16665795,1,0,0,10.00001937,12.16665795,1,0,0,1,23,183,103,1,,,,,,,,
,,,,,,,,,,,,,FF,,,,,,,,1.034,,,,,,,,,,,,,,,,,,,,,,610316373c7163da28a978f8,61036bd1a0b9920bb45a69a9,2021-07-29_23h03.15.517,Simcolourproject_2stim_asymm_v5,2020.2.10,Win32,60,61025ae37ef11b136ea224fe,,,,,,,,,3423,50.66668725,28.83330477,1,0,0,response1disk,,6,12.00001943,2.166657656,1,0,0,rectangle,12.00001943,2.166657656,1,0,0,12.00001943,2.166657656,1,0,0,1,24,184,81,1,,,,,,,,
,,,,,,,,,,,,,FF,,,,,,,,0.7833,,,,,,,,,,,,,,,,,,,,,,610316373c7163da28a978f8,61036bd1a0b9920bb45a69a9,2021-07-29_23h03.15.517,Simcolourproject_2stim_asymm_v5,2020.2.10,Win32,60,61025ae37ef11b136ea224fe,,,,,,,,,3371,28.66668659,21.49999157,1,0,0,response1disk,,6,8.000019312,4.833304058,1,0,0,rectangle,8.000019312,4.833304058,1,0,0,8.000019312,4.833304058,1,0,0,1,25,185,73,1,,,,,,,,
,,,,,,,,,,,,,FF,,,,,,,,0.6665,,,,,,,,,,,,,,,,,,,,,,610316373c7163da28a978f8,61036bd1a0b9920bb45a69a9,2021-07-29_23h03.15.517,Simcolourproject_2stim_asymm_v5,2020.2.10,Win32,60,61025ae37ef11b136ea224fe,,,,,,,,,1829,48.66668719,36.83330501,1,0,0,response1disk,,6,24.66668648,2.166657656,1,0,0,rectangle,24.66668648,2.166657656,1,0,0,24.66668648,2.166657656,1,0,0,1,26,186,146,1,,,,,,,,
,,,,,,,,,,,,,FF,,,,,,,,0.767,,,,,,,,,,,,,,,,,,,,,,610316373c7163da28a978f8,61036bd1a0b9920bb45a69a9,2021-07-29_23h03.15.517,Simcolourproject_2stim_asymm_v5,2020.2.10,Win32,60,61025ae37ef11b136ea224fe,,,,,,,,,2214,39.33339427,27.49999174,1,0,0,response1disk,,6,16.00001955,5.499991089,1,0,0,rectangle,16.00001955,5.499991089,1,0,0,16.00001955,5.499991089,1,0,0,1,27,187,45,1,,,,,,,,
,,,,,,,,,,,,,FF,,,,,,,,0.9331,,,,,,,,,,,,,,,,,,,,,,610316373c7163da28a978f8,61036bd1a0b9920bb45a69a9,2021-07-29_23h03.15.517,Simcolourproject_2stim_asymm_v5,2020.2.10,Win32,60,61025ae37ef11b136ea224fe,,,,,,,,,4332,29.33339397,44.83330525,1,0,0,response1disk,,7,9.333393375,4.166657716,1,0,0,rectangle,59.33335418,102.1666606,1,0,0,-3.999981046,3.49999103,1,0,0,1,28,188,0,1,,response1disk_3,TRUE,7,7,"[262,224,242,189,247,311,261,220,204,61,297,259,182,41,46,171,73,231,22,222]",1.7998,rectangle
,,,,,,,,,,,,,FF,,,,,,,,3.4333,,,,,,,,,,,,,,,,,,,,,,610316373c7163da28a978f8,61036bd1a0b9920bb45a69a9,2021-07-29_23h03.15.517,Simcolourproject_2stim_asymm_v5,2020.2.10,Win32,60,61025ae37ef11b136ea224fe,,,,,,,,,2593,58.0000208,-24.5000098,1,0,0,response3disk,,5,8.666685998,-0.50000909,1,0,0,rectangle,8.666685998,-0.50000909,1,0,0,8.666685998,-0.50000909,1,0,0,1,29,189,16,1,,,,,,,,
,,,,,,,,,,,,,FF,,,,,,,,2.7,,,,,,,,,,,,,,,,,,,,,,610316373c7163da28a978f8,61036bd1a0b9920bb45a69a9,2021-07-29_23h03.15.517,Simcolourproject_2stim_asymm_v5,2020.2.10,Win32,60,61025ae37ef11b136ea224fe,,,,,,,,,1604,-42.66660817,-62.50001094,1,0,0,response5disk,,3,-1.3333143,5.499991089,1,0,0,rectangle,-1.3333143,5.499991089,1,0,0,-1.3333143,5.499991089,1,0,0,1,30,190,80,1,,,,,,,,
,,,,,,,,,,,,,FF,,,,,,,,1.0665,,,,,,,,,,,,,,,,,,,,,,610316373c7163da28a978f8,61036bd1a0b9920bb45a69a9,2021-07-29_23h03.15.517,Simcolourproject_2stim_asymm_v5,2020.2.10,Win32,60,61025ae37ef11b136ea224fe,,,,,,,,,3318,81.33335483,29.4999918,1,0,0,response1disk,,6,2.66668582,6.833304117,1,0,0,rectangle,2.66668582,6.833304117,1,0,0,2.66668582,6.833304117,1,0,0,1,31,191,13,1,,,,,,,,
,,,,,,,,,,,,,FF,,,,,,,,0.8663,,,,,,,,,,,,,,,,,,,,,,610316373c7163da28a978f8,61036bd1a0b9920bb45a69a9,2021-07-29_23h03.15.517,Simcolourproject_2stim_asymm_v5,2020.2.10,Win32,60,61025ae37ef11b136ea224fe,,,,,,,,,3865,60.00002086,34.16665861,1,0,0,response1disk,,6,21.33339373,-1.166696121,1,0,0,rectangle,21.33339373,-1.166696121,1,0,0,21.33339373,-1.166696121,1,0,0,1,32,192,134,1,,,,,,,,
,,,,,,,,,,,,,FF,,,,,,,,1.7836,,,,,,,,,,,,,,,,,,,,,,610316373c7163da28a978f8,61036bd1a0b9920bb45a69a9,2021-07-29_23h03.15.517,Simcolourproject_2stim_asymm_v5,2020.2.10,Win32,60,61025ae37ef11b136ea224fe,,,,,,,,,368,27.33339391,-45.16667709,1,0,0,response3disk,,4,4.666685879,0.166657597,1,0,0,rectangle,4.666685879,0.166657597,1,0,0,4.666685879,0.166657597,1,0,0,1,33,193,53,1,,,,,,,,
,,,,,,,,,,,,,FF,,,,,,,,0.65,,,,,,,,,,,,,,,,,,,,,,610316373c7163da28a978f8,61036bd1a0b9920bb45a69a9,2021-07-29_23h03.15.517,Simcolourproject_2stim_asymm_v5,2020.2.10,Win32,60,61025ae37ef11b136ea224fe,,,,,,,,,2372,27.33339391,-49.16667721,1,0,0,response3disk,,4,2.66668582,3.49999103,1,0,0,rectangle,2.66668582,3.49999103,1,0,0,2.66668582,3.49999103,1,0,0,1,34,194,153,1,,,,,,,,
,,,,,,,,,,,,,FF,,,,,,,,0.7031,,,,,,,,,,,,,,,,,,,,,,610316373c7163da28a978f8,61036bd1a0b9920bb45a69a9,2021-07-29_23h03.15.517,Simcolourproject_2stim_asymm_v5,2020.2.10,Win32,60,61025ae37ef11b136ea224fe,,,,,,,,,4045,26.66668653,68.16665962,1,0,0,response1disk,,7,6.000019252,0.166657597,1,0,0,rectangle,6.000019252,0.166657597,1,0,0,6.000019252,0.166657597,1,0,0,1,35,195,94,1,,,,,,,,
,,,,,,,,,,,,,FF,,,,,,,,2.2499,,,,,,,,,,,,,,,,,,,,,,610316373c7163da28a978f8,61036bd1a0b9920bb45a69a9,2021-07-29_23h03.15.517,Simcolourproject_2stim_asymm_v5,2020.2.10,Win32,60,61025ae37ef11b136ea224fe,,,,,,,,,4357,-50.66660841,-75.16667798,1,0,0,response5disk,,3,6.000019252,-2.500009149,1,0,0,rectangle,6.000019252,-2.500009149,1,0,0,6.000019252,-2.500009149,1,0,0,1,36,196,37,1,,,,,,,,
,,,,,,,,,,,,,FF,,,,,,,,1.1668,,,,,,,,,,,,,,,,,,,,,,610316373c7163da28a978f8,61036bd1a0b9920bb45a69a9,2021-07-29_23h03.15.517,Simcolourproject_2stim_asymm_v5,2020.2.10,Win32,60,61025ae37ef11b136ea224fe,,,,,,,,,4047,-30.66660782,-49.16667721,1,0,0,response5disk,,3,-21.3333149,2.833303998,1,0,0,rectangle,-21.3333149,2.833303998,1,0,0,-21.3333149,2.833303998,1,0,0,1,37,197,136,1,,,,,,,,
,,,,,,,,,,,,,FF,,,,,,,,0.9329,,,,,,,,,,,,,,,,,,,,,,610316373c7163da28a978f8,61036bd1a0b9920bb45a69a9,2021-07-29_23h03.15.517,Simcolourproject_2stim_asymm_v5,2020.2.10,Win32,60,61025ae37ef11b136ea224fe,,,,,,,,,2761,37.33339421,-23.83334312,1,0,0,response3disk,,5,-7.999981165,8.833304177,1,0,0,rectangle,-7.999981165,8.833304177,1,0,0,-7.999981165,8.833304177,1,0,0,1,38,198,32,1,,,,,,,,
,,,,,,,,,,,,,FF,,,,,,,,0.8669,,,,,,,,,,,,,,,,,,,,,,610316373c7163da28a978f8,61036bd1a0b9920bb45a69a9,2021-07-29_23h03.15.517,Simcolourproject_2stim_asymm_v5,2020.2.10,Win32,60,61025ae37ef11b136ea224fe,,,,,,,,,1897,50.66668725,28.16665843,1,0,0,response1disk,,6,20.66668636,8.166657835,1,0,0,rectangle,20.66668636,8.166657835,1,0,0,20.66668636,8.166657835,1,0,0,1,39,199,77,1,,,,,,,,
,,,,,,,,,,,,,FF,,,,,,,,0.8331,,,,,,,,,,,,,,,,,,,,,,610316373c7163da28a978f8,61036bd1a0b9920bb45a69a9,2021-07-29_23h03.15.517,Simcolourproject_2stim_asymm_v5,2020.2.10,Win32,60,61025ae37ef11b136ea224fe,,,,,,,,,357,42.00002033,75.49999318,1,0,0,response1disk,,7,14.00001949,8.833304177,1,0,0,rectangle,14.00001949,8.833304177,1,0,0,14.00001949,8.833304177,1,0,0,1,40,200,152,1,,,,,,,,
,,,,,,,,,,,,,FF,,,,,,,,0.55,,,,,,,,,,,,,,,,,,,,,,610316373c7163da28a978f8,61036bd1a0b9920bb45a69a9,2021-07-29_23h03.15.517,Simcolourproject_2stim_asymm_v5,2020.2.10,Win32,60,61025ae37ef11b136ea224fe,,,,,,,,,1840,28.66668659,63.49999282,1,0,0,response1disk,,7,5.333393256,-5.166696241,1,0,0,rectangle,5.333393256,-5.166696241,1,0,0,5.333393256,-5.166696241,1,0,0,1,41,201,156,1,,,,,,,,
,,,,,,,,,,,,,FF,,,,,,,,0.4165,,,,,,,,,,,,,,,,,,,,,,610316373c7163da28a978f8,61036bd1a0b9920bb45a69a9,2021-07-29_23h03.15.517,Simcolourproject_2stim_asymm_v5,2020.2.10,Win32,60,61025ae37ef11b136ea224fe,,,,,,,,,1503,30.00001997,64.1666595,1,0,0,response1disk,,7,6.666685939,-7.833342642,1,0,0,rectangle,6.666685939,-7.833342642,1,0,0,6.666685939,-7.833342642,1,0,0,1,42,202,158,1,,,,,,,,
,,,,,,,,,,,,,FF,,,,,,,,0.5326,,,,,,,,,,,,,,,,,,,,,,610316373c7163da28a978f8,61036bd1a0b9920bb45a69a9,2021-07-29_23h03.15.517,Simcolourproject_2stim_asymm_v5,2020.2.10,Win32,60,61025ae37ef11b136ea224fe,,,,,,,,,3807,25.33339385,54.83330555,1,0,0,response1disk,,7,16.66668624,10.83330424,1,0,0,rectangle,38.00002021,-55.16667739,1,0,0,-3.333314359,5.499991089,1,0,0,1,43,203,56,1,,response3disk_3,TRUE,4,4,"[262,224,242,189,247,311,261,220,204,61,297,259,182,41,46,171,73,231,22,222]",1.3996,rectangle
,,,,,,,,,,,,,FF,,,,,,,,1.5169,,,,,,,,,,,,,,,,,,,,,,610316373c7163da28a978f8,61036bd1a0b9920bb45a69a9,2021-07-29_23h03.15.517,Simcolourproject_2stim_asymm_v5,2020.2.10,Win32,60,61025ae37ef11b136ea224fe,,,,,,,,,3329,51.33335394,-27.83334324,1,0,0,response3disk,,5,-21.3333149,-3.166696181,1,0,0,rectangle,-21.3333149,-3.166696181,1,0,0,-21.3333149,-3.166696181,1,0,0,1,44,204,100,1,,,,,,,,
,,,,,,,,,,,,,FF,,,,,,,,2.0997,,,,,,,,,,,,,,,,,,,,,,610316373c7163da28a978f8,61036bd1a0b9920bb45a69a9,2021-07-29_23h03.15.517,Simcolourproject_2stim_asymm_v5,2020.2.10,Win32,60,61025ae37ef11b136ea224fe,,,,,,,,,3741,-45.33331561,81.49999335,1,0,0,response7disk,,0,-9.999981225,5.499991089,1,0,0,rectangle,-9.999981225,5.499991089,1,0,0,-9.999981225,5.499991089,1,0,0,1,45,205,101,1,,,,,,,,
,,,,,,,,,,,,,FF,,,,,,,,2.6333,,,,,,,,,,,,,,,,,,,,,,610316373c7163da28a978f8,61036bd1a0b9920bb45a69a9,2021-07-29_23h03.15.517,Simcolourproject_2stim_asymm_v5,2020.2.10,Win32,60,61025ae37ef11b136ea224fe,,,,,,,,,1419,74.66668797,-43.83334371,1,0,0,response3disk,,5,-16.6666074,0.166657597,1,0,0,rectangle,-16.6666074,0.166657597,1,0,0,-16.6666074,0.166657597,1,0,0,1,46,206,61,1,,,,,,,,
,,,,,,,,,,,,,FF,,,,,,,,0.8833,,,,,,,,,,,,,,,,,,,,,,610316373c7163da28a978f8,61036bd1a0b9920bb45a69a9,2021-07-29_23h03.15.517,Simcolourproject_2stim_asymm_v5,2020.2.10,Win32,60,61025ae37ef11b136ea224fe,,,,,,,,,490,62.00002092,37.49999204,1,0,0,response1disk,,6,-8.666607161,-1.166696121,1,0,0,rectangle,-8.666607161,-1.166696121,1,0,0,-8.666607161,-1.166696121,1,0,0,1,47,207,29,1,,,,,,,,
,,,,,,,,,,,,,FF,,,,,,,,1.1333,,,,,,,,,,,,,,,,,,,,,,610316373c7163da28a978f8,61036bd1a0b9920bb45a69a9,2021-07-29_23h03.15.517,Simcolourproject_2stim_asymm_v5,2020.2.10,Win32,60,61025ae37ef11b136ea224fe,,,,,,,,,1888,-53.33331585,-23.16669678,1,0,0,response5disk,,2,-5.999981105,6.833304117,1,0,0,rectangle,-5.999981105,6.833304117,1,0,0,-5.999981105,6.833304117,1,0,0,1,48,208,76,1,,,,,,,,
,,,,,,,,,,,,,FF,,,,,,,,1.7333,,,,,,,,,,,,,,,,,,,,,,610316373c7163da28a978f8,61036bd1a0b9920bb45a69a9,2021-07-29_23h03.15.517,Simcolourproject_2stim_asymm_v5,2020.2.10,Win32,60,61025ae37ef11b136ea224fe,,,,,,,,,383,64.00002098,30.83330483,1,0,0,response1disk,,6,13.33339349,6.833304117,1,0,0,rectangle,13.33339349,6.833304117,1,0,0,13.33339349,6.833304117,1,0,0,1,49,209,155,1,,,,,,,,
,,,,,,,,,,,,,FF,,,,,,,,1.7499,,,,,,,,,,,,,,,,,,,,,,610316373c7163da28a978f8,61036bd1a0b9920bb45a69a9,2021-07-29_23h03.15.517,Simcolourproject_2stim_asymm_v5,2020.2.10,Win32,60,61025ae37ef11b136ea224fe,,,,,,,,,165,25.33339385,65.49999288,1,0,0,response1disk,,7,8.666685998,-1.166696121,1,0,0,rectangle,8.666685998,-1.166696121,1,0,0,8.666685998,-1.166696121,1,0,0,1,50,210,130,1,,,,,,,,
,,,,,,,,,,,,,FF,,,,,,,,0.7839,,,,,,,,,,,,,,,,,,,,,,610316373c7163da28a978f8,61036bd1a0b9920bb45a69a9,2021-07-29_23h03.15.517,Simcolourproject_2stim_asymm_v5,2020.2.10,Win32,60,61025ae37ef11b136ea224fe,,,,,,,,,2819,38.00002021,21.49999157,1,0,0,response1disk,,6,-1.999980986,-1.833342463,1,0,0,rectangle,-1.999980986,-1.833342463,1,0,0,-1.999980986,-1.833342463,1,0,0,1,51,211,24,1,,,,,,,,
,,,,,,,,,,,,,FF,,,,,,,,0.8995,,,,,,,,,,,,,,,,,,,,,,610316373c7163da28a978f8,61036bd1a0b9920bb45a69a9,2021-07-29_23h03.15.517,Simcolourproject_2stim_asymm_v5,2020.2.10,Win32,60,61025ae37ef11b136ea224fe,,,,,,,,,3497,28.00001991,71.49999306,1,0,0,response1disk,,7,11.33339343,-0.50000909,1,0,0,rectangle,11.33339343,-0.50000909,1,0,0,11.33339343,-0.50000909,1,0,0,1,52,212,128,1,,,,,,,,
,,,,,,,,,,,,,FF,,,,,,,,1.4163,,,,,,,,,,,,,,,,,,,,,,610316373c7163da28a978f8,61036bd1a0b9920bb45a69a9,2021-07-29_23h03.15.517,Simcolourproject_2stim_asymm_v5,2020.2.10,Win32,60,61025ae37ef11b136ea224fe,,,,,,,,,3621,18.6666863,51.49999246,1,0,0,response1disk,,7,5.333393256,7.499991149,1,0,0,rectangle,5.333393256,7.499991149,1,0,0,5.333393256,7.499991149,1,0,0,1,53,213,30,1,,,,,,,,
,,,,,,,,,,,,,FF,,,,,,,,0.6166,,,,,,,,,,,,,,,,,,,,,,610316373c7163da28a978f8,61036bd1a0b9920bb45a69a9,2021-07-29_23h03.15.517,Simcolourproject_2stim_asymm_v5,2020.2.10,Win32,60,61025ae37ef11b136ea224fe,,,,,,,,,3230,56.66668743,66.83330591,1,0,0,response1disk,,7,10.00001937,5.499991089,1,0,0,rectangle,10.00001937,5.499991089,1,0,0,10.00001937,5.499991089,1,0,0,1,54,214,42,1,,,,,,,,
,,,,,,,,,,,,,FF,,,,,,,,0.9333,,,,,,,,,,,,,,,,,,,,,,610316373c7163da28a978f8,61036bd1a0b9920bb45a69a9,2021-07-29_23h03.15.517,Simcolourproject_2stim_asymm_v5,2020.2.10,Win32,60,61025ae37ef11b136ea224fe,,,,,,,,,839,20.00001967,52.16665915,1,0,0,response1disk,,7,4.666685879,0.166657597,1,0,0,rectangle,4.666685879,0.166657597,1,0,0,4.666685879,0.166657597,1,0,0,1,55,215,26,1,,,,,,,,
,,,,,,,,,,,,,FF,,,,,,,,0.6837,,,,,,,,,,,,,,,,,,,,,,610316373c7163da28a978f8,61036bd1a0b9920bb45a69a9,2021-07-29_23h03.15.517,Simcolourproject_2stim_asymm_v5,2020.2.10,Win32,60,61025ae37ef11b136ea224fe,,,,,,,,,3569,57.33335412,31.49999186,1,0,0,response1disk,,6,15.33339355,-2.500009149,1,0,0,rectangle,15.33339355,-2.500009149,1,0,0,15.33339355,-2.500009149,1,0,0,1,56,216,82,1,,,,,,,,
,,,,,,,,,,,,,FF,,,,,,,,1.4166,,,,,,,,,,,,,,,,,,,,,,610316373c7163da28a978f8,61036bd1a0b9920bb45a69a9,2021-07-29_23h03.15.517,Simcolourproject_2stim_asymm_v5,2020.2.10,Win32,60,61025ae37ef11b136ea224fe,,,,,,,,,95,48.0000205,28.83330477,1,0,0,response1disk,,6,10.00001937,-5.833342582,1,0,0,rectangle,10.00001937,-5.833342582,1,0,0,10.00001937,-5.833342582,1,0,0,1,57,217,126,1,,,,,,,,
,,,,,,,,,,,,,FF,,,,,,,,1.3998,,,,,,,,,,,,,,,,,,,,,,610316373c7163da28a978f8,61036bd1a0b9920bb45a69a9,2021-07-29_23h03.15.517,Simcolourproject_2stim_asymm_v5,2020.2.10,Win32,60,61025ae37ef11b136ea224fe,,,,,,,,,4201,-25.9999817,-55.16667739,1,0,0,response5disk,,3,1.333393137,0.166657597,1,0,0,rectangle,1.333393137,0.166657597,1,0,0,1.333393137,0.166657597,1,0,0,1,58,218,17,1,,,,,,,,
,,,,,,,,,,,,,FF,,,,,,,,1.5504,,,,,,,,,,,,,,,,,,,,,,610316373c7163da28a978f8,61036bd1a0b9920bb45a69a9,2021-07-29_23h03.15.517,Simcolourproject_2stim_asymm_v5,2020.2.10,Win32,60,61025ae37ef11b136ea224fe,,,,,,,,,3627,24.00001979,-63.83334431,1,0,0,response3disk,,4,-4.666607042,-0.50000909,1,0,0,rectangle,38.66668689,84.1666601,1,0,0,-15.33331472,2.166657656,1,0,0,1,59,219,22,1,,response1disk_3,TRUE,7,7,"[262,224,242,189,247,311,261,220,204,61,297,259,182,41,46,171,73,231,22,222]",2.7656,rectangle
,,,,,,,,,,,,,FF,,,,,,,,0.8835,,,,,,,,,,,,,,,,,,,,,,610316373c7163da28a978f8,61036bd1a0b9920bb45a69a9,2021-07-29_23h03.15.517,Simcolourproject_2stim_asymm_v5,2020.2.10,Win32,60,61025ae37ef11b136ea224fe,,,,,,,,,374,59.33335418,44.16665891,1,0,0,response1disk,,6,7.333393315,4.166657716,1,0,0,rectangle,7.333393315,4.166657716,1,0,0,7.333393315,4.166657716,1,0,0,1,60,220,105,1,,,,,,,,
,,,,,,,,,,,,,FF,,,,,,,,1.5328,,,,,,,,,,,,,,,,,,,,,,610316373c7163da28a978f8,61036bd1a0b9920bb45a69a9,2021-07-29_23h03.15.517,Simcolourproject_2stim_asymm_v5,2020.2.10,Win32,60,61025ae37ef11b136ea224fe,,,,,,,,,2091,49.33335388,-15.83334288,1,0,0,response3disk,,5,14.00001949,-1.166696121,1,0,0,rectangle,-63.99998283,-30.50000998,1,0,0,20.00001967,3.49999103,1,0,0,1,61,221,40,1,,response5disk_3,TRUE,2,2,"[262,224,242,189,247,311,261,220,204,61,297,259,182,41,46,171,73,231,22,222]",2.1032,rectangle
,,,,,,,,,,,,,FF,,,,,,,,1.2829,,,,,,,,,,,,,,,,,,,,,,610316373c7163da28a978f8,61036bd1a0b9920bb45a69a9,2021-07-29_23h03.15.517,Simcolourproject_2stim_asymm_v5,2020.2.10,Win32,60,61025ae37ef11b136ea224fe,,,,,,,,,1872,38.66668689,66.83330591,1,0,0,response1disk,,7,-0.666606923,6.833304117,1,0,0,rectangle,-0.666606923,6.833304117,1,0,0,-0.666606923,6.833304117,1,0,0,1,62,222,118,1,,,,,,,,
,,,,,,,,,,,,,FF,,,,,,,,1.9996,,,,,,,,,,,,,,,,,,,,,,610316373c7163da28a978f8,61036bd1a0b9920bb45a69a9,2021-07-29_23h03.15.517,Simcolourproject_2stim_asymm_v5,2020.2.10,Win32,60,61025ae37ef11b136ea224fe,,,,,,,,,4155,48.66668719,30.16665849,1,0,0,response1disk,,6,-12.66660728,-3.166696181,1,0,0,rectangle,-89.99998361,32.16665855,1,0,0,-0.666606923,-1.833342463,1,0,0,1,63,223,58,1,,response7disk_3,TRUE,1,1,"[262,224,242,189,247,311,261,220,204,61,297,259,182,41,46,171,73,231,22,222]",1.4379,rectangle
,,,,,,,,,,,,,FF,,,,,,,,1.0661,,,,,,,,,,,,,,,,,,,,,,610316373c7163da28a978f8,61036bd1a0b9920bb45a69a9,2021-07-29_23h03.15.517,Simcolourproject_2stim_asymm_v5,2020.2.10,Win32,60,61025ae37ef11b136ea224fe,,,,,,,,,3180,62.00002092,42.16665885,1,0,0,response1disk,,6,-1.3333143,6.166657776,1,0,0,rectangle,-1.3333143,6.166657776,1,0,0,-1.3333143,6.166657776,1,0,0,1,64,224,108,1,,,,,,,,
,,,,,,,,,,,,,FF,,,,,,,,0.8833,,,,,,,,,,,,,,,,,,,,,,610316373c7163da28a978f8,61036bd1a0b9920bb45a69a9,2021-07-29_23h03.15.517,Simcolourproject_2stim_asymm_v5,2020.2.10,Win32,60,61025ae37ef11b136ea224fe,,,,,,,,,691,27.33339391,57.49999264,1,0,0,response1disk,,7,-17.99998146,4.833304058,1,0,0,rectangle,-17.99998146,4.833304058,1,0,0,-17.99998146,4.833304058,1,0,0,1,65,225,51,1,,,,,,,,
,,,,,,,,,,,,,FF,,,,,,,,0.883,,,,,,,,,,,,,,,,,,,,,,610316373c7163da28a978f8,61036bd1a0b9920bb45a69a9,2021-07-29_23h03.15.517,Simcolourproject_2stim_asymm_v5,2020.2.10,Win32,60,61025ae37ef11b136ea224fe,,,,,,,,,107,38.00002021,75.49999318,1,0,0,response1disk,,7,1.9735E-05,5.499991089,1,0,0,rectangle,1.9735E-05,5.499991089,1,0,0,1.9735E-05,5.499991089,1,0,0,1,66,226,151,1,,,,,,,,
,,,,,,,,,,,,,FF,,,,,,,,0.8832,,,,,,,,,,,,,,,,,,,,,,610316373c7163da28a978f8,61036bd1a0b9920bb45a69a9,2021-07-29_23h03.15.517,Simcolourproject_2stim_asymm_v5,2020.2.10,Win32,60,61025ae37ef11b136ea224fe,,,,,,,,,1472,70.00002116,34.16665861,1,0,0,response1disk,,6,-3.333314359,5.499991089,1,0,0,rectangle,-3.333314359,5.499991089,1,0,0,-3.333314359,5.499991089,1,0,0,1,67,227,6,1,,,,,,,,
,,,,,,,,,,,,,FF,,,,,,,,0.8667,,,,,,,,,,,,,,,,,,,,,,610316373c7163da28a978f8,61036bd1a0b9920bb45a69a9,2021-07-29_23h03.15.517,Simcolourproject_2stim_asymm_v5,2020.2.10,Win32,60,61025ae37ef11b136ea224fe,,,,,,,,,1151,71.33335453,47.49999234,1,0,0,response1disk,,6,5.333393256,1.49999097,1,0,0,rectangle,5.333393256,1.49999097,1,0,0,5.333393256,1.49999097,1,0,0,1,68,228,14,1,,,,,,,,
,,,,,,,,,,,,,FF,,,,,,,,1.6004,,,,,,,,,,,,,,,,,,,,,,610316373c7163da28a978f8,61036bd1a0b9920bb45a69a9,2021-07-29_23h03.15.517,Simcolourproject_2stim_asymm_v5,2020.2.10,Win32,60,61025ae37ef11b136ea224fe,,,,,,,,,1236,64.00002098,27.49999174,1,0,0,response1disk,,6,10.66668606,3.49999103,1,0,0,rectangle,10.66668606,3.49999103,1,0,0,10.66668606,3.49999103,1,0,0,1,69,229,36,1,,,,,,,,
,,,,,,,,,,,,,FF,,,,,,,,0.8832,,,,,,,,,,,,,,,,,,,,,,610316373c7163da28a978f8,61036bd1a0b9920bb45a69a9,2021-07-29_23h03.15.517,Simcolourproject_2stim_asymm_v5,2020.2.10,Win32,60,61025ae37ef11b136ea224fe,,,,,,,,,3225,31.33339403,56.16665927,1,0,0,response1disk,,7,-0.666606923,1.49999097,1,0,0,rectangle,-63.33331615,25.49999169,1,0,0,-5.333314419,-0.50000909,1,0,0,1,70,230,147,1,,response7disk_3,TRUE,1,1,"[262,224,242,189,247,311,261,220,204,61,297,259,182,41,46,171,73,231,22,222]",1.9819,rectangle
,,,,,,,,,,,,,FF,,,,,,,,1.2665,,,,,,,,,,,,,,,,,,,,,,610316373c7163da28a978f8,61036bd1a0b9920bb45a69a9,2021-07-29_23h03.15.517,Simcolourproject_2stim_asymm_v5,2020.2.10,Win32,60,61025ae37ef11b136ea224fe,,,,,,,,,2433,64.66668767,-32.50001004,1,0,0,response3disk,,5,0.66668576,8.166657835,1,0,0,rectangle,0.66668576,8.166657835,1,0,0,0.66668576,8.166657835,1,0,0,1,71,231,19,1,,,,,,,,
,,,,,,,,,,,,,FF,,,,,,,,0.8832,,,,,,,,,,,,,,,,,,,,,,610316373c7163da28a978f8,61036bd1a0b9920bb45a69a9,2021-07-29_23h03.15.517,Simcolourproject_2stim_asymm_v5,2020.2.10,Win32,60,61025ae37ef11b136ea224fe,,,,,,,,,3825,45.33335376,39.4999921,1,0,0,response1disk,,6,-6.666607102,5.499991089,1,0,0,rectangle,-6.666607102,5.499991089,1,0,0,-6.666607102,5.499991089,1,0,0,1,72,232,154,1,,,,,,,,
,,,,,,,,,,,,,FF,,,,,,,,0.8325,,,,,,,,,,,,,,,,,,,,,,610316373c7163da28a978f8,61036bd1a0b9920bb45a69a9,2021-07-29_23h03.15.517,Simcolourproject_2stim_asymm_v5,2020.2.10,Win32,60,61025ae37ef11b136ea224fe,,,,,,,,,1144,50.66668725,44.83330525,1,0,0,response1disk,,6,10.00001937,1.49999097,1,0,0,rectangle,10.00001937,1.49999097,1,0,0,10.00001937,1.49999097,1,0,0,1,73,233,72,1,,,,,,,,
,,,,,,,,,,,,,FF,,,,,,,,0.7671,,,,,,,,,,,,,,,,,,,,,,610316373c7163da28a978f8,61036bd1a0b9920bb45a69a9,2021-07-29_23h03.15.517,Simcolourproject_2stim_asymm_v5,2020.2.10,Win32,60,61025ae37ef11b136ea224fe,,,,,,,,,1489,26.66668653,65.49999288,1,0,0,response1disk,,7,8.000019312,3.49999103,1,0,0,rectangle,8.000019312,3.49999103,1,0,0,8.000019312,3.49999103,1,0,0,1,74,234,78,1,,,,,,,,
,,,,,,,,,,,,,FF,,,,,,,,3.2664,,,,,,,,,,,,,,,,,,,,,,610316373c7163da28a978f8,61036bd1a0b9920bb45a69a9,2021-07-29_23h03.15.517,Simcolourproject_2stim_asymm_v5,2020.2.10,Win32,60,61025ae37ef11b136ea224fe,,,,,,,,,3850,16.00001955,-68.50001112,1,0,0,response3disk,,4,-5.333314419,10.83330424,1,0,0,rectangle,-5.333314419,10.83330424,1,0,0,-5.333314419,10.83330424,1,0,0,1,75,235,97,1,,,,,,,,
,,,,,,,,,,,,,FF,,,,,,,,0.9329,,,,,,,,,,,,,,,,,,,,,,610316373c7163da28a978f8,61036bd1a0b9920bb45a69a9,2021-07-29_23h03.15.517,Simcolourproject_2stim_asymm_v5,2020.2.10,Win32,60,61025ae37ef11b136ea224fe,,,,,,,,,673,69.33335447,-37.83334354,1,0,0,response3disk,,5,0.66668576,-3.166696181,1,0,0,rectangle,0.66668576,-3.166696181,1,0,0,0.66668576,-3.166696181,1,0,0,1,76,236,12,1,,,,,,,,
,,,,,,,,,,,,,FF,,,,,,,,1.1501,,,,,,,,,,,,,,,,,,,,,,610316373c7163da28a978f8,61036bd1a0b9920bb45a69a9,2021-07-29_23h03.15.517,Simcolourproject_2stim_asymm_v5,2020.2.10,Win32,60,61025ae37ef11b136ea224fe,,,,,,,,,624,64.66668767,-27.83334324,1,0,0,response3disk,,5,10.00001937,3.49999103,1,0,0,rectangle,10.00001937,3.49999103,1,0,0,10.00001937,3.49999103,1,0,0,1,77,237,83,1,,,,,,,,
,,,,,,,,,,,,,FF,,,,,,,,1.0837,,,,,,,,,,,,,,,,,,,,,,610316373c7163da28a978f8,61036bd1a0b9920bb45a69a9,2021-07-29_23h03.15.517,Simcolourproject_2stim_asymm_v5,2020.2.10,Win32,60,61025ae37ef11b136ea224fe,,,,,,,,,75,56.00002074,32.16665855,1,0,0,response1disk,,6,-2.666606983,-3.166696181,1,0,0,rectangle,-2.666606983,-3.166696181,1,0,0,-2.666606983,-3.166696181,1,0,0,1,78,238,95,1,,,,,,,,
,,,,,,,,,,,,,FF,,,,,,,,1.0835,,,,,,,,,,,,,,,,,,,,,,610316373c7163da28a978f8,61036bd1a0b9920bb45a69a9,2021-07-29_23h03.15.517,Simcolourproject_2stim_asymm_v5,2020.2.10,Win32,60,61025ae37ef11b136ea224fe,,,,,,,,,4110,38.00002021,80.16665998,1,0,0,response1disk,,7,0.66668576,6.166657776,1,0,0,rectangle,0.66668576,6.166657776,1,0,0,0.66668576,6.166657776,1,0,0,1,79,239,92,1,,,,,,,,
,,,,,,,,,,,,,FF,,,,,,,,0.816,,,,,,,,,,,,,,,,,,,,,,610316373c7163da28a978f8,61036bd1a0b9920bb45a69a9,2021-07-29_23h03.15.517,Simcolourproject_2stim_asymm_v5,2020.2.10,Win32,60,61025ae37ef11b136ea224fe,,,,,,,,,4210,40.66668695,64.1666595,1,0,0,response1disk,,7,3.333393196,-9.833342701,1,0,0,rectangle,3.333393196,-9.833342701,1,0,0,3.333393196,-9.833342701,1,0,0,1,80,240,122,1,,,,,,,,
,,,,,,,,,,,,,FF,,,,,,,,0.9032,,,,,,,,,,,,,,,,,,,,,,610316373c7163da28a978f8,61036bd1a0b9920bb45a69a9,2021-07-29_23h03.15.517,Simcolourproject_2stim_asymm_v5,2020.2.10,Win32,60,61025ae37ef11b136ea224fe,,,,,,,,,2816,67.33335441,32.83330489,1,0,0,response1disk,,6,16.00001955,7.499991149,1,0,0,rectangle,-61.99998277,31.49999186,1,0,0,0.66668576,-4.500009209,1,0,0,1,81,241,66,1,,response7disk_3,TRUE,1,1,"[262,224,242,189,247,311,261,220,204,61,297,259,182,41,46,171,73,231,22,222]",1.6327,rectangle
,,,,,,,,,,,,,FF,,,,,,,,0.8669,,,,,,,,,,,,,,,,,,,,,,610316373c7163da28a978f8,61036bd1a0b9920bb45a69a9,2021-07-29_23h03.15.517,Simcolourproject_2stim_asymm_v5,2020.2.10,Win32,60,61025ae37ef11b136ea224fe,,,,,,,,,3064,36.66668683,72.83330608,1,0,0,response1disk,,7,2.000019133,8.833304177,1,0,0,rectangle,2.000019133,8.833304177,1,0,0,2.000019133,8.833304177,1,0,0,1,82,242,10,1,,,,,,,,
,,,,,,,,,,,,,FF,,,,,,,,0.7165,,,,,,,,,,,,,,,,,,,,,,610316373c7163da28a978f8,61036bd1a0b9920bb45a69a9,2021-07-29_23h03.15.517,Simcolourproject_2stim_asymm_v5,2020.2.10,Win32,60,61025ae37ef11b136ea224fe,,,,,,,,,3822,20.00001967,60.16665938,1,0,0,response1disk,,7,-7.333314478,0.833303938,1,0,0,rectangle,-7.333314478,0.833303938,1,0,0,-7.333314478,0.833303938,1,0,0,1,83,243,33,1,,,,,,,,
,,,,,,,,,,,,,FF,,,,,,,,0.6997,,,,,,,,,,,,,,,,,,,,,,610316373c7163da28a978f8,61036bd1a0b9920bb45a69a9,2021-07-29_23h03.15.517,Simcolourproject_2stim_asymm_v5,2020.2.10,Win32,60,61025ae37ef11b136ea224fe,,,,,,,,,3957,44.00002038,63.49999282,1,0,0,response1disk,,7,2.000019133,-8.500009328,1,0,0,rectangle,2.000019133,-8.500009328,1,0,0,2.000019133,-8.500009328,1,0,0,1,84,244,104,1,,,,,,,,
