key_resp.keys,key_resp.rt,key_resp_14.keys,key_resp_14.rt,key_resp_15.keys,key_resp_15.rt,key_resp_17.keys,key_resp_17.rt,key_resp_9.keys,key_resp_9.rt,key_resp_10.keys,key_resp_10.rt,practice_comparison,Ecc,mouse_5.x,mouse_5.y,mouse_5.leftButton,mouse_5.midButton,mouse_5.rightButton,mouse_5.clicked_name,pracsimilarity,response_time,mouse_10.x,mouse_10.y,mouse_10.leftButton,mouse_10.midButton,mouse_10.rightButton,mouse_10.clicked_name,mouse_7.x,mouse_7.y,mouse_7.leftButton,mouse_7.midButton,mouse_7.rightButton,mouse_6.x,mouse_6.y,mouse_6.leftButton,mouse_6.midButton,mouse_6.rightButton,duringprac.thisRepN,duringprac.thisTrialN,duringprac.thisN,duringprac.thisIndex,duringprac.ran,participant,session,date,expName,psychopyVersion,OS,frameRate,study_id,mouse_7.clicked_name,catchpracsimilarity,catch_response_time,catchnumberprac,catchtrialorderprac,mouse_6.clicked_name,key_resp_22.keys,key_resp_22.rt,realcomparison,mouse.x,mouse.y,mouse.leftButton,mouse.midButton,mouse.rightButton,mouse.clicked_name,Colour2,similarity,mouse_2.x,mouse_2.y,mouse_2.leftButton,mouse_2.midButton,mouse_2.rightButton,mouse_2.clicked_name,mouse_3.x,mouse_3.y,mouse_3.leftButton,mouse_3.midButton,mouse_3.rightButton,mouse_11.x,mouse_11.y,mouse_11.leftButton,mouse_11.midButton,mouse_11.rightButton,trials_2.thisRepN,trials_2.thisTrialN,trials_2.thisN,trials_2.thisIndex,trials_2.ran,Colour1,mouse_3.clicked_name,catchornah,catchsimilarity,catchnumber,catchtrialorder,catchRT,mouse_11.clicked_name
space,21.2744,space,9.6192,space,11.6038,space,12.6907,space,1.4313,space,4.3739,154,PF,90.6072998,-55.40847778,1,0,0,response3disk_5,5,8.3438,2.381225586,-0.857910156,1,0,0,rectangle_8,2.381225586,-0.857910156,1,0,0,2.381225586,-0.857910156,1,0,0,0,0,0,1,1,61031c95c9b3c0c70b9f60a7,61036dffeff4554e65c63561,2021-07-29_20h19.05.827,Simcolourproject_2stim_asymm_v5,2020.2.10,Linux x86_64,60,61025ae37ef11b136ea224fe,,,,,,,,,,,,,,,,,,,,,,,,,,,,,,,,,,,,,,,,,,,,,,
,,,,,,,,,,,,144,PF,40.36682129,-88.85073853,1,0,0,response3disk_5,4,4.1132,4.856140137,0.998626709,1,0,0,rectangle_8,-36.86053467,-83.68997192,1,0,0,-7.411010742,-1.177764893,1,0,0,0,1,1,6,1,61031c95c9b3c0c70b9f60a7,61036dffeff4554e65c63561,2021-07-29_20h19.05.827,Simcolourproject_2stim_asymm_v5,2020.2.10,Linux x86_64,60,61025ae37ef11b136ea224fe,response5disk_7,3,4.4476,3,"[2,5]",rectangle_4,,,,,,,,,,,,,,,,,,,,,,,,,,,,,,,,,,,,,,,,
,,,,,,,,,,,,153,FF,85.83105469,62.83178711,1,0,0,response1disk_5,6,3.3971,-3.61730957,-0.381134033,1,0,0,rectangle_8,-3.61730957,-0.381134033,1,0,0,-3.61730957,-0.381134033,1,0,0,0,2,2,0,1,61031c95c9b3c0c70b9f60a7,61036dffeff4554e65c63561,2021-07-29_20h19.05.827,Simcolourproject_2stim_asymm_v5,2020.2.10,Linux x86_64,60,61025ae37ef11b136ea224fe,,,,,,,,,,,,,,,,,,,,,,,,,,,,,,,,,,,,,,,,,,,,,,
,,,,,,,,,,,,146,FF,92.21990967,22.86813354,1,0,0,response1disk_5,6,2.0812,2.85748291,-2.1434021,1,0,0,rectangle_8,2.85748291,-2.1434021,1,0,0,2.85748291,-2.1434021,1,0,0,0,3,3,3,1,61031c95c9b3c0c70b9f60a7,61036dffeff4554e65c63561,2021-07-29_20h19.05.827,Simcolourproject_2stim_asymm_v5,2020.2.10,Linux x86_64,60,61025ae37ef11b136ea224fe,,,,,,,,,,,,,,,,,,,,,,,,,,,,,,,,,,,,,,,,,,,,,,
,,,,,,,,,,,,80,PF,39.99389648,-60.96298218,1,0,0,response3disk_5,4,1.8155,10.11151123,-5.577941895,1,0,0,rectangle_8,-52.85736084,-93.17263794,1,0,0,-5.190917969,0.765533447,1,0,0,0,4,4,4,1,61031c95c9b3c0c70b9f60a7,61036dffeff4554e65c63561,2021-07-29_20h19.05.827,Simcolourproject_2stim_asymm_v5,2020.2.10,Linux x86_64,60,61025ae37ef11b136ea224fe,response5disk_7,3,2.2647,3,"[2,5]",rectangle_4,,,,,,,,,,,,,,,,,,,,,,,,,,,,,,,,,,,,,,,,
,,,,,,,,,,,,56,PF,95.28082275,-35.62280273,1,0,0,response3disk_5,5,3.4637,-2.010070801,5.759155273,1,0,0,rectangle_8,-2.010070801,5.759155273,1,0,0,-2.010070801,5.759155273,1,0,0,0,5,5,2,1,61031c95c9b3c0c70b9f60a7,61036dffeff4554e65c63561,2021-07-29_20h19.05.827,Simcolourproject_2stim_asymm_v5,2020.2.10,Linux x86_64,60,61025ae37ef11b136ea224fe,,,,,,,,,,,,,,,,,,,,,,,,,,,,,,,,,,,,,,,,,,,,,,
,,,,,,,,,,,,50,FF,40.08032227,-59.29171753,1,0,0,response3disk_5,4,1.5316,1.127197266,-2.248596191,1,0,0,rectangle_8,1.127197266,-2.248596191,1,0,0,1.127197266,-2.248596191,1,0,0,0,6,6,5,1,61031c95c9b3c0c70b9f60a7,61036dffeff4554e65c63561,2021-07-29_20h19.05.827,Simcolourproject_2stim_asymm_v5,2020.2.10,Linux x86_64,60,61025ae37ef11b136ea224fe,,,,,,,,,,,,,,,,,,,,,,,,,,,,,,,,,,,,,,,,,,,,,,
,,,,,,,,,,,,,FF,,,,,,,,4.5461,,,,,,,,,,,,,,,,,,,,,,61031c95c9b3c0c70b9f60a7,61036dffeff4554e65c63561,2021-07-29_20h19.05.827,Simcolourproject_2stim_asymm_v5,2020.2.10,Linux x86_64,60,61025ae37ef11b136ea224fe,,,,,,,space,3.0008,1429,-34.20001221,-79.02029419,1,0,0,response5disk,,3,1.475036621,9.565124512,1,0,0,rectangle,1.475036621,9.565124512,1,0,0,1.475036621,9.565124512,1,0,0,0,0,0,65,1,,,,,,,,
,,,,,,,,,,,,,FF,,,,,,,,2.8979,,,,,,,,,,,,,,,,,,,,,,61031c95c9b3c0c70b9f60a7,61036dffeff4554e65c63561,2021-07-29_20h19.05.827,Simcolourproject_2stim_asymm_v5,2020.2.10,Linux x86_64,60,61025ae37ef11b136ea224fe,,,,,,,,,2222,-44.52191162,-67.58618164,1,0,0,response5disk,,3,0.169677734,4.127044678,1,0,0,rectangle,0.169677734,4.127044678,1,0,0,0.169677734,4.127044678,1,0,0,0,1,1,130,1,,,,,,,,
,,,,,,,,,,,,,FF,,,,,,,,1.5158,,,,,,,,,,,,,,,,,,,,,,61031c95c9b3c0c70b9f60a7,61036dffeff4554e65c63561,2021-07-29_20h19.05.827,Simcolourproject_2stim_asymm_v5,2020.2.10,Linux x86_64,60,61025ae37ef11b136ea224fe,,,,,,,,,3312,63.13598633,-73.54129028,1,0,0,response3disk,,4,-0.54309082,2.43258667,1,0,0,rectangle,-0.54309082,2.43258667,1,0,0,-0.54309082,2.43258667,1,0,0,0,2,2,98,1,,,,,,,,
,,,,,,,,,,,,,FF,,,,,,,,1.5486,,,,,,,,,,,,,,,,,,,,,,61031c95c9b3c0c70b9f60a7,61036dffeff4554e65c63561,2021-07-29_20h19.05.827,Simcolourproject_2stim_asymm_v5,2020.2.10,Linux x86_64,60,61025ae37ef11b136ea224fe,,,,,,,,,3513,-78.25286865,36.94351196,1,0,0,response7disk,,1,-4.738342285,1.816040039,1,0,0,rectangle,-4.738342285,1.816040039,1,0,0,-4.738342285,1.816040039,1,0,0,0,3,3,47,1,,,,,,,,
,,,,,,,,,,,,,FF,,,,,,,,2.014,,,,,,,,,,,,,,,,,,,,,,61031c95c9b3c0c70b9f60a7,61036dffeff4554e65c63561,2021-07-29_20h19.05.827,Simcolourproject_2stim_asymm_v5,2020.2.10,Linux x86_64,60,61025ae37ef11b136ea224fe,,,,,,,,,3310,41.70678711,-80.89111328,1,0,0,response3disk,,4,4.234375,-1.001739502,1,0,0,rectangle,4.234375,-1.001739502,1,0,0,4.234375,-1.001739502,1,0,0,0,4,4,8,1,,,,,,,,
,,,,,,,,,,,,,FF,,,,,,,,2.0141,,,,,,,,,,,,,,,,,,,,,,61031c95c9b3c0c70b9f60a7,61036dffeff4554e65c63561,2021-07-29_20h19.05.827,Simcolourproject_2stim_asymm_v5,2020.2.10,Linux x86_64,60,61025ae37ef11b136ea224fe,,,,,,,,,2536,91.99291992,-37.09954834,1,0,0,response3disk,,5,24.69360352,4.319061279,1,0,0,rectangle,24.69360352,4.319061279,1,0,0,24.69360352,4.319061279,1,0,0,0,5,5,43,1,,,,,,,,
,,,,,,,,,,,,,FF,,,,,,,,1.2657,,,,,,,,,,,,,,,,,,,,,,61031c95c9b3c0c70b9f60a7,61036dffeff4554e65c63561,2021-07-29_20h19.05.827,Simcolourproject_2stim_asymm_v5,2020.2.10,Linux x86_64,60,61025ae37ef11b136ea224fe,,,,,,,,,1149,-84.98052979,-35.23712158,1,0,0,response5disk,,2,20.52160645,-2.518829346,1,0,0,rectangle,20.52160645,-2.518829346,1,0,0,20.52160645,-2.518829346,1,0,0,0,6,6,59,1,,,,,,,,
,,,,,,,,,,,,,FF,,,,,,,,1.5152,,,,,,,,,,,,,,,,,,,,,,61031c95c9b3c0c70b9f60a7,61036dffeff4554e65c63561,2021-07-29_20h19.05.827,Simcolourproject_2stim_asymm_v5,2020.2.10,Linux x86_64,60,61025ae37ef11b136ea224fe,,,,,,,,,1038,-54.98577881,-21.37896729,1,0,0,response5disk,,2,-5.474243164,8.934631348,1,0,0,rectangle,-5.474243164,8.934631348,1,0,0,-5.474243164,8.934631348,1,0,0,0,7,7,42,1,,,,,,,,
,,,,,,,,,,,,,FF,,,,,,,,1.6317,,,,,,,,,,,,,,,,,,,,,,61031c95c9b3c0c70b9f60a7,61036dffeff4554e65c63561,2021-07-29_20h19.05.827,Simcolourproject_2stim_asymm_v5,2020.2.10,Linux x86_64,60,61025ae37ef11b136ea224fe,,,,,,,,,3855,-45.48291016,-86.61700439,1,0,0,response5disk,,3,-11.41668701,3.622802734,1,0,0,rectangle,-11.41668701,3.622802734,1,0,0,-11.41668701,3.622802734,1,0,0,0,8,8,91,1,,,,,,,,
,,,,,,,,,,,,,FF,,,,,,,,1.5148,,,,,,,,,,,,,,,,,,,,,,61031c95c9b3c0c70b9f60a7,61036dffeff4554e65c63561,2021-07-29_20h19.05.827,Simcolourproject_2stim_asymm_v5,2020.2.10,Linux x86_64,60,61025ae37ef11b136ea224fe,,,,,,,,,1714,25.98638916,88.1399231,1,0,0,response1disk,,7,7.536560059,0.573120117,1,0,0,rectangle,7.536560059,0.573120117,1,0,0,7.536560059,0.573120117,1,0,0,0,9,9,125,1,,,,,,,,
,,,,,,,,,,,,,FF,,,,,,,,1.4817,,,,,,,,,,,,,,,,,,,,,,61031c95c9b3c0c70b9f60a7,61036dffeff4554e65c63561,2021-07-29_20h19.05.827,Simcolourproject_2stim_asymm_v5,2020.2.10,Linux x86_64,60,61025ae37ef11b136ea224fe,,,,,,,,,729,-43.23675537,-89.89428711,1,0,0,response5disk,,3,-5.905700684,7.097045898,1,0,0,rectangle,-5.905700684,7.097045898,1,0,0,-5.905700684,7.097045898,1,0,0,0,10,10,4,1,,,,,,,,
,,,,,,,,,,,,,FF,,,,,,,,2.0977,,,,,,,,,,,,,,,,,,,,,,61031c95c9b3c0c70b9f60a7,61036dffeff4554e65c63561,2021-07-29_20h19.05.827,Simcolourproject_2stim_asymm_v5,2020.2.10,Linux x86_64,60,61025ae37ef11b136ea224fe,,,,,,,,,3105,-90.93829346,-37.66156006,1,0,0,response5disk,,2,-12.18554688,2.226165771,1,0,0,rectangle,-12.18554688,2.226165771,1,0,0,-12.18554688,2.226165771,1,0,0,0,11,11,39,1,,,,,,,,
,,,,,,,,,,,,,FF,,,,,,,,2.3142,,,,,,,,,,,,,,,,,,,,,,61031c95c9b3c0c70b9f60a7,61036dffeff4554e65c63561,2021-07-29_20h19.05.827,Simcolourproject_2stim_asymm_v5,2020.2.10,Linux x86_64,60,61025ae37ef11b136ea224fe,,,,,,,,,3693,86.80877686,-36.20901489,1,0,0,response3disk,,5,2.929870605,10.26879883,1,0,0,rectangle,2.929870605,10.26879883,1,0,0,2.929870605,10.26879883,1,0,0,0,12,12,75,1,,,,,,,,
,,,,,,,,,,,,,FF,,,,,,,,1.5312,,,,,,,,,,,,,,,,,,,,,,61031c95c9b3c0c70b9f60a7,61036dffeff4554e65c63561,2021-07-29_20h19.05.827,Simcolourproject_2stim_asymm_v5,2020.2.10,Linux x86_64,60,61025ae37ef11b136ea224fe,,,,,,,,,1000,82.83331299,30.68539429,1,0,0,response1disk,,6,-11.13800049,-5.107391357,1,0,0,rectangle,-11.13800049,-5.107391357,1,0,0,-11.13800049,-5.107391357,1,0,0,0,13,13,101,1,,,,,,,,
,,,,,,,,,,,,,FF,,,,,,,,1.3149,,,,,,,,,,,,,,,,,,,,,,61031c95c9b3c0c70b9f60a7,61036dffeff4554e65c63561,2021-07-29_20h19.05.827,Simcolourproject_2stim_asymm_v5,2020.2.10,Linux x86_64,60,61025ae37ef11b136ea224fe,,,,,,,,,1835,-103.7009277,-43.70306396,1,0,0,response5disk,,2,-19.61309814,-5.09664917,1,0,0,rectangle,-19.61309814,-5.09664917,1,0,0,-19.61309814,-5.09664917,1,0,0,0,14,14,2,1,,,,,,,,
,,,,,,,,,,,,,FF,,,,,,,,0.9658,,,,,,,,,,,,,,,,,,,,,,61031c95c9b3c0c70b9f60a7,61036dffeff4554e65c63561,2021-07-29_20h19.05.827,Simcolourproject_2stim_asymm_v5,2020.2.10,Linux x86_64,60,61025ae37ef11b136ea224fe,,,,,,,,,436,-86.34521484,55.42803955,1,0,0,response7disk,,1,9.025634766,3.257720947,1,0,0,rectangle,9.025634766,3.257720947,1,0,0,9.025634766,3.257720947,1,0,0,0,15,15,157,1,,,,,,,,
,,,,,,,,,,,,,FF,,,,,,,,2.5978,,,,,,,,,,,,,,,,,,,,,,61031c95c9b3c0c70b9f60a7,61036dffeff4554e65c63561,2021-07-29_20h19.05.827,Simcolourproject_2stim_asymm_v5,2020.2.10,Linux x86_64,60,61025ae37ef11b136ea224fe,,,,,,,,,3018,82.26226807,44.11697388,1,0,0,response1disk,,6,-5.096740723,-5.766479492,1,0,0,rectangle,-5.096740723,-5.766479492,1,0,0,-5.096740723,-5.766479492,1,0,0,0,16,16,0,1,,,,,,,,
,,,,,,,,,,,,,FF,,,,,,,,1.6484,,,,,,,,,,,,,,,,,,,,,,61031c95c9b3c0c70b9f60a7,61036dffeff4554e65c63561,2021-07-29_20h19.05.827,Simcolourproject_2stim_asymm_v5,2020.2.10,Linux x86_64,60,61025ae37ef11b136ea224fe,,,,,,,,,4257,93.88696289,49.08435059,1,0,0,response1disk,,6,-2.52911377,2.417327881,1,0,0,rectangle,-2.52911377,2.417327881,1,0,0,-2.52911377,2.417327881,1,0,0,0,17,17,96,1,,,,,,,,
,,,,,,,,,,,,,FF,,,,,,,,2.4978,,,,,,,,,,,,,,,,,,,,,,61031c95c9b3c0c70b9f60a7,61036dffeff4554e65c63561,2021-07-29_20h19.05.827,Simcolourproject_2stim_asymm_v5,2020.2.10,Linux x86_64,60,61025ae37ef11b136ea224fe,,,,,,,,,411,79.23669434,-28.5680542,1,0,0,response3disk,,5,12.75457764,2.50567627,1,0,0,rectangle,12.75457764,2.50567627,1,0,0,12.75457764,2.50567627,1,0,0,0,18,18,106,1,,,,,,,,
,,,,,,,,,,,,,FF,,,,,,,,1.3484,,,,,,,,,,,,,,,,,,,,,,61031c95c9b3c0c70b9f60a7,61036dffeff4554e65c63561,2021-07-29_20h19.05.827,Simcolourproject_2stim_asymm_v5,2020.2.10,Linux x86_64,60,61025ae37ef11b136ea224fe,,,,,,,,,457,-72.09338379,-35.8319397,1,0,0,response5disk,,2,-16.85198975,2.803283691,1,0,0,rectangle,-16.85198975,2.803283691,1,0,0,-16.85198975,2.803283691,1,0,0,0,19,19,90,1,,,,,,,,
,,,,,,,,,,,,,FF,,,,,,,,1.3661,,,,,,,,,,,,,,,,,,,,,,61031c95c9b3c0c70b9f60a7,61036dffeff4554e65c63561,2021-07-29_20h19.05.827,Simcolourproject_2stim_asymm_v5,2020.2.10,Linux x86_64,60,61025ae37ef11b136ea224fe,,,,,,,,,1418,31.77111816,89.15762329,1,0,0,response1disk,,7,11.97924805,5.696594238,1,0,0,rectangle,11.97924805,5.696594238,1,0,0,11.97924805,5.696594238,1,0,0,0,20,20,56,1,,,,,,,,
,,,,,,,,,,,,,FF,,,,,,,,1.2318,,,,,,,,,,,,,,,,,,,,,,61031c95c9b3c0c70b9f60a7,61036dffeff4554e65c63561,2021-07-29_20h19.05.827,Simcolourproject_2stim_asymm_v5,2020.2.10,Linux x86_64,60,61025ae37ef11b136ea224fe,,,,,,,,,2129,78.09863281,-28.27078247,1,0,0,response3disk,,5,-3.250976563,0.31652832,1,0,0,rectangle,-3.250976563,0.31652832,1,0,0,-3.250976563,0.31652832,1,0,0,0,21,21,153,1,,,,,,,,
,,,,,,,,,,,,,FF,,,,,,,,1.199,,,,,,,,,,,,,,,,,,,,,,61031c95c9b3c0c70b9f60a7,61036dffeff4554e65c63561,2021-07-29_20h19.05.827,Simcolourproject_2stim_asymm_v5,2020.2.10,Linux x86_64,60,61025ae37ef11b136ea224fe,,,,,,,,,469,32.80328369,-55.68255615,1,0,0,response3disk,,4,-10.86254883,6.078735352,1,0,0,rectangle,-10.86254883,6.078735352,1,0,0,-10.86254883,6.078735352,1,0,0,0,22,22,108,1,,,,,,,,
,,,,,,,,,,,,,FF,,,,,,,,1.2654,,,,,,,,,,,,,,,,,,,,,,61031c95c9b3c0c70b9f60a7,61036dffeff4554e65c63561,2021-07-29_20h19.05.827,Simcolourproject_2stim_asymm_v5,2020.2.10,Linux x86_64,60,61025ae37ef11b136ea224fe,,,,,,,,,1250,43.04003906,-70.29321289,1,0,0,response3disk,,4,15.63598633,-0.670898438,1,0,0,rectangle,15.63598633,-0.670898438,1,0,0,15.63598633,-0.670898438,1,0,0,0,23,23,156,1,,,,,,,,
,,,,,,,,,,,,,FF,,,,,,,,1.8477,,,,,,,,,,,,,,,,,,,,,,61031c95c9b3c0c70b9f60a7,61036dffeff4554e65c63561,2021-07-29_20h19.05.827,Simcolourproject_2stim_asymm_v5,2020.2.10,Linux x86_64,60,61025ae37ef11b136ea224fe,,,,,,,,,2233,-101.6341553,46.21844482,1,0,0,response7disk,,1,-2.248535156,-1.494110107,1,0,0,rectangle,-2.248535156,-1.494110107,1,0,0,-2.248535156,-1.494110107,1,0,0,0,24,24,27,1,,,,,,,,
,,,,,,,,,,,,,FF,,,,,,,,2.5807,,,,,,,,,,,,,,,,,,,,,,61031c95c9b3c0c70b9f60a7,61036dffeff4554e65c63561,2021-07-29_20h19.05.827,Simcolourproject_2stim_asymm_v5,2020.2.10,Linux x86_64,60,61025ae37ef11b136ea224fe,,,,,,,,,2317,97.76531982,-29.91940308,1,0,0,response3disk,,5,19.15930176,1.135894775,1,0,0,rectangle,19.15930176,1.135894775,1,0,0,19.15930176,1.135894775,1,0,0,0,25,25,137,1,,,,,,,,
,,,,,,,,,,,,,FF,,,,,,,,1.3152,,,,,,,,,,,,,,,,,,,,,,61031c95c9b3c0c70b9f60a7,61036dffeff4554e65c63561,2021-07-29_20h19.05.827,Simcolourproject_2stim_asymm_v5,2020.2.10,Linux x86_64,60,61025ae37ef11b136ea224fe,,,,,,,,,1225,-83.43652344,29.79730225,1,0,0,response7disk,,1,-18.23724365,-8.13381958,1,0,0,rectangle,-18.23724365,-8.13381958,1,0,0,-18.23724365,-8.13381958,1,0,0,0,26,26,142,1,,,,,,,,
,,,,,,,,,,,,,FF,,,,,,,,1.466,,,,,,,,,,,,,,,,,,,,,,61031c95c9b3c0c70b9f60a7,61036dffeff4554e65c63561,2021-07-29_20h19.05.827,Simcolourproject_2stim_asymm_v5,2020.2.10,Linux x86_64,60,61025ae37ef11b136ea224fe,,,,,,,,,2872,93.92938232,-30.18951416,1,0,0,response3disk,,5,33.5513916,5.22265625,1,0,0,rectangle,33.5513916,5.22265625,1,0,0,33.5513916,5.22265625,1,0,0,0,27,27,73,1,,,,,,,,
,,,,,,,,,,,,,FF,,,,,,,,1.8986,,,,,,,,,,,,,,,,,,,,,,61031c95c9b3c0c70b9f60a7,61036dffeff4554e65c63561,2021-07-29_20h19.05.827,Simcolourproject_2stim_asymm_v5,2020.2.10,Linux x86_64,60,61025ae37ef11b136ea224fe,,,,,,,,,2372,60.09020996,-83.8843689,1,0,0,response3disk,,4,5.840759277,5.144927979,1,0,0,rectangle,5.840759277,5.144927979,1,0,0,5.840759277,5.144927979,1,0,0,0,28,28,99,1,,,,,,,,
,,,,,,,,,,,,,FF,,,,,,,,1.4655,,,,,,,,,,,,,,,,,,,,,,61031c95c9b3c0c70b9f60a7,61036dffeff4554e65c63561,2021-07-29_20h19.05.827,Simcolourproject_2stim_asymm_v5,2020.2.10,Linux x86_64,60,61025ae37ef11b136ea224fe,,,,,,,,,2801,85.52838135,-59.31280518,1,0,0,response3disk,,5,14.76678467,-7.094360352,1,0,0,rectangle,14.76678467,-7.094360352,1,0,0,14.76678467,-7.094360352,1,0,0,0,29,29,53,1,,,,,,,,
,,,,,,,,,,,,,FF,,,,,,,,1.5992,,,,,,,,,,,,,,,,,,,,,,61031c95c9b3c0c70b9f60a7,61036dffeff4554e65c63561,2021-07-29_20h19.05.827,Simcolourproject_2stim_asymm_v5,2020.2.10,Linux x86_64,60,61025ae37ef11b136ea224fe,,,,,,,,,1047,-48.52453613,-99.45474243,1,0,0,response5disk,,3,9.610595703,-8.848419189,1,0,0,rectangle,9.610595703,-8.848419189,1,0,0,9.610595703,-8.848419189,1,0,0,0,30,30,40,1,,,,,,,,
,,,,,,,,,,,,,FF,,,,,,,,1.1992,,,,,,,,,,,,,,,,,,,,,,61031c95c9b3c0c70b9f60a7,61036dffeff4554e65c63561,2021-07-29_20h19.05.827,Simcolourproject_2stim_asymm_v5,2020.2.10,Linux x86_64,60,61025ae37ef11b136ea224fe,,,,,,,,,512,-51.8034668,-101.854248,1,0,0,response5disk,,3,-10.39825439,-9.532836914,1,0,0,rectangle,-10.39825439,-9.532836914,1,0,0,-10.39825439,-9.532836914,1,0,0,0,31,31,83,1,,,,,,,,
,,,,,,,,,,,,,FF,,,,,,,,3.2796,,,,,,,,,,,,,,,,,,,,,,61031c95c9b3c0c70b9f60a7,61036dffeff4554e65c63561,2021-07-29_20h19.05.827,Simcolourproject_2stim_asymm_v5,2020.2.10,Linux x86_64,60,61025ae37ef11b136ea224fe,,,,,,,,,3653,73.28216553,35.70898438,1,0,0,response1disk,,6,15.85272217,-1.406219482,1,0,0,rectangle,15.85272217,-1.406219482,1,0,0,15.85272217,-1.406219482,1,0,0,0,32,32,34,1,,,,,,,,
,,,,,,,,,,,,,FF,,,,,,,,2.1314,,,,,,,,,,,,,,,,,,,,,,61031c95c9b3c0c70b9f60a7,61036dffeff4554e65c63561,2021-07-29_20h19.05.827,Simcolourproject_2stim_asymm_v5,2020.2.10,Linux x86_64,60,61025ae37ef11b136ea224fe,,,,,,,,,304,72.27197266,-21.07272339,1,0,0,response3disk,,5,6.26574707,1.943115234,1,0,0,rectangle,6.26574707,1.943115234,1,0,0,6.26574707,1.943115234,1,0,0,0,33,33,95,1,,,,,,,,
,,,,,,,,,,,,,FF,,,,,,,,1.2324,,,,,,,,,,,,,,,,,,,,,,61031c95c9b3c0c70b9f60a7,61036dffeff4554e65c63561,2021-07-29_20h19.05.827,Simcolourproject_2stim_asymm_v5,2020.2.10,Linux x86_64,60,61025ae37ef11b136ea224fe,,,,,,,,,3836,-31.14782715,-78.44229126,1,0,0,response5disk,,3,-1.274169922,5.298309326,1,0,0,rectangle,-1.274169922,5.298309326,1,0,0,-1.274169922,5.298309326,1,0,0,0,34,34,146,1,,,,,,,,
,,,,,,,,,,,,,FF,,,,,,,,1.2653,,,,,,,,,,,,,,,,,,,,,,61031c95c9b3c0c70b9f60a7,61036dffeff4554e65c63561,2021-07-29_20h19.05.827,Simcolourproject_2stim_asymm_v5,2020.2.10,Linux x86_64,60,61025ae37ef11b136ea224fe,,,,,,,,,879,-97.80010986,-35.07955933,1,0,0,response5disk,,2,-14.64862061,2.977996826,1,0,0,rectangle,-14.64862061,2.977996826,1,0,0,-14.64862061,2.977996826,1,0,0,0,35,35,49,1,,,,,,,,
,,,,,,,,,,,,,FF,,,,,,,,1.7319,,,,,,,,,,,,,,,,,,,,,,61031c95c9b3c0c70b9f60a7,61036dffeff4554e65c63561,2021-07-29_20h19.05.827,Simcolourproject_2stim_asymm_v5,2020.2.10,Linux x86_64,60,61025ae37ef11b136ea224fe,,,,,,,,,2715,35.80499268,-66.00268555,1,0,0,response3disk,,4,-5.075073242,-0.480163574,1,0,0,rectangle,-5.075073242,-0.480163574,1,0,0,-5.075073242,-0.480163574,1,0,0,0,36,36,66,1,,,,,,,,
,,,,,,,,,,,,,FF,,,,,,,,1.2328,,,,,,,,,,,,,,,,,,,,,,61031c95c9b3c0c70b9f60a7,61036dffeff4554e65c63561,2021-07-29_20h19.05.827,Simcolourproject_2stim_asymm_v5,2020.2.10,Linux x86_64,60,61025ae37ef11b136ea224fe,,,,,,,,,3928,61.53601074,25.23846436,1,0,0,response1disk,,6,2.502380371,-5.000762939,1,0,0,rectangle,2.502380371,-5.000762939,1,0,0,2.502380371,-5.000762939,1,0,0,0,37,37,84,1,,,,,,,,
,,,,,,,,,,,,,FF,,,,,,,,1.3486,,,,,,,,,,,,,,,,,,,,,,61031c95c9b3c0c70b9f60a7,61036dffeff4554e65c63561,2021-07-29_20h19.05.827,Simcolourproject_2stim_asymm_v5,2020.2.10,Linux x86_64,60,61025ae37ef11b136ea224fe,,,,,,,,,2297,-79.03283691,53.30328369,1,0,0,response7disk,,1,5.038146973,-9.459655762,1,0,0,rectangle,5.038146973,-9.459655762,1,0,0,5.038146973,-9.459655762,1,0,0,0,38,38,48,1,,,,,,,,
,,,,,,,,,,,,,FF,,,,,,,,0.999,,,,,,,,,,,,,,,,,,,,,,61031c95c9b3c0c70b9f60a7,61036dffeff4554e65c63561,2021-07-29_20h19.05.827,Simcolourproject_2stim_asymm_v5,2020.2.10,Linux x86_64,60,61025ae37ef11b136ea224fe,,,,,,,,,2232,-98.36816406,54.13781738,1,0,0,response7disk,,1,-17.8770752,-3.023529053,1,0,0,rectangle,-17.8770752,-3.023529053,1,0,0,-17.8770752,-3.023529053,1,0,0,0,39,39,77,1,,,,,,,,
,,,,,,,,,,,,,FF,,,,,,,,1.0823,,,,,,,,,,,,,,,,,,,,,,61031c95c9b3c0c70b9f60a7,61036dffeff4554e65c63561,2021-07-29_20h19.05.827,Simcolourproject_2stim_asymm_v5,2020.2.10,Linux x86_64,60,61025ae37ef11b136ea224fe,,,,,,,,,1061,-40.9710083,-91.51602173,1,0,0,response5disk,,3,0.356262207,-3.734283447,1,0,0,rectangle,0.356262207,-3.734283447,1,0,0,0.356262207,-3.734283447,1,0,0,0,40,40,18,1,,,,,,,,
,,,,,,,,,,,,,FF,,,,,,,,1.2828,,,,,,,,,,,,,,,,,,,,,,61031c95c9b3c0c70b9f60a7,61036dffeff4554e65c63561,2021-07-29_20h19.05.827,Simcolourproject_2stim_asymm_v5,2020.2.10,Linux x86_64,60,61025ae37ef11b136ea224fe,,,,,,,,,3337,31.42773438,-86.93551636,1,0,0,response3disk,,4,-4.044677734,-9.259887695,1,0,0,rectangle,-4.044677734,-9.259887695,1,0,0,-4.044677734,-9.259887695,1,0,0,0,41,41,115,1,,,,,,,,
,,,,,,,,,,,,,FF,,,,,,,,1.0489,,,,,,,,,,,,,,,,,,,,,,61031c95c9b3c0c70b9f60a7,61036dffeff4554e65c63561,2021-07-29_20h19.05.827,Simcolourproject_2stim_asymm_v5,2020.2.10,Linux x86_64,60,61025ae37ef11b136ea224fe,,,,,,,,,253,-84.38269043,25.08618164,1,0,0,response7disk,,1,12.00964355,-4.966674805,1,0,0,rectangle,12.00964355,-4.966674805,1,0,0,12.00964355,-4.966674805,1,0,0,0,42,42,154,1,,,,,,,,
,,,,,,,,,,,,,FF,,,,,,,,1.7981,,,,,,,,,,,,,,,,,,,,,,61031c95c9b3c0c70b9f60a7,61036dffeff4554e65c63561,2021-07-29_20h19.05.827,Simcolourproject_2stim_asymm_v5,2020.2.10,Linux x86_64,60,61025ae37ef11b136ea224fe,,,,,,,,,4182,-96.13824463,-28.78811646,1,0,0,response5disk,,2,-0.14276123,7.983520508,1,0,0,rectangle,-0.14276123,7.983520508,1,0,0,-0.14276123,7.983520508,1,0,0,0,43,43,135,1,,,,,,,,
,,,,,,,,,,,,,FF,,,,,,,,2.5141,,,,,,,,,,,,,,,,,,,,,,61031c95c9b3c0c70b9f60a7,61036dffeff4554e65c63561,2021-07-29_20h19.05.827,Simcolourproject_2stim_asymm_v5,2020.2.10,Linux x86_64,60,61025ae37ef11b136ea224fe,,,,,,,,,99,32.8482666,-75.53009033,1,0,0,response3disk,,4,3.044067383,7.247344971,1,0,0,rectangle,3.044067383,7.247344971,1,0,0,3.044067383,7.247344971,1,0,0,0,44,44,44,1,,,,,,,,
,,,,,,,,,,,,,FF,,,,,,,,1.5818,,,,,,,,,,,,,,,,,,,,,,61031c95c9b3c0c70b9f60a7,61036dffeff4554e65c63561,2021-07-29_20h19.05.827,Simcolourproject_2stim_asymm_v5,2020.2.10,Linux x86_64,60,61025ae37ef11b136ea224fe,,,,,,,,,2395,67.66778564,-47.39517212,1,0,0,response3disk,,5,7.898803711,6.225799561,1,0,0,rectangle,7.898803711,6.225799561,1,0,0,7.898803711,6.225799561,1,0,0,0,45,45,63,1,,,,,,,,
,,,,,,,,,,,,,FF,,,,,,,,1.2988,,,,,,,,,,,,,,,,,,,,,,61031c95c9b3c0c70b9f60a7,61036dffeff4554e65c63561,2021-07-29_20h19.05.827,Simcolourproject_2stim_asymm_v5,2020.2.10,Linux x86_64,60,61025ae37ef11b136ea224fe,,,,,,,,,1561,97.68658447,29.56130981,1,0,0,response1disk,,6,11.32684326,6.505218506,1,0,0,rectangle,11.32684326,6.505218506,1,0,0,11.32684326,6.505218506,1,0,0,0,46,46,10,1,,,,,,,,
,,,,,,,,,,,,,FF,,,,,,,,1.0157,,,,,,,,,,,,,,,,,,,,,,61031c95c9b3c0c70b9f60a7,61036dffeff4554e65c63561,2021-07-29_20h19.05.827,Simcolourproject_2stim_asymm_v5,2020.2.10,Linux x86_64,60,61025ae37ef11b136ea224fe,,,,,,,,,801,-37.5635376,92.29260254,1,0,0,response7disk,,0,1.580505371,-8.763153076,1,0,0,rectangle,1.580505371,-8.763153076,1,0,0,1.580505371,-8.763153076,1,0,0,0,47,47,82,1,,,,,,,,
,,,,,,,,,,,,,FF,,,,,,,,1.1322,,,,,,,,,,,,,,,,,,,,,,61031c95c9b3c0c70b9f60a7,61036dffeff4554e65c63561,2021-07-29_20h19.05.827,Simcolourproject_2stim_asymm_v5,2020.2.10,Linux x86_64,60,61025ae37ef11b136ea224fe,,,,,,,,,1359,61.4432373,97.94747925,1,0,0,response1disk,,7,0.467163086,-2.575408936,1,0,0,rectangle,0.467163086,-2.575408936,1,0,0,0.467163086,-2.575408936,1,0,0,0,48,48,79,1,,,,,,,,
,,,,,,,,,,,,,FF,,,,,,,,1.2816,,,,,,,,,,,,,,,,,,,,,,61031c95c9b3c0c70b9f60a7,61036dffeff4554e65c63561,2021-07-29_20h19.05.827,Simcolourproject_2stim_asymm_v5,2020.2.10,Linux x86_64,60,61025ae37ef11b136ea224fe,,,,,,,,,1467,-45.7333374,-69.64706421,1,0,0,response5disk,,3,-14.0402832,-7.292510986,1,0,0,rectangle,-14.0402832,-7.292510986,1,0,0,-14.0402832,-7.292510986,1,0,0,0,49,49,103,1,,,,,,,,
,,,,,,,,,,,,,FF,,,,,,,,1.1323,,,,,,,,,,,,,,,,,,,,,,61031c95c9b3c0c70b9f60a7,61036dffeff4554e65c63561,2021-07-29_20h19.05.827,Simcolourproject_2stim_asymm_v5,2020.2.10,Linux x86_64,60,61025ae37ef11b136ea224fe,,,,,,,,,1952,-37.52380371,-85.47659302,1,0,0,response5disk,,3,-7.967468262,-0.73236084,1,0,0,rectangle,-7.967468262,-0.73236084,1,0,0,-7.967468262,-0.73236084,1,0,0,0,50,50,80,1,,,,,,,,
,,,,,,,,,,,,,FF,,,,,,,,1.0495,,,,,,,,,,,,,,,,,,,,,,61031c95c9b3c0c70b9f60a7,61036dffeff4554e65c63561,2021-07-29_20h19.05.827,Simcolourproject_2stim_asymm_v5,2020.2.10,Linux x86_64,60,61025ae37ef11b136ea224fe,,,,,,,,,223,77.58361816,-42.2822876,1,0,0,response3disk,,5,-16.74822998,-7.579528809,1,0,0,rectangle,-16.74822998,-7.579528809,1,0,0,-16.74822998,-7.579528809,1,0,0,0,51,51,109,1,,,,,,,,
,,,,,,,,,,,,,FF,,,,,,,,1.1824,,,,,,,,,,,,,,,,,,,,,,61031c95c9b3c0c70b9f60a7,61036dffeff4554e65c63561,2021-07-29_20h19.05.827,Simcolourproject_2stim_asymm_v5,2020.2.10,Linux x86_64,60,61025ae37ef11b136ea224fe,,,,,,,,,340,-36.57702637,-59.88201904,1,0,0,response5disk,,3,-9.148254395,-2.280670166,1,0,0,rectangle,-9.148254395,-2.280670166,1,0,0,-9.148254395,-2.280670166,1,0,0,0,52,52,144,1,,,,,,,,
,,,,,,,,,,,,,FF,,,,,,,,1.6151,,,,,,,,,,,,,,,,,,,,,,61031c95c9b3c0c70b9f60a7,61036dffeff4554e65c63561,2021-07-29_20h19.05.827,Simcolourproject_2stim_asymm_v5,2020.2.10,Linux x86_64,60,61025ae37ef11b136ea224fe,,,,,,,,,3474,-103.6390991,56.86032104,1,0,0,response7disk,,1,-6.065490723,0.970947266,1,0,0,rectangle,-6.065490723,0.970947266,1,0,0,-6.065490723,0.970947266,1,0,0,0,53,53,143,1,,,,,,,,
,,,,,,,,,,,,,FF,,,,,,,,1.2492,,,,,,,,,,,,,,,,,,,,,,61031c95c9b3c0c70b9f60a7,61036dffeff4554e65c63561,2021-07-29_20h19.05.827,Simcolourproject_2stim_asymm_v5,2020.2.10,Linux x86_64,60,61025ae37ef11b136ea224fe,,,,,,,,,870,72.1605835,-43.20016479,1,0,0,response3disk,,5,6.782653809,4.842285156,1,0,0,rectangle,6.782653809,4.842285156,1,0,0,6.782653809,4.842285156,1,0,0,0,54,54,28,1,,,,,,,,
,,,,,,,,,,,,,FF,,,,,,,,1.4155,,,,,,,,,,,,,,,,,,,,,,61031c95c9b3c0c70b9f60a7,61036dffeff4554e65c63561,2021-07-29_20h19.05.827,Simcolourproject_2stim_asymm_v5,2020.2.10,Linux x86_64,60,61025ae37ef11b136ea224fe,,,,,,,,,1571,91.16467285,47.52703857,1,0,0,response1disk,,6,-1.946655273,-7.355407715,1,0,0,rectangle,-1.946655273,-7.355407715,1,0,0,-1.946655273,-7.355407715,1,0,0,0,55,55,148,1,,,,,,,,
,,,,,,,,,,,,,FF,,,,,,,,1.6644,,,,,,,,,,,,,,,,,,,,,,61031c95c9b3c0c70b9f60a7,61036dffeff4554e65c63561,2021-07-29_20h19.05.827,Simcolourproject_2stim_asymm_v5,2020.2.10,Linux x86_64,60,61025ae37ef11b136ea224fe,,,,,,,,,1345,66.72888184,36.6519165,1,0,0,response1disk,,6,-27.33337402,0.976257324,1,0,0,rectangle,-27.33337402,0.976257324,1,0,0,-27.33337402,0.976257324,1,0,0,0,56,56,116,1,,,,,,,,
,,,,,,,,,,,,,FF,,,,,,,,1.2156,,,,,,,,,,,,,,,,,,,,,,61031c95c9b3c0c70b9f60a7,61036dffeff4554e65c63561,2021-07-29_20h19.05.827,Simcolourproject_2stim_asymm_v5,2020.2.10,Linux x86_64,60,61025ae37ef11b136ea224fe,,,,,,,,,1100,96.93115234,-57.29907227,1,0,0,response3disk,,5,-11.42144775,-4.706726074,1,0,0,rectangle,-11.42144775,-4.706726074,1,0,0,-11.42144775,-4.706726074,1,0,0,0,57,57,62,1,,,,,,,,
,,,,,,,,,,,,,FF,,,,,,,,1.0826,,,,,,,,,,,,,,,,,,,,,,61031c95c9b3c0c70b9f60a7,61036dffeff4554e65c63561,2021-07-29_20h19.05.827,Simcolourproject_2stim_asymm_v5,2020.2.10,Linux x86_64,60,61025ae37ef11b136ea224fe,,,,,,,,,745,-49.75653076,-70.53817749,1,0,0,response5disk,,3,-5.923278809,8.487030029,1,0,0,rectangle,-5.923278809,8.487030029,1,0,0,-5.923278809,8.487030029,1,0,0,0,58,58,107,1,,,,,,,,
,,,,,,,,,,,,,FF,,,,,,,,2.9979,,,,,,,,,,,,,,,,,,,,,,61031c95c9b3c0c70b9f60a7,61036dffeff4554e65c63561,2021-07-29_20h19.05.827,Simcolourproject_2stim_asymm_v5,2020.2.10,Linux x86_64,60,61025ae37ef11b136ea224fe,,,,,,,,,87,50.1541748,-28.31314087,1,0,0,response3disk,,5,6.66784668,-8.106719971,1,0,0,rectangle,6.66784668,-8.106719971,1,0,0,6.66784668,-8.106719971,1,0,0,0,59,59,20,1,,,,,,,,
,,,,,,,,,,,,,FF,,,,,,,,2.4641,,,,,,,,,,,,,,,,,,,,,,61031c95c9b3c0c70b9f60a7,61036dffeff4554e65c63561,2021-07-29_20h19.05.827,Simcolourproject_2stim_asymm_v5,2020.2.10,Linux x86_64,60,61025ae37ef11b136ea224fe,,,,,,,,,2060,107.0756836,-18.65646362,1,0,0,response3disk,,5,4.471313477,-4.657226563,1,0,0,rectangle,4.471313477,-4.657226563,1,0,0,4.471313477,-4.657226563,1,0,0,0,60,60,97,1,,,,,,,,
,,,,,,,,,,,,,FF,,,,,,,,2.1145,,,,,,,,,,,,,,,,,,,,,,61031c95c9b3c0c70b9f60a7,61036dffeff4554e65c63561,2021-07-29_20h19.05.827,Simcolourproject_2stim_asymm_v5,2020.2.10,Linux x86_64,60,61025ae37ef11b136ea224fe,,,,,,,,,363,36.15460205,-62.8901062,1,0,0,response3disk,,4,2.079345703,-4.64151001,1,0,0,rectangle,2.079345703,-4.64151001,1,0,0,2.079345703,-4.64151001,1,0,0,0,61,61,152,1,,,,,,,,
,,,,,,,,,,,,,FF,,,,,,,,1.6986,,,,,,,,,,,,,,,,,,,,,,61031c95c9b3c0c70b9f60a7,61036dffeff4554e65c63561,2021-07-29_20h19.05.827,Simcolourproject_2stim_asymm_v5,2020.2.10,Linux x86_64,60,61025ae37ef11b136ea224fe,,,,,,,,,961,63.64605713,-30.97283936,1,0,0,response3disk,,5,4.28338623,-10.15917969,1,0,0,rectangle,4.28338623,-10.15917969,1,0,0,4.28338623,-10.15917969,1,0,0,0,62,62,133,1,,,,,,,,
,,,,,,,,,,,,,FF,,,,,,,,1.9814,,,,,,,,,,,,,,,,,,,,,,61031c95c9b3c0c70b9f60a7,61036dffeff4554e65c63561,2021-07-29_20h19.05.827,Simcolourproject_2stim_asymm_v5,2020.2.10,Linux x86_64,60,61025ae37ef11b136ea224fe,,,,,,,,,3701,98.3447876,-52.43093872,1,0,0,response3disk,,5,14.69812012,-0.130187988,1,0,0,rectangle,14.69812012,-0.130187988,1,0,0,14.69812012,-0.130187988,1,0,0,0,63,63,37,1,,,,,,,,
,,,,,,,,,,,,,FF,,,,,,,,0.9159,,,,,,,,,,,,,,,,,,,,,,61031c95c9b3c0c70b9f60a7,61036dffeff4554e65c63561,2021-07-29_20h19.05.827,Simcolourproject_2stim_asymm_v5,2020.2.10,Linux x86_64,60,61025ae37ef11b136ea224fe,,,,,,,,,1390,-79.27709961,-35.22338867,1,0,0,response5disk,,2,-4.285827637,0.771789551,1,0,0,rectangle,-4.285827637,0.771789551,1,0,0,-4.285827637,0.771789551,1,0,0,0,64,64,127,1,,,,,,,,
,,,,,,,,,,,,,FF,,,,,,,,1.3494,,,,,,,,,,,,,,,,,,,,,,61031c95c9b3c0c70b9f60a7,61036dffeff4554e65c63561,2021-07-29_20h19.05.827,Simcolourproject_2stim_asymm_v5,2020.2.10,Linux x86_64,60,61025ae37ef11b136ea224fe,,,,,,,,,3225,54.82037354,116.9530334,1,0,0,response1disk,,7,-19.1484375,-7.084716797,1,0,0,rectangle,-19.1484375,-7.084716797,1,0,0,-19.1484375,-7.084716797,1,0,0,0,65,65,89,1,,,,,,,,
,,,,,,,,,,,,,FF,,,,,,,,1.0991,,,,,,,,,,,,,,,,,,,,,,61031c95c9b3c0c70b9f60a7,61036dffeff4554e65c63561,2021-07-29_20h19.05.827,Simcolourproject_2stim_asymm_v5,2020.2.10,Linux x86_64,60,61025ae37ef11b136ea224fe,,,,,,,,,1766,-53.56903076,-27.47607422,1,0,0,response5disk,,2,-23.7467041,-5.499786377,1,0,0,rectangle,-23.7467041,-5.499786377,1,0,0,-23.7467041,-5.499786377,1,0,0,0,66,66,68,1,,,,,,,,
,,,,,,,,,,,,,FF,,,,,,,,1.5816,,,,,,,,,,,,,,,,,,,,,,61031c95c9b3c0c70b9f60a7,61036dffeff4554e65c63561,2021-07-29_20h19.05.827,Simcolourproject_2stim_asymm_v5,2020.2.10,Linux x86_64,60,61025ae37ef11b136ea224fe,,,,,,,,,4177,49.14898682,91.1579895,1,0,0,response1disk,,7,-6.184936523,-4.092407227,1,0,0,rectangle,-6.184936523,-4.092407227,1,0,0,-6.184936523,-4.092407227,1,0,0,0,67,67,11,1,,,,,,,,
,,,,,,,,,,,,,FF,,,,,,,,1.0496,,,,,,,,,,,,,,,,,,,,,,61031c95c9b3c0c70b9f60a7,61036dffeff4554e65c63561,2021-07-29_20h19.05.827,Simcolourproject_2stim_asymm_v5,2020.2.10,Linux x86_64,60,61025ae37ef11b136ea224fe,,,,,,,,,929,48.36560059,-70.17922974,1,0,0,response3disk,,4,19.81011963,-4.436157227,1,0,0,rectangle,19.81011963,-4.436157227,1,0,0,19.81011963,-4.436157227,1,0,0,0,68,68,61,1,,,,,,,,
,,,,,,,,,,,,,FF,,,,,,,,1.1827,,,,,,,,,,,,,,,,,,,,,,61031c95c9b3c0c70b9f60a7,61036dffeff4554e65c63561,2021-07-29_20h19.05.827,Simcolourproject_2stim_asymm_v5,2020.2.10,Linux x86_64,60,61025ae37ef11b136ea224fe,,,,,,,,,673,37.300354,-74.95361328,1,0,0,response3disk,,4,1.987854004,0.336853027,1,0,0,rectangle,1.987854004,0.336853027,1,0,0,1.987854004,0.336853027,1,0,0,0,69,69,81,1,,,,,,,,
,,,,,,,,,,,,,FF,,,,,,,,1.2658,,,,,,,,,,,,,,,,,,,,,,61031c95c9b3c0c70b9f60a7,61036dffeff4554e65c63561,2021-07-29_20h19.05.827,Simcolourproject_2stim_asymm_v5,2020.2.10,Linux x86_64,60,61025ae37ef11b136ea224fe,,,,,,,,,4229,16.35693359,-102.0104065,1,0,0,response3disk,,4,-8.454040527,-1.103515625,1,0,0,rectangle,-8.454040527,-1.103515625,1,0,0,-8.454040527,-1.103515625,1,0,0,0,70,70,36,1,,,,,,,,
,,,,,,,,,,,,,FF,,,,,,,,2.4312,,,,,,,,,,,,,,,,,,,,,,61031c95c9b3c0c70b9f60a7,61036dffeff4554e65c63561,2021-07-29_20h19.05.827,Simcolourproject_2stim_asymm_v5,2020.2.10,Linux x86_64,60,61025ae37ef11b136ea224fe,,,,,,,,,3,-82.83496094,-30.89483643,1,0,0,response5disk,,2,-13.26556396,3.281433105,1,0,0,rectangle,-13.26556396,3.281433105,1,0,0,-13.26556396,3.281433105,1,0,0,0,71,71,25,1,,,,,,,,
,,,,,,,,,,,,,FF,,,,,,,,1.066,,,,,,,,,,,,,,,,,,,,,,61031c95c9b3c0c70b9f60a7,61036dffeff4554e65c63561,2021-07-29_20h19.05.827,Simcolourproject_2stim_asymm_v5,2020.2.10,Linux x86_64,60,61025ae37ef11b136ea224fe,,,,,,,,,2051,52.0145874,-77.66281128,1,0,0,response3disk,,4,-23.05633545,14.00805664,1,0,0,rectangle,-23.05633545,14.00805664,1,0,0,-23.05633545,14.00805664,1,0,0,0,72,72,57,1,,,,,,,,
,,,,,,,,,,,,,FF,,,,,,,,1.8821,,,,,,,,,,,,,,,,,,,,,,61031c95c9b3c0c70b9f60a7,61036dffeff4554e65c63561,2021-07-29_20h19.05.827,Simcolourproject_2stim_asymm_v5,2020.2.10,Linux x86_64,60,61025ae37ef11b136ea224fe,,,,,,,,,2594,94.04345703,-56.31399536,1,0,0,response3disk,,5,7.368713379,-4.94644165,1,0,0,rectangle,7.368713379,-4.94644165,1,0,0,7.368713379,-4.94644165,1,0,0,0,73,73,31,1,,,,,,,,
,,,,,,,,,,,,,FF,,,,,,,,1.9315,,,,,,,,,,,,,,,,,,,,,,61031c95c9b3c0c70b9f60a7,61036dffeff4554e65c63561,2021-07-29_20h19.05.827,Simcolourproject_2stim_asymm_v5,2020.2.10,Linux x86_64,60,61025ae37ef11b136ea224fe,,,,,,,,,254,-32.80047607,-70.94421387,1,0,0,response5disk,,3,-8.598144531,-9.721740723,1,0,0,rectangle,-8.598144531,-9.721740723,1,0,0,-8.598144531,-9.721740723,1,0,0,0,74,74,9,1,,,,,,,,
,,,,,,,,,,,,,FF,,,,,,,,1.1816,,,,,,,,,,,,,,,,,,,,,,61031c95c9b3c0c70b9f60a7,61036dffeff4554e65c63561,2021-07-29_20h19.05.827,Simcolourproject_2stim_asymm_v5,2020.2.10,Linux x86_64,60,61025ae37ef11b136ea224fe,,,,,,,,,3236,-107.8693848,-66.05691528,1,0,0,response5disk,,2,-5.59588623,-0.904449463,1,0,0,rectangle,-5.59588623,-0.904449463,1,0,0,-5.59588623,-0.904449463,1,0,0,0,75,75,3,1,,,,,,,,
,,,,,,,,,,,,,FF,,,,,,,,2.1485,,,,,,,,,,,,,,,,,,,,,,61031c95c9b3c0c70b9f60a7,61036dffeff4554e65c63561,2021-07-29_20h19.05.827,Simcolourproject_2stim_asymm_v5,2020.2.10,Linux x86_64,60,61025ae37ef11b136ea224fe,,,,,,,,,585,-33.80609131,-62.36514282,1,0,0,response5disk,,3,-6.759643555,-4.48928833,1,0,0,rectangle,-6.759643555,-4.48928833,1,0,0,-6.759643555,-4.48928833,1,0,0,0,76,76,67,1,,,,,,,,
,,,,,,,,,,,,,FF,,,,,,,,1.016,,,,,,,,,,,,,,,,,,,,,,61031c95c9b3c0c70b9f60a7,61036dffeff4554e65c63561,2021-07-29_20h19.05.827,Simcolourproject_2stim_asymm_v5,2020.2.10,Linux x86_64,60,61025ae37ef11b136ea224fe,,,,,,,,,2810,-31.55163574,-73.51043701,1,0,0,response5disk,,3,-15.14929199,-1.555114746,1,0,0,rectangle,-15.14929199,-1.555114746,1,0,0,-15.14929199,-1.555114746,1,0,0,0,77,77,64,1,,,,,,,,
,,,,,,,,,,,,,FF,,,,,,,,1.033,,,,,,,,,,,,,,,,,,,,,,61031c95c9b3c0c70b9f60a7,61036dffeff4554e65c63561,2021-07-29_20h19.05.827,Simcolourproject_2stim_asymm_v5,2020.2.10,Linux x86_64,60,61025ae37ef11b136ea224fe,,,,,,,,,1194,-31.06451416,-57.37088013,1,0,0,response5disk,,3,-14.16662598,-3.851348877,1,0,0,rectangle,-14.16662598,-3.851348877,1,0,0,-14.16662598,-3.851348877,1,0,0,0,78,78,38,1,,,,,,,,
,,,,,,,,,,,,,FF,,,,,,,,1.0985,,,,,,,,,,,,,,,,,,,,,,61031c95c9b3c0c70b9f60a7,61036dffeff4554e65c63561,2021-07-29_20h19.05.827,Simcolourproject_2stim_asymm_v5,2020.2.10,Linux x86_64,60,61025ae37ef11b136ea224fe,,,,,,,,,2255,63.57733154,-45.26989746,1,0,0,response3disk,,5,-0.369506836,-8.595001221,1,0,0,rectangle,-0.369506836,-8.595001221,1,0,0,-0.369506836,-8.595001221,1,0,0,0,79,79,41,1,,,,,,,,
,,,,,,,,,,,,,FF,,,,,,,,1.2491,,,,,,,,,,,,,,,,,,,,,,61031c95c9b3c0c70b9f60a7,61036dffeff4554e65c63561,2021-07-29_20h19.05.827,Simcolourproject_2stim_asymm_v5,2020.2.10,Linux x86_64,60,61025ae37ef11b136ea224fe,,,,,,,,,2989,85.3026123,-35.98498535,1,0,0,response3disk,,5,1.963500977,-1.919677734,1,0,0,rectangle,1.963500977,-1.919677734,1,0,0,1.963500977,-1.919677734,1,0,0,0,80,80,70,1,,,,,,,,
,,,,,,,,,,,,,FF,,,,,,,,1.1154,,,,,,,,,,,,,,,,,,,,,,61031c95c9b3c0c70b9f60a7,61036dffeff4554e65c63561,2021-07-29_20h19.05.827,Simcolourproject_2stim_asymm_v5,2020.2.10,Linux x86_64,60,61025ae37ef11b136ea224fe,,,,,,,,,2449,62.31268311,43.97381592,1,0,0,response1disk,,6,8.830688477,1.308135986,1,0,0,rectangle,8.830688477,1.308135986,1,0,0,8.830688477,1.308135986,1,0,0,0,81,81,32,1,,,,,,,,
,,,,,,,,,,,,,FF,,,,,,,,1.1325,,,,,,,,,,,,,,,,,,,,,,61031c95c9b3c0c70b9f60a7,61036dffeff4554e65c63561,2021-07-29_20h19.05.827,Simcolourproject_2stim_asymm_v5,2020.2.10,Linux x86_64,60,61025ae37ef11b136ea224fe,,,,,,,,,2970,61.40423584,31.46569824,1,0,0,response1disk,,6,4.411071777,-5.147705078,1,0,0,rectangle,4.411071777,-5.147705078,1,0,0,4.411071777,-5.147705078,1,0,0,0,82,82,1,1,,,,,,,,
,,,,,,,,,,,,,FF,,,,,,,,1.2826,,,,,,,,,,,,,,,,,,,,,,61031c95c9b3c0c70b9f60a7,61036dffeff4554e65c63561,2021-07-29_20h19.05.827,Simcolourproject_2stim_asymm_v5,2020.2.10,Linux x86_64,60,61025ae37ef11b136ea224fe,,,,,,,,,2019,83.34838867,-39.55957031,1,0,0,response3disk,,5,-13.91534424,-4.550415039,1,0,0,rectangle,-13.91534424,-4.550415039,1,0,0,-13.91534424,-4.550415039,1,0,0,0,83,83,54,1,,,,,,,,
,,,,,,,,,,,,,FF,,,,,,,,1.9816,,,,,,,,,,,,,,,,,,,,,,61031c95c9b3c0c70b9f60a7,61036dffeff4554e65c63561,2021-07-29_20h19.05.827,Simcolourproject_2stim_asymm_v5,2020.2.10,Linux x86_64,60,61025ae37ef11b136ea224fe,,,,,,,,,1265,62.19805908,-28.165802,1,0,0,response3disk,,5,-18.26464844,6.174835205,1,0,0,rectangle,-18.26464844,6.174835205,1,0,0,-18.26464844,6.174835205,1,0,0,0,84,84,118,1,,,,,,,,
,,,,,,,,,,,,,FF,,,,,,,,1.5161,,,,,,,,,,,,,,,,,,,,,,61031c95c9b3c0c70b9f60a7,61036dffeff4554e65c63561,2021-07-29_20h19.05.827,Simcolourproject_2stim_asymm_v5,2020.2.10,Linux x86_64,60,61025ae37ef11b136ea224fe,,,,,,,,,36,106.7254028,-38.91870117,1,0,0,response3disk,,5,-2.939697266,-3.195465088,1,0,0,rectangle,-38.68804932,94.72702026,1,0,0,8.374816895,7.916442871,1,0,0,0,85,85,117,1,,response7disk_3,TRUE,0,0,"[290,154,235,171,136,86,204,93,89,95,266,191,141,261,157,263,258,170,191,233]",2.2648,rectangle
,,,,,,,,,,,,,FF,,,,,,,,2.1647,,,,,,,,,,,,,,,,,,,,,,61031c95c9b3c0c70b9f60a7,61036dffeff4554e65c63561,2021-07-29_20h19.05.827,Simcolourproject_2stim_asymm_v5,2020.2.10,Linux x86_64,60,61025ae37ef11b136ea224fe,,,,,,,,,776,76.26257324,30.70645142,1,0,0,response1disk,,6,-20.63641357,3.417449951,1,0,0,rectangle,-20.63641357,3.417449951,1,0,0,-20.63641357,3.417449951,1,0,0,0,86,86,128,1,,,,,,,,
,,,,,,,,,,,,,FF,,,,,,,,2.1648,,,,,,,,,,,,,,,,,,,,,,61031c95c9b3c0c70b9f60a7,61036dffeff4554e65c63561,2021-07-29_20h19.05.827,Simcolourproject_2stim_asymm_v5,2020.2.10,Linux x86_64,60,61025ae37ef11b136ea224fe,,,,,,,,,3456,97.7723999,38.13934326,1,0,0,response1disk,,6,2.918151855,0.983856201,1,0,0,rectangle,2.918151855,0.983856201,1,0,0,2.918151855,0.983856201,1,0,0,0,87,87,72,1,,,,,,,,
,,,,,,,,,,,,,FF,,,,,,,,1.0495,,,,,,,,,,,,,,,,,,,,,,61031c95c9b3c0c70b9f60a7,61036dffeff4554e65c63561,2021-07-29_20h19.05.827,Simcolourproject_2stim_asymm_v5,2020.2.10,Linux x86_64,60,61025ae37ef11b136ea224fe,,,,,,,,,3089,-68.70532227,28.88754272,1,0,0,response7disk,,1,10.63275146,-2.430603027,1,0,0,rectangle,50.0657959,-25.05786133,1,0,0,7.249084473,1.920379639,1,0,0,0,88,88,134,1,,response3disk_3,TRUE,5,5,"[290,154,235,171,136,86,204,93,89,95,266,191,141,261,157,263,258,170,191,233]",1.948,rectangle
,,,,,,,,,,,,,FF,,,,,,,,1.166,,,,,,,,,,,,,,,,,,,,,,61031c95c9b3c0c70b9f60a7,61036dffeff4554e65c63561,2021-07-29_20h19.05.827,Simcolourproject_2stim_asymm_v5,2020.2.10,Linux x86_64,60,61025ae37ef11b136ea224fe,,,,,,,,,1107,61.91668701,39.33712769,1,0,0,response1disk,,6,-12.19866943,-8.759552002,1,0,0,rectangle,-12.19866943,-8.759552002,1,0,0,-12.19866943,-8.759552002,1,0,0,0,89,89,16,1,,,,,,,,
,,,,,,,,,,,,,FF,,,,,,,,1.8982,,,,,,,,,,,,,,,,,,,,,,61031c95c9b3c0c70b9f60a7,61036dffeff4554e65c63561,2021-07-29_20h19.05.827,Simcolourproject_2stim_asymm_v5,2020.2.10,Linux x86_64,60,61025ae37ef11b136ea224fe,,,,,,,,,1925,61.83148193,26.50732422,1,0,0,response1disk,,6,6.778320313,1.467926025,1,0,0,rectangle,6.778320313,1.467926025,1,0,0,6.778320313,1.467926025,1,0,0,0,90,90,93,1,,,,,,,,
,,,,,,,,,,,,,FF,,,,,,,,1.6154,,,,,,,,,,,,,,,,,,,,,,61031c95c9b3c0c70b9f60a7,61036dffeff4554e65c63561,2021-07-29_20h19.05.827,Simcolourproject_2stim_asymm_v5,2020.2.10,Linux x86_64,60,61025ae37ef11b136ea224fe,,,,,,,,,2375,-104.8808594,-63.11871338,1,0,0,response5disk,,2,-11.60137939,-0.887542725,1,0,0,rectangle,-11.60137939,-0.887542725,1,0,0,-11.60137939,-0.887542725,1,0,0,0,91,91,139,1,,,,,,,,
,,,,,,,,,,,,,FF,,,,,,,,1.2316,,,,,,,,,,,,,,,,,,,,,,61031c95c9b3c0c70b9f60a7,61036dffeff4554e65c63561,2021-07-29_20h19.05.827,Simcolourproject_2stim_asymm_v5,2020.2.10,Linux x86_64,60,61025ae37ef11b136ea224fe,,,,,,,,,1948,-46.76800537,-79.88168335,1,0,0,response5disk,,3,-13.20251465,-12.82800293,1,0,0,rectangle,79.8336792,43.48403931,1,0,0,-5.375244141,4.701751709,1,0,0,0,92,92,111,1,,response1disk_3,TRUE,6,6,"[290,154,235,171,136,86,204,93,89,95,266,191,141,261,157,263,258,170,191,233]",2.3644,rectangle
,,,,,,,,,,,,,FF,,,,,,,,1.2823,,,,,,,,,,,,,,,,,,,,,,61031c95c9b3c0c70b9f60a7,61036dffeff4554e65c63561,2021-07-29_20h19.05.827,Simcolourproject_2stim_asymm_v5,2020.2.10,Linux x86_64,60,61025ae37ef11b136ea224fe,,,,,,,,,3085,30.24731445,98.57775879,1,0,0,response1disk,,7,9.643432617,5.034393311,1,0,0,rectangle,9.643432617,5.034393311,1,0,0,9.643432617,5.034393311,1,0,0,0,93,93,60,1,,,,,,,,
,,,,,,,,,,,,,FF,,,,,,,,2.5309,,,,,,,,,,,,,,,,,,,,,,61031c95c9b3c0c70b9f60a7,61036dffeff4554e65c63561,2021-07-29_20h19.05.827,Simcolourproject_2stim_asymm_v5,2020.2.10,Linux x86_64,60,61025ae37ef11b136ea224fe,,,,,,,,,462,-32.84991455,-61.36663818,1,0,0,response5disk,,3,-9.31842041,-7.98324585,1,0,0,rectangle,-31.73968506,-65.66784668,1,0,0,-13.61273193,-5.586212158,1,0,0,0,94,94,131,1,,response5disk_3,TRUE,3,3,"[290,154,235,171,136,86,204,93,89,95,266,191,141,261,157,263,258,170,191,233]",4.4793,rectangle
,,,,,,,,,,,,,FF,,,,,,,,1.4484,,,,,,,,,,,,,,,,,,,,,,61031c95c9b3c0c70b9f60a7,61036dffeff4554e65c63561,2021-07-29_20h19.05.827,Simcolourproject_2stim_asymm_v5,2020.2.10,Linux x86_64,60,61025ae37ef11b136ea224fe,,,,,,,,,3490,64.60449219,30.52597046,1,0,0,response1disk,,6,13.34442139,-5.674316406,1,0,0,rectangle,13.34442139,-5.674316406,1,0,0,13.34442139,-5.674316406,1,0,0,0,95,95,35,1,,,,,,,,
,,,,,,,,,,,,,FF,,,,,,,,2.0813,,,,,,,,,,,,,,,,,,,,,,61031c95c9b3c0c70b9f60a7,61036dffeff4554e65c63561,2021-07-29_20h19.05.827,Simcolourproject_2stim_asymm_v5,2020.2.10,Linux x86_64,60,61025ae37ef11b136ea224fe,,,,,,,,,652,64.11022949,-91.02209473,1,0,0,response3disk,,4,-1.442993164,3.539703369,1,0,0,rectangle,-1.442993164,3.539703369,1,0,0,-1.442993164,3.539703369,1,0,0,0,96,96,23,1,,,,,,,,
,,,,,,,,,,,,,FF,,,,,,,,1.4486,,,,,,,,,,,,,,,,,,,,,,61031c95c9b3c0c70b9f60a7,61036dffeff4554e65c63561,2021-07-29_20h19.05.827,Simcolourproject_2stim_asymm_v5,2020.2.10,Linux x86_64,60,61025ae37ef11b136ea224fe,,,,,,,,,1139,-44.32983398,-103.565979,1,0,0,response5disk,,3,-12.72290039,-8.355743408,1,0,0,rectangle,-12.72290039,-8.355743408,1,0,0,-12.72290039,-8.355743408,1,0,0,0,97,97,112,1,,,,,,,,
,,,,,,,,,,,,,FF,,,,,,,,1.7485,,,,,,,,,,,,,,,,,,,,,,61031c95c9b3c0c70b9f60a7,61036dffeff4554e65c63561,2021-07-29_20h19.05.827,Simcolourproject_2stim_asymm_v5,2020.2.10,Linux x86_64,60,61025ae37ef11b136ea224fe,,,,,,,,,3792,48.19812012,-105.3804321,1,0,0,response3disk,,4,8.482543945,-0.898040771,1,0,0,rectangle,8.482543945,-0.898040771,1,0,0,8.482543945,-0.898040771,1,0,0,0,98,98,30,1,,,,,,,,
,,,,,,,,,,,,,FF,,,,,,,,1.2154,,,,,,,,,,,,,,,,,,,,,,61031c95c9b3c0c70b9f60a7,61036dffeff4554e65c63561,2021-07-29_20h19.05.827,Simcolourproject_2stim_asymm_v5,2020.2.10,Linux x86_64,60,61025ae37ef11b136ea224fe,,,,,,,,,1276,-24.82684326,-67.55654907,1,0,0,response5disk,,3,-4.096862793,-2.82510376,1,0,0,rectangle,-4.096862793,-2.82510376,1,0,0,-4.096862793,-2.82510376,1,0,0,0,99,99,145,1,,,,,,,,
,,,,,,,,,,,,,FF,,,,,,,,1.0823,,,,,,,,,,,,,,,,,,,,,,61031c95c9b3c0c70b9f60a7,61036dffeff4554e65c63561,2021-07-29_20h19.05.827,Simcolourproject_2stim_asymm_v5,2020.2.10,Linux x86_64,60,61025ae37ef11b136ea224fe,,,,,,,,,1556,72.11914063,-38.7321167,1,0,0,response3disk,,5,8.567199707,-7.268463135,1,0,0,rectangle,8.567199707,-7.268463135,1,0,0,8.567199707,-7.268463135,1,0,0,0,100,100,88,1,,,,,,,,
,,,,,,,,,,,,,FF,,,,,,,,1.0329,,,,,,,,,,,,,,,,,,,,,,61031c95c9b3c0c70b9f60a7,61036dffeff4554e65c63561,2021-07-29_20h19.05.827,Simcolourproject_2stim_asymm_v5,2020.2.10,Linux x86_64,60,61025ae37ef11b136ea224fe,,,,,,,,,2047,44.30194092,-84.25473022,1,0,0,response3disk,,4,-15.74285889,13.74758911,1,0,0,rectangle,-15.74285889,13.74758911,1,0,0,-15.74285889,13.74758911,1,0,0,0,101,101,22,1,,,,,,,,
,,,,,,,,,,,,,FF,,,,,,,,1.1157,,,,,,,,,,,,,,,,,,,,,,61031c95c9b3c0c70b9f60a7,61036dffeff4554e65c63561,2021-07-29_20h19.05.827,Simcolourproject_2stim_asymm_v5,2020.2.10,Linux x86_64,60,61025ae37ef11b136ea224fe,,,,,,,,,1632,54.59210205,-29.75146484,1,0,0,response3disk,,5,14.48828125,7.687042236,1,0,0,rectangle,14.48828125,7.687042236,1,0,0,14.48828125,7.687042236,1,0,0,0,102,102,6,1,,,,,,,,
,,,,,,,,,,,,,FF,,,,,,,,1.4324,,,,,,,,,,,,,,,,,,,,,,61031c95c9b3c0c70b9f60a7,61036dffeff4554e65c63561,2021-07-29_20h19.05.827,Simcolourproject_2stim_asymm_v5,2020.2.10,Linux x86_64,60,61025ae37ef11b136ea224fe,,,,,,,,,1370,-100.2756958,-48.9447937,1,0,0,response5disk,,2,-25.90063477,-8.586364746,1,0,0,rectangle,-25.90063477,-8.586364746,1,0,0,-25.90063477,-8.586364746,1,0,0,0,103,103,120,1,,,,,,,,
,,,,,,,,,,,,,FF,,,,,,,,1.0487,,,,,,,,,,,,,,,,,,,,,,61031c95c9b3c0c70b9f60a7,61036dffeff4554e65c63561,2021-07-29_20h19.05.827,Simcolourproject_2stim_asymm_v5,2020.2.10,Linux x86_64,60,61025ae37ef11b136ea224fe,,,,,,,,,3817,-69.33184814,29.06915283,1,0,0,response7disk,,1,18.89978027,-4.502349854,1,0,0,rectangle,18.89978027,-4.502349854,1,0,0,18.89978027,-4.502349854,1,0,0,0,104,104,138,1,,,,,,,,
,,,,,,,,,,,,,FF,,,,,,,,1.1155,,,,,,,,,,,,,,,,,,,,,,61031c95c9b3c0c70b9f60a7,61036dffeff4554e65c63561,2021-07-29_20h19.05.827,Simcolourproject_2stim_asymm_v5,2020.2.10,Linux x86_64,60,61025ae37ef11b136ea224fe,,,,,,,,,946,101.1071777,83.70828247,1,0,0,response1disk,,6,5.085754395,2.210632324,1,0,0,rectangle,5.085754395,2.210632324,1,0,0,5.085754395,2.210632324,1,0,0,0,105,105,76,1,,,,,,,,
,,,,,,,,,,,,,FF,,,,,,,,1.1161,,,,,,,,,,,,,,,,,,,,,,61031c95c9b3c0c70b9f60a7,61036dffeff4554e65c63561,2021-07-29_20h19.05.827,Simcolourproject_2stim_asymm_v5,2020.2.10,Linux x86_64,60,61025ae37ef11b136ea224fe,,,,,,,,,3733,44.32843018,75.52029419,1,0,0,response1disk,,7,5.897766113,-6.784729004,1,0,0,rectangle,5.897766113,-6.784729004,1,0,0,5.897766113,-6.784729004,1,0,0,0,106,106,158,1,,,,,,,,
,,,,,,,,,,,,,FF,,,,,,,,1.898,,,,,,,,,,,,,,,,,,,,,,61031c95c9b3c0c70b9f60a7,61036dffeff4554e65c63561,2021-07-29_20h19.05.827,Simcolourproject_2stim_asymm_v5,2020.2.10,Linux x86_64,60,61025ae37ef11b136ea224fe,,,,,,,,,3885,87.13647461,-57.70089722,1,0,0,response3disk,,5,12.87261963,-6.829803467,1,0,0,rectangle,12.87261963,-6.829803467,1,0,0,12.87261963,-6.829803467,1,0,0,0,107,107,136,1,,,,,,,,
,,,,,,,,,,,,,FF,,,,,,,,1.1501,,,,,,,,,,,,,,,,,,,,,,61031c95c9b3c0c70b9f60a7,61036dffeff4554e65c63561,2021-07-29_20h19.05.827,Simcolourproject_2stim_asymm_v5,2020.2.10,Linux x86_64,60,61025ae37ef11b136ea224fe,,,,,,,,,3284,-71.13299561,28.79510498,1,0,0,response7disk,,1,-1.664672852,-4.660491943,1,0,0,rectangle,-1.664672852,-4.660491943,1,0,0,-1.664672852,-4.660491943,1,0,0,0,108,108,17,1,,,,,,,,
,,,,,,,,,,,,,FF,,,,,,,,1.0494,,,,,,,,,,,,,,,,,,,,,,61031c95c9b3c0c70b9f60a7,61036dffeff4554e65c63561,2021-07-29_20h19.05.827,Simcolourproject_2stim_asymm_v5,2020.2.10,Linux x86_64,60,61025ae37ef11b136ea224fe,,,,,,,,,2893,-67.83001709,26.20755005,1,0,0,response7disk,,1,-20.24023438,-2.951477051,1,0,0,rectangle,-20.24023438,-2.951477051,1,0,0,-20.24023438,-2.951477051,1,0,0,0,109,109,85,1,,,,,,,,
,,,,,,,,,,,,,FF,,,,,,,,1.865,,,,,,,,,,,,,,,,,,,,,,61031c95c9b3c0c70b9f60a7,61036dffeff4554e65c63561,2021-07-29_20h19.05.827,Simcolourproject_2stim_asymm_v5,2020.2.10,Linux x86_64,60,61025ae37ef11b136ea224fe,,,,,,,,,397,85.4498291,-45.85168457,1,0,0,response3disk,,5,-0.583374023,10.9107666,1,0,0,rectangle,-0.583374023,10.9107666,1,0,0,-0.583374023,10.9107666,1,0,0,0,110,110,33,1,,,,,,,,
,,,,,,,,,,,,,FF,,,,,,,,1.432,,,,,,,,,,,,,,,,,,,,,,61031c95c9b3c0c70b9f60a7,61036dffeff4554e65c63561,2021-07-29_20h19.05.827,Simcolourproject_2stim_asymm_v5,2020.2.10,Linux x86_64,60,61025ae37ef11b136ea224fe,,,,,,,,,1367,64.89276123,48.07403564,1,0,0,response1disk,,6,0.860107422,-2.197052002,1,0,0,rectangle,0.860107422,-2.197052002,1,0,0,0.860107422,-2.197052002,1,0,0,0,111,111,74,1,,,,,,,,
,,,,,,,,,,,,,FF,,,,,,,,1.3826,,,,,,,,,,,,,,,,,,,,,,61031c95c9b3c0c70b9f60a7,61036dffeff4554e65c63561,2021-07-29_20h19.05.827,Simcolourproject_2stim_asymm_v5,2020.2.10,Linux x86_64,60,61025ae37ef11b136ea224fe,,,,,,,,,1936,49.28381348,68.02676392,1,0,0,response1disk,,7,12.84869385,-2.744049072,1,0,0,rectangle,12.84869385,-2.744049072,1,0,0,12.84869385,-2.744049072,1,0,0,0,112,112,94,1,,,,,,,,
,,,,,,,,,,,,,FF,,,,,,,,0.9826,,,,,,,,,,,,,,,,,,,,,,61031c95c9b3c0c70b9f60a7,61036dffeff4554e65c63561,2021-07-29_20h19.05.827,Simcolourproject_2stim_asymm_v5,2020.2.10,Linux x86_64,60,61025ae37ef11b136ea224fe,,,,,,,,,2688,-74.07000732,-34.56677246,1,0,0,response5disk,,2,-4.261657715,7.283752441,1,0,0,rectangle,-4.261657715,7.283752441,1,0,0,-4.261657715,7.283752441,1,0,0,0,113,113,100,1,,,,,,,,
,,,,,,,,,,,,,FF,,,,,,,,0.9829,,,,,,,,,,,,,,,,,,,,,,61031c95c9b3c0c70b9f60a7,61036dffeff4554e65c63561,2021-07-29_20h19.05.827,Simcolourproject_2stim_asymm_v5,2020.2.10,Linux x86_64,60,61025ae37ef11b136ea224fe,,,,,,,,,1853,44.23675537,-16.59353638,1,0,0,response3disk,,5,0.236572266,-0.029663086,1,0,0,rectangle,0.236572266,-0.029663086,1,0,0,0.236572266,-0.029663086,1,0,0,0,114,114,55,1,,,,,,,,
,,,,,,,,,,,,,FF,,,,,,,,1.215,,,,,,,,,,,,,,,,,,,,,,61031c95c9b3c0c70b9f60a7,61036dffeff4554e65c63561,2021-07-29_20h19.05.827,Simcolourproject_2stim_asymm_v5,2020.2.10,Linux x86_64,60,61025ae37ef11b136ea224fe,,,,,,,,,2211,65.26306152,-40.73770142,1,0,0,response3disk,,5,6.723693848,-1.103149414,1,0,0,rectangle,6.723693848,-1.103149414,1,0,0,6.723693848,-1.103149414,1,0,0,0,115,115,159,1,,,,,,,,
,,,,,,,,,,,,,FF,,,,,,,,0.9992,,,,,,,,,,,,,,,,,,,,,,61031c95c9b3c0c70b9f60a7,61036dffeff4554e65c63561,2021-07-29_20h19.05.827,Simcolourproject_2stim_asymm_v5,2020.2.10,Linux x86_64,60,61025ae37ef11b136ea224fe,,,,,,,,,1980,64.71600342,-28.53936768,1,0,0,response3disk,,5,14.96643066,-0.612579346,1,0,0,rectangle,14.96643066,-0.612579346,1,0,0,14.96643066,-0.612579346,1,0,0,0,116,116,102,1,,,,,,,,
,,,,,,,,,,,,,FF,,,,,,,,1.3655,,,,,,,,,,,,,,,,,,,,,,61031c95c9b3c0c70b9f60a7,61036dffeff4554e65c63561,2021-07-29_20h19.05.827,Simcolourproject_2stim_asymm_v5,2020.2.10,Linux x86_64,60,61025ae37ef11b136ea224fe,,,,,,,,,960,77.34484863,-33.9151001,1,0,0,response3disk,,5,-10.08325195,2.34854126,1,0,0,rectangle,-10.08325195,2.34854126,1,0,0,-10.08325195,2.34854126,1,0,0,0,117,117,12,1,,,,,,,,
,,,,,,,,,,,,,FF,,,,,,,,1.3988,,,,,,,,,,,,,,,,,,,,,,61031c95c9b3c0c70b9f60a7,61036dffeff4554e65c63561,2021-07-29_20h19.05.827,Simcolourproject_2stim_asymm_v5,2020.2.10,Linux x86_64,60,61025ae37ef11b136ea224fe,,,,,,,,,1503,104.699646,39.37237549,1,0,0,response1disk,,6,-28.03369141,-0.017822266,1,0,0,rectangle,-28.03369141,-0.017822266,1,0,0,-28.03369141,-0.017822266,1,0,0,0,118,118,19,1,,,,,,,,
,,,,,,,,,,,,,FF,,,,,,,,0.9157,,,,,,,,,,,,,,,,,,,,,,61031c95c9b3c0c70b9f60a7,61036dffeff4554e65c63561,2021-07-29_20h19.05.827,Simcolourproject_2stim_asymm_v5,2020.2.10,Linux x86_64,60,61025ae37ef11b136ea224fe,,,,,,,,,3608,43.17034912,-110.8545837,1,0,0,response3disk,,4,-16.11462402,-5.8777771,1,0,0,rectangle,-16.11462402,-5.8777771,1,0,0,-16.11462402,-5.8777771,1,0,0,0,119,119,26,1,,,,,,,,
,,,,,,,,,,,,,FF,,,,,,,,0.8651,,,,,,,,,,,,,,,,,,,,,,61031c95c9b3c0c70b9f60a7,61036dffeff4554e65c63561,2021-07-29_20h19.05.827,Simcolourproject_2stim_asymm_v5,2020.2.10,Linux x86_64,60,61025ae37ef11b136ea224fe,,,,,,,,,3896,-32.74249268,-80.50466919,1,0,0,response5disk,,3,-15.41925049,-0.963226318,1,0,0,rectangle,-15.41925049,-0.963226318,1,0,0,-15.41925049,-0.963226318,1,0,0,0,120,120,132,1,,,,,,,,
,,,,,,,,,,,,,FF,,,,,,,,0.9325,,,,,,,,,,,,,,,,,,,,,,61031c95c9b3c0c70b9f60a7,61036dffeff4554e65c63561,2021-07-29_20h19.05.827,Simcolourproject_2stim_asymm_v5,2020.2.10,Linux x86_64,60,61025ae37ef11b136ea224fe,,,,,,,,,466,-30.97528076,-57.68771362,1,0,0,response5disk,,3,-11.53546143,-8.935516357,1,0,0,rectangle,-11.53546143,-8.935516357,1,0,0,-11.53546143,-8.935516357,1,0,0,0,121,121,105,1,,,,,,,,
,,,,,,,,,,,,,FF,,,,,,,,1.7649,,,,,,,,,,,,,,,,,,,,,,61031c95c9b3c0c70b9f60a7,61036dffeff4554e65c63561,2021-07-29_20h19.05.827,Simcolourproject_2stim_asymm_v5,2020.2.10,Linux x86_64,60,61025ae37ef11b136ea224fe,,,,,,,,,1271,-32.72930908,-74.96826172,1,0,0,response5disk,,3,-5.507568359,-3.138031006,1,0,0,rectangle,-5.507568359,-3.138031006,1,0,0,-5.507568359,-3.138031006,1,0,0,0,122,122,7,1,,,,,,,,
,,,,,,,,,,,,,FF,,,,,,,,1.3147,,,,,,,,,,,,,,,,,,,,,,61031c95c9b3c0c70b9f60a7,61036dffeff4554e65c63561,2021-07-29_20h19.05.827,Simcolourproject_2stim_asymm_v5,2020.2.10,Linux x86_64,60,61025ae37ef11b136ea224fe,,,,,,,,,387,67.70300293,-67.80706787,1,0,0,response3disk,,4,12.67144775,-6.274200439,1,0,0,rectangle,12.67144775,-6.274200439,1,0,0,12.67144775,-6.274200439,1,0,0,0,123,123,86,1,,,,,,,,
,,,,,,,,,,,,,FF,,,,,,,,1.582,,,,,,,,,,,,,,,,,,,,,,61031c95c9b3c0c70b9f60a7,61036dffeff4554e65c63561,2021-07-29_20h19.05.827,Simcolourproject_2stim_asymm_v5,2020.2.10,Linux x86_64,60,61025ae37ef11b136ea224fe,,,,,,,,,3202,-111.1977539,-25.36480713,1,0,0,response5disk,,2,10.39630127,2.87310791,1,0,0,rectangle,10.39630127,2.87310791,1,0,0,10.39630127,2.87310791,1,0,0,0,124,124,15,1,,,,,,,,
,,,,,,,,,,,,,FF,,,,,,,,0.916,,,,,,,,,,,,,,,,,,,,,,61031c95c9b3c0c70b9f60a7,61036dffeff4554e65c63561,2021-07-29_20h19.05.827,Simcolourproject_2stim_asymm_v5,2020.2.10,Linux x86_64,60,61025ae37ef11b136ea224fe,,,,,,,,,256,-75.81292725,-37.18914795,1,0,0,response5disk,,2,-18.5715332,-8.056182861,1,0,0,rectangle,-18.5715332,-8.056182861,1,0,0,-18.5715332,-8.056182861,1,0,0,0,125,125,46,1,,,,,,,,
,,,,,,,,,,,,,FF,,,,,,,,0.8159,,,,,,,,,,,,,,,,,,,,,,61031c95c9b3c0c70b9f60a7,61036dffeff4554e65c63561,2021-07-29_20h19.05.827,Simcolourproject_2stim_asymm_v5,2020.2.10,Linux x86_64,60,61025ae37ef11b136ea224fe,,,,,,,,,905,-76.05883789,-39.18319702,1,0,0,response5disk,,2,-16.20257568,-10.9475708,1,0,0,rectangle,-16.20257568,-10.9475708,1,0,0,-16.20257568,-10.9475708,1,0,0,0,126,126,114,1,,,,,,,,
,,,,,,,,,,,,,FF,,,,,,,,0.8513,,,,,,,,,,,,,,,,,,,,,,61031c95c9b3c0c70b9f60a7,61036dffeff4554e65c63561,2021-07-29_20h19.05.827,Simcolourproject_2stim_asymm_v5,2020.2.10,Linux x86_64,60,61025ae37ef11b136ea224fe,,,,,,,,,4021,-76.67102051,38.63754272,1,0,0,response7disk,,1,-28.3526001,4.304138184,1,0,0,rectangle,-28.3526001,4.304138184,1,0,0,-28.3526001,4.304138184,1,0,0,0,127,127,92,1,,,,,,,,
,,,,,,,,,,,,,FF,,,,,,,,1.781,,,,,,,,,,,,,,,,,,,,,,61031c95c9b3c0c70b9f60a7,61036dffeff4554e65c63561,2021-07-29_20h19.05.827,Simcolourproject_2stim_asymm_v5,2020.2.10,Linux x86_64,60,61025ae37ef11b136ea224fe,,,,,,,,,248,-64.28009033,-21.49093628,1,0,0,response5disk,,2,-1.84753418,-5.955566406,1,0,0,rectangle,-1.84753418,-5.955566406,1,0,0,-1.84753418,-5.955566406,1,0,0,0,128,128,141,1,,,,,,,,
,,,,,,,,,,,,,FF,,,,,,,,1.2999,,,,,,,,,,,,,,,,,,,,,,61031c95c9b3c0c70b9f60a7,61036dffeff4554e65c63561,2021-07-29_20h19.05.827,Simcolourproject_2stim_asymm_v5,2020.2.10,Linux x86_64,60,61025ae37ef11b136ea224fe,,,,,,,,,3272,50.69433594,87.00280762,1,0,0,response1disk,,7,2.567321777,2.929351807,1,0,0,rectangle,2.567321777,2.929351807,1,0,0,2.567321777,2.929351807,1,0,0,0,129,129,126,1,,,,,,,,
,,,,,,,,,,,,,FF,,,,,,,,1.1157,,,,,,,,,,,,,,,,,,,,,,61031c95c9b3c0c70b9f60a7,61036dffeff4554e65c63561,2021-07-29_20h19.05.827,Simcolourproject_2stim_asymm_v5,2020.2.10,Linux x86_64,60,61025ae37ef11b136ea224fe,,,,,,,,,3227,45.08496094,25.09921265,1,0,0,response1disk,,6,-7.80078125,-2.644195557,1,0,0,rectangle,-7.80078125,-2.644195557,1,0,0,-7.80078125,-2.644195557,1,0,0,0,130,130,13,1,,,,,,,,
,,,,,,,,,,,,,FF,,,,,,,,1.3987,,,,,,,,,,,,,,,,,,,,,,61031c95c9b3c0c70b9f60a7,61036dffeff4554e65c63561,2021-07-29_20h19.05.827,Simcolourproject_2stim_asymm_v5,2020.2.10,Linux x86_64,60,61025ae37ef11b136ea224fe,,,,,,,,,2396,31.64593506,57.7038269,1,0,0,response1disk,,7,18.16906738,7.310760498,1,0,0,rectangle,18.16906738,7.310760498,1,0,0,18.16906738,7.310760498,1,0,0,0,131,131,140,1,,,,,,,,
,,,,,,,,,,,,,FF,,,,,,,,1.9157,,,,,,,,,,,,,,,,,,,,,,61031c95c9b3c0c70b9f60a7,61036dffeff4554e65c63561,2021-07-29_20h19.05.827,Simcolourproject_2stim_asymm_v5,2020.2.10,Linux x86_64,60,61025ae37ef11b136ea224fe,,,,,,,,,4122,-68.01593018,-36.44744873,1,0,0,response5disk,,2,-14.83831787,-10.95330811,1,0,0,rectangle,-14.83831787,-10.95330811,1,0,0,-14.83831787,-10.95330811,1,0,0,0,132,132,5,1,,,,,,,,
,,,,,,,,,,,,,FF,,,,,,,,0.9328,,,,,,,,,,,,,,,,,,,,,,61031c95c9b3c0c70b9f60a7,61036dffeff4554e65c63561,2021-07-29_20h19.05.827,Simcolourproject_2stim_asymm_v5,2020.2.10,Linux x86_64,60,61025ae37ef11b136ea224fe,,,,,,,,,1488,-31.53631592,-86.87423706,1,0,0,response5disk,,3,-10.64794922,-0.417297363,1,0,0,rectangle,-10.64794922,-0.417297363,1,0,0,-10.64794922,-0.417297363,1,0,0,0,133,133,124,1,,,,,,,,
,,,,,,,,,,,,,FF,,,,,,,,0.8825,,,,,,,,,,,,,,,,,,,,,,61031c95c9b3c0c70b9f60a7,61036dffeff4554e65c63561,2021-07-29_20h19.05.827,Simcolourproject_2stim_asymm_v5,2020.2.10,Linux x86_64,60,61025ae37ef11b136ea224fe,,,,,,,,,4000,-78.20367432,-44.4597168,1,0,0,response5disk,,2,-8.51361084,11.86691284,1,0,0,rectangle,-8.51361084,11.86691284,1,0,0,-8.51361084,11.86691284,1,0,0,0,134,134,87,1,,,,,,,,
,,,,,,,,,,,,,FF,,,,,,,,1.6146,,,,,,,,,,,,,,,,,,,,,,61031c95c9b3c0c70b9f60a7,61036dffeff4554e65c63561,2021-07-29_20h19.05.827,Simcolourproject_2stim_asymm_v5,2020.2.10,Linux x86_64,60,61025ae37ef11b136ea224fe,,,,,,,,,4060,-85.28057861,-54.8187561,1,0,0,response5disk,,2,-6.895324707,5.921813965,1,0,0,rectangle,19.10693359,-67.53521729,1,0,0,0.304077148,-1.681488037,1,0,0,0,135,135,123,1,,response3disk_3,TRUE,4,4,"[290,154,235,171,136,86,204,93,89,95,266,191,141,261,157,263,258,170,191,233]",2.8146,rectangle
,,,,,,,,,,,,,FF,,,,,,,,0.966,,,,,,,,,,,,,,,,,,,,,,61031c95c9b3c0c70b9f60a7,61036dffeff4554e65c63561,2021-07-29_20h19.05.827,Simcolourproject_2stim_asymm_v5,2020.2.10,Linux x86_64,60,61025ae37ef11b136ea224fe,,,,,,,,,473,-34.45019531,-66.87606812,1,0,0,response5disk,,3,11.93157959,2.958679199,1,0,0,rectangle,11.93157959,2.958679199,1,0,0,11.93157959,2.958679199,1,0,0,0,136,136,69,1,,,,,,,,
,,,,,,,,,,,,,FF,,,,,,,,0.9659,,,,,,,,,,,,,,,,,,,,,,61031c95c9b3c0c70b9f60a7,61036dffeff4554e65c63561,2021-07-29_20h19.05.827,Simcolourproject_2stim_asymm_v5,2020.2.10,Linux x86_64,60,61025ae37ef11b136ea224fe,,,,,,,,,2010,31.2366333,-63.45123291,1,0,0,response3disk,,4,4.899169922,1.473724365,1,0,0,rectangle,4.899169922,1.473724365,1,0,0,4.899169922,1.473724365,1,0,0,0,137,137,78,1,,,,,,,,
,,,,,,,,,,,,,FF,,,,,,,,0.9663,,,,,,,,,,,,,,,,,,,,,,61031c95c9b3c0c70b9f60a7,61036dffeff4554e65c63561,2021-07-29_20h19.05.827,Simcolourproject_2stim_asymm_v5,2020.2.10,Linux x86_64,60,61025ae37ef11b136ea224fe,,,,,,,,,2092,78.48504639,-32.70819092,1,0,0,response3disk,,5,16.06762695,2.87121582,1,0,0,rectangle,16.06762695,2.87121582,1,0,0,16.06762695,2.87121582,1,0,0,0,138,138,51,1,,,,,,,,
,,,,,,,,,,,,,FF,,,,,,,,1.2984,,,,,,,,,,,,,,,,,,,,,,61031c95c9b3c0c70b9f60a7,61036dffeff4554e65c63561,2021-07-29_20h19.05.827,Simcolourproject_2stim_asymm_v5,2020.2.10,Linux x86_64,60,61025ae37ef11b136ea224fe,,,,,,,,,976,-87.15155029,-44.04754639,1,0,0,response5disk,,2,-10.0234375,7.357574463,1,0,0,rectangle,-10.0234375,7.357574463,1,0,0,-10.0234375,7.357574463,1,0,0,0,139,139,71,1,,,,,,,,
,,,,,,,,,,,,,FF,,,,,,,,1.249,,,,,,,,,,,,,,,,,,,,,,61031c95c9b3c0c70b9f60a7,61036dffeff4554e65c63561,2021-07-29_20h19.05.827,Simcolourproject_2stim_asymm_v5,2020.2.10,Linux x86_64,60,61025ae37ef11b136ea224fe,,,,,,,,,127,56.75567627,-31.74636841,1,0,0,response3disk,,5,7.837463379,-11.6708374,1,0,0,rectangle,88.66912842,-36.99743652,1,0,0,-4.219421387,2.030548096,1,0,0,0,140,140,14,1,,response3disk_3,TRUE,5,5,"[290,154,235,171,136,86,204,93,89,95,266,191,141,261,157,263,258,170,191,233]",2.1142,rectangle
,,,,,,,,,,,,,FF,,,,,,,,1.4653,,,,,,,,,,,,,,,,,,,,,,61031c95c9b3c0c70b9f60a7,61036dffeff4554e65c63561,2021-07-29_20h19.05.827,Simcolourproject_2stim_asymm_v5,2020.2.10,Linux x86_64,60,61025ae37ef11b136ea224fe,,,,,,,,,2428,-78.82092285,-40.51922607,1,0,0,response5disk,,2,-11.64489746,5.065551758,1,0,0,rectangle,-11.64489746,5.065551758,1,0,0,-11.64489746,5.065551758,1,0,0,0,141,141,113,1,,,,,,,,
,,,,,,,,,,,,,FF,,,,,,,,1.5313,,,,,,,,,,,,,,,,,,,,,,61031c95c9b3c0c70b9f60a7,61036dffeff4554e65c63561,2021-07-29_20h19.05.827,Simcolourproject_2stim_asymm_v5,2020.2.10,Linux x86_64,60,61025ae37ef11b136ea224fe,,,,,,,,,2225,77.234375,22.08758545,1,0,0,response1disk,,6,10.99102783,1.376525879,1,0,0,rectangle,10.99102783,1.376525879,1,0,0,10.99102783,1.376525879,1,0,0,0,142,142,119,1,,,,,,,,
,,,,,,,,,,,,,FF,,,,,,,,1.0323,,,,,,,,,,,,,,,,,,,,,,61031c95c9b3c0c70b9f60a7,61036dffeff4554e65c63561,2021-07-29_20h19.05.827,Simcolourproject_2stim_asymm_v5,2020.2.10,Linux x86_64,60,61025ae37ef11b136ea224fe,,,,,,,,,3850,-86.30090332,45.00363159,1,0,0,response7disk,,1,-15.54187012,6.121307373,1,0,0,rectangle,-15.54187012,6.121307373,1,0,0,-15.54187012,6.121307373,1,0,0,0,143,143,110,1,,,,,,,,
,,,,,,,,,,,,,FF,,,,,,,,0.9995,,,,,,,,,,,,,,,,,,,,,,61031c95c9b3c0c70b9f60a7,61036dffeff4554e65c63561,2021-07-29_20h19.05.827,Simcolourproject_2stim_asymm_v5,2020.2.10,Linux x86_64,60,61025ae37ef11b136ea224fe,,,,,,,,,3686,-33.98974609,-62.64660645,1,0,0,response5disk,,3,-14.80474854,-1.053436279,1,0,0,rectangle,-14.80474854,-1.053436279,1,0,0,-14.80474854,-1.053436279,1,0,0,0,144,144,50,1,,,,,,,,
,,,,,,,,,,,,,FF,,,,,,,,1.0487,,,,,,,,,,,,,,,,,,,,,,61031c95c9b3c0c70b9f60a7,61036dffeff4554e65c63561,2021-07-29_20h19.05.827,Simcolourproject_2stim_asymm_v5,2020.2.10,Linux x86_64,60,61025ae37ef11b136ea224fe,,,,,,,,,2703,58.74780273,-41.28363037,1,0,0,response3disk,,5,-0.875549316,-2.50567627,1,0,0,rectangle,-0.875549316,-2.50567627,1,0,0,-0.875549316,-2.50567627,1,0,0,0,145,145,24,1,,,,,,,,
,,,,,,,,,,,,,FF,,,,,,,,1.0324,,,,,,,,,,,,,,,,,,,,,,61031c95c9b3c0c70b9f60a7,61036dffeff4554e65c63561,2021-07-29_20h19.05.827,Simcolourproject_2stim_asymm_v5,2020.2.10,Linux x86_64,60,61025ae37ef11b136ea224fe,,,,,,,,,928,67.50921631,-20.22772217,1,0,0,response3disk,,5,20.38568115,-1.315338135,1,0,0,rectangle,20.38568115,-1.315338135,1,0,0,20.38568115,-1.315338135,1,0,0,0,146,146,151,1,,,,,,,,
,,,,,,,,,,,,,FF,,,,,,,,1.582,,,,,,,,,,,,,,,,,,,,,,61031c95c9b3c0c70b9f60a7,61036dffeff4554e65c63561,2021-07-29_20h19.05.827,Simcolourproject_2stim_asymm_v5,2020.2.10,Linux x86_64,60,61025ae37ef11b136ea224fe,,,,,,,,,617,-22.17004395,-86.68743896,1,0,0,response5disk,,3,-18.84448242,-10.42572021,1,0,0,rectangle,-18.84448242,-10.42572021,1,0,0,-18.84448242,-10.42572021,1,0,0,0,147,147,122,1,,,,,,,,
,,,,,,,,,,,,,FF,,,,,,,,1.3653,,,,,,,,,,,,,,,,,,,,,,61031c95c9b3c0c70b9f60a7,61036dffeff4554e65c63561,2021-07-29_20h19.05.827,Simcolourproject_2stim_asymm_v5,2020.2.10,Linux x86_64,60,61025ae37ef11b136ea224fe,,,,,,,,,4317,-32.8046875,-81.25894165,1,0,0,response5disk,,3,-1.976806641,-9.028167725,1,0,0,rectangle,-1.976806641,-9.028167725,1,0,0,-1.976806641,-9.028167725,1,0,0,0,148,148,21,1,,,,,,,,
,,,,,,,,,,,,,FF,,,,,,,,1.3322,,,,,,,,,,,,,,,,,,,,,,61031c95c9b3c0c70b9f60a7,61036dffeff4554e65c63561,2021-07-29_20h19.05.827,Simcolourproject_2stim_asymm_v5,2020.2.10,Linux x86_64,60,61025ae37ef11b136ea224fe,,,,,,,,,1646,26.67034912,-58.23632813,1,0,0,response3disk,,4,0.499572754,-4.046478271,1,0,0,rectangle,0.499572754,-4.046478271,1,0,0,0.499572754,-4.046478271,1,0,0,0,149,149,29,1,,,,,,,,
,,,,,,,,,,,,,FF,,,,,,,,1.0657,,,,,,,,,,,,,,,,,,,,,,61031c95c9b3c0c70b9f60a7,61036dffeff4554e65c63561,2021-07-29_20h19.05.827,Simcolourproject_2stim_asymm_v5,2020.2.10,Linux x86_64,60,61025ae37ef11b136ea224fe,,,,,,,,,1844,36.41876221,-53.81451416,1,0,0,response3disk,,4,-14.01202393,5.538848877,1,0,0,rectangle,-14.01202393,5.538848877,1,0,0,-14.01202393,5.538848877,1,0,0,0,150,150,149,1,,,,,,,,
,,,,,,,,,,,,,FF,,,,,,,,1.0159,,,,,,,,,,,,,,,,,,,,,,61031c95c9b3c0c70b9f60a7,61036dffeff4554e65c63561,2021-07-29_20h19.05.827,Simcolourproject_2stim_asymm_v5,2020.2.10,Linux x86_64,60,61025ae37ef11b136ea224fe,,,,,,,,,3741,-71.96246338,37.52627563,1,0,0,response7disk,,1,-5.759887695,-7.172424316,1,0,0,rectangle,-5.759887695,-7.172424316,1,0,0,-5.759887695,-7.172424316,1,0,0,0,151,151,45,1,,,,,,,,
,,,,,,,,,,,,,FF,,,,,,,,4.2292,,,,,,,,,,,,,,,,,,,,,,61031c95c9b3c0c70b9f60a7,61036dffeff4554e65c63561,2021-07-29_20h19.05.827,Simcolourproject_2stim_asymm_v5,2020.2.10,Linux x86_64,60,61025ae37ef11b136ea224fe,,,,,,,,,2937,98.08343506,-37.19372559,1,0,0,response3disk,,5,-0.574279785,2.608337402,1,0,0,rectangle,-0.574279785,2.608337402,1,0,0,-0.574279785,2.608337402,1,0,0,0,152,152,121,1,,,,,,,,
,,,,,,,,,,,,,FF,,,,,,,,1.632,,,,,,,,,,,,,,,,,,,,,,61031c95c9b3c0c70b9f60a7,61036dffeff4554e65c63561,2021-07-29_20h19.05.827,Simcolourproject_2stim_asymm_v5,2020.2.10,Linux x86_64,60,61025ae37ef11b136ea224fe,,,,,,,,,1955,18.22015381,-78.27075195,1,0,0,response3disk,,4,-6.026306152,1.340637207,1,0,0,rectangle,31.88977051,100.8890076,1,0,0,-3.934082031,-11.79855347,1,0,0,0,153,153,155,1,,response1disk_3,TRUE,7,7,"[290,154,235,171,136,86,204,93,89,95,266,191,141,261,157,263,258,170,191,233]",2.064,rectangle
,,,,,,,,,,,,,FF,,,,,,,,2.1487,,,,,,,,,,,,,,,,,,,,,,61031c95c9b3c0c70b9f60a7,61036dffeff4554e65c63561,2021-07-29_20h19.05.827,Simcolourproject_2stim_asymm_v5,2020.2.10,Linux x86_64,60,61025ae37ef11b136ea224fe,,,,,,,,,1365,-35.39697266,-67.46066284,1,0,0,response5disk,,3,-11.09881592,-4.176422119,1,0,0,rectangle,-11.09881592,-4.176422119,1,0,0,-11.09881592,-4.176422119,1,0,0,0,154,154,58,1,,,,,,,,
,,,,,,,,,,,,,FF,,,,,,,,1.8986,,,,,,,,,,,,,,,,,,,,,,61031c95c9b3c0c70b9f60a7,61036dffeff4554e65c63561,2021-07-29_20h19.05.827,Simcolourproject_2stim_asymm_v5,2020.2.10,Linux x86_64,60,61025ae37ef11b136ea224fe,,,,,,,,,2522,54.91387939,-21.94985962,1,0,0,response3disk,,5,4.102905273,12.5614624,1,0,0,rectangle,4.102905273,12.5614624,1,0,0,4.102905273,12.5614624,1,0,0,0,155,155,147,1,,,,,,,,
,,,,,,,,,,,,,FF,,,,,,,,1.9311,,,,,,,,,,,,,,,,,,,,,,61031c95c9b3c0c70b9f60a7,61036dffeff4554e65c63561,2021-07-29_20h19.05.827,Simcolourproject_2stim_asymm_v5,2020.2.10,Linux x86_64,60,61025ae37ef11b136ea224fe,,,,,,,,,884,26.07250977,-46.24450684,1,0,0,response3disk,,4,-3.183654785,-1.410400391,1,0,0,rectangle,-41.83496094,-88.68804932,1,0,0,-16.01483154,-4.728668213,1,0,0,0,156,156,104,1,,response5disk_3,TRUE,3,3,"[290,154,235,171,136,86,204,93,89,95,266,191,141,261,157,263,258,170,191,233]",1.9815,rectangle
,,,,,,,,,,,,,FF,,,,,,,,1.2343,,,,,,,,,,,,,,,,,,,,,,61031c95c9b3c0c70b9f60a7,61036dffeff4554e65c63561,2021-07-29_20h19.05.827,Simcolourproject_2stim_asymm_v5,2020.2.10,Linux x86_64,60,61025ae37ef11b136ea224fe,,,,,,,,,3773,55.62243652,-77.15789795,1,0,0,response3disk,,4,-21.28729248,3.257965088,1,0,0,rectangle,-21.28729248,3.257965088,1,0,0,-21.28729248,3.257965088,1,0,0,0,157,157,150,1,,,,,,,,
,,,,,,,,,,,,,FF,,,,,,,,1.0992,,,,,,,,,,,,,,,,,,,,,,61031c95c9b3c0c70b9f60a7,61036dffeff4554e65c63561,2021-07-29_20h19.05.827,Simcolourproject_2stim_asymm_v5,2020.2.10,Linux x86_64,60,61025ae37ef11b136ea224fe,,,,,,,,,1069,-30.02807617,-59.15609741,1,0,0,response5disk,,3,-13.17596436,-8.499908447,1,0,0,rectangle,-13.17596436,-8.499908447,1,0,0,-13.17596436,-8.499908447,1,0,0,0,158,158,129,1,,,,,,,,
,,,,,,,,,,,,,FF,,,,,,,,2.1983,,,,,,,,,,,,,,,,,,,,,,61031c95c9b3c0c70b9f60a7,61036dffeff4554e65c63561,2021-07-29_20h19.05.827,Simcolourproject_2stim_asymm_v5,2020.2.10,Linux x86_64,60,61025ae37ef11b136ea224fe,,,,,,,,,1635,74.22277832,27.09628296,1,0,0,response1disk,,6,26.07397461,2.593963623,1,0,0,rectangle,26.07397461,2.593963623,1,0,0,26.07397461,2.593963623,1,0,0,0,159,159,52,1,,,,,,,,
,,,,,,,,,,,,,FF,,,,,,,,1.1489,,,,,,,,,,,,,,,,,,,,,,61031c95c9b3c0c70b9f60a7,61036dffeff4554e65c63561,2021-07-29_20h19.05.827,Simcolourproject_2stim_asymm_v5,2020.2.10,Linux x86_64,60,61025ae37ef11b136ea224fe,,,,,,,,,1429,40.39068604,-68.1388855,1,0,0,response3disk,,4,1.196350098,-5.941040039,1,0,0,rectangle,1.196350098,-5.941040039,1,0,0,1.196350098,-5.941040039,1,0,0,1,0,160,100,1,,,,,,,,
,,,,,,,,,,,,,FF,,,,,,,,1.1988,,,,,,,,,,,,,,,,,,,,,,61031c95c9b3c0c70b9f60a7,61036dffeff4554e65c63561,2021-07-29_20h19.05.827,Simcolourproject_2stim_asymm_v5,2020.2.10,Linux x86_64,60,61025ae37ef11b136ea224fe,,,,,,,,,2222,18.2298584,-45.73052979,1,0,0,response3disk,,4,-12.09973145,-4.902740479,1,0,0,rectangle,-12.09973145,-4.902740479,1,0,0,-12.09973145,-4.902740479,1,0,0,1,1,161,143,1,,,,,,,,
,,,,,,,,,,,,,FF,,,,,,,,1.2487,,,,,,,,,,,,,,,,,,,,,,61031c95c9b3c0c70b9f60a7,61036dffeff4554e65c63561,2021-07-29_20h19.05.827,Simcolourproject_2stim_asymm_v5,2020.2.10,Linux x86_64,60,61025ae37ef11b136ea224fe,,,,,,,,,3312,99.58740234,-31.0557251,1,0,0,response3disk,,5,-11.2479248,-0.098052979,1,0,0,rectangle,-11.2479248,-0.098052979,1,0,0,-11.2479248,-0.098052979,1,0,0,1,2,162,35,1,,,,,,,,
,,,,,,,,,,,,,FF,,,,,,,,1.349,,,,,,,,,,,,,,,,,,,,,,61031c95c9b3c0c70b9f60a7,61036dffeff4554e65c63561,2021-07-29_20h19.05.827,Simcolourproject_2stim_asymm_v5,2020.2.10,Linux x86_64,60,61025ae37ef11b136ea224fe,,,,,,,,,3513,-109.6102295,-51.55682373,1,0,0,response5disk,,2,-12.58666992,-2.874237061,1,0,0,rectangle,-12.58666992,-2.874237061,1,0,0,-12.58666992,-2.874237061,1,0,0,1,3,163,3,1,,,,,,,,
,,,,,,,,,,,,,FF,,,,,,,,1.1826,,,,,,,,,,,,,,,,,,,,,,61031c95c9b3c0c70b9f60a7,61036dffeff4554e65c63561,2021-07-29_20h19.05.827,Simcolourproject_2stim_asymm_v5,2020.2.10,Linux x86_64,60,61025ae37ef11b136ea224fe,,,,,,,,,3310,34.6394043,-58.49859619,1,0,0,response3disk,,4,6.586120605,-12.29382324,1,0,0,rectangle,6.586120605,-12.29382324,1,0,0,6.586120605,-12.29382324,1,0,0,1,4,164,26,1,,,,,,,,
,,,,,,,,,,,,,FF,,,,,,,,1.3319,,,,,,,,,,,,,,,,,,,,,,61031c95c9b3c0c70b9f60a7,61036dffeff4554e65c63561,2021-07-29_20h19.05.827,Simcolourproject_2stim_asymm_v5,2020.2.10,Linux x86_64,60,61025ae37ef11b136ea224fe,,,,,,,,,2536,56.37060547,-57.14517212,1,0,0,response3disk,,4,10.18487549,5.598693848,1,0,0,rectangle,10.18487549,5.598693848,1,0,0,10.18487549,5.598693848,1,0,0,1,5,165,130,1,,,,,,,,
,,,,,,,,,,,,,FF,,,,,,,,0.9822,,,,,,,,,,,,,,,,,,,,,,61031c95c9b3c0c70b9f60a7,61036dffeff4554e65c63561,2021-07-29_20h19.05.827,Simcolourproject_2stim_asymm_v5,2020.2.10,Linux x86_64,60,61025ae37ef11b136ea224fe,,,,,,,,,1149,-33.21405029,-89.91485596,1,0,0,response5disk,,3,-1.599853516,-9.180541992,1,0,0,rectangle,-1.599853516,-9.180541992,1,0,0,-1.599853516,-9.180541992,1,0,0,1,6,166,134,1,,,,,,,,
,,,,,,,,,,,,,FF,,,,,,,,1.8817,,,,,,,,,,,,,,,,,,,,,,61031c95c9b3c0c70b9f60a7,61036dffeff4554e65c63561,2021-07-29_20h19.05.827,Simcolourproject_2stim_asymm_v5,2020.2.10,Linux x86_64,60,61025ae37ef11b136ea224fe,,,,,,,,,1038,-85.36584473,-30.95956421,1,0,0,response5disk,,2,-11.25708008,9.849060059,1,0,0,rectangle,-11.25708008,9.849060059,1,0,0,-11.25708008,9.849060059,1,0,0,1,7,167,65,1,,,,,,,,
,,,,,,,,,,,,,FF,,,,,,,,0.9663,,,,,,,,,,,,,,,,,,,,,,61031c95c9b3c0c70b9f60a7,61036dffeff4554e65c63561,2021-07-29_20h19.05.827,Simcolourproject_2stim_asymm_v5,2020.2.10,Linux x86_64,60,61025ae37ef11b136ea224fe,,,,,,,,,3855,-70.47387695,-25.0105896,1,0,0,response5disk,,2,-25.94824219,-12.38800049,1,0,0,rectangle,-25.94824219,-12.38800049,1,0,0,-25.94824219,-12.38800049,1,0,0,1,8,168,18,1,,,,,,,,
,,,,,,,,,,,,,FF,,,,,,,,1.2324,,,,,,,,,,,,,,,,,,,,,,61031c95c9b3c0c70b9f60a7,61036dffeff4554e65c63561,2021-07-29_20h19.05.827,Simcolourproject_2stim_asymm_v5,2020.2.10,Linux x86_64,60,61025ae37ef11b136ea224fe,,,,,,,,,1714,69.36669922,31.31921387,1,0,0,response1disk,,6,-8.263305664,5.226043701,1,0,0,rectangle,-27.51806641,119.20578,1,0,0,1.749084473,-7.84866333,1,0,0,1,9,169,30,1,,response7disk_3,TRUE,0,0,"[290,154,235,171,136,86,204,93,89,95,266,191,141,261,157,263,258,170,191,233]",1.8479,rectangle
,,,,,,,,,,,,,FF,,,,,,,,0.9821,,,,,,,,,,,,,,,,,,,,,,61031c95c9b3c0c70b9f60a7,61036dffeff4554e65c63561,2021-07-29_20h19.05.827,Simcolourproject_2stim_asymm_v5,2020.2.10,Linux x86_64,60,61025ae37ef11b136ea224fe,,,,,,,,,729,-56.10406494,-27.89047241,1,0,0,response5disk,,2,-12.91619873,4.012817383,1,0,0,rectangle,-83.5010376,-54.44702148,1,0,0,-7.492919922,0.080596924,1,0,0,1,10,170,97,1,,response5disk_3,TRUE,2,2,"[290,154,235,171,136,86,204,93,89,95,266,191,141,261,157,263,258,170,191,233]",3.3633,rectangle
,,,,,,,,,,,,,FF,,,,,,,,1.1154,,,,,,,,,,,,,,,,,,,,,,61031c95c9b3c0c70b9f60a7,61036dffeff4554e65c63561,2021-07-29_20h19.05.827,Simcolourproject_2stim_asymm_v5,2020.2.10,Linux x86_64,60,61025ae37ef11b136ea224fe,,,,,,,,,3105,-62.69567871,21.98101807,1,0,0,response7disk,,1,13.08068848,-6.649749756,1,0,0,rectangle,13.08068848,-6.649749756,1,0,0,13.08068848,-6.649749756,1,0,0,1,11,171,39,1,,,,,,,,
,,,,,,,,,,,,,FF,,,,,,,,1.4484,,,,,,,,,,,,,,,,,,,,,,61031c95c9b3c0c70b9f60a7,61036dffeff4554e65c63561,2021-07-29_20h19.05.827,Simcolourproject_2stim_asymm_v5,2020.2.10,Linux x86_64,60,61025ae37ef11b136ea224fe,,,,,,,,,3693,-79.5894165,-52.06420898,1,0,0,response5disk,,2,-14.7409668,11.17532349,1,0,0,rectangle,-14.7409668,11.17532349,1,0,0,-14.7409668,11.17532349,1,0,0,1,12,172,36,1,,,,,,,,
,,,,,,,,,,,,,FF,,,,,,,,1.3985,,,,,,,,,,,,,,,,,,,,,,61031c95c9b3c0c70b9f60a7,61036dffeff4554e65c63561,2021-07-29_20h19.05.827,Simcolourproject_2stim_asymm_v5,2020.2.10,Linux x86_64,60,61025ae37ef11b136ea224fe,,,,,,,,,1000,47.47021484,-17.65237427,1,0,0,response3disk,,5,22.17010498,-9.452667236,1,0,0,rectangle,22.17010498,-9.452667236,1,0,0,22.17010498,-9.452667236,1,0,0,1,13,173,29,1,,,,,,,,
,,,,,,,,,,,,,FF,,,,,,,,1.0327,,,,,,,,,,,,,,,,,,,,,,61031c95c9b3c0c70b9f60a7,61036dffeff4554e65c63561,2021-07-29_20h19.05.827,Simcolourproject_2stim_asymm_v5,2020.2.10,Linux x86_64,60,61025ae37ef11b136ea224fe,,,,,,,,,1835,-32.03497314,-51.02444458,1,0,0,response5disk,,3,-14.18041992,5.9921875,1,0,0,rectangle,-14.18041992,5.9921875,1,0,0,-14.18041992,5.9921875,1,0,0,1,14,174,48,1,,,,,,,,
,,,,,,,,,,,,,FF,,,,,,,,0.9491,,,,,,,,,,,,,,,,,,,,,,61031c95c9b3c0c70b9f60a7,61036dffeff4554e65c63561,2021-07-29_20h19.05.827,Simcolourproject_2stim_asymm_v5,2020.2.10,Linux x86_64,60,61025ae37ef11b136ea224fe,,,,,,,,,436,-65.71533203,53.86486816,1,0,0,response7disk,,1,-9.320739746,14.52182007,1,0,0,rectangle,-9.320739746,14.52182007,1,0,0,-9.320739746,14.52182007,1,0,0,1,15,175,82,1,,,,,,,,
,,,,,,,,,,,,,FF,,,,,,,,1.0326,,,,,,,,,,,,,,,,,,,,,,61031c95c9b3c0c70b9f60a7,61036dffeff4554e65c63561,2021-07-29_20h19.05.827,Simcolourproject_2stim_asymm_v5,2020.2.10,Linux x86_64,60,61025ae37ef11b136ea224fe,,,,,,,,,3018,88.87103271,44.95117188,1,0,0,response1disk,,6,-4.682800293,1.815582275,1,0,0,rectangle,-4.682800293,1.815582275,1,0,0,-4.682800293,1.815582275,1,0,0,1,16,176,128,1,,,,,,,,
,,,,,,,,,,,,,FF,,,,,,,,1.2156,,,,,,,,,,,,,,,,,,,,,,61031c95c9b3c0c70b9f60a7,61036dffeff4554e65c63561,2021-07-29_20h19.05.827,Simcolourproject_2stim_asymm_v5,2020.2.10,Linux x86_64,60,61025ae37ef11b136ea224fe,,,,,,,,,4257,15.93988037,52.70266724,1,0,0,response1disk,,7,-9.952209473,-7.50201416,1,0,0,rectangle,-9.952209473,-7.50201416,1,0,0,-9.952209473,-7.50201416,1,0,0,1,17,177,133,1,,,,,,,,
,,,,,,,,,,,,,FF,,,,,,,,1.1821,,,,,,,,,,,,,,,,,,,,,,61031c95c9b3c0c70b9f60a7,61036dffeff4554e65c63561,2021-07-29_20h19.05.827,Simcolourproject_2stim_asymm_v5,2020.2.10,Linux x86_64,60,61025ae37ef11b136ea224fe,,,,,,,,,411,60.94824219,19.65365601,1,0,0,response1disk,,6,10.69177246,-1.037322998,1,0,0,rectangle,10.69177246,-1.037322998,1,0,0,10.69177246,-1.037322998,1,0,0,1,18,178,50,1,,,,,,,,
,,,,,,,,,,,,,FF,,,,,,,,1.0992,,,,,,,,,,,,,,,,,,,,,,61031c95c9b3c0c70b9f60a7,61036dffeff4554e65c63561,2021-07-29_20h19.05.827,Simcolourproject_2stim_asymm_v5,2020.2.10,Linux x86_64,60,61025ae37ef11b136ea224fe,,,,,,,,,457,-64.05328369,-24.24578857,1,0,0,response5disk,,2,-7.565185547,4.061218262,1,0,0,rectangle,-7.565185547,4.061218262,1,0,0,-7.565185547,4.061218262,1,0,0,1,19,179,131,1,,,,,,,,
,,,,,,,,,,,,,FF,,,,,,,,1.0661,,,,,,,,,,,,,,,,,,,,,,61031c95c9b3c0c70b9f60a7,61036dffeff4554e65c63561,2021-07-29_20h19.05.827,Simcolourproject_2stim_asymm_v5,2020.2.10,Linux x86_64,60,61025ae37ef11b136ea224fe,,,,,,,,,1418,70.55609131,-34.46469116,1,0,0,response3disk,,5,19.50994873,-8.838806152,1,0,0,rectangle,19.50994873,-8.838806152,1,0,0,19.50994873,-8.838806152,1,0,0,1,20,180,98,1,,,,,,,,
,,,,,,,,,,,,,FF,,,,,,,,0.849,,,,,,,,,,,,,,,,,,,,,,61031c95c9b3c0c70b9f60a7,61036dffeff4554e65c63561,2021-07-29_20h19.05.827,Simcolourproject_2stim_asymm_v5,2020.2.10,Linux x86_64,60,61025ae37ef11b136ea224fe,,,,,,,,,2129,35.31555176,-51.13165283,1,0,0,response3disk,,4,8.509033203,-7.411773682,1,0,0,rectangle,8.509033203,-7.411773682,1,0,0,8.509033203,-7.411773682,1,0,0,1,21,181,21,1,,,,,,,,
,,,,,,,,,,,,,FF,,,,,,,,1.1653,,,,,,,,,,,,,,,,,,,,,,61031c95c9b3c0c70b9f60a7,61036dffeff4554e65c63561,2021-07-29_20h19.05.827,Simcolourproject_2stim_asymm_v5,2020.2.10,Linux x86_64,60,61025ae37ef11b136ea224fe,,,,,,,,,469,-25.39343262,-71.72076416,1,0,0,response5disk,,3,-17.97485352,-4.125793457,1,0,0,rectangle,-17.97485352,-4.125793457,1,0,0,-17.97485352,-4.125793457,1,0,0,1,22,182,87,1,,,,,,,,
,,,,,,,,,,,,,FF,,,,,,,,0.8995,,,,,,,,,,,,,,,,,,,,,,61031c95c9b3c0c70b9f60a7,61036dffeff4554e65c63561,2021-07-29_20h19.05.827,Simcolourproject_2stim_asymm_v5,2020.2.10,Linux x86_64,60,61025ae37ef11b136ea224fe,,,,,,,,,1250,-37.28283691,-52.27554321,1,0,0,response5disk,,3,-11.98040771,-1.637451172,1,0,0,rectangle,-11.98040771,-1.637451172,1,0,0,-11.98040771,-1.637451172,1,0,0,1,23,183,84,1,,,,,,,,
,,,,,,,,,,,,,FF,,,,,,,,0.9659,,,,,,,,,,,,,,,,,,,,,,61031c95c9b3c0c70b9f60a7,61036dffeff4554e65c63561,2021-07-29_20h19.05.827,Simcolourproject_2stim_asymm_v5,2020.2.10,Linux x86_64,60,61025ae37ef11b136ea224fe,,,,,,,,,2233,-73.74658203,32.90097046,1,0,0,response7disk,,1,-10.54797363,8.651275635,1,0,0,rectangle,-10.54797363,8.651275635,1,0,0,-10.54797363,8.651275635,1,0,0,1,24,184,9,1,,,,,,,,
,,,,,,,,,,,,,FF,,,,,,,,1.2655,,,,,,,,,,,,,,,,,,,,,,61031c95c9b3c0c70b9f60a7,61036dffeff4554e65c63561,2021-07-29_20h19.05.827,Simcolourproject_2stim_asymm_v5,2020.2.10,Linux x86_64,60,61025ae37ef11b136ea224fe,,,,,,,,,2317,55.69342041,-37.4649353,1,0,0,response3disk,,5,17.31347656,-1.049865723,1,0,0,rectangle,17.31347656,-1.049865723,1,0,0,17.31347656,-1.049865723,1,0,0,1,25,185,88,1,,,,,,,,
,,,,,,,,,,,,,FF,,,,,,,,1.1829,,,,,,,,,,,,,,,,,,,,,,61031c95c9b3c0c70b9f60a7,61036dffeff4554e65c63561,2021-07-29_20h19.05.827,Simcolourproject_2stim_asymm_v5,2020.2.10,Linux x86_64,60,61025ae37ef11b136ea224fe,,,,,,,,,1225,-93.54846191,45.56173706,1,0,0,response7disk,,1,-23.31054688,-3.335510254,1,0,0,rectangle,-23.31054688,-3.335510254,1,0,0,-23.31054688,-3.335510254,1,0,0,1,26,186,12,1,,,,,,,,
,,,,,,,,,,,,,FF,,,,,,,,1.7811,,,,,,,,,,,,,,,,,,,,,,61031c95c9b3c0c70b9f60a7,61036dffeff4554e65c63561,2021-07-29_20h19.05.827,Simcolourproject_2stim_asymm_v5,2020.2.10,Linux x86_64,60,61025ae37ef11b136ea224fe,,,,,,,,,2872,57.73010254,-38.24829102,1,0,0,response3disk,,5,15.97845459,-1.413391113,1,0,0,rectangle,15.97845459,-1.413391113,1,0,0,15.97845459,-1.413391113,1,0,0,1,27,187,49,1,,,,,,,,
,,,,,,,,,,,,,FF,,,,,,,,0.966,,,,,,,,,,,,,,,,,,,,,,61031c95c9b3c0c70b9f60a7,61036dffeff4554e65c63561,2021-07-29_20h19.05.827,Simcolourproject_2stim_asymm_v5,2020.2.10,Linux x86_64,60,61025ae37ef11b136ea224fe,,,,,,,,,2372,28.71917725,-53.67889404,1,0,0,response3disk,,4,-2.254577637,7.038879395,1,0,0,rectangle,-2.254577637,7.038879395,1,0,0,-2.254577637,7.038879395,1,0,0,1,28,188,81,1,,,,,,,,
,,,,,,,,,,,,,FF,,,,,,,,1.1163,,,,,,,,,,,,,,,,,,,,,,61031c95c9b3c0c70b9f60a7,61036dffeff4554e65c63561,2021-07-29_20h19.05.827,Simcolourproject_2stim_asymm_v5,2020.2.10,Linux x86_64,60,61025ae37ef11b136ea224fe,,,,,,,,,2801,41.49786377,-91.76898193,1,0,0,response3disk,,4,0.71685791,-12.84698486,1,0,0,rectangle,0.71685791,-12.84698486,1,0,0,0.71685791,-12.84698486,1,0,0,1,29,189,44,1,,,,,,,,
,,,,,,,,,,,,,FF,,,,,,,,1.5322,,,,,,,,,,,,,,,,,,,,,,61031c95c9b3c0c70b9f60a7,61036dffeff4554e65c63561,2021-07-29_20h19.05.827,Simcolourproject_2stim_asymm_v5,2020.2.10,Linux x86_64,60,61025ae37ef11b136ea224fe,,,,,,,,,1047,-55.03448486,-29.11376953,1,0,0,response5disk,,2,0.93572998,11.40264893,1,0,0,rectangle,-30.75592041,88.75305176,1,0,0,3.474365234,-3.379730225,1,0,0,1,30,190,1,1,,response7disk_3,TRUE,0,0,"[290,154,235,171,136,86,204,93,89,95,266,191,141,261,157,263,258,170,191,233]",1.4649,rectangle
,,,,,,,,,,,,,FF,,,,,,,,1.3653,,,,,,,,,,,,,,,,,,,,,,61031c95c9b3c0c70b9f60a7,61036dffeff4554e65c63561,2021-07-29_20h19.05.827,Simcolourproject_2stim_asymm_v5,2020.2.10,Linux x86_64,60,61025ae37ef11b136ea224fe,,,,,,,,,512,22.89678955,-42.85446167,1,0,0,response3disk,,4,2.155944824,-1.608276367,1,0,0,rectangle,2.155944824,-1.608276367,1,0,0,2.155944824,-1.608276367,1,0,0,1,31,191,125,1,,,,,,,,
,,,,,,,,,,,,,FF,,,,,,,,1.0989,,,,,,,,,,,,,,,,,,,,,,61031c95c9b3c0c70b9f60a7,61036dffeff4554e65c63561,2021-07-29_20h19.05.827,Simcolourproject_2stim_asymm_v5,2020.2.10,Linux x86_64,60,61025ae37ef11b136ea224fe,,,,,,,,,3653,59.76489258,-14.55050659,1,0,0,response3disk,,5,6.271728516,-3.993652344,1,0,0,rectangle,6.271728516,-3.993652344,1,0,0,6.271728516,-3.993652344,1,0,0,1,32,192,8,1,,,,,,,,
,,,,,,,,,,,,,FF,,,,,,,,1.7985,,,,,,,,,,,,,,,,,,,,,,61031c95c9b3c0c70b9f60a7,61036dffeff4554e65c63561,2021-07-29_20h19.05.827,Simcolourproject_2stim_asymm_v5,2020.2.10,Linux x86_64,60,61025ae37ef11b136ea224fe,,,,,,,,,304,74.93865967,-47.13900757,1,0,0,response3disk,,5,10.10186768,-3.282409668,1,0,0,rectangle,10.10186768,-3.282409668,1,0,0,10.10186768,-3.282409668,1,0,0,1,33,193,85,1,,,,,,,,
,,,,,,,,,,,,,FF,,,,,,,,0.9492,,,,,,,,,,,,,,,,,,,,,,61031c95c9b3c0c70b9f60a7,61036dffeff4554e65c63561,2021-07-29_20h19.05.827,Simcolourproject_2stim_asymm_v5,2020.2.10,Linux x86_64,60,61025ae37ef11b136ea224fe,,,,,,,,,3836,38.7644043,-28.96383667,1,0,0,response3disk,,5,-2.57824707,-3.039306641,1,0,0,rectangle,-2.57824707,-3.039306641,1,0,0,-2.57824707,-3.039306641,1,0,0,1,34,194,13,1,,,,,,,,
,,,,,,,,,,,,,FF,,,,,,,,0.9654,,,,,,,,,,,,,,,,,,,,,,61031c95c9b3c0c70b9f60a7,61036dffeff4554e65c63561,2021-07-29_20h19.05.827,Simcolourproject_2stim_asymm_v5,2020.2.10,Linux x86_64,60,61025ae37ef11b136ea224fe,,,,,,,,,879,28.12353516,-60.11795044,1,0,0,response3disk,,4,1.756469727,-11.11422729,1,0,0,rectangle,1.756469727,-11.11422729,1,0,0,1.756469727,-11.11422729,1,0,0,1,35,195,102,1,,,,,,,,
,,,,,,,,,,,,,FF,,,,,,,,0.9823,,,,,,,,,,,,,,,,,,,,,,61031c95c9b3c0c70b9f60a7,61036dffeff4554e65c63561,2021-07-29_20h19.05.827,Simcolourproject_2stim_asymm_v5,2020.2.10,Linux x86_64,60,61025ae37ef11b136ea224fe,,,,,,,,,2715,-70.08520508,25.66812134,1,0,0,response7disk,,1,-8.768920898,0.211608887,1,0,0,rectangle,-8.768920898,0.211608887,1,0,0,-8.768920898,0.211608887,1,0,0,1,36,196,57,1,,,,,,,,
,,,,,,,,,,,,,FF,,,,,,,,0.7827,,,,,,,,,,,,,,,,,,,,,,61031c95c9b3c0c70b9f60a7,61036dffeff4554e65c63561,2021-07-29_20h19.05.827,Simcolourproject_2stim_asymm_v5,2020.2.10,Linux x86_64,60,61025ae37ef11b136ea224fe,,,,,,,,,3928,84.33862305,49.13116455,1,0,0,response1disk,,6,-16.83239746,-11.25772095,1,0,0,rectangle,-16.83239746,-11.25772095,1,0,0,-16.83239746,-11.25772095,1,0,0,1,37,197,108,1,,,,,,,,
,,,,,,,,,,,,,FF,,,,,,,,1.0823,,,,,,,,,,,,,,,,,,,,,,61031c95c9b3c0c70b9f60a7,61036dffeff4554e65c63561,2021-07-29_20h19.05.827,Simcolourproject_2stim_asymm_v5,2020.2.10,Linux x86_64,60,61025ae37ef11b136ea224fe,,,,,,,,,2297,-63.17645264,23.28222656,1,0,0,response7disk,,1,-25.61566162,2.510955811,1,0,0,rectangle,-25.61566162,2.510955811,1,0,0,-25.61566162,2.510955811,1,0,0,1,38,198,119,1,,,,,,,,
,,,,,,,,,,,,,FF,,,,,,,,0.9493,,,,,,,,,,,,,,,,,,,,,,61031c95c9b3c0c70b9f60a7,61036dffeff4554e65c63561,2021-07-29_20h19.05.827,Simcolourproject_2stim_asymm_v5,2020.2.10,Linux x86_64,60,61025ae37ef11b136ea224fe,,,,,,,,,2232,-67.86505127,31.01852417,1,0,0,response7disk,,1,-23.00549316,3.580932617,1,0,0,rectangle,-23.00549316,3.580932617,1,0,0,-23.00549316,3.580932617,1,0,0,1,39,199,45,1,,,,,,,,
,,,,,,,,,,,,,FF,,,,,,,,0.9151,,,,,,,,,,,,,,,,,,,,,,61031c95c9b3c0c70b9f60a7,61036dffeff4554e65c63561,2021-07-29_20h19.05.827,Simcolourproject_2stim_asymm_v5,2020.2.10,Linux x86_64,60,61025ae37ef11b136ea224fe,,,,,,,,,1061,-74.4932251,26.78067017,1,0,0,response7disk,,1,-30.3737793,3.495788574,1,0,0,rectangle,-30.3737793,3.495788574,1,0,0,-30.3737793,3.495788574,1,0,0,1,40,200,52,1,,,,,,,,
,,,,,,,,,,,,,FF,,,,,,,,1.1655,,,,,,,,,,,,,,,,,,,,,,61031c95c9b3c0c70b9f60a7,61036dffeff4554e65c63561,2021-07-29_20h19.05.827,Simcolourproject_2stim_asymm_v5,2020.2.10,Linux x86_64,60,61025ae37ef11b136ea224fe,,,,,,,,,3337,27.25732422,-50.84686279,1,0,0,response3disk,,4,-9.897766113,-6.159881592,1,0,0,rectangle,-9.897766113,-6.159881592,1,0,0,-9.897766113,-6.159881592,1,0,0,1,41,201,46,1,,,,,,,,
,,,,,,,,,,,,,FF,,,,,,,,1.465,,,,,,,,,,,,,,,,,,,,,,61031c95c9b3c0c70b9f60a7,61036dffeff4554e65c63561,2021-07-29_20h19.05.827,Simcolourproject_2stim_asymm_v5,2020.2.10,Linux x86_64,60,61025ae37ef11b136ea224fe,,,,,,,,,253,-78.6305542,24.74572754,1,0,0,response7disk,,1,-18.63153076,2.362243652,1,0,0,rectangle,-18.63153076,2.362243652,1,0,0,-18.63153076,2.362243652,1,0,0,1,42,202,53,1,,,,,,,,
,,,,,,,,,,,,,FF,,,,,,,,0.7997,,,,,,,,,,,,,,,,,,,,,,61031c95c9b3c0c70b9f60a7,61036dffeff4554e65c63561,2021-07-29_20h19.05.827,Simcolourproject_2stim_asymm_v5,2020.2.10,Linux x86_64,60,61025ae37ef11b136ea224fe,,,,,,,,,4182,-72.01239014,42.13262939,1,0,0,response7disk,,1,8.70892334,-8.971862793,1,0,0,rectangle,20.82507324,-56.76626587,1,0,0,-2.963195801,-2.036193848,1,0,0,1,43,203,16,1,,response3disk_3,TRUE,4,4,"[290,154,235,171,136,86,204,93,89,95,266,191,141,261,157,263,258,170,191,233]",1.681,rectangle
,,,,,,,,,,,,,FF,,,,,,,,1.7315,,,,,,,,,,,,,,,,,,,,,,61031c95c9b3c0c70b9f60a7,61036dffeff4554e65c63561,2021-07-29_20h19.05.827,Simcolourproject_2stim_asymm_v5,2020.2.10,Linux x86_64,60,61025ae37ef11b136ea224fe,,,,,,,,,99,-66.8729248,28.60366821,1,0,0,response7disk,,1,-1.841186523,7.369720459,1,0,0,rectangle,-1.841186523,7.369720459,1,0,0,-1.841186523,7.369720459,1,0,0,1,44,204,31,1,,,,,,,,
,,,,,,,,,,,,,FF,,,,,,,,1.0493,,,,,,,,,,,,,,,,,,,,,,61031c95c9b3c0c70b9f60a7,61036dffeff4554e65c63561,2021-07-29_20h19.05.827,Simcolourproject_2stim_asymm_v5,2020.2.10,Linux x86_64,60,61025ae37ef11b136ea224fe,,,,,,,,,2395,36.00799561,-48.51504517,1,0,0,response3disk,,4,-6.939819336,6.066833496,1,0,0,rectangle,-6.939819336,6.066833496,1,0,0,-6.939819336,6.066833496,1,0,0,1,45,205,80,1,,,,,,,,
,,,,,,,,,,,,,FF,,,,,,,,1.0489,,,,,,,,,,,,,,,,,,,,,,61031c95c9b3c0c70b9f60a7,61036dffeff4554e65c63561,2021-07-29_20h19.05.827,Simcolourproject_2stim_asymm_v5,2020.2.10,Linux x86_64,60,61025ae37ef11b136ea224fe,,,,,,,,,1561,101.192688,27.39358521,1,0,0,response1disk,,6,-6.176574707,8.844329834,1,0,0,rectangle,-6.176574707,8.844329834,1,0,0,-6.176574707,8.844329834,1,0,0,1,46,206,90,1,,,,,,,,
,,,,,,,,,,,,,FF,,,,,,,,1.0488,,,,,,,,,,,,,,,,,,,,,,61031c95c9b3c0c70b9f60a7,61036dffeff4554e65c63561,2021-07-29_20h19.05.827,Simcolourproject_2stim_asymm_v5,2020.2.10,Linux x86_64,60,61025ae37ef11b136ea224fe,,,,,,,,,801,-54.06317139,83.95663452,1,0,0,response7disk,,0,5.421081543,-9.065887451,1,0,0,rectangle,5.421081543,-9.065887451,1,0,0,5.421081543,-9.065887451,1,0,0,1,47,207,83,1,,,,,,,,
,,,,,,,,,,,,,FF,,,,,,,,0.966,,,,,,,,,,,,,,,,,,,,,,61031c95c9b3c0c70b9f60a7,61036dffeff4554e65c63561,2021-07-29_20h19.05.827,Simcolourproject_2stim_asymm_v5,2020.2.10,Linux x86_64,60,61025ae37ef11b136ea224fe,,,,,,,,,1359,61.07739258,19.09457397,1,0,0,response1disk,,6,16.33099365,5.062103271,1,0,0,rectangle,16.33099365,5.062103271,1,0,0,16.33099365,5.062103271,1,0,0,1,48,208,17,1,,,,,,,,
,,,,,,,,,,,,,FF,,,,,,,,1.0488,,,,,,,,,,,,,,,,,,,,,,61031c95c9b3c0c70b9f60a7,61036dffeff4554e65c63561,2021-07-29_20h19.05.827,Simcolourproject_2stim_asymm_v5,2020.2.10,Linux x86_64,60,61025ae37ef11b136ea224fe,,,,,,,,,1467,-52.58947754,-36.9803772,1,0,0,response5disk,,2,-8.323669434,-6.531097412,1,0,0,rectangle,-8.323669434,-6.531097412,1,0,0,-8.323669434,-6.531097412,1,0,0,1,49,209,120,1,,,,,,,,
,,,,,,,,,,,,,FF,,,,,,,,1.8316,,,,,,,,,,,,,,,,,,,,,,61031c95c9b3c0c70b9f60a7,61036dffeff4554e65c63561,2021-07-29_20h19.05.827,Simcolourproject_2stim_asymm_v5,2020.2.10,Linux x86_64,60,61025ae37ef11b136ea224fe,,,,,,,,,1952,25.51824951,-57.07125854,1,0,0,response3disk,,4,8.66595459,-1.187530518,1,0,0,rectangle,8.66595459,-1.187530518,1,0,0,8.66595459,-1.187530518,1,0,0,1,50,210,152,1,,,,,,,,
,,,,,,,,,,,,,FF,,,,,,,,0.7661,,,,,,,,,,,,,,,,,,,,,,61031c95c9b3c0c70b9f60a7,61036dffeff4554e65c63561,2021-07-29_20h19.05.827,Simcolourproject_2stim_asymm_v5,2020.2.10,Linux x86_64,60,61025ae37ef11b136ea224fe,,,,,,,,,223,59.95477295,-32.77697754,1,0,0,response3disk,,5,4.844055176,0.338287354,1,0,0,rectangle,4.844055176,0.338287354,1,0,0,4.844055176,0.338287354,1,0,0,1,51,211,79,1,,,,,,,,
,,,,,,,,,,,,,FF,,,,,,,,0.9162,,,,,,,,,,,,,,,,,,,,,,61031c95c9b3c0c70b9f60a7,61036dffeff4554e65c63561,2021-07-29_20h19.05.827,Simcolourproject_2stim_asymm_v5,2020.2.10,Linux x86_64,60,61025ae37ef11b136ea224fe,,,,,,,,,340,-22.62744141,-50.98980713,1,0,0,response5disk,,3,-13.82696533,7.421447754,1,0,0,rectangle,-13.82696533,7.421447754,1,0,0,-13.82696533,7.421447754,1,0,0,1,52,212,144,1,,,,,,,,
,,,,,,,,,,,,,FF,,,,,,,,0.8827,,,,,,,,,,,,,,,,,,,,,,61031c95c9b3c0c70b9f60a7,61036dffeff4554e65c63561,2021-07-29_20h19.05.827,Simcolourproject_2stim_asymm_v5,2020.2.10,Linux x86_64,60,61025ae37ef11b136ea224fe,,,,,,,,,3474,-116.7682495,-30.11639404,1,0,0,response5disk,,2,-7.731750488,-3.842895508,1,0,0,rectangle,-7.731750488,-3.842895508,1,0,0,-7.731750488,-3.842895508,1,0,0,1,53,213,74,1,,,,,,,,
,,,,,,,,,,,,,FF,,,,,,,,1.3649,,,,,,,,,,,,,,,,,,,,,,61031c95c9b3c0c70b9f60a7,61036dffeff4554e65c63561,2021-07-29_20h19.05.827,Simcolourproject_2stim_asymm_v5,2020.2.10,Linux x86_64,60,61025ae37ef11b136ea224fe,,,,,,,,,870,-19.17724609,-82.45498657,1,0,0,response5disk,,3,-12.55645752,0.999237061,1,0,0,rectangle,-12.55645752,0.999237061,1,0,0,-12.55645752,0.999237061,1,0,0,1,54,214,147,1,,,,,,,,
,,,,,,,,,,,,,FF,,,,,,,,1.049,,,,,,,,,,,,,,,,,,,,,,61031c95c9b3c0c70b9f60a7,61036dffeff4554e65c63561,2021-07-29_20h19.05.827,Simcolourproject_2stim_asymm_v5,2020.2.10,Linux x86_64,60,61025ae37ef11b136ea224fe,,,,,,,,,1571,70.99261475,21.28094482,1,0,0,response1disk,,6,10.70928955,7.274139404,1,0,0,rectangle,10.70928955,7.274139404,1,0,0,10.70928955,7.274139404,1,0,0,1,55,215,40,1,,,,,,,,
,,,,,,,,,,,,,FF,,,,,,,,0.7994,,,,,,,,,,,,,,,,,,,,,,61031c95c9b3c0c70b9f60a7,61036dffeff4554e65c63561,2021-07-29_20h19.05.827,Simcolourproject_2stim_asymm_v5,2020.2.10,Linux x86_64,60,61025ae37ef11b136ea224fe,,,,,,,,,1345,76.21728516,-33.62268066,1,0,0,response3disk,,5,18.68536377,6.400909424,1,0,0,rectangle,18.68536377,6.400909424,1,0,0,18.68536377,6.400909424,1,0,0,1,56,216,151,1,,,,,,,,
,,,,,,,,,,,,,FF,,,,,,,,0.899,,,,,,,,,,,,,,,,,,,,,,61031c95c9b3c0c70b9f60a7,61036dffeff4554e65c63561,2021-07-29_20h19.05.827,Simcolourproject_2stim_asymm_v5,2020.2.10,Linux x86_64,60,61025ae37ef11b136ea224fe,,,,,,,,,1100,49.6661377,-24.36264038,1,0,0,response3disk,,5,4.977905273,-2.673431396,1,0,0,rectangle,4.977905273,-2.673431396,1,0,0,4.977905273,-2.673431396,1,0,0,1,57,217,157,1,,,,,,,,
,,,,,,,,,,,,,FF,,,,,,,,0.8327,,,,,,,,,,,,,,,,,,,,,,61031c95c9b3c0c70b9f60a7,61036dffeff4554e65c63561,2021-07-29_20h19.05.827,Simcolourproject_2stim_asymm_v5,2020.2.10,Linux x86_64,60,61025ae37ef11b136ea224fe,,,,,,,,,745,25.45001221,-50.17852783,1,0,0,response3disk,,4,-0.435180664,-3.829742432,1,0,0,rectangle,-0.435180664,-3.829742432,1,0,0,-0.435180664,-3.829742432,1,0,0,1,58,218,111,1,,,,,,,,
,,,,,,,,,,,,,FF,,,,,,,,0.8327,,,,,,,,,,,,,,,,,,,,,,61031c95c9b3c0c70b9f60a7,61036dffeff4554e65c63561,2021-07-29_20h19.05.827,Simcolourproject_2stim_asymm_v5,2020.2.10,Linux x86_64,60,61025ae37ef11b136ea224fe,,,,,,,,,87,50.13366699,-23.52093506,1,0,0,response3disk,,5,12.82727051,2.929107666,1,0,0,rectangle,12.82727051,2.929107666,1,0,0,12.82727051,2.929107666,1,0,0,1,59,219,60,1,,,,,,,,
,,,,,,,,,,,,,FF,,,,,,,,0.9498,,,,,,,,,,,,,,,,,,,,,,61031c95c9b3c0c70b9f60a7,61036dffeff4554e65c63561,2021-07-29_20h19.05.827,Simcolourproject_2stim_asymm_v5,2020.2.10,Linux x86_64,60,61025ae37ef11b136ea224fe,,,,,,,,,2060,56.78027344,27.39599609,1,0,0,response1disk,,6,-10.06719971,-8.254669189,1,0,0,rectangle,-10.06719971,-8.254669189,1,0,0,-10.06719971,-8.254669189,1,0,0,1,60,220,135,1,,,,,,,,
,,,,,,,,,,,,,FF,,,,,,,,1.0825,,,,,,,,,,,,,,,,,,,,,,61031c95c9b3c0c70b9f60a7,61036dffeff4554e65c63561,2021-07-29_20h19.05.827,Simcolourproject_2stim_asymm_v5,2020.2.10,Linux x86_64,60,61025ae37ef11b136ea224fe,,,,,,,,,363,71.11865234,22.48187256,1,0,0,response1disk,,6,-8.249633789,-3.904418945,1,0,0,rectangle,-8.249633789,-3.904418945,1,0,0,-8.249633789,-3.904418945,1,0,0,1,61,221,158,1,,,,,,,,
,,,,,,,,,,,,,FF,,,,,,,,1.0823,,,,,,,,,,,,,,,,,,,,,,61031c95c9b3c0c70b9f60a7,61036dffeff4554e65c63561,2021-07-29_20h19.05.827,Simcolourproject_2stim_asymm_v5,2020.2.10,Linux x86_64,60,61025ae37ef11b136ea224fe,,,,,,,,,961,52.95269775,-80.11740112,1,0,0,response3disk,,4,11.60980225,-4.218475342,1,0,0,rectangle,11.60980225,-4.218475342,1,0,0,11.60980225,-4.218475342,1,0,0,1,62,222,153,1,,,,,,,,
,,,,,,,,,,,,,FF,,,,,,,,1.0155,,,,,,,,,,,,,,,,,,,,,,61031c95c9b3c0c70b9f60a7,61036dffeff4554e65c63561,2021-07-29_20h19.05.827,Simcolourproject_2stim_asymm_v5,2020.2.10,Linux x86_64,60,61025ae37ef11b136ea224fe,,,,,,,,,3701,56.42626953,-33.38796997,1,0,0,response3disk,,5,11.92297363,-8.531433105,1,0,0,rectangle,11.92297363,-8.531433105,1,0,0,11.92297363,-8.531433105,1,0,0,1,63,223,112,1,,,,,,,,
,,,,,,,,,,,,,FF,,,,,,,,0.7827,,,,,,,,,,,,,,,,,,,,,,61031c95c9b3c0c70b9f60a7,61036dffeff4554e65c63561,2021-07-29_20h19.05.827,Simcolourproject_2stim_asymm_v5,2020.2.10,Linux x86_64,60,61025ae37ef11b136ea224fe,,,,,,,,,1390,-20.14465332,-45.54153442,1,0,0,response5disk,,3,-1.939758301,6.373016357,1,0,0,rectangle,-1.939758301,6.373016357,1,0,0,-1.939758301,6.373016357,1,0,0,1,64,224,107,1,,,,,,,,
,,,,,,,,,,,,,FF,,,,,,,,0.9816,,,,,,,,,,,,,,,,,,,,,,61031c95c9b3c0c70b9f60a7,61036dffeff4554e65c63561,2021-07-29_20h19.05.827,Simcolourproject_2stim_asymm_v5,2020.2.10,Linux x86_64,60,61025ae37ef11b136ea224fe,,,,,,,,,3225,24.21722412,63.04693604,1,0,0,response1disk,,7,7.267150879,2.652587891,1,0,0,rectangle,7.267150879,2.652587891,1,0,0,7.267150879,2.652587891,1,0,0,1,65,225,110,1,,,,,,,,
,,,,,,,,,,,,,FF,,,,,,,,1.1155,,,,,,,,,,,,,,,,,,,,,,61031c95c9b3c0c70b9f60a7,61036dffeff4554e65c63561,2021-07-29_20h19.05.827,Simcolourproject_2stim_asymm_v5,2020.2.10,Linux x86_64,60,61025ae37ef11b136ea224fe,,,,,,,,,1766,65.18701172,-32.0451355,1,0,0,response3disk,,5,8.024597168,-1.855651855,1,0,0,rectangle,8.024597168,-1.855651855,1,0,0,8.024597168,-1.855651855,1,0,0,1,66,226,92,1,,,,,,,,
,,,,,,,,,,,,,FF,,,,,,,,1.0162,,,,,,,,,,,,,,,,,,,,,,61031c95c9b3c0c70b9f60a7,61036dffeff4554e65c63561,2021-07-29_20h19.05.827,Simcolourproject_2stim_asymm_v5,2020.2.10,Linux x86_64,60,61025ae37ef11b136ea224fe,,,,,,,,,4177,20.66235352,62.60437012,1,0,0,response1disk,,7,11.918396,2.969818115,1,0,0,rectangle,11.918396,2.969818115,1,0,0,11.918396,2.969818115,1,0,0,1,67,227,28,1,,,,,,,,
,,,,,,,,,,,,,FF,,,,,,,,1.1655,,,,,,,,,,,,,,,,,,,,,,61031c95c9b3c0c70b9f60a7,61036dffeff4554e65c63561,2021-07-29_20h19.05.827,Simcolourproject_2stim_asymm_v5,2020.2.10,Linux x86_64,60,61025ae37ef11b136ea224fe,,,,,,,,,929,40.58502197,76.3692627,1,0,0,response1disk,,7,13.63983154,-1.148132324,1,0,0,rectangle,13.63983154,-1.148132324,1,0,0,13.63983154,-1.148132324,1,0,0,1,68,228,54,1,,,,,,,,
,,,,,,,,,,,,,FF,,,,,,,,0.9321,,,,,,,,,,,,,,,,,,,,,,61031c95c9b3c0c70b9f60a7,61036dffeff4554e65c63561,2021-07-29_20h19.05.827,Simcolourproject_2stim_asymm_v5,2020.2.10,Linux x86_64,60,61025ae37ef11b136ea224fe,,,,,,,,,673,57.61352539,-41.67492676,1,0,0,response3disk,,5,13.15283203,-7.048950195,1,0,0,rectangle,13.15283203,-7.048950195,1,0,0,13.15283203,-7.048950195,1,0,0,1,69,229,51,1,,,,,,,,
,,,,,,,,,,,,,FF,,,,,,,,0.8658,,,,,,,,,,,,,,,,,,,,,,61031c95c9b3c0c70b9f60a7,61036dffeff4554e65c63561,2021-07-29_20h19.05.827,Simcolourproject_2stim_asymm_v5,2020.2.10,Linux x86_64,60,61025ae37ef11b136ea224fe,,,,,,,,,4229,25.03662109,-40.38632202,1,0,0,response3disk,,4,-5.584350586,7.286590576,1,0,0,rectangle,-5.584350586,7.286590576,1,0,0,-5.584350586,7.286590576,1,0,0,1,70,230,5,1,,,,,,,,
,,,,,,,,,,,,,FF,,,,,,,,0.932,,,,,,,,,,,,,,,,,,,,,,61031c95c9b3c0c70b9f60a7,61036dffeff4554e65c63561,2021-07-29_20h19.05.827,Simcolourproject_2stim_asymm_v5,2020.2.10,Linux x86_64,60,61025ae37ef11b136ea224fe,,,,,,,,,3,-39.52539063,-79.97955322,1,0,0,response5disk,,3,-16.58813477,2.52331543,1,0,0,rectangle,-16.58813477,2.52331543,1,0,0,-16.58813477,2.52331543,1,0,0,1,71,231,14,1,,,,,,,,
,,,,,,,,,,,,,FF,,,,,,,,0.8498,,,,,,,,,,,,,,,,,,,,,,61031c95c9b3c0c70b9f60a7,61036dffeff4554e65c63561,2021-07-29_20h19.05.827,Simcolourproject_2stim_asymm_v5,2020.2.10,Linux x86_64,60,61025ae37ef11b136ea224fe,,,,,,,,,2051,39.36755371,-26.35195923,1,0,0,response3disk,,5,21.21826172,-10.94125366,1,0,0,rectangle,76.78186035,-30.84835815,1,0,0,5.660583496,2.105102539,1,0,0,1,72,232,72,1,,response3disk_3,TRUE,5,5,"[290,154,235,171,136,86,204,93,89,95,266,191,141,261,157,263,258,170,191,233]",1.4829,rectangle
,,,,,,,,,,,,,FF,,,,,,,,0.8988,,,,,,,,,,,,,,,,,,,,,,61031c95c9b3c0c70b9f60a7,61036dffeff4554e65c63561,2021-07-29_20h19.05.827,Simcolourproject_2stim_asymm_v5,2020.2.10,Linux x86_64,60,61025ae37ef11b136ea224fe,,,,,,,,,2594,22.52197266,-62.00427246,1,0,0,response3disk,,4,3.992736816,-5.975616455,1,0,0,rectangle,3.992736816,-5.975616455,1,0,0,3.992736816,-5.975616455,1,0,0,1,73,233,27,1,,,,,,,,
,,,,,,,,,,,,,FF,,,,,,,,7.0598,,,,,,,,,,,,,,,,,,,,,,61031c95c9b3c0c70b9f60a7,61036dffeff4554e65c63561,2021-07-29_20h19.05.827,Simcolourproject_2stim_asymm_v5,2020.2.10,Linux x86_64,60,61025ae37ef11b136ea224fe,,,,,,,,,254,58.91729736,21.54501343,1,0,0,response1disk,,6,12.26245117,-14.27529907,1,0,0,rectangle,-79.96618652,-38.46112061,1,0,0,-20.09918213,4.533081055,1,0,0,1,74,234,86,1,,response5disk_3,TRUE,2,2,"[290,154,235,171,136,86,204,93,89,95,266,191,141,261,157,263,258,170,191,233]",2.614,rectangle
,,,,,,,,,,,,,FF,,,,,,,,6.7766,,,,,,,,,,,,,,,,,,,,,,61031c95c9b3c0c70b9f60a7,61036dffeff4554e65c63561,2021-07-29_20h19.05.827,Simcolourproject_2stim_asymm_v5,2020.2.10,Linux x86_64,60,61025ae37ef11b136ea224fe,,,,,,,,,3236,-23.890625,-87.46432495,1,0,0,response5disk,,3,2.422241211,-12.07229614,1,0,0,rectangle,2.422241211,-12.07229614,1,0,0,2.422241211,-12.07229614,1,0,0,1,75,235,61,1,,,,,,,,
,,,,,,,,,,,,,FF,,,,,,,,0.8991,,,,,,,,,,,,,,,,,,,,,,61031c95c9b3c0c70b9f60a7,61036dffeff4554e65c63561,2021-07-29_20h19.05.827,Simcolourproject_2stim_asymm_v5,2020.2.10,Linux x86_64,60,61025ae37ef11b136ea224fe,,,,,,,,,585,33.99475098,-74.82138062,1,0,0,response3disk,,4,-2.448913574,-0.161315918,1,0,0,rectangle,-2.448913574,-0.161315918,1,0,0,-2.448913574,-0.161315918,1,0,0,1,76,236,10,1,,,,,,,,
,,,,,,,,,,,,,FF,,,,,,,,0.9491,,,,,,,,,,,,,,,,,,,,,,61031c95c9b3c0c70b9f60a7,61036dffeff4554e65c63561,2021-07-29_20h19.05.827,Simcolourproject_2stim_asymm_v5,2020.2.10,Linux x86_64,60,61025ae37ef11b136ea224fe,,,,,,,,,2810,63.45739746,-33.69906616,1,0,0,response3disk,,5,10.02435303,-2.13583374,1,0,0,rectangle,10.02435303,-2.13583374,1,0,0,10.02435303,-2.13583374,1,0,0,1,77,237,68,1,,,,,,,,
,,,,,,,,,,,,,FF,,,,,,,,1.0656,,,,,,,,,,,,,,,,,,,,,,61031c95c9b3c0c70b9f60a7,61036dffeff4554e65c63561,2021-07-29_20h19.05.827,Simcolourproject_2stim_asymm_v5,2020.2.10,Linux x86_64,60,61025ae37ef11b136ea224fe,,,,,,,,,1194,25.88586426,-54.28018188,1,0,0,response3disk,,4,0.863769531,-3.047515869,1,0,0,rectangle,0.863769531,-3.047515869,1,0,0,0.863769531,-3.047515869,1,0,0,1,78,238,109,1,,,,,,,,
