key_resp.keys,key_resp.rt,key_resp_14.keys,key_resp_14.rt,key_resp_15.keys,key_resp_15.rt,key_resp_17.keys,key_resp_17.rt,key_resp_9.keys,key_resp_9.rt,key_resp_10.keys,key_resp_10.rt,practice_comparison,Ecc,mouse_5.x,mouse_5.y,mouse_5.leftButton,mouse_5.midButton,mouse_5.rightButton,mouse_5.clicked_name,pracsimilarity,response_time,mouse_10.x,mouse_10.y,mouse_10.leftButton,mouse_10.midButton,mouse_10.rightButton,mouse_10.clicked_name,mouse_7.x,mouse_7.y,mouse_7.leftButton,mouse_7.midButton,mouse_7.rightButton,mouse_6.x,mouse_6.y,mouse_6.leftButton,mouse_6.midButton,mouse_6.rightButton,duringprac.thisRepN,duringprac.thisTrialN,duringprac.thisN,duringprac.thisIndex,duringprac.ran,participant,session,date,expName,psychopyVersion,OS,frameRate,study_id,mouse_7.clicked_name,catchpracsimilarity,catch_response_time,catchnumberprac,catchtrialorderprac,mouse_6.clicked_name,key_resp_22.keys,key_resp_22.rt,realcomparison,mouse.x,mouse.y,mouse.leftButton,mouse.midButton,mouse.rightButton,mouse.clicked_name,Colour2,similarity,mouse_2.x,mouse_2.y,mouse_2.leftButton,mouse_2.midButton,mouse_2.rightButton,mouse_2.clicked_name,mouse_3.x,mouse_3.y,mouse_3.leftButton,mouse_3.midButton,mouse_3.rightButton,mouse_11.x,mouse_11.y,mouse_11.leftButton,mouse_11.midButton,mouse_11.rightButton,trials_2.thisRepN,trials_2.thisTrialN,trials_2.thisN,trials_2.thisIndex,trials_2.ran,Colour1,mouse_3.clicked_name,catchornah,catchsimilarity,catchnumber,catchtrialorder,catchRT,mouse_11.clicked_name
space,2.5332,space,21.3299,space,31.3839,space,15.234,space,0.7559,space,7.2369,116,PF,48.16461182,98.38467407,1,0,0,response1disk_5,7,4.5532,-0.046142578,-4.626403809,1,0,0,rectangle_8,-0.046142578,-4.626403809,1,0,0,-0.046142578,-4.626403809,1,0,0,0,0,0,1,1,6103688918416a123fdfcf68,61036da0d1f92de10ffb3eee,2021-07-29_22h12.43.840,Simcolourproject_2stim_asymm_v5,2020.2.10,MacIntel,60,61025ae37ef11b136ea224fe,,,,,,,,,,,,,,,,,,,,,,,,,,,,,,,,,,,,,,,,,,,,,,
,,,,,,,,,,,,138,FF,36.13311768,90.08404541,1,0,0,response1disk_5,7,2.23,-0.008972168,-7.661773682,1,0,0,rectangle_8,-98.17401123,-46.47888184,1,0,0,14.07269287,1.536682129,1,0,0,0,1,1,5,1,6103688918416a123fdfcf68,61036da0d1f92de10ffb3eee,2021-07-29_22h12.43.840,Simcolourproject_2stim_asymm_v5,2020.2.10,MacIntel,60,61025ae37ef11b136ea224fe,response5disk_7,2,3.9542,2,"[2,5]",rectangle_4,,,,,,,,,,,,,,,,,,,,,,,,,,,,,,,,,,,,,,,,
,,,,,,,,,,,,134,FF,46.69873047,93.09841919,1,0,0,response1disk_5,7,7.263,5.477172852,0.156616211,1,0,0,rectangle_8,5.477172852,0.156616211,1,0,0,5.477172852,0.156616211,1,0,0,0,2,2,3,1,6103688918416a123fdfcf68,61036da0d1f92de10ffb3eee,2021-07-29_22h12.43.840,Simcolourproject_2stim_asymm_v5,2020.2.10,MacIntel,60,61025ae37ef11b136ea224fe,,,,,,,,,,,,,,,,,,,,,,,,,,,,,,,,,,,,,,,,,,,,,,
,,,,,,,,,,,,146,PF,93.37512207,44.22879028,1,0,0,response1disk_5,6,4.7127,17.09802246,-0.866638184,1,0,0,rectangle_8,17.09802246,-0.866638184,1,0,0,17.09802246,-0.866638184,1,0,0,0,3,3,2,1,6103688918416a123fdfcf68,61036da0d1f92de10ffb3eee,2021-07-29_22h12.43.840,Simcolourproject_2stim_asymm_v5,2020.2.10,MacIntel,60,61025ae37ef11b136ea224fe,,,,,,,,,,,,,,,,,,,,,,,,,,,,,,,,,,,,,,,,,,,,,,
,,,,,,,,,,,,0,FF,91.8145752,56.3571167,1,0,0,response1disk_5,6,3.1327,6.654663086,16.57342529,1,0,0,rectangle_8,-74.05047607,-30.74902344,1,0,0,13.4130249,-5.777282715,1,0,0,0,4,4,0,1,6103688918416a123fdfcf68,61036da0d1f92de10ffb3eee,2021-07-29_22h12.43.840,Simcolourproject_2stim_asymm_v5,2020.2.10,MacIntel,60,61025ae37ef11b136ea224fe,response5disk_7,2,2.4521,2,"[2,5]",rectangle_4,,,,,,,,,,,,,,,,,,,,,,,,,,,,,,,,,,,,,,,,
,,,,,,,,,,,,99,PF,54.03381348,87.21551514,1,0,0,response1disk_5,7,2.2322,-0.134521484,0.027160645,1,0,0,rectangle_8,-0.134521484,0.027160645,1,0,0,-0.134521484,0.027160645,1,0,0,0,5,5,6,1,6103688918416a123fdfcf68,61036da0d1f92de10ffb3eee,2021-07-29_22h12.43.840,Simcolourproject_2stim_asymm_v5,2020.2.10,MacIntel,60,61025ae37ef11b136ea224fe,,,,,,,,,,,,,,,,,,,,,,,,,,,,,,,,,,,,,,,,,,,,,,
,,,,,,,,,,,,108,PF,35.79223633,90.97558594,1,0,0,response1disk_5,7,2.483,5.665222168,-3.342224121,1,0,0,rectangle_8,5.665222168,-3.342224121,1,0,0,5.665222168,-3.342224121,1,0,0,0,6,6,4,1,6103688918416a123fdfcf68,61036da0d1f92de10ffb3eee,2021-07-29_22h12.43.840,Simcolourproject_2stim_asymm_v5,2020.2.10,MacIntel,60,61025ae37ef11b136ea224fe,,,,,,,,,,,,,,,,,,,,,,,,,,,,,,,,,,,,,,,,,,,,,,
,,,,,,,,,,,,,FF,,,,,,,,5.6348,,,,,,,,,,,,,,,,,,,,,,6103688918416a123fdfcf68,61036da0d1f92de10ffb3eee,2021-07-29_22h12.43.840,Simcolourproject_2stim_asymm_v5,2020.2.10,MacIntel,60,61025ae37ef11b136ea224fe,,,,,,,space,3.3559,1601,80.27050781,36.29653931,1,0,0,response1disk,,6,-6.017883301,0.038116455,1,0,0,rectangle,-6.017883301,0.038116455,1,0,0,-6.017883301,0.038116455,1,0,0,0,0,0,88,1,,,,,,,,
,,,,,,,,,,,,,FF,,,,,,,,1.8973,,,,,,,,,,,,,,,,,,,,,,6103688918416a123fdfcf68,61036da0d1f92de10ffb3eee,2021-07-29_22h12.43.840,Simcolourproject_2stim_asymm_v5,2020.2.10,MacIntel,60,61025ae37ef11b136ea224fe,,,,,,,,,1497,56.04064941,89.54083252,1,0,0,response1disk,,7,-0.603637695,-1.74407959,1,0,0,rectangle,-0.603637695,-1.74407959,1,0,0,-0.603637695,-1.74407959,1,0,0,0,1,1,113,1,,,,,,,,
,,,,,,,,,,,,,FF,,,,,,,,1.4166,,,,,,,,,,,,,,,,,,,,,,6103688918416a123fdfcf68,61036da0d1f92de10ffb3eee,2021-07-29_22h12.43.840,Simcolourproject_2stim_asymm_v5,2020.2.10,MacIntel,60,61025ae37ef11b136ea224fe,,,,,,,,,447,18.22705078,98.28887939,1,0,0,response1disk,,7,-3.600280762,8.07623291,1,0,0,rectangle,-3.600280762,8.07623291,1,0,0,-3.600280762,8.07623291,1,0,0,0,2,2,143,1,,,,,,,,
,,,,,,,,,,,,,FF,,,,,,,,1.0837,,,,,,,,,,,,,,,,,,,,,,6103688918416a123fdfcf68,61036da0d1f92de10ffb3eee,2021-07-29_22h12.43.840,Simcolourproject_2stim_asymm_v5,2020.2.10,MacIntel,60,61025ae37ef11b136ea224fe,,,,,,,,,2164,61.1973877,42.70477295,1,0,0,response1disk,,6,0.991088867,1.305908203,1,0,0,rectangle,0.991088867,1.305908203,1,0,0,0.991088867,1.305908203,1,0,0,0,3,3,78,1,,,,,,,,
,,,,,,,,,,,,,FF,,,,,,,,0.7124,,,,,,,,,,,,,,,,,,,,,,6103688918416a123fdfcf68,61036da0d1f92de10ffb3eee,2021-07-29_22h12.43.840,Simcolourproject_2stim_asymm_v5,2020.2.10,MacIntel,60,61025ae37ef11b136ea224fe,,,,,,,,,835,37.02630615,62.00076294,1,0,0,response1disk,,7,2.624755859,0.939758301,1,0,0,rectangle,2.624755859,0.939758301,1,0,0,2.624755859,0.939758301,1,0,0,0,4,4,118,1,,,,,,,,
,,,,,,,,,,,,,FF,,,,,,,,1.0467,,,,,,,,,,,,,,,,,,,,,,6103688918416a123fdfcf68,61036da0d1f92de10ffb3eee,2021-07-29_22h12.43.840,Simcolourproject_2stim_asymm_v5,2020.2.10,MacIntel,60,61025ae37ef11b136ea224fe,,,,,,,,,2478,40.89532471,79.89822388,1,0,0,response1disk,,7,9.929199219,3.906646729,1,0,0,rectangle,9.929199219,3.906646729,1,0,0,9.929199219,3.906646729,1,0,0,0,5,5,40,1,,,,,,,,
,,,,,,,,,,,,,FF,,,,,,,,3.1116,,,,,,,,,,,,,,,,,,,,,,6103688918416a123fdfcf68,61036da0d1f92de10ffb3eee,2021-07-29_22h12.43.840,Simcolourproject_2stim_asymm_v5,2020.2.10,MacIntel,60,61025ae37ef11b136ea224fe,,,,,,,,,890,48.72766113,26.89309692,1,0,0,response1disk,,6,1.141967773,-4.327819824,1,0,0,rectangle,1.141967773,-4.327819824,1,0,0,1.141967773,-4.327819824,1,0,0,0,6,6,32,1,,,,,,,,
,,,,,,,,,,,,,FF,,,,,,,,2.1538,,,,,,,,,,,,,,,,,,,,,,6103688918416a123fdfcf68,61036da0d1f92de10ffb3eee,2021-07-29_22h12.43.840,Simcolourproject_2stim_asymm_v5,2020.2.10,MacIntel,60,61025ae37ef11b136ea224fe,,,,,,,,,1362,40.66784668,70.71118164,1,0,0,response1disk,,7,7.891357422,-2.587127686,1,0,0,rectangle,7.891357422,-2.587127686,1,0,0,7.891357422,-2.587127686,1,0,0,0,7,7,13,1,,,,,,,,
,,,,,,,,,,,,,FF,,,,,,,,0.681,,,,,,,,,,,,,,,,,,,,,,6103688918416a123fdfcf68,61036da0d1f92de10ffb3eee,2021-07-29_22h12.43.840,Simcolourproject_2stim_asymm_v5,2020.2.10,MacIntel,60,61025ae37ef11b136ea224fe,,,,,,,,,817,40.31970215,64.11553955,1,0,0,response1disk,,7,6.941162109,4.280487061,1,0,0,rectangle,6.941162109,4.280487061,1,0,0,6.941162109,4.280487061,1,0,0,0,8,8,48,1,,,,,,,,
,,,,,,,,,,,,,FF,,,,,,,,0.6727,,,,,,,,,,,,,,,,,,,,,,6103688918416a123fdfcf68,61036da0d1f92de10ffb3eee,2021-07-29_22h12.43.840,Simcolourproject_2stim_asymm_v5,2020.2.10,MacIntel,60,61025ae37ef11b136ea224fe,,,,,,,,,2747,37.90393066,66.97894287,1,0,0,response1disk,,7,4.166809082,1.868743896,1,0,0,rectangle,4.166809082,1.868743896,1,0,0,4.166809082,1.868743896,1,0,0,0,9,9,128,1,,,,,,,,
,,,,,,,,,,,,,FF,,,,,,,,2.1694,,,,,,,,,,,,,,,,,,,,,,6103688918416a123fdfcf68,61036da0d1f92de10ffb3eee,2021-07-29_22h12.43.840,Simcolourproject_2stim_asymm_v5,2020.2.10,MacIntel,60,61025ae37ef11b136ea224fe,,,,,,,,,1887,44.45800781,77.28051758,1,0,0,response1disk,,7,-3.520324707,-0.874694824,1,0,0,rectangle,-3.520324707,-0.874694824,1,0,0,-3.520324707,-0.874694824,1,0,0,0,10,10,94,1,,,,,,,,
,,,,,,,,,,,,,FF,,,,,,,,0.6454,,,,,,,,,,,,,,,,,,,,,,6103688918416a123fdfcf68,61036da0d1f92de10ffb3eee,2021-07-29_22h12.43.840,Simcolourproject_2stim_asymm_v5,2020.2.10,MacIntel,60,61025ae37ef11b136ea224fe,,,,,,,,,1895,30.79040527,56.89794922,1,0,0,response1disk,,7,-3.82220459,-4.41796875,1,0,0,rectangle,-3.82220459,-4.41796875,1,0,0,-3.82220459,-4.41796875,1,0,0,0,11,11,15,1,,,,,,,,
,,,,,,,,,,,,,FF,,,,,,,,0.6327,,,,,,,,,,,,,,,,,,,,,,6103688918416a123fdfcf68,61036da0d1f92de10ffb3eee,2021-07-29_22h12.43.840,Simcolourproject_2stim_asymm_v5,2020.2.10,MacIntel,60,61025ae37ef11b136ea224fe,,,,,,,,,3930,25.97607422,58.6583252,1,0,0,response1disk,,7,5.657531738,1.37979126,1,0,0,rectangle,5.657531738,1.37979126,1,0,0,5.657531738,1.37979126,1,0,0,0,12,12,4,1,,,,,,,,
,,,,,,,,,,,,,FF,,,,,,,,3.1698,,,,,,,,,,,,,,,,,,,,,,6103688918416a123fdfcf68,61036da0d1f92de10ffb3eee,2021-07-29_22h12.43.840,Simcolourproject_2stim_asymm_v5,2020.2.10,MacIntel,60,61025ae37ef11b136ea224fe,,,,,,,,,1691,32.95532227,72.70651245,1,0,0,response1disk,,7,16.49169922,-3.278686523,1,0,0,rectangle,16.49169922,-3.278686523,1,0,0,16.49169922,-3.278686523,1,0,0,0,13,13,97,1,,,,,,,,
,,,,,,,,,,,,,FF,,,,,,,,1.6283,,,,,,,,,,,,,,,,,,,,,,6103688918416a123fdfcf68,61036da0d1f92de10ffb3eee,2021-07-29_22h12.43.840,Simcolourproject_2stim_asymm_v5,2020.2.10,MacIntel,60,61025ae37ef11b136ea224fe,,,,,,,,,2256,34.73516846,72.43798828,1,0,0,response1disk,,7,-4.923706055,-6.069763184,1,0,0,rectangle,-4.923706055,-6.069763184,1,0,0,-4.923706055,-6.069763184,1,0,0,0,14,14,71,1,,,,,,,,
,,,,,,,,,,,,,FF,,,,,,,,0.7838,,,,,,,,,,,,,,,,,,,,,,6103688918416a123fdfcf68,61036da0d1f92de10ffb3eee,2021-07-29_22h12.43.840,Simcolourproject_2stim_asymm_v5,2020.2.10,MacIntel,60,61025ae37ef11b136ea224fe,,,,,,,,,2766,27.18267822,63.15951538,1,0,0,response1disk,,7,6.31048584,6.117919922,1,0,0,rectangle,6.31048584,6.117919922,1,0,0,6.31048584,6.117919922,1,0,0,0,15,15,107,1,,,,,,,,
,,,,,,,,,,,,,FF,,,,,,,,0.5327,,,,,,,,,,,,,,,,,,,,,,6103688918416a123fdfcf68,61036da0d1f92de10ffb3eee,2021-07-29_22h12.43.840,Simcolourproject_2stim_asymm_v5,2020.2.10,MacIntel,60,61025ae37ef11b136ea224fe,,,,,,,,,708,40.02166748,63.51538086,1,0,0,response1disk,,7,-5.775878906,3.274475098,1,0,0,rectangle,-5.775878906,3.274475098,1,0,0,-5.775878906,3.274475098,1,0,0,0,16,16,137,1,,,,,,,,
,,,,,,,,,,,,,FF,,,,,,,,0.9326,,,,,,,,,,,,,,,,,,,,,,6103688918416a123fdfcf68,61036da0d1f92de10ffb3eee,2021-07-29_22h12.43.840,Simcolourproject_2stim_asymm_v5,2020.2.10,MacIntel,60,61025ae37ef11b136ea224fe,,,,,,,,,689,47.62579346,102.0422668,1,0,0,response1disk,,7,-15.64404297,-2.400817871,1,0,0,rectangle,-15.64404297,-2.400817871,1,0,0,-15.64404297,-2.400817871,1,0,0,0,17,17,1,1,,,,,,,,
,,,,,,,,,,,,,FF,,,,,,,,2.4706,,,,,,,,,,,,,,,,,,,,,,6103688918416a123fdfcf68,61036da0d1f92de10ffb3eee,2021-07-29_22h12.43.840,Simcolourproject_2stim_asymm_v5,2020.2.10,MacIntel,60,61025ae37ef11b136ea224fe,,,,,,,,,30,39.11767578,83.7713623,1,0,0,response1disk,,7,3.493713379,-10.2784729,1,0,0,rectangle,3.493713379,-10.2784729,1,0,0,3.493713379,-10.2784729,1,0,0,0,18,18,77,1,,,,,,,,
,,,,,,,,,,,,,FF,,,,,,,,0.9678,,,,,,,,,,,,,,,,,,,,,,6103688918416a123fdfcf68,61036da0d1f92de10ffb3eee,2021-07-29_22h12.43.840,Simcolourproject_2stim_asymm_v5,2020.2.10,MacIntel,60,61025ae37ef11b136ea224fe,,,,,,,,,862,34.53924561,70.96569824,1,0,0,response1disk,,7,-1.694458008,-1.806274414,1,0,0,rectangle,-1.694458008,-1.806274414,1,0,0,-1.694458008,-1.806274414,1,0,0,0,19,19,130,1,,,,,,,,
,,,,,,,,,,,,,FF,,,,,,,,0.5486,,,,,,,,,,,,,,,,,,,,,,6103688918416a123fdfcf68,61036da0d1f92de10ffb3eee,2021-07-29_22h12.43.840,Simcolourproject_2stim_asymm_v5,2020.2.10,MacIntel,60,61025ae37ef11b136ea224fe,,,,,,,,,3829,34.01367188,67.67623901,1,0,0,response1disk,,7,5.979919434,2.266448975,1,0,0,rectangle,5.979919434,2.266448975,1,0,0,5.979919434,2.266448975,1,0,0,0,20,20,68,1,,,,,,,,
,,,,,,,,,,,,,FF,,,,,,,,2.0856,,,,,,,,,,,,,,,,,,,,,,6103688918416a123fdfcf68,61036da0d1f92de10ffb3eee,2021-07-29_22h12.43.840,Simcolourproject_2stim_asymm_v5,2020.2.10,MacIntel,60,61025ae37ef11b136ea224fe,,,,,,,,,1824,72.65454102,39.3203125,1,0,0,response1disk,,6,-5.15612793,2.046875,1,0,0,rectangle,-5.15612793,2.046875,1,0,0,-5.15612793,2.046875,1,0,0,0,21,21,23,1,,,,,,,,
,,,,,,,,,,,,,FF,,,,,,,,0.6001,,,,,,,,,,,,,,,,,,,,,,6103688918416a123fdfcf68,61036da0d1f92de10ffb3eee,2021-07-29_22h12.43.840,Simcolourproject_2stim_asymm_v5,2020.2.10,MacIntel,60,61025ae37ef11b136ea224fe,,,,,,,,,2591,23.48516846,57.20199585,1,0,0,response1disk,,7,6.604797363,1.744110107,1,0,0,rectangle,6.604797363,1.744110107,1,0,0,6.604797363,1.744110107,1,0,0,0,22,22,132,1,,,,,,,,
,,,,,,,,,,,,,FF,,,,,,,,4.9153,,,,,,,,,,,,,,,,,,,,,,6103688918416a123fdfcf68,61036da0d1f92de10ffb3eee,2021-07-29_22h12.43.840,Simcolourproject_2stim_asymm_v5,2020.2.10,MacIntel,60,61025ae37ef11b136ea224fe,,,,,,,,,4362,-72.2668457,32.60955811,1,0,0,response7disk,,1,-2.754089355,-4.625671387,1,0,0,rectangle,-2.754089355,-4.625671387,1,0,0,-2.754089355,-4.625671387,1,0,0,0,23,23,105,1,,,,,,,,
,,,,,,,,,,,,,FF,,,,,,,,2.3498,,,,,,,,,,,,,,,,,,,,,,6103688918416a123fdfcf68,61036da0d1f92de10ffb3eee,2021-07-29_22h12.43.840,Simcolourproject_2stim_asymm_v5,2020.2.10,MacIntel,60,61025ae37ef11b136ea224fe,,,,,,,,,4228,32.79937744,67.73876953,1,0,0,response1disk,,7,18.37640381,-8.675354004,1,0,0,rectangle,18.37640381,-8.675354004,1,0,0,18.37640381,-8.675354004,1,0,0,0,24,24,56,1,,,,,,,,
,,,,,,,,,,,,,FF,,,,,,,,0.6678,,,,,,,,,,,,,,,,,,,,,,6103688918416a123fdfcf68,61036da0d1f92de10ffb3eee,2021-07-29_22h12.43.840,Simcolourproject_2stim_asymm_v5,2020.2.10,MacIntel,60,61025ae37ef11b136ea224fe,,,,,,,,,4315,35.85949707,71.14291382,1,0,0,response1disk,,7,-1.408630371,0.312438965,1,0,0,rectangle,-1.408630371,0.312438965,1,0,0,-1.408630371,0.312438965,1,0,0,0,25,25,58,1,,,,,,,,
,,,,,,,,,,,,,FF,,,,,,,,1.0875,,,,,,,,,,,,,,,,,,,,,,6103688918416a123fdfcf68,61036da0d1f92de10ffb3eee,2021-07-29_22h12.43.840,Simcolourproject_2stim_asymm_v5,2020.2.10,MacIntel,60,61025ae37ef11b136ea224fe,,,,,,,,,74,36.18310547,82.16998291,1,0,0,response1disk,,7,1.868896484,0.268280029,1,0,0,rectangle,1.868896484,0.268280029,1,0,0,1.868896484,0.268280029,1,0,0,0,26,26,59,1,,,,,,,,
,,,,,,,,,,,,,FF,,,,,,,,0.5483,,,,,,,,,,,,,,,,,,,,,,6103688918416a123fdfcf68,61036da0d1f92de10ffb3eee,2021-07-29_22h12.43.840,Simcolourproject_2stim_asymm_v5,2020.2.10,MacIntel,60,61025ae37ef11b136ea224fe,,,,,,,,,667,33.94165039,64.20932007,1,0,0,response1disk,,7,4.241210938,14.51040649,1,0,0,rectangle,4.241210938,14.51040649,1,0,0,4.241210938,14.51040649,1,0,0,0,27,27,156,1,,,,,,,,
,,,,,,,,,,,,,FF,,,,,,,,0.6127,,,,,,,,,,,,,,,,,,,,,,6103688918416a123fdfcf68,61036da0d1f92de10ffb3eee,2021-07-29_22h12.43.840,Simcolourproject_2stim_asymm_v5,2020.2.10,MacIntel,60,61025ae37ef11b136ea224fe,,,,,,,,,3119,36.09521484,56.27322388,1,0,0,response1disk,,7,-6.101318359,2.878967285,1,0,0,rectangle,-6.101318359,2.878967285,1,0,0,-6.101318359,2.878967285,1,0,0,0,28,28,51,1,,,,,,,,
,,,,,,,,,,,,,FF,,,,,,,,0.4485,,,,,,,,,,,,,,,,,,,,,,6103688918416a123fdfcf68,61036da0d1f92de10ffb3eee,2021-07-29_22h12.43.840,Simcolourproject_2stim_asymm_v5,2020.2.10,MacIntel,60,61025ae37ef11b136ea224fe,,,,,,,,,280,33.71881104,71.98840332,1,0,0,response1disk,,7,10.83044434,0.77633667,1,0,0,rectangle,10.83044434,0.77633667,1,0,0,10.83044434,0.77633667,1,0,0,0,29,29,135,1,,,,,,,,
,,,,,,,,,,,,,FF,,,,,,,,0.497,,,,,,,,,,,,,,,,,,,,,,6103688918416a123fdfcf68,61036da0d1f92de10ffb3eee,2021-07-29_22h12.43.840,Simcolourproject_2stim_asymm_v5,2020.2.10,MacIntel,60,61025ae37ef11b136ea224fe,,,,,,,,,2255,40.62652588,85.85720825,1,0,0,response1disk,,7,0.890075684,9.717346191,1,0,0,rectangle,0.890075684,9.717346191,1,0,0,0.890075684,9.717346191,1,0,0,0,30,30,74,1,,,,,,,,
,,,,,,,,,,,,,FF,,,,,,,,0.5505,,,,,,,,,,,,,,,,,,,,,,6103688918416a123fdfcf68,61036da0d1f92de10ffb3eee,2021-07-29_22h12.43.840,Simcolourproject_2stim_asymm_v5,2020.2.10,MacIntel,60,61025ae37ef11b136ea224fe,,,,,,,,,2791,35.8538208,68.25314331,1,0,0,response1disk,,7,1.642028809,5.012268066,1,0,0,rectangle,1.642028809,5.012268066,1,0,0,1.642028809,5.012268066,1,0,0,0,31,31,92,1,,,,,,,,
,,,,,,,,,,,,,FF,,,,,,,,0.3676,,,,,,,,,,,,,,,,,,,,,,6103688918416a123fdfcf68,61036da0d1f92de10ffb3eee,2021-07-29_22h12.43.840,Simcolourproject_2stim_asymm_v5,2020.2.10,MacIntel,60,61025ae37ef11b136ea224fe,,,,,,,,,1021,41.24420166,71.1703186,1,0,0,response1disk,,7,1.826477051,1.679840088,1,0,0,rectangle,1.826477051,1.679840088,1,0,0,1.826477051,1.679840088,1,0,0,0,32,32,112,1,,,,,,,,
,,,,,,,,,,,,,FF,,,,,,,,0.63,,,,,,,,,,,,,,,,,,,,,,6103688918416a123fdfcf68,61036da0d1f92de10ffb3eee,2021-07-29_22h12.43.840,Simcolourproject_2stim_asymm_v5,2020.2.10,MacIntel,60,61025ae37ef11b136ea224fe,,,,,,,,,16,30.4753418,56.42071533,1,0,0,response1disk,,7,-0.739257813,-6.663208008,1,0,0,rectangle,-0.739257813,-6.663208008,1,0,0,-0.739257813,-6.663208008,1,0,0,0,33,33,0,1,,,,,,,,
,,,,,,,,,,,,,FF,,,,,,,,0.7176,,,,,,,,,,,,,,,,,,,,,,6103688918416a123fdfcf68,61036da0d1f92de10ffb3eee,2021-07-29_22h12.43.840,Simcolourproject_2stim_asymm_v5,2020.2.10,MacIntel,60,61025ae37ef11b136ea224fe,,,,,,,,,2701,37.38562012,69.64822388,1,0,0,response1disk,,7,-7.941223145,-10.48730469,1,0,0,rectangle,-7.941223145,-10.48730469,1,0,0,-7.941223145,-10.48730469,1,0,0,0,34,34,27,1,,,,,,,,
,,,,,,,,,,,,,FF,,,,,,,,0.7174,,,,,,,,,,,,,,,,,,,,,,6103688918416a123fdfcf68,61036da0d1f92de10ffb3eee,2021-07-29_22h12.43.840,Simcolourproject_2stim_asymm_v5,2020.2.10,MacIntel,60,61025ae37ef11b136ea224fe,,,,,,,,,4185,51.45050049,80.15475464,1,0,0,response1disk,,7,7.167114258,2.112609863,1,0,0,rectangle,7.167114258,2.112609863,1,0,0,7.167114258,2.112609863,1,0,0,0,35,35,35,1,,,,,,,,
,,,,,,,,,,,,,FF,,,,,,,,0.4827,,,,,,,,,,,,,,,,,,,,,,6103688918416a123fdfcf68,61036da0d1f92de10ffb3eee,2021-07-29_22h12.43.840,Simcolourproject_2stim_asymm_v5,2020.2.10,MacIntel,60,61025ae37ef11b136ea224fe,,,,,,,,,1994,43.83032227,75.90783691,1,0,0,response1disk,,7,1.972290039,-11.9644165,1,0,0,rectangle,1.972290039,-11.9644165,1,0,0,1.972290039,-11.9644165,1,0,0,0,36,36,63,1,,,,,,,,
,,,,,,,,,,,,,FF,,,,,,,,0.4489,,,,,,,,,,,,,,,,,,,,,,6103688918416a123fdfcf68,61036da0d1f92de10ffb3eee,2021-07-29_22h12.43.840,Simcolourproject_2stim_asymm_v5,2020.2.10,MacIntel,60,61025ae37ef11b136ea224fe,,,,,,,,,2708,53.94805908,88.91262817,1,0,0,response1disk,,7,-1.339111328,4.811889648,1,0,0,rectangle,-1.339111328,4.811889648,1,0,0,-1.339111328,4.811889648,1,0,0,0,37,37,99,1,,,,,,,,
,,,,,,,,,,,,,FF,,,,,,,,0.4477,,,,,,,,,,,,,,,,,,,,,,6103688918416a123fdfcf68,61036da0d1f92de10ffb3eee,2021-07-29_22h12.43.840,Simcolourproject_2stim_asymm_v5,2020.2.10,MacIntel,60,61025ae37ef11b136ea224fe,,,,,,,,,3877,51.33862305,79.54064941,1,0,0,response1disk,,7,4.216125488,-13.01351929,1,0,0,rectangle,4.216125488,-13.01351929,1,0,0,4.216125488,-13.01351929,1,0,0,0,38,38,119,1,,,,,,,,
,,,,,,,,,,,,,FF,,,,,,,,0.4625,,,,,,,,,,,,,,,,,,,,,,6103688918416a123fdfcf68,61036da0d1f92de10ffb3eee,2021-07-29_22h12.43.840,Simcolourproject_2stim_asymm_v5,2020.2.10,MacIntel,60,61025ae37ef11b136ea224fe,,,,,,,,,1073,43.27978516,68.50759888,1,0,0,response1disk,,7,1.09375,-2.947387695,1,0,0,rectangle,1.09375,-2.947387695,1,0,0,1.09375,-2.947387695,1,0,0,0,39,39,46,1,,,,,,,,
,,,,,,,,,,,,,FF,,,,,,,,0.4147,,,,,,,,,,,,,,,,,,,,,,6103688918416a123fdfcf68,61036da0d1f92de10ffb3eee,2021-07-29_22h12.43.840,Simcolourproject_2stim_asymm_v5,2020.2.10,MacIntel,60,61025ae37ef11b136ea224fe,,,,,,,,,219,37.32537842,60.54498291,1,0,0,response1disk,,7,-2.380004883,-4.201904297,1,0,0,rectangle,-2.380004883,-4.201904297,1,0,0,-2.380004883,-4.201904297,1,0,0,0,40,40,37,1,,,,,,,,
,,,,,,,,,,,,,FF,,,,,,,,0.4006,,,,,,,,,,,,,,,,,,,,,,6103688918416a123fdfcf68,61036da0d1f92de10ffb3eee,2021-07-29_22h12.43.840,Simcolourproject_2stim_asymm_v5,2020.2.10,MacIntel,60,61025ae37ef11b136ea224fe,,,,,,,,,4184,47.90679932,85.28948975,1,0,0,response1disk,,7,4.795227051,-5.062683105,1,0,0,rectangle,4.795227051,-5.062683105,1,0,0,4.795227051,-5.062683105,1,0,0,0,41,41,150,1,,,,,,,,
,,,,,,,,,,,,,FF,,,,,,,,0.516,,,,,,,,,,,,,,,,,,,,,,6103688918416a123fdfcf68,61036da0d1f92de10ffb3eee,2021-07-29_22h12.43.840,Simcolourproject_2stim_asymm_v5,2020.2.10,MacIntel,60,61025ae37ef11b136ea224fe,,,,,,,,,2136,62.19213867,72.38983154,1,0,0,response1disk,,7,1.616088867,2.731201172,1,0,0,rectangle,1.616088867,2.731201172,1,0,0,1.616088867,2.731201172,1,0,0,0,42,42,29,1,,,,,,,,
,,,,,,,,,,,,,FF,,,,,,,,0.4837,,,,,,,,,,,,,,,,,,,,,,6103688918416a123fdfcf68,61036da0d1f92de10ffb3eee,2021-07-29_22h12.43.840,Simcolourproject_2stim_asymm_v5,2020.2.10,MacIntel,60,61025ae37ef11b136ea224fe,,,,,,,,,704,33.33209229,67.66674805,1,0,0,response1disk,,7,2.658081055,-10.82144165,1,0,0,rectangle,2.658081055,-10.82144165,1,0,0,2.658081055,-10.82144165,1,0,0,0,43,43,126,1,,,,,,,,
,,,,,,,,,,,,,FF,,,,,,,,4.6868,,,,,,,,,,,,,,,,,,,,,,6103688918416a123fdfcf68,61036da0d1f92de10ffb3eee,2021-07-29_22h12.43.840,Simcolourproject_2stim_asymm_v5,2020.2.10,MacIntel,60,61025ae37ef11b136ea224fe,,,,,,,,,1958,-56.19128418,30.98779297,1,0,0,response7disk,,1,9.38269043,-5.167297363,1,0,0,rectangle,9.38269043,-5.167297363,1,0,0,9.38269043,-5.167297363,1,0,0,0,44,44,154,1,,,,,,,,
,,,,,,,,,,,,,FF,,,,,,,,0.6471,,,,,,,,,,,,,,,,,,,,,,6103688918416a123fdfcf68,61036da0d1f92de10ffb3eee,2021-07-29_22h12.43.840,Simcolourproject_2stim_asymm_v5,2020.2.10,MacIntel,60,61025ae37ef11b136ea224fe,,,,,,,,,2323,40.09570313,80.59173584,1,0,0,response1disk,,7,1.951599121,-0.476989746,1,0,0,rectangle,1.951599121,-0.476989746,1,0,0,1.951599121,-0.476989746,1,0,0,0,45,45,116,1,,,,,,,,
,,,,,,,,,,,,,FF,,,,,,,,0.4013,,,,,,,,,,,,,,,,,,,,,,6103688918416a123fdfcf68,61036da0d1f92de10ffb3eee,2021-07-29_22h12.43.840,Simcolourproject_2stim_asymm_v5,2020.2.10,MacIntel,60,61025ae37ef11b136ea224fe,,,,,,,,,487,33.19177246,66.78424072,1,0,0,response1disk,,7,0.60925293,2.139129639,1,0,0,rectangle,0.60925293,2.139129639,1,0,0,0.60925293,2.139129639,1,0,0,0,46,46,129,1,,,,,,,,
,,,,,,,,,,,,,FF,,,,,,,,0.587,,,,,,,,,,,,,,,,,,,,,,6103688918416a123fdfcf68,61036da0d1f92de10ffb3eee,2021-07-29_22h12.43.840,Simcolourproject_2stim_asymm_v5,2020.2.10,MacIntel,60,61025ae37ef11b136ea224fe,,,,,,,,,2177,43.57995605,67.61621094,1,0,0,response1disk,,7,2.143676758,-2.138244629,1,0,0,rectangle,2.143676758,-2.138244629,1,0,0,2.143676758,-2.138244629,1,0,0,0,47,47,17,1,,,,,,,,
,,,,,,,,,,,,,FF,,,,,,,,2.0853,,,,,,,,,,,,,,,,,,,,,,6103688918416a123fdfcf68,61036da0d1f92de10ffb3eee,2021-07-29_22h12.43.840,Simcolourproject_2stim_asymm_v5,2020.2.10,MacIntel,60,61025ae37ef11b136ea224fe,,,,,,,,,2041,53.24841309,28.26538086,1,0,0,response1disk,,6,0.789733887,-12.28771973,1,0,0,rectangle,32.0692749,83.47723389,1,0,0,-2.288024902,-6.99508667,1,0,0,0,48,48,136,1,,response1disk_3,TRUE,7,7,"[86,230,154,49,124,277,280,81,229,228,200,77,250,78,269,136,211,92,263,257]",2.6319,rectangle
,,,,,,,,,,,,,FF,,,,,,,,1.4507,,,,,,,,,,,,,,,,,,,,,,6103688918416a123fdfcf68,61036da0d1f92de10ffb3eee,2021-07-29_22h12.43.840,Simcolourproject_2stim_asymm_v5,2020.2.10,MacIntel,60,61025ae37ef11b136ea224fe,,,,,,,,,1734,-65.03869629,24.17944336,1,0,0,response7disk,,1,-5.85949707,6.423858643,1,0,0,rectangle,-5.85949707,6.423858643,1,0,0,-5.85949707,6.423858643,1,0,0,0,49,49,65,1,,,,,,,,
,,,,,,,,,,,,,FF,,,,,,,,0.6856,,,,,,,,,,,,,,,,,,,,,,6103688918416a123fdfcf68,61036da0d1f92de10ffb3eee,2021-07-29_22h12.43.840,Simcolourproject_2stim_asymm_v5,2020.2.10,MacIntel,60,61025ae37ef11b136ea224fe,,,,,,,,,1568,53.15112305,97.77191162,1,0,0,response1disk,,7,-7.93145752,-0.961608887,1,0,0,rectangle,-7.93145752,-0.961608887,1,0,0,-7.93145752,-0.961608887,1,0,0,0,50,50,81,1,,,,,,,,
,,,,,,,,,,,,,FF,,,,,,,,2.9157,,,,,,,,,,,,,,,,,,,,,,6103688918416a123fdfcf68,61036da0d1f92de10ffb3eee,2021-07-29_22h12.43.840,Simcolourproject_2stim_asymm_v5,2020.2.10,MacIntel,60,61025ae37ef11b136ea224fe,,,,,,,,,1448,-62.65008545,36.27947998,1,0,0,response7disk,,1,0.472839355,5.162353516,1,0,0,rectangle,0.472839355,5.162353516,1,0,0,0.472839355,5.162353516,1,0,0,0,51,51,134,1,,,,,,,,
,,,,,,,,,,,,,FF,,,,,,,,0.7173,,,,,,,,,,,,,,,,,,,,,,6103688918416a123fdfcf68,61036da0d1f92de10ffb3eee,2021-07-29_22h12.43.840,Simcolourproject_2stim_asymm_v5,2020.2.10,MacIntel,60,61025ae37ef11b136ea224fe,,,,,,,,,1473,37.52026367,62.23303223,1,0,0,response1disk,,7,2.471069336,3.987548828,1,0,0,rectangle,2.471069336,3.987548828,1,0,0,2.471069336,3.987548828,1,0,0,0,52,52,33,1,,,,,,,,
,,,,,,,,,,,,,FF,,,,,,,,2.0499,,,,,,,,,,,,,,,,,,,,,,6103688918416a123fdfcf68,61036da0d1f92de10ffb3eee,2021-07-29_22h12.43.840,Simcolourproject_2stim_asymm_v5,2020.2.10,MacIntel,60,61025ae37ef11b136ea224fe,,,,,,,,,3518,36.2298584,60.9906311,1,0,0,response1disk,,7,7.145874023,1.013366699,1,0,0,rectangle,7.145874023,1.013366699,1,0,0,7.145874023,1.013366699,1,0,0,0,53,53,54,1,,,,,,,,
,,,,,,,,,,,,,FF,,,,,,,,0.5312,,,,,,,,,,,,,,,,,,,,,,6103688918416a123fdfcf68,61036da0d1f92de10ffb3eee,2021-07-29_22h12.43.840,Simcolourproject_2stim_asymm_v5,2020.2.10,MacIntel,60,61025ae37ef11b136ea224fe,,,,,,,,,3030,25.9487915,69.32629395,1,0,0,response1disk,,7,0.307922363,-8.900360107,1,0,0,rectangle,0.307922363,-8.900360107,1,0,0,0.307922363,-8.900360107,1,0,0,0,54,54,111,1,,,,,,,,
,,,,,,,,,,,,,FF,,,,,,,,0.4001,,,,,,,,,,,,,,,,,,,,,,6103688918416a123fdfcf68,61036da0d1f92de10ffb3eee,2021-07-29_22h12.43.840,Simcolourproject_2stim_asymm_v5,2020.2.10,MacIntel,60,61025ae37ef11b136ea224fe,,,,,,,,,703,37.41668701,74.73907471,1,0,0,response1disk,,7,5.092651367,2.449157715,1,0,0,rectangle,5.092651367,2.449157715,1,0,0,5.092651367,2.449157715,1,0,0,0,55,55,39,1,,,,,,,,
,,,,,,,,,,,,,FF,,,,,,,,8.5632,,,,,,,,,,,,,,,,,,,,,,6103688918416a123fdfcf68,61036da0d1f92de10ffb3eee,2021-07-29_22h12.43.840,Simcolourproject_2stim_asymm_v5,2020.2.10,MacIntel,60,61025ae37ef11b136ea224fe,,,,,,,,,4222,84.41992188,-36.11245728,1,0,0,response3disk,,5,1.212585449,7.145019531,1,0,0,rectangle,1.212585449,7.145019531,1,0,0,1.212585449,7.145019531,1,0,0,0,56,56,22,1,,,,,,,,
,,,,,,,,,,,,,FF,,,,,,,,3.0491,,,,,,,,,,,,,,,,,,,,,,6103688918416a123fdfcf68,61036da0d1f92de10ffb3eee,2021-07-29_22h12.43.840,Simcolourproject_2stim_asymm_v5,2020.2.10,MacIntel,60,61025ae37ef11b136ea224fe,,,,,,,,,769,55.83648682,82.81594849,1,0,0,response1disk,,7,3.805664063,-13.93664551,1,0,0,rectangle,3.805664063,-13.93664551,1,0,0,3.805664063,-13.93664551,1,0,0,0,57,57,85,1,,,,,,,,
,,,,,,,,,,,,,FF,,,,,,,,5.8806,,,,,,,,,,,,,,,,,,,,,,6103688918416a123fdfcf68,61036da0d1f92de10ffb3eee,2021-07-29_22h12.43.840,Simcolourproject_2stim_asymm_v5,2020.2.10,MacIntel,60,61025ae37ef11b136ea224fe,,,,,,,,,2362,-93.34643555,-52.60614014,1,0,0,response5disk,,2,4.372436523,-2.188690186,1,0,0,rectangle,4.372436523,-2.188690186,1,0,0,4.372436523,-2.188690186,1,0,0,0,58,58,9,1,,,,,,,,
,,,,,,,,,,,,,FF,,,,,,,,1.2867,,,,,,,,,,,,,,,,,,,,,,6103688918416a123fdfcf68,61036da0d1f92de10ffb3eee,2021-07-29_22h12.43.840,Simcolourproject_2stim_asymm_v5,2020.2.10,MacIntel,60,61025ae37ef11b136ea224fe,,,,,,,,,3590,45.59741211,59.10101318,1,0,0,response1disk,,7,-9.139160156,-7.425354004,1,0,0,rectangle,-9.139160156,-7.425354004,1,0,0,-9.139160156,-7.425354004,1,0,0,0,59,59,146,1,,,,,,,,
,,,,,,,,,,,,,FF,,,,,,,,4.8433,,,,,,,,,,,,,,,,,,,,,,6103688918416a123fdfcf68,61036da0d1f92de10ffb3eee,2021-07-29_22h12.43.840,Simcolourproject_2stim_asymm_v5,2020.2.10,MacIntel,60,61025ae37ef11b136ea224fe,,,,,,,,,2399,40.73754883,94.83166504,1,0,0,response1disk,,7,4.481567383,0.498077393,1,0,0,rectangle,4.481567383,0.498077393,1,0,0,4.481567383,0.498077393,1,0,0,0,60,60,12,1,,,,,,,,
,,,,,,,,,,,,,FF,,,,,,,,0.6139,,,,,,,,,,,,,,,,,,,,,,6103688918416a123fdfcf68,61036da0d1f92de10ffb3eee,2021-07-29_22h12.43.840,Simcolourproject_2stim_asymm_v5,2020.2.10,MacIntel,60,61025ae37ef11b136ea224fe,,,,,,,,,2007,45.10461426,63.35864258,1,0,0,response1disk,,7,-5.309082031,0.520263672,1,0,0,rectangle,-5.309082031,0.520263672,1,0,0,-5.309082031,0.520263672,1,0,0,0,61,61,157,1,,,,,,,,
,,,,,,,,,,,,,FF,,,,,,,,4.164,,,,,,,,,,,,,,,,,,,,,,6103688918416a123fdfcf68,61036da0d1f92de10ffb3eee,2021-07-29_22h12.43.840,Simcolourproject_2stim_asymm_v5,2020.2.10,MacIntel,60,61025ae37ef11b136ea224fe,,,,,,,,,1391,19.72991943,54.51452637,1,0,0,response1disk,,7,-2.557067871,-0.045959473,1,0,0,rectangle,-2.557067871,-0.045959473,1,0,0,-2.557067871,-0.045959473,1,0,0,0,62,62,70,1,,,,,,,,
,,,,,,,,,,,,,FF,,,,,,,,0.5193,,,,,,,,,,,,,,,,,,,,,,6103688918416a123fdfcf68,61036da0d1f92de10ffb3eee,2021-07-29_22h12.43.840,Simcolourproject_2stim_asymm_v5,2020.2.10,MacIntel,60,61025ae37ef11b136ea224fe,,,,,,,,,2778,47.05072021,70.63195801,1,0,0,response1disk,,7,3.638183594,2.06237793,1,0,0,rectangle,3.638183594,2.06237793,1,0,0,3.638183594,2.06237793,1,0,0,0,63,63,100,1,,,,,,,,
,,,,,,,,,,,,,FF,,,,,,,,2.0626,,,,,,,,,,,,,,,,,,,,,,6103688918416a123fdfcf68,61036da0d1f92de10ffb3eee,2021-07-29_22h12.43.840,Simcolourproject_2stim_asymm_v5,2020.2.10,MacIntel,60,61025ae37ef11b136ea224fe,,,,,,,,,550,-74.831604,33.05426025,1,0,0,response7disk,,1,5.958007813,2.815979004,1,0,0,rectangle,5.958007813,2.815979004,1,0,0,5.958007813,2.815979004,1,0,0,0,64,64,120,1,,,,,,,,
,,,,,,,,,,,,,FF,,,,,,,,0.6021,,,,,,,,,,,,,,,,,,,,,,6103688918416a123fdfcf68,61036da0d1f92de10ffb3eee,2021-07-29_22h12.43.840,Simcolourproject_2stim_asymm_v5,2020.2.10,MacIntel,60,61025ae37ef11b136ea224fe,,,,,,,,,50,53.44787598,87.91186523,1,0,0,response1disk,,7,-5.875244141,5.210449219,1,0,0,rectangle,-5.875244141,5.210449219,1,0,0,-5.875244141,5.210449219,1,0,0,0,65,65,26,1,,,,,,,,
,,,,,,,,,,,,,FF,,,,,,,,0.4615,,,,,,,,,,,,,,,,,,,,,,6103688918416a123fdfcf68,61036da0d1f92de10ffb3eee,2021-07-29_22h12.43.840,Simcolourproject_2stim_asymm_v5,2020.2.10,MacIntel,60,61025ae37ef11b136ea224fe,,,,,,,,,2485,42.27258301,64.8081665,1,0,0,response1disk,,7,3.143371582,0.978088379,1,0,0,rectangle,3.143371582,0.978088379,1,0,0,3.143371582,0.978088379,1,0,0,0,66,66,6,1,,,,,,,,
,,,,,,,,,,,,,FF,,,,,,,,0.7021,,,,,,,,,,,,,,,,,,,,,,6103688918416a123fdfcf68,61036da0d1f92de10ffb3eee,2021-07-29_22h12.43.840,Simcolourproject_2stim_asymm_v5,2020.2.10,MacIntel,60,61025ae37ef11b136ea224fe,,,,,,,,,2679,35.39294434,65.89880371,1,0,0,response1disk,,7,3.067321777,-16.36340332,1,0,0,rectangle,3.067321777,-16.36340332,1,0,0,3.067321777,-16.36340332,1,0,0,0,67,67,7,1,,,,,,,,
,,,,,,,,,,,,,FF,,,,,,,,2.8119,,,,,,,,,,,,,,,,,,,,,,6103688918416a123fdfcf68,61036da0d1f92de10ffb3eee,2021-07-29_22h12.43.840,Simcolourproject_2stim_asymm_v5,2020.2.10,MacIntel,60,61025ae37ef11b136ea224fe,,,,,,,,,3432,-73.20489502,32.80950928,1,0,0,response7disk,,1,-6.531066895,3.249237061,1,0,0,rectangle,-6.531066895,3.249237061,1,0,0,-6.531066895,3.249237061,1,0,0,0,68,68,89,1,,,,,,,,
,,,,,,,,,,,,,FF,,,,,,,,0.622,,,,,,,,,,,,,,,,,,,,,,6103688918416a123fdfcf68,61036da0d1f92de10ffb3eee,2021-07-29_22h12.43.840,Simcolourproject_2stim_asymm_v5,2020.2.10,MacIntel,60,61025ae37ef11b136ea224fe,,,,,,,,,3171,44.56176758,89.62512207,1,0,0,response1disk,,7,-2.357543945,0.383789063,1,0,0,rectangle,-2.357543945,0.383789063,1,0,0,-2.357543945,0.383789063,1,0,0,0,69,69,115,1,,,,,,,,
,,,,,,,,,,,,,FF,,,,,,,,0.6838,,,,,,,,,,,,,,,,,,,,,,6103688918416a123fdfcf68,61036da0d1f92de10ffb3eee,2021-07-29_22h12.43.840,Simcolourproject_2stim_asymm_v5,2020.2.10,MacIntel,60,61025ae37ef11b136ea224fe,,,,,,,,,420,39.92486572,77.70529175,1,0,0,response1disk,,7,4.304199219,2.555664063,1,0,0,rectangle,4.304199219,2.555664063,1,0,0,4.304199219,2.555664063,1,0,0,0,70,70,11,1,,,,,,,,
,,,,,,,,,,,,,FF,,,,,,,,0.5339,,,,,,,,,,,,,,,,,,,,,,6103688918416a123fdfcf68,61036da0d1f92de10ffb3eee,2021-07-29_22h12.43.840,Simcolourproject_2stim_asymm_v5,2020.2.10,MacIntel,60,61025ae37ef11b136ea224fe,,,,,,,,,457,26.54650879,64.67810059,1,0,0,response1disk,,7,-5.180908203,-12.86499023,1,0,0,rectangle,-5.180908203,-12.86499023,1,0,0,-5.180908203,-12.86499023,1,0,0,0,71,71,5,1,,,,,,,,
,,,,,,,,,,,,,FF,,,,,,,,2.5845,,,,,,,,,,,,,,,,,,,,,,6103688918416a123fdfcf68,61036da0d1f92de10ffb3eee,2021-07-29_22h12.43.840,Simcolourproject_2stim_asymm_v5,2020.2.10,MacIntel,60,61025ae37ef11b136ea224fe,,,,,,,,,2026,-73.96466064,-47.97875977,1,0,0,response5disk,,2,-2.579711914,2.864257813,1,0,0,rectangle,-2.579711914,2.864257813,1,0,0,-2.579711914,2.864257813,1,0,0,0,72,72,30,1,,,,,,,,
,,,,,,,,,,,,,FF,,,,,,,,0.7154,,,,,,,,,,,,,,,,,,,,,,6103688918416a123fdfcf68,61036da0d1f92de10ffb3eee,2021-07-29_22h12.43.840,Simcolourproject_2stim_asymm_v5,2020.2.10,MacIntel,60,61025ae37ef11b136ea224fe,,,,,,,,,2582,25.67431641,64.23242188,1,0,0,response1disk,,7,2.552490234,-6.039245605,1,0,0,rectangle,2.552490234,-6.039245605,1,0,0,2.552490234,-6.039245605,1,0,0,0,73,73,47,1,,,,,,,,
,,,,,,,,,,,,,FF,,,,,,,,0.5862,,,,,,,,,,,,,,,,,,,,,,6103688918416a123fdfcf68,61036da0d1f92de10ffb3eee,2021-07-29_22h12.43.840,Simcolourproject_2stim_asymm_v5,2020.2.10,MacIntel,60,61025ae37ef11b136ea224fe,,,,,,,,,1787,33.18469238,58.4206543,1,0,0,response1disk,,7,13.42340088,6.299102783,1,0,0,rectangle,13.42340088,6.299102783,1,0,0,13.42340088,6.299102783,1,0,0,0,74,74,45,1,,,,,,,,
,,,,,,,,,,,,,FF,,,,,,,,0.3389,,,,,,,,,,,,,,,,,,,,,,6103688918416a123fdfcf68,61036da0d1f92de10ffb3eee,2021-07-29_22h12.43.840,Simcolourproject_2stim_asymm_v5,2020.2.10,MacIntel,60,61025ae37ef11b136ea224fe,,,,,,,,,580,35.27166748,59.5802002,1,0,0,response1disk,,7,13.76086426,-3.217773438,1,0,0,rectangle,13.76086426,-3.217773438,1,0,0,13.76086426,-3.217773438,1,0,0,0,75,75,145,1,,,,,,,,
,,,,,,,,,,,,,FF,,,,,,,,0.3632,,,,,,,,,,,,,,,,,,,,,,6103688918416a123fdfcf68,61036da0d1f92de10ffb3eee,2021-07-29_22h12.43.840,Simcolourproject_2stim_asymm_v5,2020.2.10,MacIntel,60,61025ae37ef11b136ea224fe,,,,,,,,,2395,40.06011963,60.36907959,1,0,0,response1disk,,7,14.54638672,15.0194397,1,0,0,rectangle,106.7733154,60.58828735,1,0,0,-7.132507324,2.695983887,1,0,0,0,76,76,61,1,,response1disk_3,TRUE,6,6,"[86,230,154,49,124,277,280,81,229,228,200,77,250,78,269,136,211,92,263,257]",2.1475,rectangle
,,,,,,,,,,,,,FF,,,,,,,,0.847,,,,,,,,,,,,,,,,,,,,,,6103688918416a123fdfcf68,61036da0d1f92de10ffb3eee,2021-07-29_22h12.43.840,Simcolourproject_2stim_asymm_v5,2020.2.10,MacIntel,60,61025ae37ef11b136ea224fe,,,,,,,,,47,26.0803833,67.23501587,1,0,0,response1disk,,7,3.125915527,7.494537354,1,0,0,rectangle,-109.5708618,-86.36859131,1,0,0,7.682312012,8.974731445,1,0,0,0,77,77,82,1,,response5disk_3,TRUE,2,2,"[86,230,154,49,124,277,280,81,229,228,200,77,250,78,269,136,211,92,263,257]",2.1358,rectangle
,,,,,,,,,,,,,FF,,,,,,,,0.9375,,,,,,,,,,,,,,,,,,,,,,6103688918416a123fdfcf68,61036da0d1f92de10ffb3eee,2021-07-29_22h12.43.840,Simcolourproject_2stim_asymm_v5,2020.2.10,MacIntel,60,61025ae37ef11b136ea224fe,,,,,,,,,1052,37.42907715,51.81817627,1,0,0,response1disk,,7,1.406677246,-4.789794922,1,0,0,rectangle,1.406677246,-4.789794922,1,0,0,1.406677246,-4.789794922,1,0,0,0,78,78,122,1,,,,,,,,
,,,,,,,,,,,,,FF,,,,,,,,0.4511,,,,,,,,,,,,,,,,,,,,,,6103688918416a123fdfcf68,61036da0d1f92de10ffb3eee,2021-07-29_22h12.43.840,Simcolourproject_2stim_asymm_v5,2020.2.10,MacIntel,60,61025ae37ef11b136ea224fe,,,,,,,,,3235,28.72521973,51.38555908,1,0,0,response1disk,,7,-2.343322754,-4.104431152,1,0,0,rectangle,-2.343322754,-4.104431152,1,0,0,-2.343322754,-4.104431152,1,0,0,0,79,79,103,1,,,,,,,,
,,,,,,,,,,,,,FF,,,,,,,,0.582,,,,,,,,,,,,,,,,,,,,,,6103688918416a123fdfcf68,61036da0d1f92de10ffb3eee,2021-07-29_22h12.43.840,Simcolourproject_2stim_asymm_v5,2020.2.10,MacIntel,60,61025ae37ef11b136ea224fe,,,,,,,,,3928,41.42010498,59.82989502,1,0,0,response1disk,,7,14.72253418,12.47741699,1,0,0,rectangle,-35.68237305,93.67431641,1,0,0,9.747192383,0.159362793,1,0,0,0,80,80,42,1,,response7disk_3,TRUE,0,0,"[86,230,154,49,124,277,280,81,229,228,200,77,250,78,269,136,211,92,263,257]",2.001,rectangle
,,,,,,,,,,,,,FF,,,,,,,,0.6847,,,,,,,,,,,,,,,,,,,,,,6103688918416a123fdfcf68,61036da0d1f92de10ffb3eee,2021-07-29_22h12.43.840,Simcolourproject_2stim_asymm_v5,2020.2.10,MacIntel,60,61025ae37ef11b136ea224fe,,,,,,,,,3187,37.74304199,78.371521,1,0,0,response1disk,,7,10.65161133,12.46893311,1,0,0,rectangle,10.65161133,12.46893311,1,0,0,10.65161133,12.46893311,1,0,0,0,81,81,96,1,,,,,,,,
,,,,,,,,,,,,,FF,,,,,,,,2.5479,,,,,,,,,,,,,,,,,,,,,,6103688918416a123fdfcf68,61036da0d1f92de10ffb3eee,2021-07-29_22h12.43.840,Simcolourproject_2stim_asymm_v5,2020.2.10,MacIntel,60,61025ae37ef11b136ea224fe,,,,,,,,,4300,35.93688965,64.6472168,1,0,0,response1disk,,7,-0.864379883,7.329467773,1,0,0,rectangle,-0.864379883,7.329467773,1,0,0,-0.864379883,7.329467773,1,0,0,0,82,82,110,1,,,,,,,,
,,,,,,,,,,,,,FF,,,,,,,,0.5635,,,,,,,,,,,,,,,,,,,,,,6103688918416a123fdfcf68,61036da0d1f92de10ffb3eee,2021-07-29_22h12.43.840,Simcolourproject_2stim_asymm_v5,2020.2.10,MacIntel,60,61025ae37ef11b136ea224fe,,,,,,,,,1103,46.89959717,83.91271973,1,0,0,response1disk,,7,5.016235352,-0.260986328,1,0,0,rectangle,5.016235352,-0.260986328,1,0,0,5.016235352,-0.260986328,1,0,0,0,83,83,109,1,,,,,,,,
,,,,,,,,,,,,,FF,,,,,,,,0.3992,,,,,,,,,,,,,,,,,,,,,,6103688918416a123fdfcf68,61036da0d1f92de10ffb3eee,2021-07-29_22h12.43.840,Simcolourproject_2stim_asymm_v5,2020.2.10,MacIntel,60,61025ae37ef11b136ea224fe,,,,,,,,,3605,48.2644043,71.77618408,1,0,0,response1disk,,7,-4.174072266,0.837585449,1,0,0,rectangle,-4.174072266,0.837585449,1,0,0,-4.174072266,0.837585449,1,0,0,0,84,84,93,1,,,,,,,,
,,,,,,,,,,,,,FF,,,,,,,,0.5944,,,,,,,,,,,,,,,,,,,,,,6103688918416a123fdfcf68,61036da0d1f92de10ffb3eee,2021-07-29_22h12.43.840,Simcolourproject_2stim_asymm_v5,2020.2.10,MacIntel,60,61025ae37ef11b136ea224fe,,,,,,,,,3672,41.96624756,90.5581665,1,0,0,response1disk,,7,5.356872559,5.761016846,1,0,0,rectangle,113.2935181,65.79089355,1,0,0,10.9921875,9.881652832,1,0,0,0,85,85,104,1,,response1disk_3,TRUE,6,6,"[86,230,154,49,124,277,280,81,229,228,200,77,250,78,269,136,211,92,263,257]",2.1365,rectangle
,,,,,,,,,,,,,FF,,,,,,,,0.8166,,,,,,,,,,,,,,,,,,,,,,6103688918416a123fdfcf68,61036da0d1f92de10ffb3eee,2021-07-29_22h12.43.840,Simcolourproject_2stim_asymm_v5,2020.2.10,MacIntel,60,61025ae37ef11b136ea224fe,,,,,,,,,3990,45.68994141,90.73150635,1,0,0,response1disk,,7,7.21270752,0.676391602,1,0,0,rectangle,7.21270752,0.676391602,1,0,0,7.21270752,0.676391602,1,0,0,0,86,86,38,1,,,,,,,,
,,,,,,,,,,,,,FF,,,,,,,,0.4803,,,,,,,,,,,,,,,,,,,,,,6103688918416a123fdfcf68,61036da0d1f92de10ffb3eee,2021-07-29_22h12.43.840,Simcolourproject_2stim_asymm_v5,2020.2.10,MacIntel,60,61025ae37ef11b136ea224fe,,,,,,,,,1449,57.3338623,85.19561768,1,0,0,response1disk,,7,5.073608398,-2.657501221,1,0,0,rectangle,5.073608398,-2.657501221,1,0,0,5.073608398,-2.657501221,1,0,0,0,87,87,16,1,,,,,,,,
,,,,,,,,,,,,,FF,,,,,,,,0.3636,,,,,,,,,,,,,,,,,,,,,,6103688918416a123fdfcf68,61036da0d1f92de10ffb3eee,2021-07-29_22h12.43.840,Simcolourproject_2stim_asymm_v5,2020.2.10,MacIntel,60,61025ae37ef11b136ea224fe,,,,,,,,,1592,45.69689941,76.32312012,1,0,0,response1disk,,7,-0.36730957,5.896606445,1,0,0,rectangle,-0.36730957,5.896606445,1,0,0,-0.36730957,5.896606445,1,0,0,0,88,88,86,1,,,,,,,,
,,,,,,,,,,,,,FF,,,,,,,,0.4326,,,,,,,,,,,,,,,,,,,,,,6103688918416a123fdfcf68,61036da0d1f92de10ffb3eee,2021-07-29_22h12.43.840,Simcolourproject_2stim_asymm_v5,2020.2.10,MacIntel,60,61025ae37ef11b136ea224fe,,,,,,,,,546,55.02709961,74.56744385,1,0,0,response1disk,,7,-0.075805664,-3.805236816,1,0,0,rectangle,-0.075805664,-3.805236816,1,0,0,-0.075805664,-3.805236816,1,0,0,0,89,89,141,1,,,,,,,,
,,,,,,,,,,,,,FF,,,,,,,,0.4317,,,,,,,,,,,,,,,,,,,,,,6103688918416a123fdfcf68,61036da0d1f92de10ffb3eee,2021-07-29_22h12.43.840,Simcolourproject_2stim_asymm_v5,2020.2.10,MacIntel,60,61025ae37ef11b136ea224fe,,,,,,,,,3480,50.0289917,88.38464355,1,0,0,response1disk,,7,-4.682983398,5.725708008,1,0,0,rectangle,-4.682983398,5.725708008,1,0,0,-4.682983398,5.725708008,1,0,0,0,90,90,21,1,,,,,,,,
,,,,,,,,,,,,,FF,,,,,,,,1.3977,,,,,,,,,,,,,,,,,,,,,,6103688918416a123fdfcf68,61036da0d1f92de10ffb3eee,2021-07-29_22h12.43.840,Simcolourproject_2stim_asymm_v5,2020.2.10,MacIntel,60,61025ae37ef11b136ea224fe,,,,,,,,,1455,48.60412598,111.6990356,1,0,0,response1disk,,7,5.832824707,5.197052002,1,0,0,rectangle,46.37506104,-89.1026001,1,0,0,11.84228516,-1.04888916,1,0,0,0,91,91,124,1,,response3disk_3,TRUE,4,4,"[86,230,154,49,124,277,280,81,229,228,200,77,250,78,269,136,211,92,263,257]",1.6828,rectangle
,,,,,,,,,,,,,FF,,,,,,,,4.3,,,,,,,,,,,,,,,,,,,,,,6103688918416a123fdfcf68,61036da0d1f92de10ffb3eee,2021-07-29_22h12.43.840,Simcolourproject_2stim_asymm_v5,2020.2.10,MacIntel,60,61025ae37ef11b136ea224fe,,,,,,,,,1744,91.92199707,26.96002197,1,0,0,response1disk,,6,-9.379089355,-5.630615234,1,0,0,rectangle,-9.379089355,-5.630615234,1,0,0,-9.379089355,-5.630615234,1,0,0,0,92,92,158,1,,,,,,,,
,,,,,,,,,,,,,FF,,,,,,,,0.6194,,,,,,,,,,,,,,,,,,,,,,6103688918416a123fdfcf68,61036da0d1f92de10ffb3eee,2021-07-29_22h12.43.840,Simcolourproject_2stim_asymm_v5,2020.2.10,MacIntel,60,61025ae37ef11b136ea224fe,,,,,,,,,3456,52.17657471,73.48614502,1,0,0,response1disk,,7,4.083618164,-4.769470215,1,0,0,rectangle,4.083618164,-4.769470215,1,0,0,4.083618164,-4.769470215,1,0,0,0,93,93,138,1,,,,,,,,
,,,,,,,,,,,,,FF,,,,,,,,0.4338,,,,,,,,,,,,,,,,,,,,,,6103688918416a123fdfcf68,61036da0d1f92de10ffb3eee,2021-07-29_22h12.43.840,Simcolourproject_2stim_asymm_v5,2020.2.10,MacIntel,60,61025ae37ef11b136ea224fe,,,,,,,,,1897,44.44915771,72.2852478,1,0,0,response1disk,,7,10.45233154,-6.090209961,1,0,0,rectangle,10.45233154,-6.090209961,1,0,0,10.45233154,-6.090209961,1,0,0,0,94,94,49,1,,,,,,,,
,,,,,,,,,,,,,FF,,,,,,,,0.4513,,,,,,,,,,,,,,,,,,,,,,6103688918416a123fdfcf68,61036da0d1f92de10ffb3eee,2021-07-29_22h12.43.840,Simcolourproject_2stim_asymm_v5,2020.2.10,MacIntel,60,61025ae37ef11b136ea224fe,,,,,,,,,771,44.60803223,69.49707031,1,0,0,response1disk,,7,5.005310059,1.689880371,1,0,0,rectangle,5.005310059,1.689880371,1,0,0,5.005310059,1.689880371,1,0,0,0,95,95,67,1,,,,,,,,
,,,,,,,,,,,,,FF,,,,,,,,0.4285,,,,,,,,,,,,,,,,,,,,,,6103688918416a123fdfcf68,61036da0d1f92de10ffb3eee,2021-07-29_22h12.43.840,Simcolourproject_2stim_asymm_v5,2020.2.10,MacIntel,60,61025ae37ef11b136ea224fe,,,,,,,,,2492,49.35107422,76.03216553,1,0,0,response1disk,,7,3.149597168,-6.249572754,1,0,0,rectangle,3.149597168,-6.249572754,1,0,0,3.149597168,-6.249572754,1,0,0,0,96,96,79,1,,,,,,,,
,,,,,,,,,,,,,FF,,,,,,,,0.4824,,,,,,,,,,,,,,,,,,,,,,6103688918416a123fdfcf68,61036da0d1f92de10ffb3eee,2021-07-29_22h12.43.840,Simcolourproject_2stim_asymm_v5,2020.2.10,MacIntel,60,61025ae37ef11b136ea224fe,,,,,,,,,3248,35.31256104,57.25985718,1,0,0,response1disk,,7,-3.95324707,-3.840148926,1,0,0,rectangle,-3.95324707,-3.840148926,1,0,0,-3.95324707,-3.840148926,1,0,0,0,97,97,142,1,,,,,,,,
,,,,,,,,,,,,,FF,,,,,,,,0.3338,,,,,,,,,,,,,,,,,,,,,,6103688918416a123fdfcf68,61036da0d1f92de10ffb3eee,2021-07-29_22h12.43.840,Simcolourproject_2stim_asymm_v5,2020.2.10,MacIntel,60,61025ae37ef11b136ea224fe,,,,,,,,,2829,32.49212646,65.58898926,1,0,0,response1disk,,7,-0.7890625,3.264434814,1,0,0,rectangle,-0.7890625,3.264434814,1,0,0,-0.7890625,3.264434814,1,0,0,0,98,98,149,1,,,,,,,,
,,,,,,,,,,,,,FF,,,,,,,,0.4222,,,,,,,,,,,,,,,,,,,,,,6103688918416a123fdfcf68,61036da0d1f92de10ffb3eee,2021-07-29_22h12.43.840,Simcolourproject_2stim_asymm_v5,2020.2.10,MacIntel,60,61025ae37ef11b136ea224fe,,,,,,,,,2531,35.85540771,73.79974365,1,0,0,response1disk,,7,4.885253906,3.395935059,1,0,0,rectangle,4.885253906,3.395935059,1,0,0,4.885253906,3.395935059,1,0,0,0,99,99,60,1,,,,,,,,
,,,,,,,,,,,,,FF,,,,,,,,0.4875,,,,,,,,,,,,,,,,,,,,,,6103688918416a123fdfcf68,61036da0d1f92de10ffb3eee,2021-07-29_22h12.43.840,Simcolourproject_2stim_asymm_v5,2020.2.10,MacIntel,60,61025ae37ef11b136ea224fe,,,,,,,,,184,34.69006348,66.59020996,1,0,0,response1disk,,7,-0.770996094,-2.657653809,1,0,0,rectangle,-0.770996094,-2.657653809,1,0,0,-0.770996094,-2.657653809,1,0,0,0,100,100,159,1,,,,,,,,
,,,,,,,,,,,,,FF,,,,,,,,0.3474,,,,,,,,,,,,,,,,,,,,,,6103688918416a123fdfcf68,61036da0d1f92de10ffb3eee,2021-07-29_22h12.43.840,Simcolourproject_2stim_asymm_v5,2020.2.10,MacIntel,60,61025ae37ef11b136ea224fe,,,,,,,,,135,45.1661377,75.77642822,1,0,0,response1disk,,7,11.73516846,3.451934814,1,0,0,rectangle,11.73516846,3.451934814,1,0,0,11.73516846,3.451934814,1,0,0,0,101,101,83,1,,,,,,,,
,,,,,,,,,,,,,FF,,,,,,,,0.3831,,,,,,,,,,,,,,,,,,,,,,6103688918416a123fdfcf68,61036da0d1f92de10ffb3eee,2021-07-29_22h12.43.840,Simcolourproject_2stim_asymm_v5,2020.2.10,MacIntel,60,61025ae37ef11b136ea224fe,,,,,,,,,118,47.50531006,75.19168091,1,0,0,response1disk,,7,9.301574707,-0.305847168,1,0,0,rectangle,9.301574707,-0.305847168,1,0,0,9.301574707,-0.305847168,1,0,0,0,102,102,20,1,,,,,,,,
,,,,,,,,,,,,,FF,,,,,,,,0.4191,,,,,,,,,,,,,,,,,,,,,,6103688918416a123fdfcf68,61036da0d1f92de10ffb3eee,2021-07-29_22h12.43.840,Simcolourproject_2stim_asymm_v5,2020.2.10,MacIntel,60,61025ae37ef11b136ea224fe,,,,,,,,,2832,52.82861328,90.60348511,1,0,0,response1disk,,7,-3.858886719,-0.286010742,1,0,0,rectangle,-3.858886719,-0.286010742,1,0,0,-3.858886719,-0.286010742,1,0,0,0,103,103,50,1,,,,,,,,
,,,,,,,,,,,,,FF,,,,,,,,1.2013,,,,,,,,,,,,,,,,,,,,,,6103688918416a123fdfcf68,61036da0d1f92de10ffb3eee,2021-07-29_22h12.43.840,Simcolourproject_2stim_asymm_v5,2020.2.10,MacIntel,60,61025ae37ef11b136ea224fe,,,,,,,,,3093,41.78076172,56.32952881,1,0,0,response1disk,,7,4.306030273,-6.518585205,1,0,0,rectangle,4.306030273,-6.518585205,1,0,0,4.306030273,-6.518585205,1,0,0,0,104,104,155,1,,,,,,,,
,,,,,,,,,,,,,FF,,,,,,,,1.3293,,,,,,,,,,,,,,,,,,,,,,6103688918416a123fdfcf68,61036da0d1f92de10ffb3eee,2021-07-29_22h12.43.840,Simcolourproject_2stim_asymm_v5,2020.2.10,MacIntel,60,61025ae37ef11b136ea224fe,,,,,,,,,1607,29.22406006,66.5645752,1,0,0,response1disk,,7,-7.308166504,-3.910369873,1,0,0,rectangle,-7.308166504,-3.910369873,1,0,0,-7.308166504,-3.910369873,1,0,0,0,105,105,8,1,,,,,,,,
,,,,,,,,,,,,,FF,,,,,,,,0.5168,,,,,,,,,,,,,,,,,,,,,,6103688918416a123fdfcf68,61036da0d1f92de10ffb3eee,2021-07-29_22h12.43.840,Simcolourproject_2stim_asymm_v5,2020.2.10,MacIntel,60,61025ae37ef11b136ea224fe,,,,,,,,,1466,41.42498779,94.53851318,1,0,0,response1disk,,7,-5.097045898,3.423248291,1,0,0,rectangle,-5.097045898,3.423248291,1,0,0,-5.097045898,3.423248291,1,0,0,0,106,106,53,1,,,,,,,,
,,,,,,,,,,,,,FF,,,,,,,,0.4466,,,,,,,,,,,,,,,,,,,,,,6103688918416a123fdfcf68,61036da0d1f92de10ffb3eee,2021-07-29_22h12.43.840,Simcolourproject_2stim_asymm_v5,2020.2.10,MacIntel,60,61025ae37ef11b136ea224fe,,,,,,,,,1732,57.90618896,82.5557251,1,0,0,response1disk,,7,4.466491699,2.927856445,1,0,0,rectangle,4.466491699,2.927856445,1,0,0,4.466491699,2.927856445,1,0,0,0,107,107,87,1,,,,,,,,
,,,,,,,,,,,,,FF,,,,,,,,1.2168,,,,,,,,,,,,,,,,,,,,,,6103688918416a123fdfcf68,61036da0d1f92de10ffb3eee,2021-07-29_22h12.43.840,Simcolourproject_2stim_asymm_v5,2020.2.10,MacIntel,60,61025ae37ef11b136ea224fe,,,,,,,,,3200,43.18444824,79.16589355,1,0,0,response1disk,,7,16.83563232,4.847106934,1,0,0,rectangle,16.83563232,4.847106934,1,0,0,16.83563232,4.847106934,1,0,0,0,108,108,84,1,,,,,,,,
,,,,,,,,,,,,,FF,,,,,,,,0.3539,,,,,,,,,,,,,,,,,,,,,,6103688918416a123fdfcf68,61036da0d1f92de10ffb3eee,2021-07-29_22h12.43.840,Simcolourproject_2stim_asymm_v5,2020.2.10,MacIntel,60,61025ae37ef11b136ea224fe,,,,,,,,,2938,43.86499023,93.10424805,1,0,0,response1disk,,7,1.308898926,-0.744506836,1,0,0,rectangle,1.308898926,-0.744506836,1,0,0,1.308898926,-0.744506836,1,0,0,0,109,109,34,1,,,,,,,,
,,,,,,,,,,,,,FF,,,,,,,,0.3998,,,,,,,,,,,,,,,,,,,,,,6103688918416a123fdfcf68,61036da0d1f92de10ffb3eee,2021-07-29_22h12.43.840,Simcolourproject_2stim_asymm_v5,2020.2.10,MacIntel,60,61025ae37ef11b136ea224fe,,,,,,,,,2089,38.53704834,80.70983887,1,0,0,response1disk,,7,-0.17590332,-6.927429199,1,0,0,rectangle,-0.17590332,-6.927429199,1,0,0,-0.17590332,-6.927429199,1,0,0,0,110,110,52,1,,,,,,,,
,,,,,,,,,,,,,FF,,,,,,,,0.4322,,,,,,,,,,,,,,,,,,,,,,6103688918416a123fdfcf68,61036da0d1f92de10ffb3eee,2021-07-29_22h12.43.840,Simcolourproject_2stim_asymm_v5,2020.2.10,MacIntel,60,61025ae37ef11b136ea224fe,,,,,,,,,2656,47.87280273,69.01507568,1,0,0,response1disk,,7,-12.49584961,5.132995605,1,0,0,rectangle,-12.49584961,5.132995605,1,0,0,-12.49584961,5.132995605,1,0,0,0,111,111,121,1,,,,,,,,
,,,,,,,,,,,,,FF,,,,,,,,0.4128,,,,,,,,,,,,,,,,,,,,,,6103688918416a123fdfcf68,61036da0d1f92de10ffb3eee,2021-07-29_22h12.43.840,Simcolourproject_2stim_asymm_v5,2020.2.10,MacIntel,60,61025ae37ef11b136ea224fe,,,,,,,,,1565,44.63378906,62.08920288,1,0,0,response1disk,,7,2.329589844,-15.08010864,1,0,0,rectangle,2.329589844,-15.08010864,1,0,0,2.329589844,-15.08010864,1,0,0,0,112,112,18,1,,,,,,,,
,,,,,,,,,,,,,FF,,,,,,,,0.3644,,,,,,,,,,,,,,,,,,,,,,6103688918416a123fdfcf68,61036da0d1f92de10ffb3eee,2021-07-29_22h12.43.840,Simcolourproject_2stim_asymm_v5,2020.2.10,MacIntel,60,61025ae37ef11b136ea224fe,,,,,,,,,4036,40.40576172,61.85906982,1,0,0,response1disk,,7,6.526489258,9.410369873,1,0,0,rectangle,6.526489258,9.410369873,1,0,0,6.526489258,9.410369873,1,0,0,0,113,113,147,1,,,,,,,,
,,,,,,,,,,,,,FF,,,,,,,,0.3305,,,,,,,,,,,,,,,,,,,,,,6103688918416a123fdfcf68,61036da0d1f92de10ffb3eee,2021-07-29_22h12.43.840,Simcolourproject_2stim_asymm_v5,2020.2.10,MacIntel,60,61025ae37ef11b136ea224fe,,,,,,,,,326,36.75842285,63.26803589,1,0,0,response1disk,,7,10.3324585,1.147644043,1,0,0,rectangle,10.3324585,1.147644043,1,0,0,10.3324585,1.147644043,1,0,0,0,114,114,152,1,,,,,,,,
,,,,,,,,,,,,,FF,,,,,,,,0.3162,,,,,,,,,,,,,,,,,,,,,,6103688918416a123fdfcf68,61036da0d1f92de10ffb3eee,2021-07-29_22h12.43.840,Simcolourproject_2stim_asymm_v5,2020.2.10,MacIntel,60,61025ae37ef11b136ea224fe,,,,,,,,,2011,38.27746582,58.3119812,1,0,0,response1disk,,7,-2.068725586,-9.320373535,1,0,0,rectangle,-2.068725586,-9.320373535,1,0,0,-2.068725586,-9.320373535,1,0,0,0,115,115,28,1,,,,,,,,
,,,,,,,,,,,,,FF,,,,,,,,0.4004,,,,,,,,,,,,,,,,,,,,,,6103688918416a123fdfcf68,61036da0d1f92de10ffb3eee,2021-07-29_22h12.43.840,Simcolourproject_2stim_asymm_v5,2020.2.10,MacIntel,60,61025ae37ef11b136ea224fe,,,,,,,,,1244,55.32794189,77.55725098,1,0,0,response1disk,,7,3.764648438,-4.23449707,1,0,0,rectangle,3.764648438,-4.23449707,1,0,0,3.764648438,-4.23449707,1,0,0,0,116,116,117,1,,,,,,,,
,,,,,,,,,,,,,FF,,,,,,,,0.3677,,,,,,,,,,,,,,,,,,,,,,6103688918416a123fdfcf68,61036da0d1f92de10ffb3eee,2021-07-29_22h12.43.840,Simcolourproject_2stim_asymm_v5,2020.2.10,MacIntel,60,61025ae37ef11b136ea224fe,,,,,,,,,3834,42.55133057,65.44174194,1,0,0,response1disk,,7,3.369506836,6.612030029,1,0,0,rectangle,3.369506836,6.612030029,1,0,0,3.369506836,6.612030029,1,0,0,0,117,117,131,1,,,,,,,,
,,,,,,,,,,,,,FF,,,,,,,,0.3292,,,,,,,,,,,,,,,,,,,,,,6103688918416a123fdfcf68,61036da0d1f92de10ffb3eee,2021-07-29_22h12.43.840,Simcolourproject_2stim_asymm_v5,2020.2.10,MacIntel,60,61025ae37ef11b136ea224fe,,,,,,,,,2319,47.87994385,86.42098999,1,0,0,response1disk,,7,20.61181641,10.73516846,1,0,0,rectangle,20.61181641,10.73516846,1,0,0,20.61181641,10.73516846,1,0,0,0,118,118,148,1,,,,,,,,
,,,,,,,,,,,,,FF,,,,,,,,0.4337,,,,,,,,,,,,,,,,,,,,,,6103688918416a123fdfcf68,61036da0d1f92de10ffb3eee,2021-07-29_22h12.43.840,Simcolourproject_2stim_asymm_v5,2020.2.10,MacIntel,60,61025ae37ef11b136ea224fe,,,,,,,,,4018,51.38232422,86.29589844,1,0,0,response1disk,,7,0.651794434,-15.38195801,1,0,0,rectangle,0.651794434,-15.38195801,1,0,0,0.651794434,-15.38195801,1,0,0,0,119,119,125,1,,,,,,,,
,,,,,,,,,,,,,FF,,,,,,,,0.4464,,,,,,,,,,,,,,,,,,,,,,6103688918416a123fdfcf68,61036da0d1f92de10ffb3eee,2021-07-29_22h12.43.840,Simcolourproject_2stim_asymm_v5,2020.2.10,MacIntel,60,61025ae37ef11b136ea224fe,,,,,,,,,3402,64.6159668,83.69610596,1,0,0,response1disk,,7,21.96051025,0.523986816,1,0,0,rectangle,21.96051025,0.523986816,1,0,0,21.96051025,0.523986816,1,0,0,0,120,120,69,1,,,,,,,,
,,,,,,,,,,,,,FF,,,,,,,,0.3887,,,,,,,,,,,,,,,,,,,,,,6103688918416a123fdfcf68,61036da0d1f92de10ffb3eee,2021-07-29_22h12.43.840,Simcolourproject_2stim_asymm_v5,2020.2.10,MacIntel,60,61025ae37ef11b136ea224fe,,,,,,,,,2802,46.27148438,69.01391602,1,0,0,response1disk,,7,12.22491455,-3.612609863,1,0,0,rectangle,12.22491455,-3.612609863,1,0,0,12.22491455,-3.612609863,1,0,0,0,121,121,36,1,,,,,,,,
,,,,,,,,,,,,,FF,,,,,,,,0.3344,,,,,,,,,,,,,,,,,,,,,,6103688918416a123fdfcf68,61036da0d1f92de10ffb3eee,2021-07-29_22h12.43.840,Simcolourproject_2stim_asymm_v5,2020.2.10,MacIntel,60,61025ae37ef11b136ea224fe,,,,,,,,,518,50.37994385,79.71618652,1,0,0,response1disk,,7,14.41021729,2.864562988,1,0,0,rectangle,14.41021729,2.864562988,1,0,0,14.41021729,2.864562988,1,0,0,0,122,122,90,1,,,,,,,,
,,,,,,,,,,,,,FF,,,,,,,,0.3954,,,,,,,,,,,,,,,,,,,,,,6103688918416a123fdfcf68,61036da0d1f92de10ffb3eee,2021-07-29_22h12.43.840,Simcolourproject_2stim_asymm_v5,2020.2.10,MacIntel,60,61025ae37ef11b136ea224fe,,,,,,,,,3839,46.03552246,70.52984619,1,0,0,response1disk,,7,0.029663086,-8.086456299,1,0,0,rectangle,85.73272705,-32.08465576,1,0,0,24.78833008,-6.540527344,1,0,0,0,123,123,102,1,,response3disk_3,TRUE,5,5,"[86,230,154,49,124,277,280,81,229,228,200,77,250,78,269,136,211,92,263,257]",2.6164,rectangle
,,,,,,,,,,,,,FF,,,,,,,,0.6143,,,,,,,,,,,,,,,,,,,,,,6103688918416a123fdfcf68,61036da0d1f92de10ffb3eee,2021-07-29_22h12.43.840,Simcolourproject_2stim_asymm_v5,2020.2.10,MacIntel,60,61025ae37ef11b136ea224fe,,,,,,,,,1979,61.58312988,109.0862427,1,0,0,response1disk,,7,3.701293945,0.841430664,1,0,0,rectangle,3.701293945,0.841430664,1,0,0,3.701293945,0.841430664,1,0,0,0,124,124,41,1,,,,,,,,
,,,,,,,,,,,,,FF,,,,,,,,0.3865,,,,,,,,,,,,,,,,,,,,,,6103688918416a123fdfcf68,61036da0d1f92de10ffb3eee,2021-07-29_22h12.43.840,Simcolourproject_2stim_asymm_v5,2020.2.10,MacIntel,60,61025ae37ef11b136ea224fe,,,,,,,,,1843,37.03643799,80.84625244,1,0,0,response1disk,,7,3.571044922,7.488250732,1,0,0,rectangle,3.571044922,7.488250732,1,0,0,3.571044922,7.488250732,1,0,0,0,125,125,106,1,,,,,,,,
,,,,,,,,,,,,,FF,,,,,,,,2.6701,,,,,,,,,,,,,,,,,,,,,,6103688918416a123fdfcf68,61036da0d1f92de10ffb3eee,2021-07-29_22h12.43.840,Simcolourproject_2stim_asymm_v5,2020.2.10,MacIntel,60,61025ae37ef11b136ea224fe,,,,,,,,,460,-67.68121338,-53.41314697,1,0,0,response5disk,,2,15.45965576,4.673217773,1,0,0,rectangle,15.45965576,4.673217773,1,0,0,15.45965576,4.673217773,1,0,0,0,126,126,66,1,,,,,,,,
,,,,,,,,,,,,,FF,,,,,,,,2.363,,,,,,,,,,,,,,,,,,,,,,6103688918416a123fdfcf68,61036da0d1f92de10ffb3eee,2021-07-29_22h12.43.840,Simcolourproject_2stim_asymm_v5,2020.2.10,MacIntel,60,61025ae37ef11b136ea224fe,,,,,,,,,2739,34.93835449,68.23001099,1,0,0,response1disk,,7,9.751098633,2.367523193,1,0,0,rectangle,9.751098633,2.367523193,1,0,0,9.751098633,2.367523193,1,0,0,0,127,127,75,1,,,,,,,,
,,,,,,,,,,,,,FF,,,,,,,,2.8825,,,,,,,,,,,,,,,,,,,,,,6103688918416a123fdfcf68,61036da0d1f92de10ffb3eee,2021-07-29_22h12.43.840,Simcolourproject_2stim_asymm_v5,2020.2.10,MacIntel,60,61025ae37ef11b136ea224fe,,,,,,,,,2093,-31.76184082,76.36810303,1,0,0,response7disk,,0,21.78637695,-2.454620361,1,0,0,rectangle,21.78637695,-2.454620361,1,0,0,21.78637695,-2.454620361,1,0,0,0,128,128,3,1,,,,,,,,
,,,,,,,,,,,,,FF,,,,,,,,0.5848,,,,,,,,,,,,,,,,,,,,,,6103688918416a123fdfcf68,61036da0d1f92de10ffb3eee,2021-07-29_22h12.43.840,Simcolourproject_2stim_asymm_v5,2020.2.10,MacIntel,60,61025ae37ef11b136ea224fe,,,,,,,,,4129,33.42016602,93.82336426,1,0,0,response1disk,,7,-1.66229248,-2.344238281,1,0,0,rectangle,-1.66229248,-2.344238281,1,0,0,-1.66229248,-2.344238281,1,0,0,0,129,129,44,1,,,,,,,,
,,,,,,,,,,,,,FF,,,,,,,,0.6498,,,,,,,,,,,,,,,,,,,,,,6103688918416a123fdfcf68,61036da0d1f92de10ffb3eee,2021-07-29_22h12.43.840,Simcolourproject_2stim_asymm_v5,2020.2.10,MacIntel,60,61025ae37ef11b136ea224fe,,,,,,,,,978,28.17376709,71.46536255,1,0,0,response1disk,,7,-2.096740723,0.09765625,1,0,0,rectangle,-2.096740723,0.09765625,1,0,0,-2.096740723,0.09765625,1,0,0,0,130,130,19,1,,,,,,,,
,,,,,,,,,,,,,FF,,,,,,,,0.369,,,,,,,,,,,,,,,,,,,,,,6103688918416a123fdfcf68,61036da0d1f92de10ffb3eee,2021-07-29_22h12.43.840,Simcolourproject_2stim_asymm_v5,2020.2.10,MacIntel,60,61025ae37ef11b136ea224fe,,,,,,,,,2279,56.32757568,78.93255615,1,0,0,response1disk,,7,-4.672607422,-0.775146484,1,0,0,rectangle,-4.672607422,-0.775146484,1,0,0,-4.672607422,-0.775146484,1,0,0,0,131,131,139,1,,,,,,,,
,,,,,,,,,,,,,FF,,,,,,,,0.3674,,,,,,,,,,,,,,,,,,,,,,6103688918416a123fdfcf68,61036da0d1f92de10ffb3eee,2021-07-29_22h12.43.840,Simcolourproject_2stim_asymm_v5,2020.2.10,MacIntel,60,61025ae37ef11b136ea224fe,,,,,,,,,14,45.50317383,92.37121582,1,0,0,response1disk,,7,9.78527832,-0.457397461,1,0,0,rectangle,9.78527832,-0.457397461,1,0,0,9.78527832,-0.457397461,1,0,0,0,132,132,95,1,,,,,,,,
,,,,,,,,,,,,,FF,,,,,,,,0.2976,,,,,,,,,,,,,,,,,,,,,,6103688918416a123fdfcf68,61036da0d1f92de10ffb3eee,2021-07-29_22h12.43.840,Simcolourproject_2stim_asymm_v5,2020.2.10,MacIntel,60,61025ae37ef11b136ea224fe,,,,,,,,,1276,46.96838379,78.56713867,1,0,0,response1disk,,7,5.019287109,4.32800293,1,0,0,rectangle,5.019287109,4.32800293,1,0,0,5.019287109,4.32800293,1,0,0,0,133,133,76,1,,,,,,,,
,,,,,,,,,,,,,FF,,,,,,,,0.3207,,,,,,,,,,,,,,,,,,,,,,6103688918416a123fdfcf68,61036da0d1f92de10ffb3eee,2021-07-29_22h12.43.840,Simcolourproject_2stim_asymm_v5,2020.2.10,MacIntel,60,61025ae37ef11b136ea224fe,,,,,,,,,3949,46.9432373,81.42608643,1,0,0,response1disk,,7,6.102661133,-0.025512695,1,0,0,rectangle,6.102661133,-0.025512695,1,0,0,6.102661133,-0.025512695,1,0,0,0,134,134,14,1,,,,,,,,
,,,,,,,,,,,,,FF,,,,,,,,0.3524,,,,,,,,,,,,,,,,,,,,,,6103688918416a123fdfcf68,61036da0d1f92de10ffb3eee,2021-07-29_22h12.43.840,Simcolourproject_2stim_asymm_v5,2020.2.10,MacIntel,60,61025ae37ef11b136ea224fe,,,,,,,,,3756,46.0760498,79.86273193,1,0,0,response1disk,,7,4.331298828,4.184387207,1,0,0,rectangle,91.21868896,-41.96246338,1,0,0,8.80065918,-0.197692871,1,0,0,0,135,135,144,1,,response3disk_3,TRUE,5,5,"[86,230,154,49,124,277,280,81,229,228,200,77,250,78,269,136,211,92,263,257]",1.8329,rectangle
,,,,,,,,,,,,,FF,,,,,,,,0.6317,,,,,,,,,,,,,,,,,,,,,,6103688918416a123fdfcf68,61036da0d1f92de10ffb3eee,2021-07-29_22h12.43.840,Simcolourproject_2stim_asymm_v5,2020.2.10,MacIntel,60,61025ae37ef11b136ea224fe,,,,,,,,,3367,28.08203125,57.90484619,1,0,0,response1disk,,7,-12.96954346,-10.67922974,1,0,0,rectangle,-12.96954346,-10.67922974,1,0,0,-12.96954346,-10.67922974,1,0,0,0,136,136,114,1,,,,,,,,
,,,,,,,,,,,,,FF,,,,,,,,0.5154,,,,,,,,,,,,,,,,,,,,,,6103688918416a123fdfcf68,61036da0d1f92de10ffb3eee,2021-07-29_22h12.43.840,Simcolourproject_2stim_asymm_v5,2020.2.10,MacIntel,60,61025ae37ef11b136ea224fe,,,,,,,,,1661,37.75195313,68.39892578,1,0,0,response1disk,,7,4.082519531,-14.64160156,1,0,0,rectangle,4.082519531,-14.64160156,1,0,0,4.082519531,-14.64160156,1,0,0,0,137,137,91,1,,,,,,,,
,,,,,,,,,,,,,FF,,,,,,,,0.4497,,,,,,,,,,,,,,,,,,,,,,6103688918416a123fdfcf68,61036da0d1f92de10ffb3eee,2021-07-29_22h12.43.840,Simcolourproject_2stim_asymm_v5,2020.2.10,MacIntel,60,61025ae37ef11b136ea224fe,,,,,,,,,2458,28.1151123,78.39813232,1,0,0,response1disk,,7,-2.508483887,2.169342041,1,0,0,rectangle,-2.508483887,2.169342041,1,0,0,-2.508483887,2.169342041,1,0,0,0,138,138,10,1,,,,,,,,
,,,,,,,,,,,,,FF,,,,,,,,0.4517,,,,,,,,,,,,,,,,,,,,,,6103688918416a123fdfcf68,61036da0d1f92de10ffb3eee,2021-07-29_22h12.43.840,Simcolourproject_2stim_asymm_v5,2020.2.10,MacIntel,60,61025ae37ef11b136ea224fe,,,,,,,,,804,31.15533447,70.60610962,1,0,0,response1disk,,7,1.500549316,-4.652801514,1,0,0,rectangle,1.500549316,-4.652801514,1,0,0,1.500549316,-4.652801514,1,0,0,0,139,139,57,1,,,,,,,,
,,,,,,,,,,,,,FF,,,,,,,,0.4531,,,,,,,,,,,,,,,,,,,,,,6103688918416a123fdfcf68,61036da0d1f92de10ffb3eee,2021-07-29_22h12.43.840,Simcolourproject_2stim_asymm_v5,2020.2.10,MacIntel,60,61025ae37ef11b136ea224fe,,,,,,,,,3610,43.09643555,72.23937988,1,0,0,response1disk,,7,-3.874450684,-3.335876465,1,0,0,rectangle,-3.874450684,-3.335876465,1,0,0,-3.874450684,-3.335876465,1,0,0,0,140,140,25,1,,,,,,,,
,,,,,,,,,,,,,FF,,,,,,,,0.3977,,,,,,,,,,,,,,,,,,,,,,6103688918416a123fdfcf68,61036da0d1f92de10ffb3eee,2021-07-29_22h12.43.840,Simcolourproject_2stim_asymm_v5,2020.2.10,MacIntel,60,61025ae37ef11b136ea224fe,,,,,,,,,1741,37.84075928,66.4125061,1,0,0,response1disk,,7,-0.746826172,-13.31311035,1,0,0,rectangle,-0.746826172,-13.31311035,1,0,0,-0.746826172,-13.31311035,1,0,0,0,141,141,127,1,,,,,,,,
,,,,,,,,,,,,,FF,,,,,,,,1.0476,,,,,,,,,,,,,,,,,,,,,,6103688918416a123fdfcf68,61036da0d1f92de10ffb3eee,2021-07-29_22h12.43.840,Simcolourproject_2stim_asymm_v5,2020.2.10,MacIntel,60,61025ae37ef11b136ea224fe,,,,,,,,,968,-43.26257324,89.5585022,1,0,0,response7disk,,0,-14.05218506,-4.624694824,1,0,0,rectangle,-14.05218506,-4.624694824,1,0,0,-14.05218506,-4.624694824,1,0,0,0,142,142,101,1,,,,,,,,
,,,,,,,,,,,,,FF,,,,,,,,0.7018,,,,,,,,,,,,,,,,,,,,,,6103688918416a123fdfcf68,61036da0d1f92de10ffb3eee,2021-07-29_22h12.43.840,Simcolourproject_2stim_asymm_v5,2020.2.10,MacIntel,60,61025ae37ef11b136ea224fe,,,,,,,,,1695,34.9140625,77.85125732,1,0,0,response1disk,,7,4.849365234,9.116699219,1,0,0,rectangle,4.849365234,9.116699219,1,0,0,4.849365234,9.116699219,1,0,0,0,143,143,43,1,,,,,,,,
,,,,,,,,,,,,,FF,,,,,,,,0.8654,,,,,,,,,,,,,,,,,,,,,,6103688918416a123fdfcf68,61036da0d1f92de10ffb3eee,2021-07-29_22h12.43.840,Simcolourproject_2stim_asymm_v5,2020.2.10,MacIntel,60,61025ae37ef11b136ea224fe,,,,,,,,,3566,36.96148682,98.13687134,1,0,0,response1disk,,7,4.37902832,-1.32989502,1,0,0,rectangle,4.37902832,-1.32989502,1,0,0,4.37902832,-1.32989502,1,0,0,0,144,144,140,1,,,,,,,,
,,,,,,,,,,,,,FF,,,,,,,,2.5293,,,,,,,,,,,,,,,,,,,,,,6103688918416a123fdfcf68,61036da0d1f92de10ffb3eee,2021-07-29_22h12.43.840,Simcolourproject_2stim_asymm_v5,2020.2.10,MacIntel,60,61025ae37ef11b136ea224fe,,,,,,,,,3844,44.03015137,90.5262146,1,0,0,response1disk,,7,20.37255859,0.167358398,1,0,0,rectangle,20.37255859,0.167358398,1,0,0,20.37255859,0.167358398,1,0,0,0,145,145,72,1,,,,,,,,
,,,,,,,,,,,,,FF,,,,,,,,2.831,,,,,,,,,,,,,,,,,,,,,,6103688918416a123fdfcf68,61036da0d1f92de10ffb3eee,2021-07-29_22h12.43.840,Simcolourproject_2stim_asymm_v5,2020.2.10,MacIntel,60,61025ae37ef11b136ea224fe,,,,,,,,,4367,-71.63537598,38.41107178,1,0,0,response7disk,,1,6.823303223,1.537139893,1,0,0,rectangle,6.823303223,1.537139893,1,0,0,6.823303223,1.537139893,1,0,0,0,146,146,55,1,,,,,,,,
,,,,,,,,,,,,,FF,,,,,,,,0.5997,,,,,,,,,,,,,,,,,,,,,,6103688918416a123fdfcf68,61036da0d1f92de10ffb3eee,2021-07-29_22h12.43.840,Simcolourproject_2stim_asymm_v5,2020.2.10,MacIntel,60,61025ae37ef11b136ea224fe,,,,,,,,,1421,43.64733887,77.87316895,1,0,0,response1disk,,7,4.163574219,4.650756836,1,0,0,rectangle,4.163574219,4.650756836,1,0,0,4.163574219,4.650756836,1,0,0,0,147,147,2,1,,,,,,,,
,,,,,,,,,,,,,FF,,,,,,,,0.3648,,,,,,,,,,,,,,,,,,,,,,6103688918416a123fdfcf68,61036da0d1f92de10ffb3eee,2021-07-29_22h12.43.840,Simcolourproject_2stim_asymm_v5,2020.2.10,MacIntel,60,61025ae37ef11b136ea224fe,,,,,,,,,983,44.05828857,88.79837036,1,0,0,response1disk,,7,-0.250305176,-3.821411133,1,0,0,rectangle,-0.250305176,-3.821411133,1,0,0,-0.250305176,-3.821411133,1,0,0,0,148,148,80,1,,,,,,,,
,,,,,,,,,,,,,FF,,,,,,,,0.3652,,,,,,,,,,,,,,,,,,,,,,6103688918416a123fdfcf68,61036da0d1f92de10ffb3eee,2021-07-29_22h12.43.840,Simcolourproject_2stim_asymm_v5,2020.2.10,MacIntel,60,61025ae37ef11b136ea224fe,,,,,,,,,645,50.83050537,88.39035034,1,0,0,response1disk,,7,3.869384766,7.920776367,1,0,0,rectangle,3.869384766,7.920776367,1,0,0,3.869384766,7.920776367,1,0,0,0,149,149,24,1,,,,,,,,
,,,,,,,,,,,,,FF,,,,,,,,0.2872,,,,,,,,,,,,,,,,,,,,,,6103688918416a123fdfcf68,61036da0d1f92de10ffb3eee,2021-07-29_22h12.43.840,Simcolourproject_2stim_asymm_v5,2020.2.10,MacIntel,60,61025ae37ef11b136ea224fe,,,,,,,,,982,56.54089355,91.46670532,1,0,0,response1disk,,7,6.838134766,0.058105469,1,0,0,rectangle,6.838134766,0.058105469,1,0,0,6.838134766,0.058105469,1,0,0,0,150,150,123,1,,,,,,,,
,,,,,,,,,,,,,FF,,,,,,,,0.3334,,,,,,,,,,,,,,,,,,,,,,6103688918416a123fdfcf68,61036da0d1f92de10ffb3eee,2021-07-29_22h12.43.840,Simcolourproject_2stim_asymm_v5,2020.2.10,MacIntel,60,61025ae37ef11b136ea224fe,,,,,,,,,319,52.00488281,95.88537598,1,0,0,response1disk,,7,8.180236816,-2.712890625,1,0,0,rectangle,8.180236816,-2.712890625,1,0,0,8.180236816,-2.712890625,1,0,0,0,151,151,73,1,,,,,,,,
,,,,,,,,,,,,,FF,,,,,,,,0.3334,,,,,,,,,,,,,,,,,,,,,,6103688918416a123fdfcf68,61036da0d1f92de10ffb3eee,2021-07-29_22h12.43.840,Simcolourproject_2stim_asymm_v5,2020.2.10,MacIntel,60,61025ae37ef11b136ea224fe,,,,,,,,,1640,51.09820557,87.87652588,1,0,0,response1disk,,7,0.758911133,-5.500854492,1,0,0,rectangle,0.758911133,-5.500854492,1,0,0,0.758911133,-5.500854492,1,0,0,0,152,152,153,1,,,,,,,,
,,,,,,,,,,,,,FF,,,,,,,,0.4636,,,,,,,,,,,,,,,,,,,,,,6103688918416a123fdfcf68,61036da0d1f92de10ffb3eee,2021-07-29_22h12.43.840,Simcolourproject_2stim_asymm_v5,2020.2.10,MacIntel,60,61025ae37ef11b136ea224fe,,,,,,,,,4236,55.2800293,84.64190674,1,0,0,response1disk,,7,7.484375,11.64733887,1,0,0,rectangle,77.01751709,-28.62329102,1,0,0,23.4732666,-3.060852051,1,0,0,0,153,153,151,1,,response3disk_3,TRUE,5,5,"[86,230,154,49,124,277,280,81,229,228,200,77,250,78,269,136,211,92,263,257]",1.6811,rectangle
,,,,,,,,,,,,,FF,,,,,,,,0.8005,,,,,,,,,,,,,,,,,,,,,,6103688918416a123fdfcf68,61036da0d1f92de10ffb3eee,2021-07-29_22h12.43.840,Simcolourproject_2stim_asymm_v5,2020.2.10,MacIntel,60,61025ae37ef11b136ea224fe,,,,,,,,,337,56.23614502,89.25054932,1,0,0,response1disk,,7,7.736572266,-6.012573242,1,0,0,rectangle,7.736572266,-6.012573242,1,0,0,7.736572266,-6.012573242,1,0,0,0,154,154,98,1,,,,,,,,
,,,,,,,,,,,,,FF,,,,,,,,0.4674,,,,,,,,,,,,,,,,,,,,,,6103688918416a123fdfcf68,61036da0d1f92de10ffb3eee,2021-07-29_22h12.43.840,Simcolourproject_2stim_asymm_v5,2020.2.10,MacIntel,60,61025ae37ef11b136ea224fe,,,,,,,,,1500,42.92810059,74.2048645,1,0,0,response1disk,,7,10.78765869,0.030273438,1,0,0,rectangle,10.78765869,0.030273438,1,0,0,10.78765869,0.030273438,1,0,0,0,155,155,133,1,,,,,,,,
,,,,,,,,,,,,,FF,,,,,,,,0.4353,,,,,,,,,,,,,,,,,,,,,,6103688918416a123fdfcf68,61036da0d1f92de10ffb3eee,2021-07-29_22h12.43.840,Simcolourproject_2stim_asymm_v5,2020.2.10,MacIntel,60,61025ae37ef11b136ea224fe,,,,,,,,,964,56.84960938,85.52816772,1,0,0,response1disk,,7,13.11083984,-12.26901245,1,0,0,rectangle,13.11083984,-12.26901245,1,0,0,13.11083984,-12.26901245,1,0,0,0,156,156,31,1,,,,,,,,
,,,,,,,,,,,,,FF,,,,,,,,0.386,,,,,,,,,,,,,,,,,,,,,,6103688918416a123fdfcf68,61036da0d1f92de10ffb3eee,2021-07-29_22h12.43.840,Simcolourproject_2stim_asymm_v5,2020.2.10,MacIntel,60,61025ae37ef11b136ea224fe,,,,,,,,,921,49.66125488,81.50314331,1,0,0,response1disk,,7,12.48120117,5.299591064,1,0,0,rectangle,12.48120117,5.299591064,1,0,0,12.48120117,5.299591064,1,0,0,0,157,157,64,1,,,,,,,,
,,,,,,,,,,,,,FF,,,,,,,,0.4153,,,,,,,,,,,,,,,,,,,,,,6103688918416a123fdfcf68,61036da0d1f92de10ffb3eee,2021-07-29_22h12.43.840,Simcolourproject_2stim_asymm_v5,2020.2.10,MacIntel,60,61025ae37ef11b136ea224fe,,,,,,,,,1550,59.83465576,110.9736938,1,0,0,response1disk,,7,15.41766357,-9.298370361,1,0,0,rectangle,15.41766357,-9.298370361,1,0,0,15.41766357,-9.298370361,1,0,0,0,158,158,62,1,,,,,,,,
,,,,,,,,,,,,,FF,,,,,,,,0.3494,,,,,,,,,,,,,,,,,,,,,,6103688918416a123fdfcf68,61036da0d1f92de10ffb3eee,2021-07-29_22h12.43.840,Simcolourproject_2stim_asymm_v5,2020.2.10,MacIntel,60,61025ae37ef11b136ea224fe,,,,,,,,,1928,61.57452393,80.67236328,1,0,0,response1disk,,7,4.16394043,-8.348175049,1,0,0,rectangle,4.16394043,-8.348175049,1,0,0,4.16394043,-8.348175049,1,0,0,0,159,159,108,1,,,,,,,,
,,,,,,,,,,,,,FF,,,,,,,,0.3958,,,,,,,,,,,,,,,,,,,,,,6103688918416a123fdfcf68,61036da0d1f92de10ffb3eee,2021-07-29_22h12.43.840,Simcolourproject_2stim_asymm_v5,2020.2.10,MacIntel,60,61025ae37ef11b136ea224fe,,,,,,,,,1601,53.79467773,77.51550293,1,0,0,response1disk,,7,10.05767822,-7.523925781,1,0,0,rectangle,10.05767822,-7.523925781,1,0,0,10.05767822,-7.523925781,1,0,0,1,0,160,32,1,,,,,,,,
,,,,,,,,,,,,,FF,,,,,,,,0.3661,,,,,,,,,,,,,,,,,,,,,,6103688918416a123fdfcf68,61036da0d1f92de10ffb3eee,2021-07-29_22h12.43.840,Simcolourproject_2stim_asymm_v5,2020.2.10,MacIntel,60,61025ae37ef11b136ea224fe,,,,,,,,,1497,32.75006104,75.29748535,1,0,0,response1disk,,7,-2.546630859,-2.529846191,1,0,0,rectangle,-2.546630859,-2.529846191,1,0,0,-2.546630859,-2.529846191,1,0,0,1,1,161,89,1,,,,,,,,
,,,,,,,,,,,,,FF,,,,,,,,0.432,,,,,,,,,,,,,,,,,,,,,,6103688918416a123fdfcf68,61036da0d1f92de10ffb3eee,2021-07-29_22h12.43.840,Simcolourproject_2stim_asymm_v5,2020.2.10,MacIntel,60,61025ae37ef11b136ea224fe,,,,,,,,,447,36.1151123,84.35516357,1,0,0,response1disk,,7,6.247497559,2.242126465,1,0,0,rectangle,6.247497559,2.242126465,1,0,0,6.247497559,2.242126465,1,0,0,1,2,162,24,1,,,,,,,,
,,,,,,,,,,,,,FF,,,,,,,,0.4018,,,,,,,,,,,,,,,,,,,,,,6103688918416a123fdfcf68,61036da0d1f92de10ffb3eee,2021-07-29_22h12.43.840,Simcolourproject_2stim_asymm_v5,2020.2.10,MacIntel,60,61025ae37ef11b136ea224fe,,,,,,,,,2164,32.74377441,78.6986084,1,0,0,response1disk,,7,1.292541504,-10.1105957,1,0,0,rectangle,1.292541504,-10.1105957,1,0,0,1.292541504,-10.1105957,1,0,0,1,3,163,131,1,,,,,,,,
,,,,,,,,,,,,,FF,,,,,,,,0.4335,,,,,,,,,,,,,,,,,,,,,,6103688918416a123fdfcf68,61036da0d1f92de10ffb3eee,2021-07-29_22h12.43.840,Simcolourproject_2stim_asymm_v5,2020.2.10,MacIntel,60,61025ae37ef11b136ea224fe,,,,,,,,,835,49.98742676,90.35717773,1,0,0,response1disk,,7,12.44543457,-5.543884277,1,0,0,rectangle,12.44543457,-5.543884277,1,0,0,12.44543457,-5.543884277,1,0,0,1,4,164,81,1,,,,,,,,
,,,,,,,,,,,,,FF,,,,,,,,0.4179,,,,,,,,,,,,,,,,,,,,,,6103688918416a123fdfcf68,61036da0d1f92de10ffb3eee,2021-07-29_22h12.43.840,Simcolourproject_2stim_asymm_v5,2020.2.10,MacIntel,60,61025ae37ef11b136ea224fe,,,,,,,,,2478,54.55621338,82.60351563,1,0,0,response1disk,,7,10.43981934,-17.24285889,1,0,0,rectangle,10.43981934,-17.24285889,1,0,0,10.43981934,-17.24285889,1,0,0,1,5,165,48,1,,,,,,,,
,,,,,,,,,,,,,FF,,,,,,,,0.3673,,,,,,,,,,,,,,,,,,,,,,6103688918416a123fdfcf68,61036da0d1f92de10ffb3eee,2021-07-29_22h12.43.840,Simcolourproject_2stim_asymm_v5,2020.2.10,MacIntel,60,61025ae37ef11b136ea224fe,,,,,,,,,890,60.62792969,79.40515137,1,0,0,response1disk,,7,7.895812988,-15.89697266,1,0,0,rectangle,7.895812988,-15.89697266,1,0,0,7.895812988,-15.89697266,1,0,0,1,6,166,113,1,,,,,,,,
,,,,,,,,,,,,,FF,,,,,,,,0.5486,,,,,,,,,,,,,,,,,,,,,,6103688918416a123fdfcf68,61036da0d1f92de10ffb3eee,2021-07-29_22h12.43.840,Simcolourproject_2stim_asymm_v5,2020.2.10,MacIntel,60,61025ae37ef11b136ea224fe,,,,,,,,,1362,37.90820313,46.48599243,1,0,0,response1disk,,7,-2.496337891,-3.027648926,1,0,0,rectangle,-2.496337891,-3.027648926,1,0,0,-2.496337891,-3.027648926,1,0,0,1,7,167,8,1,,,,,,,,
,,,,,,,,,,,,,FF,,,,,,,,0.3685,,,,,,,,,,,,,,,,,,,,,,6103688918416a123fdfcf68,61036da0d1f92de10ffb3eee,2021-07-29_22h12.43.840,Simcolourproject_2stim_asymm_v5,2020.2.10,MacIntel,60,61025ae37ef11b136ea224fe,,,,,,,,,817,52.80523682,100.8922729,1,0,0,response1disk,,7,2.860229492,9.901672363,1,0,0,rectangle,2.860229492,9.901672363,1,0,0,2.860229492,9.901672363,1,0,0,1,8,168,112,1,,,,,,,,
,,,,,,,,,,,,,FF,,,,,,,,0.4168,,,,,,,,,,,,,,,,,,,,,,6103688918416a123fdfcf68,61036da0d1f92de10ffb3eee,2021-07-29_22h12.43.840,Simcolourproject_2stim_asymm_v5,2020.2.10,MacIntel,60,61025ae37ef11b136ea224fe,,,,,,,,,2747,39.60931396,72.70318604,1,0,0,response1disk,,7,4.875488281,5.442382813,1,0,0,rectangle,4.875488281,5.442382813,1,0,0,4.875488281,5.442382813,1,0,0,1,9,169,26,1,,,,,,,,
,,,,,,,,,,,,,FF,,,,,,,,0.6666,,,,,,,,,,,,,,,,,,,,,,6103688918416a123fdfcf68,61036da0d1f92de10ffb3eee,2021-07-29_22h12.43.840,Simcolourproject_2stim_asymm_v5,2020.2.10,MacIntel,60,61025ae37ef11b136ea224fe,,,,,,,,,1887,43.62969971,61.15039063,1,0,0,response1disk,,7,7.450073242,-11.20507813,1,0,0,rectangle,7.450073242,-11.20507813,1,0,0,7.450073242,-11.20507813,1,0,0,1,10,170,147,1,,,,,,,,
,,,,,,,,,,,,,FF,,,,,,,,0.3824,,,,,,,,,,,,,,,,,,,,,,6103688918416a123fdfcf68,61036da0d1f92de10ffb3eee,2021-07-29_22h12.43.840,Simcolourproject_2stim_asymm_v5,2020.2.10,MacIntel,60,61025ae37ef11b136ea224fe,,,,,,,,,1895,38.94494629,63.96398926,1,0,0,response1disk,,7,-5.601135254,-13.60180664,1,0,0,rectangle,-5.601135254,-13.60180664,1,0,0,-5.601135254,-13.60180664,1,0,0,1,11,171,52,1,,,,,,,,
,,,,,,,,,,,,,FF,,,,,,,,0.45,,,,,,,,,,,,,,,,,,,,,,6103688918416a123fdfcf68,61036da0d1f92de10ffb3eee,2021-07-29_22h12.43.840,Simcolourproject_2stim_asymm_v5,2020.2.10,MacIntel,60,61025ae37ef11b136ea224fe,,,,,,,,,3930,41.98217773,72.89160156,1,0,0,response1disk,,7,5.350036621,2.897735596,1,0,0,rectangle,5.350036621,2.897735596,1,0,0,5.350036621,2.897735596,1,0,0,1,12,172,137,1,,,,,,,,
,,,,,,,,,,,,,FF,,,,,,,,0.3832,,,,,,,,,,,,,,,,,,,,,,6103688918416a123fdfcf68,61036da0d1f92de10ffb3eee,2021-07-29_22h12.43.840,Simcolourproject_2stim_asymm_v5,2020.2.10,MacIntel,60,61025ae37ef11b136ea224fe,,,,,,,,,1691,45.62884521,89.98739624,1,0,0,response1disk,,7,15.21484375,-1.53036499,1,0,0,rectangle,15.21484375,-1.53036499,1,0,0,15.21484375,-1.53036499,1,0,0,1,13,173,126,1,,,,,,,,
,,,,,,,,,,,,,FF,,,,,,,,0.547,,,,,,,,,,,,,,,,,,,,,,6103688918416a123fdfcf68,61036da0d1f92de10ffb3eee,2021-07-29_22h12.43.840,Simcolourproject_2stim_asymm_v5,2020.2.10,MacIntel,60,61025ae37ef11b136ea224fe,,,,,,,,,2256,32.95257568,70.56878662,1,0,0,response1disk,,7,7.662475586,3.109741211,1,0,0,rectangle,7.662475586,3.109741211,1,0,0,7.662475586,3.109741211,1,0,0,1,14,174,132,1,,,,,,,,
,,,,,,,,,,,,,FF,,,,,,,,0.4001,,,,,,,,,,,,,,,,,,,,,,6103688918416a123fdfcf68,61036da0d1f92de10ffb3eee,2021-07-29_22h12.43.840,Simcolourproject_2stim_asymm_v5,2020.2.10,MacIntel,60,61025ae37ef11b136ea224fe,,,,,,,,,2766,36.43005371,81.76477051,1,0,0,response1disk,,7,4.296813965,-0.256652832,1,0,0,rectangle,4.296813965,-0.256652832,1,0,0,4.296813965,-0.256652832,1,0,0,1,15,175,62,1,,,,,,,,
,,,,,,,,,,,,,FF,,,,,,,,0.3872,,,,,,,,,,,,,,,,,,,,,,6103688918416a123fdfcf68,61036da0d1f92de10ffb3eee,2021-07-29_22h12.43.840,Simcolourproject_2stim_asymm_v5,2020.2.10,MacIntel,60,61025ae37ef11b136ea224fe,,,,,,,,,708,44.63165283,68.47784424,1,0,0,response1disk,,7,6.239501953,9.423278809,1,0,0,rectangle,6.239501953,9.423278809,1,0,0,6.239501953,9.423278809,1,0,0,1,16,176,148,1,,,,,,,,
,,,,,,,,,,,,,FF,,,,,,,,0.3708,,,,,,,,,,,,,,,,,,,,,,6103688918416a123fdfcf68,61036da0d1f92de10ffb3eee,2021-07-29_22h12.43.840,Simcolourproject_2stim_asymm_v5,2020.2.10,MacIntel,60,61025ae37ef11b136ea224fe,,,,,,,,,689,46.81408691,78.34210205,1,0,0,response1disk,,7,7.603820801,-1.631958008,1,0,0,rectangle,7.603820801,-1.631958008,1,0,0,7.603820801,-1.631958008,1,0,0,1,17,177,90,1,,,,,,,,
,,,,,,,,,,,,,FF,,,,,,,,0.3355,,,,,,,,,,,,,,,,,,,,,,6103688918416a123fdfcf68,61036da0d1f92de10ffb3eee,2021-07-29_22h12.43.840,Simcolourproject_2stim_asymm_v5,2020.2.10,MacIntel,60,61025ae37ef11b136ea224fe,,,,,,,,,30,45.93157959,79.02694702,1,0,0,response1disk,,7,8.336791992,1.227325439,1,0,0,rectangle,8.336791992,1.227325439,1,0,0,8.336791992,1.227325439,1,0,0,1,18,178,102,1,,,,,,,,
,,,,,,,,,,,,,FF,,,,,,,,0.3629,,,,,,,,,,,,,,,,,,,,,,6103688918416a123fdfcf68,61036da0d1f92de10ffb3eee,2021-07-29_22h12.43.840,Simcolourproject_2stim_asymm_v5,2020.2.10,MacIntel,60,61025ae37ef11b136ea224fe,,,,,,,,,862,42.97137451,56.55203247,1,0,0,response1disk,,7,14.99914551,-13.87521362,1,0,0,rectangle,14.99914551,-13.87521362,1,0,0,14.99914551,-13.87521362,1,0,0,1,19,179,152,1,,,,,,,,
,,,,,,,,,,,,,FF,,,,,,,,0.4449,,,,,,,,,,,,,,,,,,,,,,6103688918416a123fdfcf68,61036da0d1f92de10ffb3eee,2021-07-29_22h12.43.840,Simcolourproject_2stim_asymm_v5,2020.2.10,MacIntel,60,61025ae37ef11b136ea224fe,,,,,,,,,3829,46.26965332,58.23895264,1,0,0,response1disk,,7,11.03063965,12.97003174,1,0,0,rectangle,11.03063965,12.97003174,1,0,0,11.03063965,12.97003174,1,0,0,1,20,180,149,1,,,,,,,,
,,,,,,,,,,,,,FF,,,,,,,,0.3184,,,,,,,,,,,,,,,,,,,,,,6103688918416a123fdfcf68,61036da0d1f92de10ffb3eee,2021-07-29_22h12.43.840,Simcolourproject_2stim_asymm_v5,2020.2.10,MacIntel,60,61025ae37ef11b136ea224fe,,,,,,,,,1824,36.57824707,64.60723877,1,0,0,response1disk,,7,8.311584473,2.867340088,1,0,0,rectangle,8.311584473,2.867340088,1,0,0,8.311584473,2.867340088,1,0,0,1,21,181,104,1,,,,,,,,
,,,,,,,,,,,,,FF,,,,,,,,0.365,,,,,,,,,,,,,,,,,,,,,,6103688918416a123fdfcf68,61036da0d1f92de10ffb3eee,2021-07-29_22h12.43.840,Simcolourproject_2stim_asymm_v5,2020.2.10,MacIntel,60,61025ae37ef11b136ea224fe,,,,,,,,,2591,42.75085449,97.05712891,1,0,0,response1disk,,7,4.739318848,-3.43069458,1,0,0,rectangle,4.739318848,-3.43069458,1,0,0,4.739318848,-3.43069458,1,0,0,1,22,182,109,1,,,,,,,,
,,,,,,,,,,,,,FF,,,,,,,,1.8,,,,,,,,,,,,,,,,,,,,,,6103688918416a123fdfcf68,61036da0d1f92de10ffb3eee,2021-07-29_22h12.43.840,Simcolourproject_2stim_asymm_v5,2020.2.10,MacIntel,60,61025ae37ef11b136ea224fe,,,,,,,,,4362,-41.69866943,78.14074707,1,0,0,response7disk,,0,0.160644531,5.841918945,1,0,0,rectangle,0.160644531,5.841918945,1,0,0,0.160644531,5.841918945,1,0,0,1,23,183,72,1,,,,,,,,
,,,,,,,,,,,,,FF,,,,,,,,0.5473,,,,,,,,,,,,,,,,,,,,,,6103688918416a123fdfcf68,61036da0d1f92de10ffb3eee,2021-07-29_22h12.43.840,Simcolourproject_2stim_asymm_v5,2020.2.10,MacIntel,60,61025ae37ef11b136ea224fe,,,,,,,,,4228,46.69555664,75.00363159,1,0,0,response1disk,,7,13.37731934,6.505065918,1,0,0,rectangle,13.37731934,6.505065918,1,0,0,13.37731934,6.505065918,1,0,0,1,24,184,44,1,,,,,,,,
,,,,,,,,,,,,,FF,,,,,,,,0.3539,,,,,,,,,,,,,,,,,,,,,,6103688918416a123fdfcf68,61036da0d1f92de10ffb3eee,2021-07-29_22h12.43.840,Simcolourproject_2stim_asymm_v5,2020.2.10,MacIntel,60,61025ae37ef11b136ea224fe,,,,,,,,,4315,44.35528564,83.8677063,1,0,0,response1disk,,7,8.764770508,1.043884277,1,0,0,rectangle,8.764770508,1.043884277,1,0,0,8.764770508,1.043884277,1,0,0,1,25,185,78,1,,,,,,,,
,,,,,,,,,,,,,FF,,,,,,,,0.3117,,,,,,,,,,,,,,,,,,,,,,6103688918416a123fdfcf68,61036da0d1f92de10ffb3eee,2021-07-29_22h12.43.840,Simcolourproject_2stim_asymm_v5,2020.2.10,MacIntel,60,61025ae37ef11b136ea224fe,,,,,,,,,74,43.27886963,84.46801758,1,0,0,response1disk,,7,4.973083496,-11.11181641,1,0,0,rectangle,4.973083496,-11.11181641,1,0,0,4.973083496,-11.11181641,1,0,0,1,26,186,99,1,,,,,,,,
,,,,,,,,,,,,,FF,,,,,,,,0.4353,,,,,,,,,,,,,,,,,,,,,,6103688918416a123fdfcf68,61036da0d1f92de10ffb3eee,2021-07-29_22h12.43.840,Simcolourproject_2stim_asymm_v5,2020.2.10,MacIntel,60,61025ae37ef11b136ea224fe,,,,,,,,,667,37.86785889,75.9465332,1,0,0,response1disk,,7,4.173583984,-4.867004395,1,0,0,rectangle,4.173583984,-4.867004395,1,0,0,4.173583984,-4.867004395,1,0,0,1,27,187,5,1,,,,,,,,
,,,,,,,,,,,,,FF,,,,,,,,0.4963,,,,,,,,,,,,,,,,,,,,,,6103688918416a123fdfcf68,61036da0d1f92de10ffb3eee,2021-07-29_22h12.43.840,Simcolourproject_2stim_asymm_v5,2020.2.10,MacIntel,60,61025ae37ef11b136ea224fe,,,,,,,,,3119,48.31628418,96.81115723,1,0,0,response1disk,,7,18.30407715,9.107696533,1,0,0,rectangle,18.30407715,9.107696533,1,0,0,18.30407715,9.107696533,1,0,0,1,28,188,56,1,,,,,,,,
,,,,,,,,,,,,,FF,,,,,,,,0.33,,,,,,,,,,,,,,,,,,,,,,6103688918416a123fdfcf68,61036da0d1f92de10ffb3eee,2021-07-29_22h12.43.840,Simcolourproject_2stim_asymm_v5,2020.2.10,MacIntel,60,61025ae37ef11b136ea224fe,,,,,,,,,280,64.06738281,118.9350586,1,0,0,response1disk,,7,-6.385864258,-8.300842285,1,0,0,rectangle,-6.385864258,-8.300842285,1,0,0,-6.385864258,-8.300842285,1,0,0,1,29,189,95,1,,,,,,,,
,,,,,,,,,,,,,FF,,,,,,,,1.4641,,,,,,,,,,,,,,,,,,,,,,6103688918416a123fdfcf68,61036da0d1f92de10ffb3eee,2021-07-29_22h12.43.840,Simcolourproject_2stim_asymm_v5,2020.2.10,MacIntel,60,61025ae37ef11b136ea224fe,,,,,,,,,2255,41.71679688,93.97357178,1,0,0,response1disk,,7,4.692382813,5.95880127,1,0,0,rectangle,4.692382813,5.95880127,1,0,0,4.692382813,5.95880127,1,0,0,1,30,190,155,1,,,,,,,,
,,,,,,,,,,,,,FF,,,,,,,,1.4831,,,,,,,,,,,,,,,,,,,,,,6103688918416a123fdfcf68,61036da0d1f92de10ffb3eee,2021-07-29_22h12.43.840,Simcolourproject_2stim_asymm_v5,2020.2.10,MacIntel,60,61025ae37ef11b136ea224fe,,,,,,,,,2791,48.67858887,86.86602783,1,0,0,response1disk,,7,1.979003906,0.463409424,1,0,0,rectangle,1.979003906,0.463409424,1,0,0,1.979003906,0.463409424,1,0,0,1,31,191,157,1,,,,,,,,
,,,,,,,,,,,,,FF,,,,,,,,0.4675,,,,,,,,,,,,,,,,,,,,,,6103688918416a123fdfcf68,61036da0d1f92de10ffb3eee,2021-07-29_22h12.43.840,Simcolourproject_2stim_asymm_v5,2020.2.10,MacIntel,60,61025ae37ef11b136ea224fe,,,,,,,,,1021,65.03186035,88.3883667,1,0,0,response1disk,,7,5.110229492,-7.758972168,1,0,0,rectangle,5.110229492,-7.758972168,1,0,0,5.110229492,-7.758972168,1,0,0,1,32,192,0,1,,,,,,,,
,,,,,,,,,,,,,FF,,,,,,,,0.3328,,,,,,,,,,,,,,,,,,,,,,6103688918416a123fdfcf68,61036da0d1f92de10ffb3eee,2021-07-29_22h12.43.840,Simcolourproject_2stim_asymm_v5,2020.2.10,MacIntel,60,61025ae37ef11b136ea224fe,,,,,,,,,16,35.54833984,70.31439209,1,0,0,response1disk,,7,3.909423828,4.517913818,1,0,0,rectangle,3.909423828,4.517913818,1,0,0,3.909423828,4.517913818,1,0,0,1,33,193,2,1,,,,,,,,
,,,,,,,,,,,,,FF,,,,,,,,0.3833,,,,,,,,,,,,,,,,,,,,,,6103688918416a123fdfcf68,61036da0d1f92de10ffb3eee,2021-07-29_22h12.43.840,Simcolourproject_2stim_asymm_v5,2020.2.10,MacIntel,60,61025ae37ef11b136ea224fe,,,,,,,,,2701,51.39837646,97.8626709,1,0,0,response1disk,,7,3.780639648,-4.225067139,1,0,0,rectangle,3.780639648,-4.225067139,1,0,0,3.780639648,-4.225067139,1,0,0,1,34,194,156,1,,,,,,,,
,,,,,,,,,,,,,FF,,,,,,,,0.3356,,,,,,,,,,,,,,,,,,,,,,6103688918416a123fdfcf68,61036da0d1f92de10ffb3eee,2021-07-29_22h12.43.840,Simcolourproject_2stim_asymm_v5,2020.2.10,MacIntel,60,61025ae37ef11b136ea224fe,,,,,,,,,4185,53.14428711,84.95455933,1,0,0,response1disk,,7,13.02874756,6.457305908,1,0,0,rectangle,13.02874756,6.457305908,1,0,0,13.02874756,6.457305908,1,0,0,1,35,195,73,1,,,,,,,,
,,,,,,,,,,,,,FF,,,,,,,,0.3128,,,,,,,,,,,,,,,,,,,,,,6103688918416a123fdfcf68,61036da0d1f92de10ffb3eee,2021-07-29_22h12.43.840,Simcolourproject_2stim_asymm_v5,2020.2.10,MacIntel,60,61025ae37ef11b136ea224fe,,,,,,,,,1994,56.97607422,93.6383667,1,0,0,response1disk,,7,11.8269043,2.28503418,1,0,0,rectangle,11.8269043,2.28503418,1,0,0,11.8269043,2.28503418,1,0,0,1,36,196,146,1,,,,,,,,
,,,,,,,,,,,,,FF,,,,,,,,0.2816,,,,,,,,,,,,,,,,,,,,,,6103688918416a123fdfcf68,61036da0d1f92de10ffb3eee,2021-07-29_22h12.43.840,Simcolourproject_2stim_asymm_v5,2020.2.10,MacIntel,60,61025ae37ef11b136ea224fe,,,,,,,,,2708,62.37078857,109.1914063,1,0,0,response1disk,,7,18.34863281,4.821166992,1,0,0,rectangle,18.34863281,4.821166992,1,0,0,18.34863281,4.821166992,1,0,0,1,37,197,12,1,,,,,,,,
,,,,,,,,,,,,,FF,,,,,,,,0.3131,,,,,,,,,,,,,,,,,,,,,,6103688918416a123fdfcf68,61036da0d1f92de10ffb3eee,2021-07-29_22h12.43.840,Simcolourproject_2stim_asymm_v5,2020.2.10,MacIntel,60,61025ae37ef11b136ea224fe,,,,,,,,,3877,46.16357422,64.32440186,1,0,0,response1disk,,7,11.23309326,-7.193969727,1,0,0,rectangle,11.23309326,-7.193969727,1,0,0,11.23309326,-7.193969727,1,0,0,1,38,198,31,1,,,,,,,,
,,,,,,,,,,,,,FF,,,,,,,,0.3662,,,,,,,,,,,,,,,,,,,,,,6103688918416a123fdfcf68,61036da0d1f92de10ffb3eee,2021-07-29_22h12.43.840,Simcolourproject_2stim_asymm_v5,2020.2.10,MacIntel,60,61025ae37ef11b136ea224fe,,,,,,,,,1073,48.66998291,74.80383301,1,0,0,response1disk,,7,0.890625,-7.284606934,1,0,0,rectangle,-42.40777588,-97.44207764,1,0,0,-3.527832031,0.490509033,1,0,0,1,39,199,42,1,,response5disk_3,TRUE,3,3,"[86,230,154,49,124,277,280,81,229,228,200,77,250,78,269,136,211,92,263,257]",1.7671,rectangle
,,,,,,,,,,,,,FF,,,,,,,,0.5146,,,,,,,,,,,,,,,,,,,,,,6103688918416a123fdfcf68,61036da0d1f92de10ffb3eee,2021-07-29_22h12.43.840,Simcolourproject_2stim_asymm_v5,2020.2.10,MacIntel,60,61025ae37ef11b136ea224fe,,,,,,,,,219,37.30102539,74.73052979,1,0,0,response1disk,,7,4.349121094,-3.19519043,1,0,0,rectangle,4.349121094,-3.19519043,1,0,0,4.349121094,-3.19519043,1,0,0,1,40,200,45,1,,,,,,,,
,,,,,,,,,,,,,FF,,,,,,,,0.3846,,,,,,,,,,,,,,,,,,,,,,6103688918416a123fdfcf68,61036da0d1f92de10ffb3eee,2021-07-29_22h12.43.840,Simcolourproject_2stim_asymm_v5,2020.2.10,MacIntel,60,61025ae37ef11b136ea224fe,,,,,,,,,4184,45.36865234,90.43609619,1,0,0,response1disk,,7,11.46209717,1.364868164,1,0,0,rectangle,11.46209717,1.364868164,1,0,0,11.46209717,1.364868164,1,0,0,1,41,201,121,1,,,,,,,,
,,,,,,,,,,,,,FF,,,,,,,,0.3347,,,,,,,,,,,,,,,,,,,,,,6103688918416a123fdfcf68,61036da0d1f92de10ffb3eee,2021-07-29_22h12.43.840,Simcolourproject_2stim_asymm_v5,2020.2.10,MacIntel,60,61025ae37ef11b136ea224fe,,,,,,,,,2136,46.72698975,66.74560547,1,0,0,response1disk,,7,7.48260498,-2.643859863,1,0,0,rectangle,7.48260498,-2.643859863,1,0,0,7.48260498,-2.643859863,1,0,0,1,42,202,74,1,,,,,,,,
,,,,,,,,,,,,,FF,,,,,,,,0.6035,,,,,,,,,,,,,,,,,,,,,,6103688918416a123fdfcf68,61036da0d1f92de10ffb3eee,2021-07-29_22h12.43.840,Simcolourproject_2stim_asymm_v5,2020.2.10,MacIntel,60,61025ae37ef11b136ea224fe,,,,,,,,,704,41.15313721,59.53161621,1,0,0,response1disk,,7,4.458007813,1.017578125,1,0,0,rectangle,4.458007813,1.017578125,1,0,0,4.458007813,1.017578125,1,0,0,1,43,203,143,1,,,,,,,,
,,,,,,,,,,,,,FF,,,,,,,,1.5326,,,,,,,,,,,,,,,,,,,,,,6103688918416a123fdfcf68,61036da0d1f92de10ffb3eee,2021-07-29_22h12.43.840,Simcolourproject_2stim_asymm_v5,2020.2.10,MacIntel,60,61025ae37ef11b136ea224fe,,,,,,,,,1958,-30.15930176,92.38839722,1,0,0,response7disk,,0,16.03833008,-10.02093506,1,0,0,rectangle,16.03833008,-10.02093506,1,0,0,16.03833008,-10.02093506,1,0,0,1,44,204,98,1,,,,,,,,
,,,,,,,,,,,,,FF,,,,,,,,0.3535,,,,,,,,,,,,,,,,,,,,,,6103688918416a123fdfcf68,61036da0d1f92de10ffb3eee,2021-07-29_22h12.43.840,Simcolourproject_2stim_asymm_v5,2020.2.10,MacIntel,60,61025ae37ef11b136ea224fe,,,,,,,,,2323,51.90332031,95.52331543,1,0,0,response1disk,,7,0.948303223,9.60244751,1,0,0,rectangle,0.948303223,9.60244751,1,0,0,0.948303223,9.60244751,1,0,0,1,45,205,135,1,,,,,,,,
,,,,,,,,,,,,,FF,,,,,,,,0.3192,,,,,,,,,,,,,,,,,,,,,,6103688918416a123fdfcf68,61036da0d1f92de10ffb3eee,2021-07-29_22h12.43.840,Simcolourproject_2stim_asymm_v5,2020.2.10,MacIntel,60,61025ae37ef11b136ea224fe,,,,,,,,,487,45.01708984,70.92541504,1,0,0,response1disk,,7,6.597167969,1.106994629,1,0,0,rectangle,6.597167969,1.106994629,1,0,0,6.597167969,1.106994629,1,0,0,1,46,206,70,1,,,,,,,,
,,,,,,,,,,,,,FF,,,,,,,,0.3844,,,,,,,,,,,,,,,,,,,,,,6103688918416a123fdfcf68,61036da0d1f92de10ffb3eee,2021-07-29_22h12.43.840,Simcolourproject_2stim_asymm_v5,2020.2.10,MacIntel,60,61025ae37ef11b136ea224fe,,,,,,,,,2177,47.72668457,74.17700195,1,0,0,response1disk,,7,7.933898926,-0.858215332,1,0,0,rectangle,7.933898926,-0.858215332,1,0,0,7.933898926,-0.858215332,1,0,0,1,47,207,43,1,,,,,,,,
,,,,,,,,,,,,,FF,,,,,,,,0.5174,,,,,,,,,,,,,,,,,,,,,,6103688918416a123fdfcf68,61036da0d1f92de10ffb3eee,2021-07-29_22h12.43.840,Simcolourproject_2stim_asymm_v5,2020.2.10,MacIntel,60,61025ae37ef11b136ea224fe,,,,,,,,,2041,49.61962891,73.07073975,1,0,0,response1disk,,7,-1.001342773,-2.177947998,1,0,0,rectangle,-1.001342773,-2.177947998,1,0,0,-1.001342773,-2.177947998,1,0,0,1,48,208,46,1,,,,,,,,
,,,,,,,,,,,,,FF,,,,,,,,0.679,,,,,,,,,,,,,,,,,,,,,,6103688918416a123fdfcf68,61036da0d1f92de10ffb3eee,2021-07-29_22h12.43.840,Simcolourproject_2stim_asymm_v5,2020.2.10,MacIntel,60,61025ae37ef11b136ea224fe,,,,,,,,,1734,-43.24462891,74.71166992,1,0,0,response7disk,,0,-18.76953125,0.180969238,1,0,0,rectangle,-18.76953125,0.180969238,1,0,0,-18.76953125,0.180969238,1,0,0,1,49,209,69,1,,,,,,,,
,,,,,,,,,,,,,FF,,,,,,,,0.3348,,,,,,,,,,,,,,,,,,,,,,6103688918416a123fdfcf68,61036da0d1f92de10ffb3eee,2021-07-29_22h12.43.840,Simcolourproject_2stim_asymm_v5,2020.2.10,MacIntel,60,61025ae37ef11b136ea224fe,,,,,,,,,1568,37.72381592,89.4473877,1,0,0,response1disk,,7,5.312255859,-3.621948242,1,0,0,rectangle,34.64978027,72.54876709,1,0,0,7.704833984,-3.416748047,1,0,0,1,50,210,40,1,,response1disk_3,TRUE,7,2,"[86,230,154,49,124,277,280,81,229,228,200,77,250,78,269,136,211,92,263,257]",0.4514,rectangle
,,,,,,,,,,,,,FF,,,,,,,,5.3841,,,,,,,,,,,,,,,,,,,,,,6103688918416a123fdfcf68,61036da0d1f92de10ffb3eee,2021-07-29_22h12.43.840,Simcolourproject_2stim_asymm_v5,2020.2.10,MacIntel,60,61025ae37ef11b136ea224fe,,,,,,,,,1448,38.23925781,75.22259521,1,0,0,response1disk,,7,15.41046143,3.727966309,1,0,0,rectangle,15.41046143,3.727966309,1,0,0,15.41046143,3.727966309,1,0,0,1,51,211,60,1,,,,,,,,
,,,,,,,,,,,,,FF,,,,,,,,2.0019,,,,,,,,,,,,,,,,,,,,,,6103688918416a123fdfcf68,61036da0d1f92de10ffb3eee,2021-07-29_22h12.43.840,Simcolourproject_2stim_asymm_v5,2020.2.10,MacIntel,60,61025ae37ef11b136ea224fe,,,,,,,,,1473,40.15319824,80.5368042,1,0,0,response1disk,,7,3.669616699,-1.91229248,1,0,0,rectangle,3.669616699,-1.91229248,1,0,0,3.669616699,-1.91229248,1,0,0,1,52,212,57,1,,,,,,,,
,,,,,,,,,,,,,FF,,,,,,,,1.563,,,,,,,,,,,,,,,,,,,,,,6103688918416a123fdfcf68,61036da0d1f92de10ffb3eee,2021-07-29_22h12.43.840,Simcolourproject_2stim_asymm_v5,2020.2.10,MacIntel,60,61025ae37ef11b136ea224fe,,,,,,,,,3518,-72.21173096,39.5050354,1,0,0,response7disk,,1,-3.154052734,13.18716431,1,0,0,rectangle,-3.154052734,13.18716431,1,0,0,-3.154052734,13.18716431,1,0,0,1,53,213,23,1,,,,,,,,
,,,,,,,,,,,,,FF,,,,,,,,0.3997,,,,,,,,,,,,,,,,,,,,,,6103688918416a123fdfcf68,61036da0d1f92de10ffb3eee,2021-07-29_22h12.43.840,Simcolourproject_2stim_asymm_v5,2020.2.10,MacIntel,60,61025ae37ef11b136ea224fe,,,,,,,,,3030,45.22192383,74.01522827,1,0,0,response1disk,,7,2.740356445,-7.948486328,1,0,0,rectangle,2.740356445,-7.948486328,1,0,0,2.740356445,-7.948486328,1,0,0,1,54,214,118,1,,,,,,,,
,,,,,,,,,,,,,FF,,,,,,,,2.7333,,,,,,,,,,,,,,,,,,,,,,6103688918416a123fdfcf68,61036da0d1f92de10ffb3eee,2021-07-29_22h12.43.840,Simcolourproject_2stim_asymm_v5,2020.2.10,MacIntel,60,61025ae37ef11b136ea224fe,,,,,,,,,703,41.24780273,84.15319824,1,0,0,response1disk,,7,0.673950195,-2.799194336,1,0,0,rectangle,0.673950195,-2.799194336,1,0,0,0.673950195,-2.799194336,1,0,0,1,55,215,16,1,,,,,,,,
,,,,,,,,,,,,,FF,,,,,,,,0.4506,,,,,,,,,,,,,,,,,,,,,,6103688918416a123fdfcf68,61036da0d1f92de10ffb3eee,2021-07-29_22h12.43.840,Simcolourproject_2stim_asymm_v5,2020.2.10,MacIntel,60,61025ae37ef11b136ea224fe,,,,,,,,,4222,50.17559814,101.4585571,1,0,0,response1disk,,7,10.96325684,4.248657227,1,0,0,rectangle,10.96325684,4.248657227,1,0,0,10.96325684,4.248657227,1,0,0,1,56,216,130,1,,,,,,,,
,,,,,,,,,,,,,FF,,,,,,,,0.4167,,,,,,,,,,,,,,,,,,,,,,6103688918416a123fdfcf68,61036da0d1f92de10ffb3eee,2021-07-29_22h12.43.840,Simcolourproject_2stim_asymm_v5,2020.2.10,MacIntel,60,61025ae37ef11b136ea224fe,,,,,,,,,769,43.25909424,91.23632813,1,0,0,response1disk,,7,8.257324219,7.711242676,1,0,0,rectangle,8.257324219,7.711242676,1,0,0,8.257324219,7.711242676,1,0,0,1,57,217,7,1,,,,,,,,
,,,,,,,,,,,,,FF,,,,,,,,0.5156,,,,,,,,,,,,,,,,,,,,,,6103688918416a123fdfcf68,61036da0d1f92de10ffb3eee,2021-07-29_22h12.43.840,Simcolourproject_2stim_asymm_v5,2020.2.10,MacIntel,60,61025ae37ef11b136ea224fe,,,,,,,,,2362,47.93066406,98.32366943,1,0,0,response1disk,,7,1.940612793,12.32788086,1,0,0,rectangle,1.940612793,12.32788086,1,0,0,1.940612793,12.32788086,1,0,0,1,58,218,4,1,,,,,,,,
,,,,,,,,,,,,,FF,,,,,,,,0.4017,,,,,,,,,,,,,,,,,,,,,,6103688918416a123fdfcf68,61036da0d1f92de10ffb3eee,2021-07-29_22h12.43.840,Simcolourproject_2stim_asymm_v5,2020.2.10,MacIntel,60,61025ae37ef11b136ea224fe,,,,,,,,,3590,39.23400879,78.12863159,1,0,0,response1disk,,7,7.238098145,11.24359131,1,0,0,rectangle,7.238098145,11.24359131,1,0,0,7.238098145,11.24359131,1,0,0,1,59,219,29,1,,,,,,,,
,,,,,,,,,,,,,FF,,,,,,,,0.3335,,,,,,,,,,,,,,,,,,,,,,6103688918416a123fdfcf68,61036da0d1f92de10ffb3eee,2021-07-29_22h12.43.840,Simcolourproject_2stim_asymm_v5,2020.2.10,MacIntel,60,61025ae37ef11b136ea224fe,,,,,,,,,2399,43.5814209,87.57147217,1,0,0,response1disk,,7,5.303466797,-4.069091797,1,0,0,rectangle,5.303466797,-4.069091797,1,0,0,5.303466797,-4.069091797,1,0,0,1,60,220,94,1,,,,,,,,
,,,,,,,,,,,,,FF,,,,,,,,0.4671,,,,,,,,,,,,,,,,,,,,,,6103688918416a123fdfcf68,61036da0d1f92de10ffb3eee,2021-07-29_22h12.43.840,Simcolourproject_2stim_asymm_v5,2020.2.10,MacIntel,60,61025ae37ef11b136ea224fe,,,,,,,,,2007,53.96704102,81.75683594,1,0,0,response1disk,,7,-11.84991455,-0.482147217,1,0,0,rectangle,-11.84991455,-0.482147217,1,0,0,-11.84991455,-0.482147217,1,0,0,1,61,221,134,1,,,,,,,,
,,,,,,,,,,,,,FF,,,,,,,,0.5333,,,,,,,,,,,,,,,,,,,,,,6103688918416a123fdfcf68,61036da0d1f92de10ffb3eee,2021-07-29_22h12.43.840,Simcolourproject_2stim_asymm_v5,2020.2.10,MacIntel,60,61025ae37ef11b136ea224fe,,,,,,,,,1391,31.20031738,76.44241333,1,0,0,response1disk,,7,-0.698669434,3.155517578,1,0,0,rectangle,-0.698669434,3.155517578,1,0,0,-0.698669434,3.155517578,1,0,0,1,62,222,150,1,,,,,,,,
,,,,,,,,,,,,,FF,,,,,,,,0.3489,,,,,,,,,,,,,,,,,,,,,,6103688918416a123fdfcf68,61036da0d1f92de10ffb3eee,2021-07-29_22h12.43.840,Simcolourproject_2stim_asymm_v5,2020.2.10,MacIntel,60,61025ae37ef11b136ea224fe,,,,,,,,,2778,64.43591309,90.2557373,1,0,0,response1disk,,7,2.063598633,9.694702148,1,0,0,rectangle,2.063598633,9.694702148,1,0,0,2.063598633,9.694702148,1,0,0,1,63,223,145,1,,,,,,,,
,,,,,,,,,,,,,FF,,,,,,,,1.2524,,,,,,,,,,,,,,,,,,,,,,6103688918416a123fdfcf68,61036da0d1f92de10ffb3eee,2021-07-29_22h12.43.840,Simcolourproject_2stim_asymm_v5,2020.2.10,MacIntel,60,61025ae37ef11b136ea224fe,,,,,,,,,550,-35.80828857,68.78143311,1,0,0,response7disk,,0,-0.675354004,7.692749023,1,0,0,rectangle,-0.675354004,7.692749023,1,0,0,-0.675354004,7.692749023,1,0,0,1,64,224,105,1,,,,,,,,
,,,,,,,,,,,,,FF,,,,,,,,0.3993,,,,,,,,,,,,,,,,,,,,,,6103688918416a123fdfcf68,61036da0d1f92de10ffb3eee,2021-07-29_22h12.43.840,Simcolourproject_2stim_asymm_v5,2020.2.10,MacIntel,60,61025ae37ef11b136ea224fe,,,,,,,,,50,55.91259766,105.770874,1,0,0,response1disk,,7,-7.020874023,0.858764648,1,0,0,rectangle,-7.020874023,0.858764648,1,0,0,-7.020874023,0.858764648,1,0,0,1,65,225,36,1,,,,,,,,
,,,,,,,,,,,,,FF,,,,,,,,0.451,,,,,,,,,,,,,,,,,,,,,,6103688918416a123fdfcf68,61036da0d1f92de10ffb3eee,2021-07-29_22h12.43.840,Simcolourproject_2stim_asymm_v5,2020.2.10,MacIntel,60,61025ae37ef11b136ea224fe,,,,,,,,,2485,-21.51965332,69.49313354,1,0,0,response7disk,,0,4.788085938,-1.815948486,1,0,0,rectangle,4.788085938,-1.815948486,1,0,0,4.788085938,-1.815948486,1,0,0,1,66,226,154,1,,,,,,,,
,,,,,,,,,,,,,FF,,,,,,,,0.4788,,,,,,,,,,,,,,,,,,,,,,6103688918416a123fdfcf68,61036da0d1f92de10ffb3eee,2021-07-29_22h12.43.840,Simcolourproject_2stim_asymm_v5,2020.2.10,MacIntel,60,61025ae37ef11b136ea224fe,,,,,,,,,2679,35.84423828,66.15002441,1,0,0,response1disk,,7,-12.17077637,-14.43811035,1,0,0,rectangle,-45.60089111,-87.03271484,1,0,0,3.279541016,3.02645874,1,0,0,1,67,227,22,1,,response5disk_3,TRUE,3,3,"[86,230,154,49,124,277,280,81,229,228,200,77,250,78,269,136,211,92,263,257]",2.269,rectangle
,,,,,,,,,,,,,FF,,,,,,,,1.1323,,,,,,,,,,,,,,,,,,,,,,6103688918416a123fdfcf68,61036da0d1f92de10ffb3eee,2021-07-29_22h12.43.840,Simcolourproject_2stim_asymm_v5,2020.2.10,MacIntel,60,61025ae37ef11b136ea224fe,,,,,,,,,3432,-29.89837646,59.21621704,1,0,0,response7disk,,0,-3.980834961,12.41662598,1,0,0,rectangle,83.66394043,-34.28741455,1,0,0,-2.945678711,7.789001465,1,0,0,1,68,228,53,1,,response3disk_3,TRUE,5,5,"[86,230,154,49,124,277,280,81,229,228,200,77,250,78,269,136,211,92,263,257]",1.7629,rectangle
,,,,,,,,,,,,,FF,,,,,,,,0.647,,,,,,,,,,,,,,,,,,,,,,6103688918416a123fdfcf68,61036da0d1f92de10ffb3eee,2021-07-29_22h12.43.840,Simcolourproject_2stim_asymm_v5,2020.2.10,MacIntel,60,61025ae37ef11b136ea224fe,,,,,,,,,3171,28.32556152,64.51806641,1,0,0,response1disk,,7,13.95831299,6.682617188,1,0,0,rectangle,-45.46643066,-108.7653809,1,0,0,3.713256836,-1.531188965,1,0,0,1,69,229,96,1,,response5disk_3,TRUE,3,3,"[86,230,154,49,124,277,280,81,229,228,200,77,250,78,269,136,211,92,263,257]",1.452,rectangle
,,,,,,,,,,,,,FF,,,,,,,,0.767,,,,,,,,,,,,,,,,,,,,,,6103688918416a123fdfcf68,61036da0d1f92de10ffb3eee,2021-07-29_22h12.43.840,Simcolourproject_2stim_asymm_v5,2020.2.10,MacIntel,60,61025ae37ef11b136ea224fe,,,,,,,,,420,25.13598633,60.12823486,1,0,0,response1disk,,7,10.7755127,2.122619629,1,0,0,rectangle,10.7755127,2.122619629,1,0,0,10.7755127,2.122619629,1,0,0,1,70,230,97,1,,,,,,,,
,,,,,,,,,,,,,FF,,,,,,,,0.8818,,,,,,,,,,,,,,,,,,,,,,6103688918416a123fdfcf68,61036da0d1f92de10ffb3eee,2021-07-29_22h12.43.840,Simcolourproject_2stim_asymm_v5,2020.2.10,MacIntel,60,61025ae37ef11b136ea224fe,,,,,,,,,457,37.74963379,80.34173584,1,0,0,response1disk,,7,-6.496032715,-3.380828857,1,0,0,rectangle,-6.496032715,-3.380828857,1,0,0,-6.496032715,-3.380828857,1,0,0,1,71,231,142,1,,,,,,,,
,,,,,,,,,,,,,FF,,,,,,,,1.0847,,,,,,,,,,,,,,,,,,,,,,6103688918416a123fdfcf68,61036da0d1f92de10ffb3eee,2021-07-29_22h12.43.840,Simcolourproject_2stim_asymm_v5,2020.2.10,MacIntel,60,61025ae37ef11b136ea224fe,,,,,,,,,2026,35.7746582,74.96731567,1,0,0,response1disk,,7,1.79876709,2.745117188,1,0,0,rectangle,1.79876709,2.745117188,1,0,0,1.79876709,2.745117188,1,0,0,1,72,232,115,1,,,,,,,,
,,,,,,,,,,,,,FF,,,,,,,,0.5973,,,,,,,,,,,,,,,,,,,,,,6103688918416a123fdfcf68,61036da0d1f92de10ffb3eee,2021-07-29_22h12.43.840,Simcolourproject_2stim_asymm_v5,2020.2.10,MacIntel,60,61025ae37ef11b136ea224fe,,,,,,,,,2582,41.47198486,81.46289063,1,0,0,response1disk,,7,3.471130371,6.376953125,1,0,0,rectangle,3.471130371,6.376953125,1,0,0,3.471130371,6.376953125,1,0,0,1,73,233,35,1,,,,,,,,
,,,,,,,,,,,,,FF,,,,,,,,0.382,,,,,,,,,,,,,,,,,,,,,,6103688918416a123fdfcf68,61036da0d1f92de10ffb3eee,2021-07-29_22h12.43.840,Simcolourproject_2stim_asymm_v5,2020.2.10,MacIntel,60,61025ae37ef11b136ea224fe,,,,,,,,,1787,49.02685547,77.00830078,1,0,0,response1disk,,7,5.614807129,2.227294922,1,0,0,rectangle,5.614807129,2.227294922,1,0,0,5.614807129,2.227294922,1,0,0,1,74,234,123,1,,,,,,,,
,,,,,,,,,,,,,FF,,,,,,,,0.3703,,,,,,,,,,,,,,,,,,,,,,6103688918416a123fdfcf68,61036da0d1f92de10ffb3eee,2021-07-29_22h12.43.840,Simcolourproject_2stim_asymm_v5,2020.2.10,MacIntel,60,61025ae37ef11b136ea224fe,,,,,,,,,580,43.64678955,82.95471191,1,0,0,response1disk,,7,6.021118164,-2.246704102,1,0,0,rectangle,6.021118164,-2.246704102,1,0,0,6.021118164,-2.246704102,1,0,0,1,75,235,30,1,,,,,,,,
,,,,,,,,,,,,,FF,,,,,,,,0.3982,,,,,,,,,,,,,,,,,,,,,,6103688918416a123fdfcf68,61036da0d1f92de10ffb3eee,2021-07-29_22h12.43.840,Simcolourproject_2stim_asymm_v5,2020.2.10,MacIntel,60,61025ae37ef11b136ea224fe,,,,,,,,,2395,26.7722168,63.50512695,1,0,0,response1disk,,7,6.804199219,2.210083008,1,0,0,rectangle,6.804199219,2.210083008,1,0,0,6.804199219,2.210083008,1,0,0,1,76,236,127,1,,,,,,,,
,,,,,,,,,,,,,FF,,,,,,,,0.486,,,,,,,,,,,,,,,,,,,,,,6103688918416a123fdfcf68,61036da0d1f92de10ffb3eee,2021-07-29_22h12.43.840,Simcolourproject_2stim_asymm_v5,2020.2.10,MacIntel,60,61025ae37ef11b136ea224fe,,,,,,,,,47,37.28283691,82.34375,1,0,0,response1disk,,7,7.812316895,-1.288208008,1,0,0,rectangle,7.812316895,-1.288208008,1,0,0,7.812316895,-1.288208008,1,0,0,1,77,237,93,1,,,,,,,,
,,,,,,,,,,,,,FF,,,,,,,,0.4817,,,,,,,,,,,,,,,,,,,,,,6103688918416a123fdfcf68,61036da0d1f92de10ffb3eee,2021-07-29_22h12.43.840,Simcolourproject_2stim_asymm_v5,2020.2.10,MacIntel,60,61025ae37ef11b136ea224fe,,,,,,,,,1052,46.79559326,84.50921631,1,0,0,response1disk,,7,2.371582031,3.841491699,1,0,0,rectangle,2.371582031,3.841491699,1,0,0,2.371582031,3.841491699,1,0,0,1,78,238,80,1,,,,,,,,
,,,,,,,,,,,,,FF,,,,,,,,0.45,,,,,,,,,,,,,,,,,,,,,,6103688918416a123fdfcf68,61036da0d1f92de10ffb3eee,2021-07-29_22h12.43.840,Simcolourproject_2stim_asymm_v5,2020.2.10,MacIntel,60,61025ae37ef11b136ea224fe,,,,,,,,,3235,46.78942871,58.58676147,1,0,0,response1disk,,7,-3.565124512,5.717041016,1,0,0,rectangle,-3.565124512,5.717041016,1,0,0,-3.565124512,5.717041016,1,0,0,1,79,239,28,1,,,,,,,,
,,,,,,,,,,,,,FF,,,,,,,,0.399,,,,,,,,,,,,,,,,,,,,,,6103688918416a123fdfcf68,61036da0d1f92de10ffb3eee,2021-07-29_22h12.43.840,Simcolourproject_2stim_asymm_v5,2020.2.10,MacIntel,60,61025ae37ef11b136ea224fe,,,,,,,,,3928,56.37799072,78.07189941,1,0,0,response1disk,,7,-8.235595703,-4.18963623,1,0,0,rectangle,-8.235595703,-4.18963623,1,0,0,-8.235595703,-4.18963623,1,0,0,1,80,240,65,1,,,,,,,,
,,,,,,,,,,,,,FF,,,,,,,,0.3692,,,,,,,,,,,,,,,,,,,,,,6103688918416a123fdfcf68,61036da0d1f92de10ffb3eee,2021-07-29_22h12.43.840,Simcolourproject_2stim_asymm_v5,2020.2.10,MacIntel,60,61025ae37ef11b136ea224fe,,,,,,,,,3187,48.69604492,74.67205811,1,0,0,response1disk,,7,7.728271484,8.72277832,1,0,0,rectangle,7.728271484,8.72277832,1,0,0,7.728271484,8.72277832,1,0,0,1,81,241,101,1,,,,,,,,
,,,,,,,,,,,,,FF,,,,,,,,0.8306,,,,,,,,,,,,,,,,,,,,,,6103688918416a123fdfcf68,61036da0d1f92de10ffb3eee,2021-07-29_22h12.43.840,Simcolourproject_2stim_asymm_v5,2020.2.10,MacIntel,60,61025ae37ef11b136ea224fe,,,,,,,,,4300,38.94726563,70.91934204,1,0,0,response1disk,,7,3.837219238,9.981414795,1,0,0,rectangle,3.837219238,9.981414795,1,0,0,3.837219238,9.981414795,1,0,0,1,82,242,75,1,,,,,,,,
