key_resp.keys,key_resp.rt,key_resp_14.keys,key_resp_14.rt,key_resp_15.keys,key_resp_15.rt,key_resp_17.keys,key_resp_17.rt,key_resp_9.keys,key_resp_9.rt,key_resp_10.keys,key_resp_10.rt,practice_comparison,Ecc,mouse_5.x,mouse_5.y,mouse_5.leftButton,mouse_5.midButton,mouse_5.rightButton,mouse_5.clicked_name,pracsimilarity,response_time,mouse_10.x,mouse_10.y,mouse_10.leftButton,mouse_10.midButton,mouse_10.rightButton,mouse_10.clicked_name,mouse_7.x,mouse_7.y,mouse_7.leftButton,mouse_7.midButton,mouse_7.rightButton,mouse_6.x,mouse_6.y,mouse_6.leftButton,mouse_6.midButton,mouse_6.rightButton,duringprac.thisRepN,duringprac.thisTrialN,duringprac.thisN,duringprac.thisIndex,duringprac.ran,participant,session,date,expName,psychopyVersion,OS,frameRate,study_id,mouse_7.clicked_name,catchpracsimilarity,catch_response_time,catchnumberprac,catchtrialorderprac,mouse_6.clicked_name,key_resp_22.keys,key_resp_22.rt,realcomparison,mouse.x,mouse.y,mouse.leftButton,mouse.midButton,mouse.rightButton,mouse.clicked_name,Colour2,similarity,mouse_2.x,mouse_2.y,mouse_2.leftButton,mouse_2.midButton,mouse_2.rightButton,mouse_2.clicked_name,mouse_3.x,mouse_3.y,mouse_3.leftButton,mouse_3.midButton,mouse_3.rightButton,mouse_11.x,mouse_11.y,mouse_11.leftButton,mouse_11.midButton,mouse_11.rightButton,trials_2.thisRepN,trials_2.thisTrialN,trials_2.thisN,trials_2.thisIndex,trials_2.ran,Colour1,mouse_3.clicked_name,catchornah,catchsimilarity,catchnumber,catchtrialorder,catchRT,mouse_11.clicked_name
space,2.2498,space,7.2472,space,20.0379,space,9.7395,space,1.8352,space,5.6927,87,PF,-41.26953125,-80.75390625,1,0,0,response5disk_5,3,10.2711,-4.34375,-1.2265625,1,0,0,rectangle_8,-4.34375,-1.2265625,1,0,0,-4.34375,-1.2265625,1,0,0,0,0,0,2,1,610359fd24cc412e70e304e1,610369d7e5e98a764026aa2c,2021-07-29_21h55.18.549,Simcolourproject_2stim_asymm_v5,2020.2.10,MacIntel,60,61025ae37ef11b136ea224fe,,,,,,,,,,,,,,,,,,,,,,,,,,,,,,,,,,,,,,,,,,,,,,
,,,,,,,,,,,,106,FF,91.71875,42.546875,1,0,0,response1disk_5,6,9.5185,5.5703125,12.03515625,1,0,0,rectangle_8,-36.13671875,91.1484375,1,0,0,9.87890625,-7.34765625,1,0,0,0,1,1,5,1,610359fd24cc412e70e304e1,610369d7e5e98a764026aa2c,2021-07-29_21h55.18.549,Simcolourproject_2stim_asymm_v5,2020.2.10,MacIntel,60,61025ae37ef11b136ea224fe,response7disk_7,0,3.2189,0,"[2,5]",rectangle_4,,,,,,,,,,,,,,,,,,,,,,,,,,,,,,,,,,,,,,,,
,,,,,,,,,,,,69,PF,87.609375,43.453125,1,0,0,response1disk_5,6,9.9319,2.18359375,-4.61328125,1,0,0,rectangle_8,2.18359375,-4.61328125,1,0,0,2.18359375,-4.61328125,1,0,0,0,2,2,4,1,610359fd24cc412e70e304e1,610369d7e5e98a764026aa2c,2021-07-29_21h55.18.549,Simcolourproject_2stim_asymm_v5,2020.2.10,MacIntel,60,61025ae37ef11b136ea224fe,,,,,,,,,,,,,,,,,,,,,,,,,,,,,,,,,,,,,,,,,,,,,,
,,,,,,,,,,,,27,FF,-45.890625,98.40625,1,0,0,response7disk_5,0,2.3116,0.0625,-6.04296875,1,0,0,rectangle_8,0.0625,-6.04296875,1,0,0,0.0625,-6.04296875,1,0,0,0,3,3,3,1,610359fd24cc412e70e304e1,610369d7e5e98a764026aa2c,2021-07-29_21h55.18.549,Simcolourproject_2stim_asymm_v5,2020.2.10,MacIntel,60,61025ae37ef11b136ea224fe,,,,,,,,,,,,,,,,,,,,,,,,,,,,,,,,,,,,,,,,,,,,,,
,,,,,,,,,,,,87,PF,76.1015625,-54.71875,1,0,0,response3disk_5,5,6.4529,-0.53515625,-1.15625,1,0,0,rectangle_8,-24.7421875,79.21875,1,0,0,14.359375,2.11328125,1,0,0,0,4,4,6,1,610359fd24cc412e70e304e1,610369d7e5e98a764026aa2c,2021-07-29_21h55.18.549,Simcolourproject_2stim_asymm_v5,2020.2.10,MacIntel,60,61025ae37ef11b136ea224fe,response7disk_7,0,2.0008,0,"[2,5]",rectangle_4,,,,,,,,,,,,,,,,,,,,,,,,,,,,,,,,,,,,,,,,
,,,,,,,,,,,,41,PF,80.45703125,45.953125,1,0,0,response1disk_5,6,5.0513,0.1328125,-1.359375,1,0,0,rectangle_8,0.1328125,-1.359375,1,0,0,0.1328125,-1.359375,1,0,0,0,5,5,1,1,610359fd24cc412e70e304e1,610369d7e5e98a764026aa2c,2021-07-29_21h55.18.549,Simcolourproject_2stim_asymm_v5,2020.2.10,MacIntel,60,61025ae37ef11b136ea224fe,,,,,,,,,,,,,,,,,,,,,,,,,,,,,,,,,,,,,,,,,,,,,,
,,,,,,,,,,,,157,FF,-37.1015625,62.6328125,1,0,0,response7disk_5,0,1.201,-5.1953125,-5.88671875,1,0,0,rectangle_8,-5.1953125,-5.88671875,1,0,0,-5.1953125,-5.88671875,1,0,0,0,6,6,0,1,610359fd24cc412e70e304e1,610369d7e5e98a764026aa2c,2021-07-29_21h55.18.549,Simcolourproject_2stim_asymm_v5,2020.2.10,MacIntel,60,61025ae37ef11b136ea224fe,,,,,,,,,,,,,,,,,,,,,,,,,,,,,,,,,,,,,,,,,,,,,,
,,,,,,,,,,,,,FF,,,,,,,,2.6825,,,,,,,,,,,,,,,,,,,,,,610359fd24cc412e70e304e1,610369d7e5e98a764026aa2c,2021-07-29_21h55.18.549,Simcolourproject_2stim_asymm_v5,2020.2.10,MacIntel,60,61025ae37ef11b136ea224fe,,,,,,,space,3.0806,128,53.37109375,92.47265625,1,0,0,response1disk,,7,2.9609375,5.52734375,1,0,0,rectangle,2.9609375,5.52734375,1,0,0,2.9609375,5.52734375,1,0,0,0,0,0,67,1,,,,,,,,
,,,,,,,,,,,,,FF,,,,,,,,1.7466,,,,,,,,,,,,,,,,,,,,,,610359fd24cc412e70e304e1,610369d7e5e98a764026aa2c,2021-07-29_21h55.18.549,Simcolourproject_2stim_asymm_v5,2020.2.10,MacIntel,60,61025ae37ef11b136ea224fe,,,,,,,,,36,47.85546875,104.5,1,0,0,response1disk,,7,11.16796875,3.77734375,1,0,0,rectangle,11.16796875,3.77734375,1,0,0,11.16796875,3.77734375,1,0,0,0,1,1,74,1,,,,,,,,
,,,,,,,,,,,,,FF,,,,,,,,5.897,,,,,,,,,,,,,,,,,,,,,,610359fd24cc412e70e304e1,610369d7e5e98a764026aa2c,2021-07-29_21h55.18.549,Simcolourproject_2stim_asymm_v5,2020.2.10,MacIntel,60,61025ae37ef11b136ea224fe,,,,,,,,,434,82.85546875,-44.50390625,1,0,0,response3disk,,5,1.31640625,4.6015625,1,0,0,rectangle,1.31640625,4.6015625,1,0,0,1.31640625,4.6015625,1,0,0,0,2,2,5,1,,,,,,,,
,,,,,,,,,,,,,FF,,,,,,,,1.5848,,,,,,,,,,,,,,,,,,,,,,610359fd24cc412e70e304e1,610369d7e5e98a764026aa2c,2021-07-29_21h55.18.549,Simcolourproject_2stim_asymm_v5,2020.2.10,MacIntel,60,61025ae37ef11b136ea224fe,,,,,,,,,967,39.12109375,77.84765625,1,0,0,response1disk,,7,7.8125,-1.765625,1,0,0,rectangle,7.8125,-1.765625,1,0,0,7.8125,-1.765625,1,0,0,0,3,3,152,1,,,,,,,,
,,,,,,,,,,,,,FF,,,,,,,,1.1697,,,,,,,,,,,,,,,,,,,,,,610359fd24cc412e70e304e1,610369d7e5e98a764026aa2c,2021-07-29_21h55.18.549,Simcolourproject_2stim_asymm_v5,2020.2.10,MacIntel,60,61025ae37ef11b136ea224fe,,,,,,,,,993,42.3125,100.3554688,1,0,0,response1disk,,7,9.421875,3.3359375,1,0,0,rectangle,9.421875,3.3359375,1,0,0,9.421875,3.3359375,1,0,0,0,4,4,123,1,,,,,,,,
,,,,,,,,,,,,,FF,,,,,,,,2.0296,,,,,,,,,,,,,,,,,,,,,,610359fd24cc412e70e304e1,610369d7e5e98a764026aa2c,2021-07-29_21h55.18.549,Simcolourproject_2stim_asymm_v5,2020.2.10,MacIntel,60,61025ae37ef11b136ea224fe,,,,,,,,,2142,46.91796875,87.90625,1,0,0,response1disk,,7,6.45703125,-6.51171875,1,0,0,rectangle,6.45703125,-6.51171875,1,0,0,6.45703125,-6.51171875,1,0,0,0,5,5,88,1,,,,,,,,
,,,,,,,,,,,,,FF,,,,,,,,2.1811,,,,,,,,,,,,,,,,,,,,,,610359fd24cc412e70e304e1,610369d7e5e98a764026aa2c,2021-07-29_21h55.18.549,Simcolourproject_2stim_asymm_v5,2020.2.10,MacIntel,60,61025ae37ef11b136ea224fe,,,,,,,,,930,40.71875,76,1,0,0,response1disk,,7,-0.58984375,7.33203125,1,0,0,rectangle,44.16015625,-97.73828125,1,0,0,-5.77734375,9.11328125,1,0,0,0,6,6,14,1,,response3disk_3,TRUE,4,4,"[219,145,189,304,201,175,138,121,259,98,254,262,11,215,94,310,281,114,7,273]",2.0041,rectangle
,,,,,,,,,,,,,FF,,,,,,,,1.6186,,,,,,,,,,,,,,,,,,,,,,610359fd24cc412e70e304e1,610369d7e5e98a764026aa2c,2021-07-29_21h55.18.549,Simcolourproject_2stim_asymm_v5,2020.2.10,MacIntel,60,61025ae37ef11b136ea224fe,,,,,,,,,1785,48.890625,79.35546875,1,0,0,response1disk,,7,6.578125,-8.08203125,1,0,0,rectangle,6.578125,-8.08203125,1,0,0,6.578125,-8.08203125,1,0,0,0,7,7,112,1,,,,,,,,
,,,,,,,,,,,,,FF,,,,,,,,0.8009,,,,,,,,,,,,,,,,,,,,,,610359fd24cc412e70e304e1,610369d7e5e98a764026aa2c,2021-07-29_21h55.18.549,Simcolourproject_2stim_asymm_v5,2020.2.10,MacIntel,60,61025ae37ef11b136ea224fe,,,,,,,,,4095,-48.8515625,85.55078125,1,0,0,response7disk,,0,-4.13671875,3.46484375,1,0,0,rectangle,-4.13671875,3.46484375,1,0,0,-4.13671875,3.46484375,1,0,0,0,8,8,158,1,,,,,,,,
,,,,,,,,,,,,,FF,,,,,,,,1.6637,,,,,,,,,,,,,,,,,,,,,,610359fd24cc412e70e304e1,610369d7e5e98a764026aa2c,2021-07-29_21h55.18.549,Simcolourproject_2stim_asymm_v5,2020.2.10,MacIntel,60,61025ae37ef11b136ea224fe,,,,,,,,,2735,93.97265625,-39.015625,1,0,0,response3disk,,5,5.890625,2.51171875,1,0,0,rectangle,5.890625,2.51171875,1,0,0,5.890625,2.51171875,1,0,0,0,9,9,71,1,,,,,,,,
,,,,,,,,,,,,,FF,,,,,,,,1.4689,,,,,,,,,,,,,,,,,,,,,,610359fd24cc412e70e304e1,610369d7e5e98a764026aa2c,2021-07-29_21h55.18.549,Simcolourproject_2stim_asymm_v5,2020.2.10,MacIntel,60,61025ae37ef11b136ea224fe,,,,,,,,,2370,84.3984375,-55.10546875,1,0,0,response3disk,,5,16.84375,-7.76171875,1,0,0,rectangle,91.56640625,-38.34765625,1,0,0,1.890625,1.421875,1,0,0,0,10,10,140,1,,response3disk_3,TRUE,5,5,"[219,145,189,304,201,175,138,121,259,98,254,262,11,215,94,310,281,114,7,273]",2.2326,rectangle
,,,,,,,,,,,,,FF,,,,,,,,1.1011,,,,,,,,,,,,,,,,,,,,,,610359fd24cc412e70e304e1,610369d7e5e98a764026aa2c,2021-07-29_21h55.18.549,Simcolourproject_2stim_asymm_v5,2020.2.10,MacIntel,60,61025ae37ef11b136ea224fe,,,,,,,,,1548,45.03515625,84.10546875,1,0,0,response1disk,,7,-5.26953125,-2.1484375,1,0,0,rectangle,-5.26953125,-2.1484375,1,0,0,-5.26953125,-2.1484375,1,0,0,0,11,11,4,1,,,,,,,,
,,,,,,,,,,,,,FF,,,,,,,,0.9305,,,,,,,,,,,,,,,,,,,,,,610359fd24cc412e70e304e1,610369d7e5e98a764026aa2c,2021-07-29_21h55.18.549,Simcolourproject_2stim_asymm_v5,2020.2.10,MacIntel,60,61025ae37ef11b136ea224fe,,,,,,,,,3530,30.71484375,73.64453125,1,0,0,response1disk,,7,6.90625,-2.359375,1,0,0,rectangle,6.90625,-2.359375,1,0,0,6.90625,-2.359375,1,0,0,0,12,12,18,1,,,,,,,,
,,,,,,,,,,,,,FF,,,,,,,,0.8477,,,,,,,,,,,,,,,,,,,,,,610359fd24cc412e70e304e1,610369d7e5e98a764026aa2c,2021-07-29_21h55.18.549,Simcolourproject_2stim_asymm_v5,2020.2.10,MacIntel,60,61025ae37ef11b136ea224fe,,,,,,,,,4179,33.640625,96.82421875,1,0,0,response1disk,,7,17.16796875,-0.3515625,1,0,0,rectangle,17.16796875,-0.3515625,1,0,0,17.16796875,-0.3515625,1,0,0,0,13,13,55,1,,,,,,,,
,,,,,,,,,,,,,FF,,,,,,,,3.9972,,,,,,,,,,,,,,,,,,,,,,610359fd24cc412e70e304e1,610369d7e5e98a764026aa2c,2021-07-29_21h55.18.549,Simcolourproject_2stim_asymm_v5,2020.2.10,MacIntel,60,61025ae37ef11b136ea224fe,,,,,,,,,637,-38.15625,-87.6875,1,0,0,response5disk,,3,-3.02734375,3.625,1,0,0,rectangle,-3.02734375,3.625,1,0,0,-3.02734375,3.625,1,0,0,0,14,14,19,1,,,,,,,,
,,,,,,,,,,,,,FF,,,,,,,,0.8199,,,,,,,,,,,,,,,,,,,,,,610359fd24cc412e70e304e1,610369d7e5e98a764026aa2c,2021-07-29_21h55.18.549,Simcolourproject_2stim_asymm_v5,2020.2.10,MacIntel,60,61025ae37ef11b136ea224fe,,,,,,,,,2443,38.71484375,67.7109375,1,0,0,response1disk,,7,10.71484375,14.21484375,1,0,0,rectangle,10.71484375,14.21484375,1,0,0,10.71484375,14.21484375,1,0,0,0,15,15,64,1,,,,,,,,
,,,,,,,,,,,,,FF,,,,,,,,1.9642,,,,,,,,,,,,,,,,,,,,,,610359fd24cc412e70e304e1,610369d7e5e98a764026aa2c,2021-07-29_21h55.18.549,Simcolourproject_2stim_asymm_v5,2020.2.10,MacIntel,60,61025ae37ef11b136ea224fe,,,,,,,,,746,59.50390625,90.66796875,1,0,0,response1disk,,7,1.296875,-5.46484375,1,0,0,rectangle,1.296875,-5.46484375,1,0,0,1.296875,-5.46484375,1,0,0,0,16,16,48,1,,,,,,,,
,,,,,,,,,,,,,FF,,,,,,,,0.7687,,,,,,,,,,,,,,,,,,,,,,610359fd24cc412e70e304e1,610369d7e5e98a764026aa2c,2021-07-29_21h55.18.549,Simcolourproject_2stim_asymm_v5,2020.2.10,MacIntel,60,61025ae37ef11b136ea224fe,,,,,,,,,573,41.94921875,84.3671875,1,0,0,response1disk,,7,-5.984375,-0.109375,1,0,0,rectangle,-5.984375,-0.109375,1,0,0,-5.984375,-0.109375,1,0,0,0,17,17,76,1,,,,,,,,
,,,,,,,,,,,,,FF,,,,,,,,0.8019,,,,,,,,,,,,,,,,,,,,,,610359fd24cc412e70e304e1,610369d7e5e98a764026aa2c,2021-07-29_21h55.18.549,Simcolourproject_2stim_asymm_v5,2020.2.10,MacIntel,60,61025ae37ef11b136ea224fe,,,,,,,,,3335,33.29296875,67.51953125,1,0,0,response1disk,,7,0.31640625,3.59765625,1,0,0,rectangle,0.31640625,3.59765625,1,0,0,0.31640625,3.59765625,1,0,0,0,18,18,63,1,,,,,,,,
,,,,,,,,,,,,,FF,,,,,,,,1.851,,,,,,,,,,,,,,,,,,,,,,610359fd24cc412e70e304e1,610369d7e5e98a764026aa2c,2021-07-29_21h55.18.549,Simcolourproject_2stim_asymm_v5,2020.2.10,MacIntel,60,61025ae37ef11b136ea224fe,,,,,,,,,2102,83.7890625,43.4296875,1,0,0,response1disk,,6,12.06640625,4.13671875,1,0,0,rectangle,12.06640625,4.13671875,1,0,0,12.06640625,4.13671875,1,0,0,0,19,19,156,1,,,,,,,,
,,,,,,,,,,,,,FF,,,,,,,,0.814,,,,,,,,,,,,,,,,,,,,,,610359fd24cc412e70e304e1,610369d7e5e98a764026aa2c,2021-07-29_21h55.18.549,Simcolourproject_2stim_asymm_v5,2020.2.10,MacIntel,60,61025ae37ef11b136ea224fe,,,,,,,,,1104,42.51953125,81.97265625,1,0,0,response1disk,,7,0.34765625,-1.25390625,1,0,0,rectangle,0.34765625,-1.25390625,1,0,0,0.34765625,-1.25390625,1,0,0,0,20,20,87,1,,,,,,,,
,,,,,,,,,,,,,FF,,,,,,,,1.5855,,,,,,,,,,,,,,,,,,,,,,610359fd24cc412e70e304e1,610369d7e5e98a764026aa2c,2021-07-29_21h55.18.549,Simcolourproject_2stim_asymm_v5,2020.2.10,MacIntel,60,61025ae37ef11b136ea224fe,,,,,,,,,3818,97.0390625,-44.921875,1,0,0,response3disk,,5,2.93359375,-2.29296875,1,0,0,rectangle,2.93359375,-2.29296875,1,0,0,2.93359375,-2.29296875,1,0,0,0,21,21,157,1,,,,,,,,
,,,,,,,,,,,,,FF,,,,,,,,0.8362,,,,,,,,,,,,,,,,,,,,,,610359fd24cc412e70e304e1,610369d7e5e98a764026aa2c,2021-07-29_21h55.18.549,Simcolourproject_2stim_asymm_v5,2020.2.10,MacIntel,60,61025ae37ef11b136ea224fe,,,,,,,,,3216,26.1328125,67.33203125,1,0,0,response1disk,,7,1.33203125,6.3984375,1,0,0,rectangle,1.33203125,6.3984375,1,0,0,1.33203125,6.3984375,1,0,0,0,22,22,121,1,,,,,,,,
,,,,,,,,,,,,,FF,,,,,,,,0.72,,,,,,,,,,,,,,,,,,,,,,610359fd24cc412e70e304e1,610369d7e5e98a764026aa2c,2021-07-29_21h55.18.549,Simcolourproject_2stim_asymm_v5,2020.2.10,MacIntel,60,61025ae37ef11b136ea224fe,,,,,,,,,2959,53.6796875,112.4882813,1,0,0,response1disk,,7,-18.72265625,-12.33203125,1,0,0,rectangle,-18.72265625,-12.33203125,1,0,0,-18.72265625,-12.33203125,1,0,0,0,23,23,2,1,,,,,,,,
,,,,,,,,,,,,,FF,,,,,,,,0.8021,,,,,,,,,,,,,,,,,,,,,,610359fd24cc412e70e304e1,610369d7e5e98a764026aa2c,2021-07-29_21h55.18.549,Simcolourproject_2stim_asymm_v5,2020.2.10,MacIntel,60,61025ae37ef11b136ea224fe,,,,,,,,,1722,49.13671875,104.7539063,1,0,0,response1disk,,7,8.4375,4.5078125,1,0,0,rectangle,8.4375,4.5078125,1,0,0,8.4375,4.5078125,1,0,0,0,24,24,15,1,,,,,,,,
,,,,,,,,,,,,,FF,,,,,,,,0.6673,,,,,,,,,,,,,,,,,,,,,,610359fd24cc412e70e304e1,610369d7e5e98a764026aa2c,2021-07-29_21h55.18.549,Simcolourproject_2stim_asymm_v5,2020.2.10,MacIntel,60,61025ae37ef11b136ea224fe,,,,,,,,,4131,59.38671875,91.03515625,1,0,0,response1disk,,7,7.6875,-11.33984375,1,0,0,rectangle,7.6875,-11.33984375,1,0,0,7.6875,-11.33984375,1,0,0,0,25,25,119,1,,,,,,,,
,,,,,,,,,,,,,FF,,,,,,,,2.9145,,,,,,,,,,,,,,,,,,,,,,610359fd24cc412e70e304e1,610369d7e5e98a764026aa2c,2021-07-29_21h55.18.549,Simcolourproject_2stim_asymm_v5,2020.2.10,MacIntel,60,61025ae37ef11b136ea224fe,,,,,,,,,2666,96.5390625,-47.734375,1,0,0,response3disk,,5,2.6171875,-3.58203125,1,0,0,rectangle,2.6171875,-3.58203125,1,0,0,2.6171875,-3.58203125,1,0,0,0,26,26,150,1,,,,,,,,
,,,,,,,,,,,,,FF,,,,,,,,0.784,,,,,,,,,,,,,,,,,,,,,,610359fd24cc412e70e304e1,610369d7e5e98a764026aa2c,2021-07-29_21h55.18.549,Simcolourproject_2stim_asymm_v5,2020.2.10,MacIntel,60,61025ae37ef11b136ea224fe,,,,,,,,,4361,-52.39453125,86.55859375,1,0,0,response7disk,,0,3.4375,1.8203125,1,0,0,rectangle,3.4375,1.8203125,1,0,0,3.4375,1.8203125,1,0,0,0,27,27,151,1,,,,,,,,
,,,,,,,,,,,,,FF,,,,,,,,1.3503,,,,,,,,,,,,,,,,,,,,,,610359fd24cc412e70e304e1,610369d7e5e98a764026aa2c,2021-07-29_21h55.18.549,Simcolourproject_2stim_asymm_v5,2020.2.10,MacIntel,60,61025ae37ef11b136ea224fe,,,,,,,,,1479,45.078125,93.640625,1,0,0,response1disk,,7,11.86328125,-3.98828125,1,0,0,rectangle,11.86328125,-3.98828125,1,0,0,11.86328125,-3.98828125,1,0,0,0,28,28,118,1,,,,,,,,
,,,,,,,,,,,,,FF,,,,,,,,2.5508,,,,,,,,,,,,,,,,,,,,,,610359fd24cc412e70e304e1,610369d7e5e98a764026aa2c,2021-07-29_21h55.18.549,Simcolourproject_2stim_asymm_v5,2020.2.10,MacIntel,60,61025ae37ef11b136ea224fe,,,,,,,,,2053,43.47265625,73.3125,1,0,0,response1disk,,7,-6.9765625,-6.05859375,1,0,0,rectangle,-6.9765625,-6.05859375,1,0,0,-6.9765625,-6.05859375,1,0,0,0,29,29,95,1,,,,,,,,
,,,,,,,,,,,,,FF,,,,,,,,1.2653,,,,,,,,,,,,,,,,,,,,,,610359fd24cc412e70e304e1,610369d7e5e98a764026aa2c,2021-07-29_21h55.18.549,Simcolourproject_2stim_asymm_v5,2020.2.10,MacIntel,60,61025ae37ef11b136ea224fe,,,,,,,,,513,95.46875,39.71484375,1,0,0,response1disk,,6,10.73046875,3.9296875,1,0,0,rectangle,10.73046875,3.9296875,1,0,0,10.73046875,3.9296875,1,0,0,0,30,30,138,1,,,,,,,,
,,,,,,,,,,,,,FF,,,,,,,,1.4139,,,,,,,,,,,,,,,,,,,,,,610359fd24cc412e70e304e1,610369d7e5e98a764026aa2c,2021-07-29_21h55.18.549,Simcolourproject_2stim_asymm_v5,2020.2.10,MacIntel,60,61025ae37ef11b136ea224fe,,,,,,,,,1665,48.61328125,77.6953125,1,0,0,response1disk,,7,15.015625,6.33984375,1,0,0,rectangle,15.015625,6.33984375,1,0,0,15.015625,6.33984375,1,0,0,0,31,31,41,1,,,,,,,,
,,,,,,,,,,,,,FF,,,,,,,,1.0359,,,,,,,,,,,,,,,,,,,,,,610359fd24cc412e70e304e1,610369d7e5e98a764026aa2c,2021-07-29_21h55.18.549,Simcolourproject_2stim_asymm_v5,2020.2.10,MacIntel,60,61025ae37ef11b136ea224fe,,,,,,,,,350,47.34765625,-80.01171875,1,0,0,response3disk,,4,11.98828125,-9.9140625,1,0,0,rectangle,11.98828125,-9.9140625,1,0,0,11.98828125,-9.9140625,1,0,0,0,32,32,101,1,,,,,,,,
,,,,,,,,,,,,,FF,,,,,,,,2.316,,,,,,,,,,,,,,,,,,,,,,610359fd24cc412e70e304e1,610369d7e5e98a764026aa2c,2021-07-29_21h55.18.549,Simcolourproject_2stim_asymm_v5,2020.2.10,MacIntel,60,61025ae37ef11b136ea224fe,,,,,,,,,3705,-100.9335938,30.23828125,1,0,0,response7disk,,1,-2.28125,12.00390625,1,0,0,rectangle,-2.28125,12.00390625,1,0,0,-2.28125,12.00390625,1,0,0,0,33,33,33,1,,,,,,,,
,,,,,,,,,,,,,FF,,,,,,,,1.1012,,,,,,,,,,,,,,,,,,,,,,610359fd24cc412e70e304e1,610369d7e5e98a764026aa2c,2021-07-29_21h55.18.549,Simcolourproject_2stim_asymm_v5,2020.2.10,MacIntel,60,61025ae37ef11b136ea224fe,,,,,,,,,2312,53.1171875,110.546875,1,0,0,response1disk,,7,2.4765625,-0.12109375,1,0,0,rectangle,2.4765625,-0.12109375,1,0,0,2.4765625,-0.12109375,1,0,0,0,34,34,155,1,,,,,,,,
,,,,,,,,,,,,,FF,,,,,,,,1.362,,,,,,,,,,,,,,,,,,,,,,610359fd24cc412e70e304e1,610369d7e5e98a764026aa2c,2021-07-29_21h55.18.549,Simcolourproject_2stim_asymm_v5,2020.2.10,MacIntel,60,61025ae37ef11b136ea224fe,,,,,,,,,3831,32.1171875,74.61328125,1,0,0,response1disk,,7,6.71484375,3.37890625,1,0,0,rectangle,6.71484375,3.37890625,1,0,0,6.71484375,3.37890625,1,0,0,0,35,35,80,1,,,,,,,,
,,,,,,,,,,,,,FF,,,,,,,,1.0665,,,,,,,,,,,,,,,,,,,,,,610359fd24cc412e70e304e1,610369d7e5e98a764026aa2c,2021-07-29_21h55.18.549,Simcolourproject_2stim_asymm_v5,2020.2.10,MacIntel,60,61025ae37ef11b136ea224fe,,,,,,,,,3391,-86.8828125,-49.58984375,1,0,0,response5disk,,2,-5.57421875,8.515625,1,0,0,rectangle,-5.57421875,8.515625,1,0,0,-5.57421875,8.515625,1,0,0,0,36,36,30,1,,,,,,,,
,,,,,,,,,,,,,FF,,,,,,,,0.7182,,,,,,,,,,,,,,,,,,,,,,610359fd24cc412e70e304e1,610369d7e5e98a764026aa2c,2021-07-29_21h55.18.549,Simcolourproject_2stim_asymm_v5,2020.2.10,MacIntel,60,61025ae37ef11b136ea224fe,,,,,,,,,2504,35.65625,88.421875,1,0,0,response1disk,,7,11.48828125,2.07421875,1,0,0,rectangle,11.48828125,2.07421875,1,0,0,11.48828125,2.07421875,1,0,0,0,37,37,47,1,,,,,,,,
,,,,,,,,,,,,,FF,,,,,,,,2.5702,,,,,,,,,,,,,,,,,,,,,,610359fd24cc412e70e304e1,610369d7e5e98a764026aa2c,2021-07-29_21h55.18.549,Simcolourproject_2stim_asymm_v5,2020.2.10,MacIntel,60,61025ae37ef11b136ea224fe,,,,,,,,,1512,90.94921875,57.4140625,1,0,0,response1disk,,6,-5.40234375,2.18359375,1,0,0,rectangle,-5.40234375,2.18359375,1,0,0,-5.40234375,2.18359375,1,0,0,0,38,38,53,1,,,,,,,,
,,,,,,,,,,,,,FF,,,,,,,,0.7022,,,,,,,,,,,,,,,,,,,,,,610359fd24cc412e70e304e1,610369d7e5e98a764026aa2c,2021-07-29_21h55.18.549,Simcolourproject_2stim_asymm_v5,2020.2.10,MacIntel,60,61025ae37ef11b136ea224fe,,,,,,,,,2200,75.71484375,123.3671875,1,0,0,response1disk,,7,3.96875,0.23046875,1,0,0,rectangle,3.96875,0.23046875,1,0,0,3.96875,0.23046875,1,0,0,0,39,39,93,1,,,,,,,,
,,,,,,,,,,,,,FF,,,,,,,,1.9813,,,,,,,,,,,,,,,,,,,,,,610359fd24cc412e70e304e1,610369d7e5e98a764026aa2c,2021-07-29_21h55.18.549,Simcolourproject_2stim_asymm_v5,2020.2.10,MacIntel,60,61025ae37ef11b136ea224fe,,,,,,,,,3901,96.55078125,47.72265625,1,0,0,response1disk,,6,-7.99609375,8.453125,1,0,0,rectangle,-7.99609375,8.453125,1,0,0,-7.99609375,8.453125,1,0,0,0,40,40,8,1,,,,,,,,
,,,,,,,,,,,,,FF,,,,,,,,1.5699,,,,,,,,,,,,,,,,,,,,,,610359fd24cc412e70e304e1,610369d7e5e98a764026aa2c,2021-07-29_21h55.18.549,Simcolourproject_2stim_asymm_v5,2020.2.10,MacIntel,60,61025ae37ef11b136ea224fe,,,,,,,,,2838,75.9453125,-61.5546875,1,0,0,response3disk,,5,3.703125,-3.23828125,1,0,0,rectangle,3.703125,-3.23828125,1,0,0,3.703125,-3.23828125,1,0,0,0,41,41,131,1,,,,,,,,
,,,,,,,,,,,,,FF,,,,,,,,0.8469,,,,,,,,,,,,,,,,,,,,,,610359fd24cc412e70e304e1,610369d7e5e98a764026aa2c,2021-07-29_21h55.18.549,Simcolourproject_2stim_asymm_v5,2020.2.10,MacIntel,60,61025ae37ef11b136ea224fe,,,,,,,,,3234,45.20703125,95.65234375,1,0,0,response1disk,,7,-0.94921875,-3.32421875,1,0,0,rectangle,-0.94921875,-3.32421875,1,0,0,-0.94921875,-3.32421875,1,0,0,0,42,42,144,1,,,,,,,,
,,,,,,,,,,,,,FF,,,,,,,,0.9674,,,,,,,,,,,,,,,,,,,,,,610359fd24cc412e70e304e1,610369d7e5e98a764026aa2c,2021-07-29_21h55.18.549,Simcolourproject_2stim_asymm_v5,2020.2.10,MacIntel,60,61025ae37ef11b136ea224fe,,,,,,,,,399,36.9375,85.84375,1,0,0,response1disk,,7,12.3671875,7.0390625,1,0,0,rectangle,12.3671875,7.0390625,1,0,0,12.3671875,7.0390625,1,0,0,0,43,43,110,1,,,,,,,,
,,,,,,,,,,,,,FF,,,,,,,,1.4513,,,,,,,,,,,,,,,,,,,,,,610359fd24cc412e70e304e1,610369d7e5e98a764026aa2c,2021-07-29_21h55.18.549,Simcolourproject_2stim_asymm_v5,2020.2.10,MacIntel,60,61025ae37ef11b136ea224fe,,,,,,,,,253,33,-101.7539063,1,0,0,response3disk,,4,-1.5234375,-1.08203125,1,0,0,rectangle,-1.5234375,-1.08203125,1,0,0,-1.5234375,-1.08203125,1,0,0,0,44,44,16,1,,,,,,,,
,,,,,,,,,,,,,FF,,,,,,,,1.3827,,,,,,,,,,,,,,,,,,,,,,610359fd24cc412e70e304e1,610369d7e5e98a764026aa2c,2021-07-29_21h55.18.549,Simcolourproject_2stim_asymm_v5,2020.2.10,MacIntel,60,61025ae37ef11b136ea224fe,,,,,,,,,4247,35.109375,75.38671875,1,0,0,response1disk,,7,0.53125,-4.2265625,1,0,0,rectangle,0.53125,-4.2265625,1,0,0,0.53125,-4.2265625,1,0,0,0,45,45,111,1,,,,,,,,
,,,,,,,,,,,,,FF,,,,,,,,1.2184,,,,,,,,,,,,,,,,,,,,,,610359fd24cc412e70e304e1,610369d7e5e98a764026aa2c,2021-07-29_21h55.18.549,Simcolourproject_2stim_asymm_v5,2020.2.10,MacIntel,60,61025ae37ef11b136ea224fe,,,,,,,,,1409,41.9921875,57.13671875,1,0,0,response1disk,,7,0.8359375,-0.5078125,1,0,0,rectangle,0.8359375,-0.5078125,1,0,0,0.8359375,-0.5078125,1,0,0,0,46,46,125,1,,,,,,,,
,,,,,,,,,,,,,FF,,,,,,,,0.8384,,,,,,,,,,,,,,,,,,,,,,610359fd24cc412e70e304e1,610369d7e5e98a764026aa2c,2021-07-29_21h55.18.549,Simcolourproject_2stim_asymm_v5,2020.2.10,MacIntel,60,61025ae37ef11b136ea224fe,,,,,,,,,1851,40.61328125,88.9921875,1,0,0,response1disk,,7,0.9140625,-3.9453125,1,0,0,rectangle,0.9140625,-3.9453125,1,0,0,0.9140625,-3.9453125,1,0,0,0,47,47,51,1,,,,,,,,
,,,,,,,,,,,,,FF,,,,,,,,0.933,,,,,,,,,,,,,,,,,,,,,,610359fd24cc412e70e304e1,610369d7e5e98a764026aa2c,2021-07-29_21h55.18.549,Simcolourproject_2stim_asymm_v5,2020.2.10,MacIntel,60,61025ae37ef11b136ea224fe,,,,,,,,,2266,39.58984375,80.62890625,1,0,0,response1disk,,7,6.015625,-1.09765625,1,0,0,rectangle,6.015625,-1.09765625,1,0,0,6.015625,-1.09765625,1,0,0,0,48,48,79,1,,,,,,,,
,,,,,,,,,,,,,FF,,,,,,,,2.0371,,,,,,,,,,,,,,,,,,,,,,610359fd24cc412e70e304e1,610369d7e5e98a764026aa2c,2021-07-29_21h55.18.549,Simcolourproject_2stim_asymm_v5,2020.2.10,MacIntel,60,61025ae37ef11b136ea224fe,,,,,,,,,3339,44.421875,-74.33203125,1,0,0,response3disk,,4,-2.28515625,-6.5,1,0,0,rectangle,-2.28515625,-6.5,1,0,0,-2.28515625,-6.5,1,0,0,0,49,49,1,1,,,,,,,,
,,,,,,,,,,,,,FF,,,,,,,,1.7996,,,,,,,,,,,,,,,,,,,,,,610359fd24cc412e70e304e1,610369d7e5e98a764026aa2c,2021-07-29_21h55.18.549,Simcolourproject_2stim_asymm_v5,2020.2.10,MacIntel,60,61025ae37ef11b136ea224fe,,,,,,,,,3622,39.28125,-102.0585938,1,0,0,response3disk,,4,13.58984375,7.05078125,1,0,0,rectangle,13.58984375,7.05078125,1,0,0,13.58984375,7.05078125,1,0,0,0,50,50,97,1,,,,,,,,
,,,,,,,,,,,,,FF,,,,,,,,0.6792,,,,,,,,,,,,,,,,,,,,,,610359fd24cc412e70e304e1,610369d7e5e98a764026aa2c,2021-07-29_21h55.18.549,Simcolourproject_2stim_asymm_v5,2020.2.10,MacIntel,60,61025ae37ef11b136ea224fe,,,,,,,,,2212,23.55859375,85.1640625,1,0,0,response1disk,,7,7.2421875,-0.57421875,1,0,0,rectangle,7.2421875,-0.57421875,1,0,0,7.2421875,-0.57421875,1,0,0,0,51,51,99,1,,,,,,,,
,,,,,,,,,,,,,FF,,,,,,,,0.9363,,,,,,,,,,,,,,,,,,,,,,610359fd24cc412e70e304e1,610369d7e5e98a764026aa2c,2021-07-29_21h55.18.549,Simcolourproject_2stim_asymm_v5,2020.2.10,MacIntel,60,61025ae37ef11b136ea224fe,,,,,,,,,3617,49.4453125,74.21484375,1,0,0,response1disk,,7,20.6796875,14.328125,1,0,0,rectangle,20.6796875,14.328125,1,0,0,20.6796875,14.328125,1,0,0,0,52,52,105,1,,,,,,,,
,,,,,,,,,,,,,FF,,,,,,,,0.9117,,,,,,,,,,,,,,,,,,,,,,610359fd24cc412e70e304e1,610369d7e5e98a764026aa2c,2021-07-29_21h55.18.549,Simcolourproject_2stim_asymm_v5,2020.2.10,MacIntel,60,61025ae37ef11b136ea224fe,,,,,,,,,1647,61.109375,94.50390625,1,0,0,response1disk,,7,20.16796875,13.91015625,1,0,0,rectangle,20.16796875,13.91015625,1,0,0,20.16796875,13.91015625,1,0,0,0,53,53,13,1,,,,,,,,
,,,,,,,,,,,,,FF,,,,,,,,0.733,,,,,,,,,,,,,,,,,,,,,,610359fd24cc412e70e304e1,610369d7e5e98a764026aa2c,2021-07-29_21h55.18.549,Simcolourproject_2stim_asymm_v5,2020.2.10,MacIntel,60,61025ae37ef11b136ea224fe,,,,,,,,,1237,37.67578125,90.05859375,1,0,0,response1disk,,7,1.74609375,4.15625,1,0,0,rectangle,1.74609375,4.15625,1,0,0,1.74609375,4.15625,1,0,0,0,54,54,32,1,,,,,,,,
,,,,,,,,,,,,,FF,,,,,,,,0.6321,,,,,,,,,,,,,,,,,,,,,,610359fd24cc412e70e304e1,610369d7e5e98a764026aa2c,2021-07-29_21h55.18.549,Simcolourproject_2stim_asymm_v5,2020.2.10,MacIntel,60,61025ae37ef11b136ea224fe,,,,,,,,,763,43.390625,77.625,1,0,0,response1disk,,7,-6.06640625,-7.36328125,1,0,0,rectangle,-6.06640625,-7.36328125,1,0,0,-6.06640625,-7.36328125,1,0,0,0,55,55,104,1,,,,,,,,
,,,,,,,,,,,,,FF,,,,,,,,2.654,,,,,,,,,,,,,,,,,,,,,,610359fd24cc412e70e304e1,610369d7e5e98a764026aa2c,2021-07-29_21h55.18.549,Simcolourproject_2stim_asymm_v5,2020.2.10,MacIntel,60,61025ae37ef11b136ea224fe,,,,,,,,,113,45.34765625,89.515625,1,0,0,response1disk,,7,5.61328125,-14.69140625,1,0,0,rectangle,5.61328125,-14.69140625,1,0,0,5.61328125,-14.69140625,1,0,0,0,56,56,77,1,,,,,,,,
,,,,,,,,,,,,,FF,,,,,,,,0.7462,,,,,,,,,,,,,,,,,,,,,,610359fd24cc412e70e304e1,610369d7e5e98a764026aa2c,2021-07-29_21h55.18.549,Simcolourproject_2stim_asymm_v5,2020.2.10,MacIntel,60,61025ae37ef11b136ea224fe,,,,,,,,,1543,36.8984375,81.0234375,1,0,0,response1disk,,7,3.57421875,5.08203125,1,0,0,rectangle,3.57421875,5.08203125,1,0,0,3.57421875,5.08203125,1,0,0,0,57,57,96,1,,,,,,,,
,,,,,,,,,,,,,FF,,,,,,,,0.7014,,,,,,,,,,,,,,,,,,,,,,610359fd24cc412e70e304e1,610369d7e5e98a764026aa2c,2021-07-29_21h55.18.549,Simcolourproject_2stim_asymm_v5,2020.2.10,MacIntel,60,61025ae37ef11b136ea224fe,,,,,,,,,209,41.671875,78.1484375,1,0,0,response1disk,,7,0.0546875,1.34375,1,0,0,rectangle,0.0546875,1.34375,1,0,0,0.0546875,1.34375,1,0,0,0,58,58,27,1,,,,,,,,
,,,,,,,,,,,,,FF,,,,,,,,2.3371,,,,,,,,,,,,,,,,,,,,,,610359fd24cc412e70e304e1,610369d7e5e98a764026aa2c,2021-07-29_21h55.18.549,Simcolourproject_2stim_asymm_v5,2020.2.10,MacIntel,60,61025ae37ef11b136ea224fe,,,,,,,,,1377,47.15625,-103.7695313,1,0,0,response3disk,,4,5.96875,7.9921875,1,0,0,rectangle,5.96875,7.9921875,1,0,0,5.96875,7.9921875,1,0,0,0,59,59,98,1,,,,,,,,
,,,,,,,,,,,,,FF,,,,,,,,1.1498,,,,,,,,,,,,,,,,,,,,,,610359fd24cc412e70e304e1,610369d7e5e98a764026aa2c,2021-07-29_21h55.18.549,Simcolourproject_2stim_asymm_v5,2020.2.10,MacIntel,60,61025ae37ef11b136ea224fe,,,,,,,,,2300,53.03125,-88.296875,1,0,0,response3disk,,4,4.265625,0.77734375,1,0,0,rectangle,4.265625,0.77734375,1,0,0,4.265625,0.77734375,1,0,0,0,60,60,136,1,,,,,,,,
,,,,,,,,,,,,,FF,,,,,,,,1.3327,,,,,,,,,,,,,,,,,,,,,,610359fd24cc412e70e304e1,610369d7e5e98a764026aa2c,2021-07-29_21h55.18.549,Simcolourproject_2stim_asymm_v5,2020.2.10,MacIntel,60,61025ae37ef11b136ea224fe,,,,,,,,,424,36.5859375,72.16015625,1,0,0,response1disk,,7,3.91015625,4.05859375,1,0,0,rectangle,3.91015625,4.05859375,1,0,0,3.91015625,4.05859375,1,0,0,0,61,61,31,1,,,,,,,,
,,,,,,,,,,,,,FF,,,,,,,,0.6689,,,,,,,,,,,,,,,,,,,,,,610359fd24cc412e70e304e1,610369d7e5e98a764026aa2c,2021-07-29_21h55.18.549,Simcolourproject_2stim_asymm_v5,2020.2.10,MacIntel,60,61025ae37ef11b136ea224fe,,,,,,,,,2465,36.52734375,80.19921875,1,0,0,response1disk,,7,-7.07421875,-13.18359375,1,0,0,rectangle,-7.07421875,-13.18359375,1,0,0,-7.07421875,-13.18359375,1,0,0,0,62,62,35,1,,,,,,,,
,,,,,,,,,,,,,FF,,,,,,,,0.997,,,,,,,,,,,,,,,,,,,,,,610359fd24cc412e70e304e1,610369d7e5e98a764026aa2c,2021-07-29_21h55.18.549,Simcolourproject_2stim_asymm_v5,2020.2.10,MacIntel,60,61025ae37ef11b136ea224fe,,,,,,,,,1738,81.95703125,55.3125,1,0,0,response1disk,,6,-1.90234375,12.19140625,1,0,0,rectangle,-1.90234375,12.19140625,1,0,0,-1.90234375,12.19140625,1,0,0,0,63,63,50,1,,,,,,,,
,,,,,,,,,,,,,FF,,,,,,,,0.6652,,,,,,,,,,,,,,,,,,,,,,610359fd24cc412e70e304e1,610369d7e5e98a764026aa2c,2021-07-29_21h55.18.549,Simcolourproject_2stim_asymm_v5,2020.2.10,MacIntel,60,61025ae37ef11b136ea224fe,,,,,,,,,3495,41.0859375,79.31640625,1,0,0,response1disk,,7,4.69921875,2.69921875,1,0,0,rectangle,4.69921875,2.69921875,1,0,0,4.69921875,2.69921875,1,0,0,0,64,64,0,1,,,,,,,,
,,,,,,,,,,,,,FF,,,,,,,,0.8999,,,,,,,,,,,,,,,,,,,,,,610359fd24cc412e70e304e1,610369d7e5e98a764026aa2c,2021-07-29_21h55.18.549,Simcolourproject_2stim_asymm_v5,2020.2.10,MacIntel,60,61025ae37ef11b136ea224fe,,,,,,,,,2163,67.23828125,-44.26171875,1,0,0,response3disk,,5,-3.06640625,10.6953125,1,0,0,rectangle,-3.06640625,10.6953125,1,0,0,-3.06640625,10.6953125,1,0,0,0,65,65,148,1,,,,,,,,
,,,,,,,,,,,,,FF,,,,,,,,0.8197,,,,,,,,,,,,,,,,,,,,,,610359fd24cc412e70e304e1,610369d7e5e98a764026aa2c,2021-07-29_21h55.18.549,Simcolourproject_2stim_asymm_v5,2020.2.10,MacIntel,60,61025ae37ef11b136ea224fe,,,,,,,,,2541,-39.23828125,76.0859375,1,0,0,response7disk,,0,-10.06640625,9.453125,1,0,0,rectangle,-10.06640625,9.453125,1,0,0,-10.06640625,9.453125,1,0,0,0,66,66,122,1,,,,,,,,
,,,,,,,,,,,,,FF,,,,,,,,1.4827,,,,,,,,,,,,,,,,,,,,,,610359fd24cc412e70e304e1,610369d7e5e98a764026aa2c,2021-07-29_21h55.18.549,Simcolourproject_2stim_asymm_v5,2020.2.10,MacIntel,60,61025ae37ef11b136ea224fe,,,,,,,,,3918,86.796875,47.25390625,1,0,0,response1disk,,6,11.01171875,-6.46484375,1,0,0,rectangle,11.01171875,-6.46484375,1,0,0,11.01171875,-6.46484375,1,0,0,0,67,67,85,1,,,,,,,,
,,,,,,,,,,,,,FF,,,,,,,,2.1348,,,,,,,,,,,,,,,,,,,,,,610359fd24cc412e70e304e1,610369d7e5e98a764026aa2c,2021-07-29_21h55.18.549,Simcolourproject_2stim_asymm_v5,2020.2.10,MacIntel,60,61025ae37ef11b136ea224fe,,,,,,,,,1684,-94.6640625,49.4140625,1,0,0,response7disk,,1,-9.9921875,1.13671875,1,0,0,rectangle,-9.9921875,1.13671875,1,0,0,-9.9921875,1.13671875,1,0,0,0,68,68,90,1,,,,,,,,
,,,,,,,,,,,,,FF,,,,,,,,1.315,,,,,,,,,,,,,,,,,,,,,,610359fd24cc412e70e304e1,610369d7e5e98a764026aa2c,2021-07-29_21h55.18.549,Simcolourproject_2stim_asymm_v5,2020.2.10,MacIntel,60,61025ae37ef11b136ea224fe,,,,,,,,,3010,58.5859375,90.82421875,1,0,0,response1disk,,7,10.828125,-3.1328125,1,0,0,rectangle,10.828125,-3.1328125,1,0,0,10.828125,-3.1328125,1,0,0,0,69,69,29,1,,,,,,,,
,,,,,,,,,,,,,FF,,,,,,,,1.5187,,,,,,,,,,,,,,,,,,,,,,610359fd24cc412e70e304e1,610369d7e5e98a764026aa2c,2021-07-29_21h55.18.549,Simcolourproject_2stim_asymm_v5,2020.2.10,MacIntel,60,61025ae37ef11b136ea224fe,,,,,,,,,381,100.5195313,52.5703125,1,0,0,response1disk,,6,-0.16796875,-8.4609375,1,0,0,rectangle,-0.16796875,-8.4609375,1,0,0,-0.16796875,-8.4609375,1,0,0,0,70,70,58,1,,,,,,,,
,,,,,,,,,,,,,FF,,,,,,,,2.0668,,,,,,,,,,,,,,,,,,,,,,610359fd24cc412e70e304e1,610369d7e5e98a764026aa2c,2021-07-29_21h55.18.549,Simcolourproject_2stim_asymm_v5,2020.2.10,MacIntel,60,61025ae37ef11b136ea224fe,,,,,,,,,2288,72.6328125,42.19921875,1,0,0,response1disk,,6,5.21484375,4.78515625,1,0,0,rectangle,5.21484375,4.78515625,1,0,0,5.21484375,4.78515625,1,0,0,0,71,71,23,1,,,,,,,,
,,,,,,,,,,,,,FF,,,,,,,,0.7662,,,,,,,,,,,,,,,,,,,,,,610359fd24cc412e70e304e1,610369d7e5e98a764026aa2c,2021-07-29_21h55.18.549,Simcolourproject_2stim_asymm_v5,2020.2.10,MacIntel,60,61025ae37ef11b136ea224fe,,,,,,,,,3712,-83.375,-47.34375,1,0,0,response5disk,,2,-3.15625,-4.41015625,1,0,0,rectangle,-3.15625,-4.41015625,1,0,0,-3.15625,-4.41015625,1,0,0,0,72,72,70,1,,,,,,,,
,,,,,,,,,,,,,FF,,,,,,,,1.4495,,,,,,,,,,,,,,,,,,,,,,610359fd24cc412e70e304e1,610369d7e5e98a764026aa2c,2021-07-29_21h55.18.549,Simcolourproject_2stim_asymm_v5,2020.2.10,MacIntel,60,61025ae37ef11b136ea224fe,,,,,,,,,305,98.4609375,-47.55859375,1,0,0,response3disk,,5,1.25,-6.16015625,1,0,0,rectangle,1.25,-6.16015625,1,0,0,1.25,-6.16015625,1,0,0,0,73,73,127,1,,,,,,,,
,,,,,,,,,,,,,FF,,,,,,,,0.6839,,,,,,,,,,,,,,,,,,,,,,610359fd24cc412e70e304e1,610369d7e5e98a764026aa2c,2021-07-29_21h55.18.549,Simcolourproject_2stim_asymm_v5,2020.2.10,MacIntel,60,61025ae37ef11b136ea224fe,,,,,,,,,2857,33.60546875,82.06640625,1,0,0,response1disk,,7,8.29296875,7.1484375,1,0,0,rectangle,8.29296875,7.1484375,1,0,0,8.29296875,7.1484375,1,0,0,0,74,74,132,1,,,,,,,,
,,,,,,,,,,,,,FF,,,,,,,,0.9849,,,,,,,,,,,,,,,,,,,,,,610359fd24cc412e70e304e1,610369d7e5e98a764026aa2c,2021-07-29_21h55.18.549,Simcolourproject_2stim_asymm_v5,2020.2.10,MacIntel,60,61025ae37ef11b136ea224fe,,,,,,,,,3928,50.50390625,88.19921875,1,0,0,response1disk,,7,5.42578125,-13.07421875,1,0,0,rectangle,5.42578125,-13.07421875,1,0,0,5.42578125,-13.07421875,1,0,0,0,75,75,137,1,,,,,,,,
,,,,,,,,,,,,,FF,,,,,,,,1.0846,,,,,,,,,,,,,,,,,,,,,,610359fd24cc412e70e304e1,610369d7e5e98a764026aa2c,2021-07-29_21h55.18.549,Simcolourproject_2stim_asymm_v5,2020.2.10,MacIntel,60,61025ae37ef11b136ea224fe,,,,,,,,,346,98.859375,45.8203125,1,0,0,response1disk,,6,19.48046875,6.40234375,1,0,0,rectangle,19.48046875,6.40234375,1,0,0,19.48046875,6.40234375,1,0,0,0,76,76,147,1,,,,,,,,
,,,,,,,,,,,,,FF,,,,,,,,0.9991,,,,,,,,,,,,,,,,,,,,,,610359fd24cc412e70e304e1,610369d7e5e98a764026aa2c,2021-07-29_21h55.18.549,Simcolourproject_2stim_asymm_v5,2020.2.10,MacIntel,60,61025ae37ef11b136ea224fe,,,,,,,,,3675,91.41015625,36.7734375,1,0,0,response1disk,,6,11.84375,-6.39453125,1,0,0,rectangle,11.84375,-6.39453125,1,0,0,11.84375,-6.39453125,1,0,0,0,77,77,143,1,,,,,,,,
,,,,,,,,,,,,,FF,,,,,,,,2.0014,,,,,,,,,,,,,,,,,,,,,,610359fd24cc412e70e304e1,610369d7e5e98a764026aa2c,2021-07-29_21h55.18.549,Simcolourproject_2stim_asymm_v5,2020.2.10,MacIntel,60,61025ae37ef11b136ea224fe,,,,,,,,,1386,51.62890625,75.6953125,1,0,0,response1disk,,7,-9.1484375,-6.17578125,1,0,0,rectangle,-9.1484375,-6.17578125,1,0,0,-9.1484375,-6.17578125,1,0,0,0,78,78,61,1,,,,,,,,
,,,,,,,,,,,,,FF,,,,,,,,1.4498,,,,,,,,,,,,,,,,,,,,,,610359fd24cc412e70e304e1,610369d7e5e98a764026aa2c,2021-07-29_21h55.18.549,Simcolourproject_2stim_asymm_v5,2020.2.10,MacIntel,60,61025ae37ef11b136ea224fe,,,,,,,,,1193,34.23828125,103.8359375,1,0,0,response1disk,,7,-1.0390625,-4.76953125,1,0,0,rectangle,-1.0390625,-4.76953125,1,0,0,-1.0390625,-4.76953125,1,0,0,0,79,79,129,1,,,,,,,,
,,,,,,,,,,,,,FF,,,,,,,,0.7014,,,,,,,,,,,,,,,,,,,,,,610359fd24cc412e70e304e1,610369d7e5e98a764026aa2c,2021-07-29_21h55.18.549,Simcolourproject_2stim_asymm_v5,2020.2.10,MacIntel,60,61025ae37ef11b136ea224fe,,,,,,,,,327,33.6328125,58.8984375,1,0,0,response1disk,,7,7.70703125,7.4765625,1,0,0,rectangle,7.70703125,7.4765625,1,0,0,7.70703125,7.4765625,1,0,0,0,80,80,56,1,,,,,,,,
,,,,,,,,,,,,,FF,,,,,,,,1.3332,,,,,,,,,,,,,,,,,,,,,,610359fd24cc412e70e304e1,610369d7e5e98a764026aa2c,2021-07-29_21h55.18.549,Simcolourproject_2stim_asymm_v5,2020.2.10,MacIntel,60,61025ae37ef11b136ea224fe,,,,,,,,,732,78.18359375,32.09765625,1,0,0,response1disk,,6,5.25,5.6484375,1,0,0,rectangle,5.25,5.6484375,1,0,0,5.25,5.6484375,1,0,0,0,81,81,124,1,,,,,,,,
,,,,,,,,,,,,,FF,,,,,,,,3.3,,,,,,,,,,,,,,,,,,,,,,610359fd24cc412e70e304e1,610369d7e5e98a764026aa2c,2021-07-29_21h55.18.549,Simcolourproject_2stim_asymm_v5,2020.2.10,MacIntel,60,61025ae37ef11b136ea224fe,,,,,,,,,3937,49.21875,-83.62890625,1,0,0,response3disk,,4,14.1484375,-6.26953125,1,0,0,rectangle,14.1484375,-6.26953125,1,0,0,14.1484375,-6.26953125,1,0,0,0,82,82,135,1,,,,,,,,
,,,,,,,,,,,,,FF,,,,,,,,0.9827,,,,,,,,,,,,,,,,,,,,,,610359fd24cc412e70e304e1,610369d7e5e98a764026aa2c,2021-07-29_21h55.18.549,Simcolourproject_2stim_asymm_v5,2020.2.10,MacIntel,60,61025ae37ef11b136ea224fe,,,,,,,,,313,49.3828125,95.8359375,1,0,0,response1disk,,7,-5.2734375,-9.3359375,1,0,0,rectangle,-5.2734375,-9.3359375,1,0,0,-5.2734375,-9.3359375,1,0,0,0,83,83,10,1,,,,,,,,
,,,,,,,,,,,,,FF,,,,,,,,1.7521,,,,,,,,,,,,,,,,,,,,,,610359fd24cc412e70e304e1,610369d7e5e98a764026aa2c,2021-07-29_21h55.18.549,Simcolourproject_2stim_asymm_v5,2020.2.10,MacIntel,60,61025ae37ef11b136ea224fe,,,,,,,,,718,-54.1875,-98.34765625,1,0,0,response5disk,,3,9.1953125,8.66796875,1,0,0,rectangle,9.1953125,8.66796875,1,0,0,9.1953125,8.66796875,1,0,0,0,84,84,72,1,,,,,,,,
,,,,,,,,,,,,,FF,,,,,,,,2.6639,,,,,,,,,,,,,,,,,,,,,,610359fd24cc412e70e304e1,610369d7e5e98a764026aa2c,2021-07-29_21h55.18.549,Simcolourproject_2stim_asymm_v5,2020.2.10,MacIntel,60,61025ae37ef11b136ea224fe,,,,,,,,,1274,79.578125,37.5625,1,0,0,response1disk,,6,8.3515625,6.6015625,1,0,0,rectangle,8.3515625,6.6015625,1,0,0,8.3515625,6.6015625,1,0,0,0,85,85,65,1,,,,,,,,
,,,,,,,,,,,,,FF,,,,,,,,1.2537,,,,,,,,,,,,,,,,,,,,,,610359fd24cc412e70e304e1,610369d7e5e98a764026aa2c,2021-07-29_21h55.18.549,Simcolourproject_2stim_asymm_v5,2020.2.10,MacIntel,60,61025ae37ef11b136ea224fe,,,,,,,,,3091,89.6953125,-49.40234375,1,0,0,response3disk,,5,14.11328125,-4.67578125,1,0,0,rectangle,14.11328125,-4.67578125,1,0,0,14.11328125,-4.67578125,1,0,0,0,86,86,68,1,,,,,,,,
,,,,,,,,,,,,,FF,,,,,,,,0.9985,,,,,,,,,,,,,,,,,,,,,,610359fd24cc412e70e304e1,610369d7e5e98a764026aa2c,2021-07-29_21h55.18.549,Simcolourproject_2stim_asymm_v5,2020.2.10,MacIntel,60,61025ae37ef11b136ea224fe,,,,,,,,,1144,87.81640625,-49.93359375,1,0,0,response3disk,,5,7.6015625,-1.31640625,1,0,0,rectangle,7.6015625,-1.31640625,1,0,0,7.6015625,-1.31640625,1,0,0,0,87,87,130,1,,,,,,,,
,,,,,,,,,,,,,FF,,,,,,,,1.0482,,,,,,,,,,,,,,,,,,,,,,610359fd24cc412e70e304e1,610369d7e5e98a764026aa2c,2021-07-29_21h55.18.549,Simcolourproject_2stim_asymm_v5,2020.2.10,MacIntel,60,61025ae37ef11b136ea224fe,,,,,,,,,1002,41.3671875,89.91796875,1,0,0,response1disk,,7,0.77734375,1.27734375,1,0,0,rectangle,0.77734375,1.27734375,1,0,0,0.77734375,1.27734375,1,0,0,0,88,88,43,1,,,,,,,,
,,,,,,,,,,,,,FF,,,,,,,,1.6492,,,,,,,,,,,,,,,,,,,,,,610359fd24cc412e70e304e1,610369d7e5e98a764026aa2c,2021-07-29_21h55.18.549,Simcolourproject_2stim_asymm_v5,2020.2.10,MacIntel,60,61025ae37ef11b136ea224fe,,,,,,,,,2799,85.1015625,41.58203125,1,0,0,response1disk,,6,24.43359375,14.19921875,1,0,0,rectangle,24.43359375,14.19921875,1,0,0,24.43359375,14.19921875,1,0,0,0,89,89,6,1,,,,,,,,
,,,,,,,,,,,,,FF,,,,,,,,0.9831,,,,,,,,,,,,,,,,,,,,,,610359fd24cc412e70e304e1,610369d7e5e98a764026aa2c,2021-07-29_21h55.18.549,Simcolourproject_2stim_asymm_v5,2020.2.10,MacIntel,60,61025ae37ef11b136ea224fe,,,,,,,,,1156,86.49609375,53.640625,1,0,0,response1disk,,6,-8.8203125,-13.03515625,1,0,0,rectangle,-8.8203125,-13.03515625,1,0,0,-8.8203125,-13.03515625,1,0,0,0,90,90,120,1,,,,,,,,
,,,,,,,,,,,,,FF,,,,,,,,0.8493,,,,,,,,,,,,,,,,,,,,,,610359fd24cc412e70e304e1,610369d7e5e98a764026aa2c,2021-07-29_21h55.18.549,Simcolourproject_2stim_asymm_v5,2020.2.10,MacIntel,60,61025ae37ef11b136ea224fe,,,,,,,,,2379,37.796875,63.87109375,1,0,0,response1disk,,7,-0.171875,-0.31640625,1,0,0,rectangle,-0.171875,-0.31640625,1,0,0,-0.171875,-0.31640625,1,0,0,0,91,91,84,1,,,,,,,,
,,,,,,,,,,,,,FF,,,,,,,,0.8138,,,,,,,,,,,,,,,,,,,,,,610359fd24cc412e70e304e1,610369d7e5e98a764026aa2c,2021-07-29_21h55.18.549,Simcolourproject_2stim_asymm_v5,2020.2.10,MacIntel,60,61025ae37ef11b136ea224fe,,,,,,,,,878,62.3984375,105.1835938,1,0,0,response1disk,,7,-3.12890625,1.23828125,1,0,0,rectangle,-3.12890625,1.23828125,1,0,0,-3.12890625,1.23828125,1,0,0,0,92,92,134,1,,,,,,,,
,,,,,,,,,,,,,FF,,,,,,,,0.647,,,,,,,,,,,,,,,,,,,,,,610359fd24cc412e70e304e1,610369d7e5e98a764026aa2c,2021-07-29_21h55.18.549,Simcolourproject_2stim_asymm_v5,2020.2.10,MacIntel,60,61025ae37ef11b136ea224fe,,,,,,,,,1392,47.3359375,83.0390625,1,0,0,response1disk,,7,7.53515625,0.94921875,1,0,0,rectangle,-52.33984375,105.40625,1,0,0,2.359375,1.46484375,1,0,0,0,93,93,108,1,,response7disk_3,TRUE,0,0,"[219,145,189,304,201,175,138,121,259,98,254,262,11,215,94,310,281,114,7,273]",2.218,rectangle
,,,,,,,,,,,,,FF,,,,,,,,1.734,,,,,,,,,,,,,,,,,,,,,,610359fd24cc412e70e304e1,610369d7e5e98a764026aa2c,2021-07-29_21h55.18.549,Simcolourproject_2stim_asymm_v5,2020.2.10,MacIntel,60,61025ae37ef11b136ea224fe,,,,,,,,,3159,65.26171875,31.03515625,1,0,0,response1disk,,6,7.5859375,6.08984375,1,0,0,rectangle,7.5859375,6.08984375,1,0,0,7.5859375,6.08984375,1,0,0,0,94,94,149,1,,,,,,,,
,,,,,,,,,,,,,FF,,,,,,,,1.0014,,,,,,,,,,,,,,,,,,,,,,610359fd24cc412e70e304e1,610369d7e5e98a764026aa2c,2021-07-29_21h55.18.549,Simcolourproject_2stim_asymm_v5,2020.2.10,MacIntel,60,61025ae37ef11b136ea224fe,,,,,,,,,476,75.1796875,23.61328125,1,0,0,response1disk,,6,7.37109375,15.14453125,1,0,0,rectangle,7.37109375,15.14453125,1,0,0,7.37109375,15.14453125,1,0,0,0,95,95,9,1,,,,,,,,
,,,,,,,,,,,,,FF,,,,,,,,0.6007,,,,,,,,,,,,,,,,,,,,,,610359fd24cc412e70e304e1,610369d7e5e98a764026aa2c,2021-07-29_21h55.18.549,Simcolourproject_2stim_asymm_v5,2020.2.10,MacIntel,60,61025ae37ef11b136ea224fe,,,,,,,,,2408,32.34375,77.19140625,1,0,0,response1disk,,7,1.91796875,-4.6015625,1,0,0,rectangle,1.91796875,-4.6015625,1,0,0,1.91796875,-4.6015625,1,0,0,0,96,96,59,1,,,,,,,,
,,,,,,,,,,,,,FF,,,,,,,,1.0988,,,,,,,,,,,,,,,,,,,,,,610359fd24cc412e70e304e1,610369d7e5e98a764026aa2c,2021-07-29_21h55.18.549,Simcolourproject_2stim_asymm_v5,2020.2.10,MacIntel,60,61025ae37ef11b136ea224fe,,,,,,,,,3715,83.078125,-47.9609375,1,0,0,response3disk,,5,-5.85546875,0.8046875,1,0,0,rectangle,-40.0078125,98.5625,1,0,0,-2.30078125,6.9921875,1,0,0,0,97,97,60,1,,response7disk_3,TRUE,0,0,"[219,145,189,304,201,175,138,121,259,98,254,262,11,215,94,310,281,114,7,273]",1.8837,rectangle
,,,,,,,,,,,,,FF,,,,,,,,1.4467,,,,,,,,,,,,,,,,,,,,,,610359fd24cc412e70e304e1,610369d7e5e98a764026aa2c,2021-07-29_21h55.18.549,Simcolourproject_2stim_asymm_v5,2020.2.10,MacIntel,60,61025ae37ef11b136ea224fe,,,,,,,,,3543,86.19921875,-49.23828125,1,0,0,response3disk,,5,0.8671875,-7.796875,1,0,0,rectangle,0.8671875,-7.796875,1,0,0,0.8671875,-7.796875,1,0,0,0,98,98,115,1,,,,,,,,
,,,,,,,,,,,,,FF,,,,,,,,1.1859,,,,,,,,,,,,,,,,,,,,,,610359fd24cc412e70e304e1,610369d7e5e98a764026aa2c,2021-07-29_21h55.18.549,Simcolourproject_2stim_asymm_v5,2020.2.10,MacIntel,60,61025ae37ef11b136ea224fe,,,,,,,,,3878,55.91015625,86.84765625,1,0,0,response1disk,,7,-0.359375,-11.09375,1,0,0,rectangle,-0.359375,-11.09375,1,0,0,-0.359375,-11.09375,1,0,0,0,99,99,20,1,,,,,,,,
,,,,,,,,,,,,,FF,,,,,,,,0.8352,,,,,,,,,,,,,,,,,,,,,,610359fd24cc412e70e304e1,610369d7e5e98a764026aa2c,2021-07-29_21h55.18.549,Simcolourproject_2stim_asymm_v5,2020.2.10,MacIntel,60,61025ae37ef11b136ea224fe,,,,,,,,,1590,61.6875,41.19140625,1,0,0,response1disk,,6,19.1171875,11.41015625,1,0,0,rectangle,19.1171875,11.41015625,1,0,0,19.1171875,11.41015625,1,0,0,0,100,100,49,1,,,,,,,,
,,,,,,,,,,,,,FF,,,,,,,,1.0491,,,,,,,,,,,,,,,,,,,,,,610359fd24cc412e70e304e1,610369d7e5e98a764026aa2c,2021-07-29_21h55.18.549,Simcolourproject_2stim_asymm_v5,2020.2.10,MacIntel,60,61025ae37ef11b136ea224fe,,,,,,,,,3064,44.859375,94.83203125,1,0,0,response1disk,,7,9.109375,1.95703125,1,0,0,rectangle,9.109375,1.95703125,1,0,0,9.109375,1.95703125,1,0,0,0,101,101,103,1,,,,,,,,
,,,,,,,,,,,,,FF,,,,,,,,0.9026,,,,,,,,,,,,,,,,,,,,,,610359fd24cc412e70e304e1,610369d7e5e98a764026aa2c,2021-07-29_21h55.18.549,Simcolourproject_2stim_asymm_v5,2020.2.10,MacIntel,60,61025ae37ef11b136ea224fe,,,,,,,,,3795,42.93359375,66.3203125,1,0,0,response1disk,,7,4.75,-12.89453125,1,0,0,rectangle,4.75,-12.89453125,1,0,0,4.75,-12.89453125,1,0,0,0,102,102,22,1,,,,,,,,
,,,,,,,,,,,,,FF,,,,,,,,0.7331,,,,,,,,,,,,,,,,,,,,,,610359fd24cc412e70e304e1,610369d7e5e98a764026aa2c,2021-07-29_21h55.18.549,Simcolourproject_2stim_asymm_v5,2020.2.10,MacIntel,60,61025ae37ef11b136ea224fe,,,,,,,,,1084,28.98046875,58.171875,1,0,0,response1disk,,7,-2.42578125,7.328125,1,0,0,rectangle,-2.42578125,7.328125,1,0,0,-2.42578125,7.328125,1,0,0,0,103,103,159,1,,,,,,,,
,,,,,,,,,,,,,FF,,,,,,,,1.381,,,,,,,,,,,,,,,,,,,,,,610359fd24cc412e70e304e1,610369d7e5e98a764026aa2c,2021-07-29_21h55.18.549,Simcolourproject_2stim_asymm_v5,2020.2.10,MacIntel,60,61025ae37ef11b136ea224fe,,,,,,,,,1672,80.84375,-47.3125,1,0,0,response3disk,,5,-2.11328125,-8.359375,1,0,0,rectangle,-2.11328125,-8.359375,1,0,0,-2.11328125,-8.359375,1,0,0,0,104,104,57,1,,,,,,,,
,,,,,,,,,,,,,FF,,,,,,,,1.1968,,,,,,,,,,,,,,,,,,,,,,610359fd24cc412e70e304e1,610369d7e5e98a764026aa2c,2021-07-29_21h55.18.549,Simcolourproject_2stim_asymm_v5,2020.2.10,MacIntel,60,61025ae37ef11b136ea224fe,,,,,,,,,3046,-40.36328125,-82.93359375,1,0,0,response5disk,,3,3.5625,-1.1484375,1,0,0,rectangle,3.5625,-1.1484375,1,0,0,3.5625,-1.1484375,1,0,0,0,105,105,38,1,,,,,,,,
,,,,,,,,,,,,,FF,,,,,,,,1.5701,,,,,,,,,,,,,,,,,,,,,,610359fd24cc412e70e304e1,610369d7e5e98a764026aa2c,2021-07-29_21h55.18.549,Simcolourproject_2stim_asymm_v5,2020.2.10,MacIntel,60,61025ae37ef11b136ea224fe,,,,,,,,,3793,39.4765625,70.63671875,1,0,0,response1disk,,7,5.37890625,1.27734375,1,0,0,rectangle,5.37890625,1.27734375,1,0,0,5.37890625,1.27734375,1,0,0,0,106,106,133,1,,,,,,,,
,,,,,,,,,,,,,FF,,,,,,,,1.0164,,,,,,,,,,,,,,,,,,,,,,610359fd24cc412e70e304e1,610369d7e5e98a764026aa2c,2021-07-29_21h55.18.549,Simcolourproject_2stim_asymm_v5,2020.2.10,MacIntel,60,61025ae37ef11b136ea224fe,,,,,,,,,739,94.015625,-46.95703125,1,0,0,response3disk,,5,4.9609375,7.76953125,1,0,0,rectangle,4.9609375,7.76953125,1,0,0,4.9609375,7.76953125,1,0,0,0,107,107,141,1,,,,,,,,
,,,,,,,,,,,,,FF,,,,,,,,0.8848,,,,,,,,,,,,,,,,,,,,,,610359fd24cc412e70e304e1,610369d7e5e98a764026aa2c,2021-07-29_21h55.18.549,Simcolourproject_2stim_asymm_v5,2020.2.10,MacIntel,60,61025ae37ef11b136ea224fe,,,,,,,,,3374,75.75390625,29.52734375,1,0,0,response1disk,,6,7.66796875,12.83984375,1,0,0,rectangle,7.66796875,12.83984375,1,0,0,7.66796875,12.83984375,1,0,0,0,108,108,102,1,,,,,,,,
,,,,,,,,,,,,,FF,,,,,,,,0.5171,,,,,,,,,,,,,,,,,,,,,,610359fd24cc412e70e304e1,610369d7e5e98a764026aa2c,2021-07-29_21h55.18.549,Simcolourproject_2stim_asymm_v5,2020.2.10,MacIntel,60,61025ae37ef11b136ea224fe,,,,,,,,,2803,38.81640625,73.55078125,1,0,0,response1disk,,7,11.76171875,3.6953125,1,0,0,rectangle,11.76171875,3.6953125,1,0,0,11.76171875,3.6953125,1,0,0,0,109,109,107,1,,,,,,,,
,,,,,,,,,,,,,FF,,,,,,,,0.8322,,,,,,,,,,,,,,,,,,,,,,610359fd24cc412e70e304e1,610369d7e5e98a764026aa2c,2021-07-29_21h55.18.549,Simcolourproject_2stim_asymm_v5,2020.2.10,MacIntel,60,61025ae37ef11b136ea224fe,,,,,,,,,3623,91.640625,26.95703125,1,0,0,response1disk,,6,-7.1328125,3.1796875,1,0,0,rectangle,-7.1328125,3.1796875,1,0,0,-7.1328125,3.1796875,1,0,0,0,110,110,11,1,,,,,,,,
,,,,,,,,,,,,,FF,,,,,,,,1.0164,,,,,,,,,,,,,,,,,,,,,,610359fd24cc412e70e304e1,610369d7e5e98a764026aa2c,2021-07-29_21h55.18.549,Simcolourproject_2stim_asymm_v5,2020.2.10,MacIntel,60,61025ae37ef11b136ea224fe,,,,,,,,,826,79.70703125,30.51171875,1,0,0,response1disk,,6,-8.5234375,-1.43359375,1,0,0,rectangle,-8.5234375,-1.43359375,1,0,0,-8.5234375,-1.43359375,1,0,0,0,111,111,52,1,,,,,,,,
,,,,,,,,,,,,,FF,,,,,,,,0.7197,,,,,,,,,,,,,,,,,,,,,,610359fd24cc412e70e304e1,610369d7e5e98a764026aa2c,2021-07-29_21h55.18.549,Simcolourproject_2stim_asymm_v5,2020.2.10,MacIntel,60,61025ae37ef11b136ea224fe,,,,,,,,,1111,21.921875,58.63671875,1,0,0,response1disk,,7,8.328125,-9.95703125,1,0,0,rectangle,8.328125,-9.95703125,1,0,0,8.328125,-9.95703125,1,0,0,0,112,112,106,1,,,,,,,,
,,,,,,,,,,,,,FF,,,,,,,,1.1976,,,,,,,,,,,,,,,,,,,,,,610359fd24cc412e70e304e1,610369d7e5e98a764026aa2c,2021-07-29_21h55.18.549,Simcolourproject_2stim_asymm_v5,2020.2.10,MacIntel,60,61025ae37ef11b136ea224fe,,,,,,,,,888,71.96875,-90.3828125,1,0,0,response3disk,,4,-3.39453125,8.72265625,1,0,0,rectangle,-120.0664063,50.33203125,1,0,0,-10.10546875,6.796875,1,0,0,0,113,113,117,1,,response7disk_3,TRUE,1,1,"[219,145,189,304,201,175,138,121,259,98,254,262,11,215,94,310,281,114,7,273]",1.7978,rectangle
,,,,,,,,,,,,,FF,,,,,,,,0.8849,,,,,,,,,,,,,,,,,,,,,,610359fd24cc412e70e304e1,610369d7e5e98a764026aa2c,2021-07-29_21h55.18.549,Simcolourproject_2stim_asymm_v5,2020.2.10,MacIntel,60,61025ae37ef11b136ea224fe,,,,,,,,,2773,46.8359375,82.58203125,1,0,0,response1disk,,7,22.4765625,-4.30859375,1,0,0,rectangle,22.4765625,-4.30859375,1,0,0,22.4765625,-4.30859375,1,0,0,0,114,114,100,1,,,,,,,,
,,,,,,,,,,,,,FF,,,,,,,,1.3994,,,,,,,,,,,,,,,,,,,,,,610359fd24cc412e70e304e1,610369d7e5e98a764026aa2c,2021-07-29_21h55.18.549,Simcolourproject_2stim_asymm_v5,2020.2.10,MacIntel,60,61025ae37ef11b136ea224fe,,,,,,,,,188,56.9453125,-99.078125,1,0,0,response3disk,,4,-2.68359375,16.25,1,0,0,rectangle,-2.68359375,16.25,1,0,0,-2.68359375,16.25,1,0,0,0,115,115,94,1,,,,,,,,
,,,,,,,,,,,,,FF,,,,,,,,1.0366,,,,,,,,,,,,,,,,,,,,,,610359fd24cc412e70e304e1,610369d7e5e98a764026aa2c,2021-07-29_21h55.18.549,Simcolourproject_2stim_asymm_v5,2020.2.10,MacIntel,60,61025ae37ef11b136ea224fe,,,,,,,,,3309,43.171875,85.46875,1,0,0,response1disk,,7,2.56640625,-4.046875,1,0,0,rectangle,2.56640625,-4.046875,1,0,0,2.56640625,-4.046875,1,0,0,0,116,116,139,1,,,,,,,,
,,,,,,,,,,,,,FF,,,,,,,,0.9471,,,,,,,,,,,,,,,,,,,,,,610359fd24cc412e70e304e1,610369d7e5e98a764026aa2c,2021-07-29_21h55.18.549,Simcolourproject_2stim_asymm_v5,2020.2.10,MacIntel,60,61025ae37ef11b136ea224fe,,,,,,,,,4093,61.828125,38.48046875,1,0,0,response1disk,,6,4.97265625,3.546875,1,0,0,rectangle,4.97265625,3.546875,1,0,0,4.97265625,3.546875,1,0,0,0,117,117,145,1,,,,,,,,
,,,,,,,,,,,,,FF,,,,,,,,0.9311,,,,,,,,,,,,,,,,,,,,,,610359fd24cc412e70e304e1,610369d7e5e98a764026aa2c,2021-07-29_21h55.18.549,Simcolourproject_2stim_asymm_v5,2020.2.10,MacIntel,60,61025ae37ef11b136ea224fe,,,,,,,,,2252,38.015625,28.55078125,1,0,0,response1disk,,6,5.7265625,4.2265625,1,0,0,rectangle,5.7265625,4.2265625,1,0,0,5.7265625,4.2265625,1,0,0,0,118,118,89,1,,,,,,,,
,,,,,,,,,,,,,FF,,,,,,,,1.6478,,,,,,,,,,,,,,,,,,,,,,610359fd24cc412e70e304e1,610369d7e5e98a764026aa2c,2021-07-29_21h55.18.549,Simcolourproject_2stim_asymm_v5,2020.2.10,MacIntel,60,61025ae37ef11b136ea224fe,,,,,,,,,3188,53.63671875,-99.765625,1,0,0,response3disk,,4,8.2890625,3.15625,1,0,0,rectangle,8.2890625,3.15625,1,0,0,8.2890625,3.15625,1,0,0,0,119,119,34,1,,,,,,,,
,,,,,,,,,,,,,FF,,,,,,,,0.8296,,,,,,,,,,,,,,,,,,,,,,610359fd24cc412e70e304e1,610369d7e5e98a764026aa2c,2021-07-29_21h55.18.549,Simcolourproject_2stim_asymm_v5,2020.2.10,MacIntel,60,61025ae37ef11b136ea224fe,,,,,,,,,4181,-53.59375,93.734375,1,0,0,response7disk,,0,-0.57421875,8.30078125,1,0,0,rectangle,96.33984375,-49.390625,1,0,0,5.09375,-0.296875,1,0,0,0,120,120,45,1,,response3disk_3,TRUE,5,5,"[219,145,189,304,201,175,138,121,259,98,254,262,11,215,94,310,281,114,7,273]",1.8129,rectangle
,,,,,,,,,,,,,FF,,,,,,,,2.2975,,,,,,,,,,,,,,,,,,,,,,610359fd24cc412e70e304e1,610369d7e5e98a764026aa2c,2021-07-29_21h55.18.549,Simcolourproject_2stim_asymm_v5,2020.2.10,MacIntel,60,61025ae37ef11b136ea224fe,,,,,,,,,2223,47.71484375,89.3359375,1,0,0,response1disk,,7,8.75,-1.94921875,1,0,0,rectangle,8.75,-1.94921875,1,0,0,8.75,-1.94921875,1,0,0,0,121,121,62,1,,,,,,,,
,,,,,,,,,,,,,FF,,,,,,,,1.0013,,,,,,,,,,,,,,,,,,,,,,610359fd24cc412e70e304e1,610369d7e5e98a764026aa2c,2021-07-29_21h55.18.549,Simcolourproject_2stim_asymm_v5,2020.2.10,MacIntel,60,61025ae37ef11b136ea224fe,,,,,,,,,3143,59.1484375,29.96484375,1,0,0,response1disk,,6,0.8828125,5.8359375,1,0,0,rectangle,0.8828125,5.8359375,1,0,0,0.8828125,5.8359375,1,0,0,0,122,122,28,1,,,,,,,,
,,,,,,,,,,,,,FF,,,,,,,,0.714,,,,,,,,,,,,,,,,,,,,,,610359fd24cc412e70e304e1,610369d7e5e98a764026aa2c,2021-07-29_21h55.18.549,Simcolourproject_2stim_asymm_v5,2020.2.10,MacIntel,60,61025ae37ef11b136ea224fe,,,,,,,,,1620,45.25390625,95.78125,1,0,0,response1disk,,7,7.26171875,5.66015625,1,0,0,rectangle,7.26171875,5.66015625,1,0,0,7.26171875,5.66015625,1,0,0,0,123,123,46,1,,,,,,,,
,,,,,,,,,,,,,FF,,,,,,,,0.8319,,,,,,,,,,,,,,,,,,,,,,610359fd24cc412e70e304e1,610369d7e5e98a764026aa2c,2021-07-29_21h55.18.549,Simcolourproject_2stim_asymm_v5,2020.2.10,MacIntel,60,61025ae37ef11b136ea224fe,,,,,,,,,4036,47.64453125,78.6171875,1,0,0,response1disk,,7,-5.1171875,-4.77734375,1,0,0,rectangle,-5.1171875,-4.77734375,1,0,0,-5.1171875,-4.77734375,1,0,0,0,124,124,37,1,,,,,,,,
,,,,,,,,,,,,,FF,,,,,,,,0.7334,,,,,,,,,,,,,,,,,,,,,,610359fd24cc412e70e304e1,610369d7e5e98a764026aa2c,2021-07-29_21h55.18.549,Simcolourproject_2stim_asymm_v5,2020.2.10,MacIntel,60,61025ae37ef11b136ea224fe,,,,,,,,,591,28.93359375,73.66015625,1,0,0,response1disk,,7,2.65234375,4.39453125,1,0,0,rectangle,2.65234375,4.39453125,1,0,0,2.65234375,4.39453125,1,0,0,0,125,125,78,1,,,,,,,,
,,,,,,,,,,,,,FF,,,,,,,,2.4173,,,,,,,,,,,,,,,,,,,,,,610359fd24cc412e70e304e1,610369d7e5e98a764026aa2c,2021-07-29_21h55.18.549,Simcolourproject_2stim_asymm_v5,2020.2.10,MacIntel,60,61025ae37ef11b136ea224fe,,,,,,,,,1212,-89.83984375,-47.32421875,1,0,0,response5disk,,2,-2.95703125,-5.02734375,1,0,0,rectangle,-2.95703125,-5.02734375,1,0,0,-2.95703125,-5.02734375,1,0,0,0,126,126,128,1,,,,,,,,
,,,,,,,,,,,,,FF,,,,,,,,0.7901,,,,,,,,,,,,,,,,,,,,,,610359fd24cc412e70e304e1,610369d7e5e98a764026aa2c,2021-07-29_21h55.18.549,Simcolourproject_2stim_asymm_v5,2020.2.10,MacIntel,60,61025ae37ef11b136ea224fe,,,,,,,,,4322,57.23046875,97.72265625,1,0,0,response1disk,,7,15.63671875,5.37890625,1,0,0,rectangle,15.63671875,5.37890625,1,0,0,15.63671875,5.37890625,1,0,0,0,127,127,12,1,,,,,,,,
,,,,,,,,,,,,,FF,,,,,,,,0.7491,,,,,,,,,,,,,,,,,,,,,,610359fd24cc412e70e304e1,610369d7e5e98a764026aa2c,2021-07-29_21h55.18.549,Simcolourproject_2stim_asymm_v5,2020.2.10,MacIntel,60,61025ae37ef11b136ea224fe,,,,,,,,,2640,45.4375,80.34765625,1,0,0,response1disk,,7,18.51171875,-10.203125,1,0,0,rectangle,18.51171875,-10.203125,1,0,0,18.51171875,-10.203125,1,0,0,0,128,128,24,1,,,,,,,,
,,,,,,,,,,,,,FF,,,,,,,,0.9539,,,,,,,,,,,,,,,,,,,,,,610359fd24cc412e70e304e1,610369d7e5e98a764026aa2c,2021-07-29_21h55.18.549,Simcolourproject_2stim_asymm_v5,2020.2.10,MacIntel,60,61025ae37ef11b136ea224fe,,,,,,,,,1473,46.19140625,67.13671875,1,0,0,response1disk,,7,22.28125,6.05859375,1,0,0,rectangle,22.28125,6.05859375,1,0,0,22.28125,6.05859375,1,0,0,0,129,129,113,1,,,,,,,,
,,,,,,,,,,,,,FF,,,,,,,,1.3322,,,,,,,,,,,,,,,,,,,,,,610359fd24cc412e70e304e1,610369d7e5e98a764026aa2c,2021-07-29_21h55.18.549,Simcolourproject_2stim_asymm_v5,2020.2.10,MacIntel,60,61025ae37ef11b136ea224fe,,,,,,,,,3592,58.2421875,-86.4375,1,0,0,response3disk,,4,11.42578125,-11.203125,1,0,0,rectangle,11.42578125,-11.203125,1,0,0,11.42578125,-11.203125,1,0,0,0,130,130,25,1,,,,,,,,
,,,,,,,,,,,,,FF,,,,,,,,1,,,,,,,,,,,,,,,,,,,,,,610359fd24cc412e70e304e1,610369d7e5e98a764026aa2c,2021-07-29_21h55.18.549,Simcolourproject_2stim_asymm_v5,2020.2.10,MacIntel,60,61025ae37ef11b136ea224fe,,,,,,,,,3898,70.2421875,33.12890625,1,0,0,response1disk,,6,11.05859375,2.06640625,1,0,0,rectangle,11.05859375,2.06640625,1,0,0,11.05859375,2.06640625,1,0,0,0,131,131,36,1,,,,,,,,
,,,,,,,,,,,,,FF,,,,,,,,1.0297,,,,,,,,,,,,,,,,,,,,,,610359fd24cc412e70e304e1,610369d7e5e98a764026aa2c,2021-07-29_21h55.18.549,Simcolourproject_2stim_asymm_v5,2020.2.10,MacIntel,60,61025ae37ef11b136ea224fe,,,,,,,,,227,45.12890625,78.27734375,1,0,0,response1disk,,7,-14.82421875,-11.8828125,1,0,0,rectangle,-14.82421875,-11.8828125,1,0,0,-14.82421875,-11.8828125,1,0,0,0,132,132,126,1,,,,,,,,
,,,,,,,,,,,,,FF,,,,,,,,0.7376,,,,,,,,,,,,,,,,,,,,,,610359fd24cc412e70e304e1,610369d7e5e98a764026aa2c,2021-07-29_21h55.18.549,Simcolourproject_2stim_asymm_v5,2020.2.10,MacIntel,60,61025ae37ef11b136ea224fe,,,,,,,,,2665,60.109375,-36.984375,1,0,0,response3disk,,5,0.64453125,-6.43359375,1,0,0,rectangle,0.64453125,-6.43359375,1,0,0,0.64453125,-6.43359375,1,0,0,0,133,133,114,1,,,,,,,,
,,,,,,,,,,,,,FF,,,,,,,,1.5679,,,,,,,,,,,,,,,,,,,,,,610359fd24cc412e70e304e1,610369d7e5e98a764026aa2c,2021-07-29_21h55.18.549,Simcolourproject_2stim_asymm_v5,2020.2.10,MacIntel,60,61025ae37ef11b136ea224fe,,,,,,,,,4150,99.05078125,45.42578125,1,0,0,response1disk,,6,-4.0078125,-2.2265625,1,0,0,rectangle,-4.0078125,-2.2265625,1,0,0,-4.0078125,-2.2265625,1,0,0,0,134,134,81,1,,,,,,,,
,,,,,,,,,,,,,FF,,,,,,,,0.8149,,,,,,,,,,,,,,,,,,,,,,610359fd24cc412e70e304e1,610369d7e5e98a764026aa2c,2021-07-29_21h55.18.549,Simcolourproject_2stim_asymm_v5,2020.2.10,MacIntel,60,61025ae37ef11b136ea224fe,,,,,,,,,311,46.73828125,79.65625,1,0,0,response1disk,,7,16.83203125,3.33203125,1,0,0,rectangle,16.83203125,3.33203125,1,0,0,16.83203125,3.33203125,1,0,0,0,135,135,109,1,,,,,,,,
,,,,,,,,,,,,,FF,,,,,,,,1.0018,,,,,,,,,,,,,,,,,,,,,,610359fd24cc412e70e304e1,610369d7e5e98a764026aa2c,2021-07-29_21h55.18.549,Simcolourproject_2stim_asymm_v5,2020.2.10,MacIntel,60,61025ae37ef11b136ea224fe,,,,,,,,,1313,96.3125,26.3125,1,0,0,response1disk,,6,-0.07421875,-3.34375,1,0,0,rectangle,-0.07421875,-3.34375,1,0,0,-0.07421875,-3.34375,1,0,0,0,136,136,142,1,,,,,,,,
,,,,,,,,,,,,,FF,,,,,,,,0.6673,,,,,,,,,,,,,,,,,,,,,,610359fd24cc412e70e304e1,610369d7e5e98a764026aa2c,2021-07-29_21h55.18.549,Simcolourproject_2stim_asymm_v5,2020.2.10,MacIntel,60,61025ae37ef11b136ea224fe,,,,,,,,,3843,-40.3125,67.27734375,1,0,0,response7disk,,0,-4.8203125,-6.16796875,1,0,0,rectangle,-75.15625,-41.9921875,1,0,0,4.83984375,-9.65625,1,0,0,0,137,137,73,1,,response5disk_3,TRUE,2,2,"[219,145,189,304,201,175,138,121,259,98,254,262,11,215,94,310,281,114,7,273]",1.3812,rectangle
,,,,,,,,,,,,,FF,,,,,,,,1.0346,,,,,,,,,,,,,,,,,,,,,,610359fd24cc412e70e304e1,610369d7e5e98a764026aa2c,2021-07-29_21h55.18.549,Simcolourproject_2stim_asymm_v5,2020.2.10,MacIntel,60,61025ae37ef11b136ea224fe,,,,,,,,,377,-36.71875,77.58984375,1,0,0,response7disk,,0,-1.17578125,0.59375,1,0,0,rectangle,-1.17578125,0.59375,1,0,0,-1.17578125,0.59375,1,0,0,0,138,138,83,1,,,,,,,,
,,,,,,,,,,,,,FF,,,,,,,,2.8486,,,,,,,,,,,,,,,,,,,,,,610359fd24cc412e70e304e1,610369d7e5e98a764026aa2c,2021-07-29_21h55.18.549,Simcolourproject_2stim_asymm_v5,2020.2.10,MacIntel,60,61025ae37ef11b136ea224fe,,,,,,,,,1197,37.5703125,78.82421875,1,0,0,response1disk,,7,2.80078125,6.70703125,1,0,0,rectangle,2.80078125,6.70703125,1,0,0,2.80078125,6.70703125,1,0,0,0,139,139,7,1,,,,,,,,
,,,,,,,,,,,,,FF,,,,,,,,0.7176,,,,,,,,,,,,,,,,,,,,,,610359fd24cc412e70e304e1,610369d7e5e98a764026aa2c,2021-07-29_21h55.18.549,Simcolourproject_2stim_asymm_v5,2020.2.10,MacIntel,60,61025ae37ef11b136ea224fe,,,,,,,,,1158,48.3515625,92.33203125,1,0,0,response1disk,,7,15.37890625,3.23828125,1,0,0,rectangle,15.37890625,3.23828125,1,0,0,15.37890625,3.23828125,1,0,0,0,140,140,26,1,,,,,,,,
,,,,,,,,,,,,,FF,,,,,,,,0.5996,,,,,,,,,,,,,,,,,,,,,,610359fd24cc412e70e304e1,610369d7e5e98a764026aa2c,2021-07-29_21h55.18.549,Simcolourproject_2stim_asymm_v5,2020.2.10,MacIntel,60,61025ae37ef11b136ea224fe,,,,,,,,,2851,42.3359375,72.20703125,1,0,0,response1disk,,7,5.28515625,2.4921875,1,0,0,rectangle,5.28515625,2.4921875,1,0,0,5.28515625,2.4921875,1,0,0,0,141,141,86,1,,,,,,,,
,,,,,,,,,,,,,FF,,,,,,,,1.1003,,,,,,,,,,,,,,,,,,,,,,610359fd24cc412e70e304e1,610369d7e5e98a764026aa2c,2021-07-29_21h55.18.549,Simcolourproject_2stim_asymm_v5,2020.2.10,MacIntel,60,61025ae37ef11b136ea224fe,,,,,,,,,3237,84.21484375,-60.96875,1,0,0,response3disk,,5,10.29296875,-10.1171875,1,0,0,rectangle,10.29296875,-10.1171875,1,0,0,10.29296875,-10.1171875,1,0,0,0,142,142,153,1,,,,,,,,
,,,,,,,,,,,,,FF,,,,,,,,1.1843,,,,,,,,,,,,,,,,,,,,,,610359fd24cc412e70e304e1,610369d7e5e98a764026aa2c,2021-07-29_21h55.18.549,Simcolourproject_2stim_asymm_v5,2020.2.10,MacIntel,60,61025ae37ef11b136ea224fe,,,,,,,,,1326,44.74609375,91.85546875,1,0,0,response1disk,,7,5.734375,3.63671875,1,0,0,rectangle,5.734375,3.63671875,1,0,0,5.734375,3.63671875,1,0,0,0,143,143,82,1,,,,,,,,
,,,,,,,,,,,,,FF,,,,,,,,1.0507,,,,,,,,,,,,,,,,,,,,,,610359fd24cc412e70e304e1,610369d7e5e98a764026aa2c,2021-07-29_21h55.18.549,Simcolourproject_2stim_asymm_v5,2020.2.10,MacIntel,60,61025ae37ef11b136ea224fe,,,,,,,,,3504,103.953125,-50.37109375,1,0,0,response3disk,,5,1.99609375,-2.03515625,1,0,0,rectangle,95.875,41.69921875,1,0,0,8.51171875,4.765625,1,0,0,0,144,144,92,1,,response1disk_3,TRUE,6,6,"[219,145,189,304,201,175,138,121,259,98,254,262,11,215,94,310,281,114,7,273]",1.7155,rectangle
,,,,,,,,,,,,,FF,,,,,,,,1.0837,,,,,,,,,,,,,,,,,,,,,,610359fd24cc412e70e304e1,610369d7e5e98a764026aa2c,2021-07-29_21h55.18.549,Simcolourproject_2stim_asymm_v5,2020.2.10,MacIntel,60,61025ae37ef11b136ea224fe,,,,,,,,,2913,38.3515625,71.953125,1,0,0,response1disk,,7,-5.37109375,7.12890625,1,0,0,rectangle,-5.37109375,7.12890625,1,0,0,-5.37109375,7.12890625,1,0,0,0,145,145,154,1,,,,,,,,
,,,,,,,,,,,,,FF,,,,,,,,0.6679,,,,,,,,,,,,,,,,,,,,,,610359fd24cc412e70e304e1,610369d7e5e98a764026aa2c,2021-07-29_21h55.18.549,Simcolourproject_2stim_asymm_v5,2020.2.10,MacIntel,60,61025ae37ef11b136ea224fe,,,,,,,,,2620,35,64.203125,1,0,0,response1disk,,7,9.5,-8.17578125,1,0,0,rectangle,9.5,-8.17578125,1,0,0,9.5,-8.17578125,1,0,0,0,146,146,54,1,,,,,,,,
,,,,,,,,,,,,,FF,,,,,,,,0.951,,,,,,,,,,,,,,,,,,,,,,610359fd24cc412e70e304e1,610369d7e5e98a764026aa2c,2021-07-29_21h55.18.549,Simcolourproject_2stim_asymm_v5,2020.2.10,MacIntel,60,61025ae37ef11b136ea224fe,,,,,,,,,3475,-73.69140625,-40.0234375,1,0,0,response5disk,,2,-7.98828125,-4.82421875,1,0,0,rectangle,-7.98828125,-4.82421875,1,0,0,-7.98828125,-4.82421875,1,0,0,0,147,147,91,1,,,,,,,,
,,,,,,,,,,,,,FF,,,,,,,,1.0174,,,,,,,,,,,,,,,,,,,,,,610359fd24cc412e70e304e1,610369d7e5e98a764026aa2c,2021-07-29_21h55.18.549,Simcolourproject_2stim_asymm_v5,2020.2.10,MacIntel,60,61025ae37ef11b136ea224fe,,,,,,,,,943,24.94140625,55.6015625,1,0,0,response1disk,,7,-2.23046875,-8.12109375,1,0,0,rectangle,-2.23046875,-8.12109375,1,0,0,-2.23046875,-8.12109375,1,0,0,0,148,148,42,1,,,,,,,,
,,,,,,,,,,,,,FF,,,,,,,,0.7017,,,,,,,,,,,,,,,,,,,,,,610359fd24cc412e70e304e1,610369d7e5e98a764026aa2c,2021-07-29_21h55.18.549,Simcolourproject_2stim_asymm_v5,2020.2.10,MacIntel,60,61025ae37ef11b136ea224fe,,,,,,,,,1997,30.140625,63.3203125,1,0,0,response1disk,,7,16.70703125,11.8046875,1,0,0,rectangle,16.70703125,11.8046875,1,0,0,16.70703125,11.8046875,1,0,0,0,149,149,21,1,,,,,,,,
,,,,,,,,,,,,,FF,,,,,,,,0.4671,,,,,,,,,,,,,,,,,,,,,,610359fd24cc412e70e304e1,610369d7e5e98a764026aa2c,2021-07-29_21h55.18.549,Simcolourproject_2stim_asymm_v5,2020.2.10,MacIntel,60,61025ae37ef11b136ea224fe,,,,,,,,,2344,39.97265625,74.65234375,1,0,0,response1disk,,7,13.8203125,2.99609375,1,0,0,rectangle,13.8203125,2.99609375,1,0,0,13.8203125,2.99609375,1,0,0,0,150,150,146,1,,,,,,,,
,,,,,,,,,,,,,FF,,,,,,,,0.5183,,,,,,,,,,,,,,,,,,,,,,610359fd24cc412e70e304e1,610369d7e5e98a764026aa2c,2021-07-29_21h55.18.549,Simcolourproject_2stim_asymm_v5,2020.2.10,MacIntel,60,61025ae37ef11b136ea224fe,,,,,,,,,3893,38.89453125,77.53125,1,0,0,response1disk,,7,10.0625,5.515625,1,0,0,rectangle,10.0625,5.515625,1,0,0,10.0625,5.515625,1,0,0,0,151,151,69,1,,,,,,,,
,,,,,,,,,,,,,FF,,,,,,,,0.5346,,,,,,,,,,,,,,,,,,,,,,610359fd24cc412e70e304e1,610369d7e5e98a764026aa2c,2021-07-29_21h55.18.549,Simcolourproject_2stim_asymm_v5,2020.2.10,MacIntel,60,61025ae37ef11b136ea224fe,,,,,,,,,1398,41.53515625,77.97265625,1,0,0,response1disk,,7,10.35546875,-1.8359375,1,0,0,rectangle,10.35546875,-1.8359375,1,0,0,10.35546875,-1.8359375,1,0,0,0,152,152,75,1,,,,,,,,
,,,,,,,,,,,,,FF,,,,,,,,0.5337,,,,,,,,,,,,,,,,,,,,,,610359fd24cc412e70e304e1,610369d7e5e98a764026aa2c,2021-07-29_21h55.18.549,Simcolourproject_2stim_asymm_v5,2020.2.10,MacIntel,60,61025ae37ef11b136ea224fe,,,,,,,,,2630,35.5,72.25390625,1,0,0,response1disk,,7,3.82421875,2.26953125,1,0,0,rectangle,3.82421875,2.26953125,1,0,0,3.82421875,2.26953125,1,0,0,0,153,153,116,1,,,,,,,,
,,,,,,,,,,,,,FF,,,,,,,,0.5664,,,,,,,,,,,,,,,,,,,,,,610359fd24cc412e70e304e1,610369d7e5e98a764026aa2c,2021-07-29_21h55.18.549,Simcolourproject_2stim_asymm_v5,2020.2.10,MacIntel,60,61025ae37ef11b136ea224fe,,,,,,,,,3498,36.51171875,69.29296875,1,0,0,response1disk,,7,-5.85546875,-10.97265625,1,0,0,rectangle,-5.85546875,-10.97265625,1,0,0,-5.85546875,-10.97265625,1,0,0,0,154,154,40,1,,,,,,,,
,,,,,,,,,,,,,FF,,,,,,,,0.5498,,,,,,,,,,,,,,,,,,,,,,610359fd24cc412e70e304e1,610369d7e5e98a764026aa2c,2021-07-29_21h55.18.549,Simcolourproject_2stim_asymm_v5,2020.2.10,MacIntel,60,61025ae37ef11b136ea224fe,,,,,,,,,1934,36.5625,67.8515625,1,0,0,response1disk,,7,13.0234375,3.40625,1,0,0,rectangle,13.0234375,3.40625,1,0,0,13.0234375,3.40625,1,0,0,0,155,155,66,1,,,,,,,,
,,,,,,,,,,,,,FF,,,,,,,,0.8667,,,,,,,,,,,,,,,,,,,,,,610359fd24cc412e70e304e1,610369d7e5e98a764026aa2c,2021-07-29_21h55.18.549,Simcolourproject_2stim_asymm_v5,2020.2.10,MacIntel,60,61025ae37ef11b136ea224fe,,,,,,,,,104,82.74609375,32.296875,1,0,0,response1disk,,6,1.8515625,5.3828125,1,0,0,rectangle,1.8515625,5.3828125,1,0,0,1.8515625,5.3828125,1,0,0,0,156,156,17,1,,,,,,,,
,,,,,,,,,,,,,FF,,,,,,,,0.9334,,,,,,,,,,,,,,,,,,,,,,610359fd24cc412e70e304e1,610369d7e5e98a764026aa2c,2021-07-29_21h55.18.549,Simcolourproject_2stim_asymm_v5,2020.2.10,MacIntel,60,61025ae37ef11b136ea224fe,,,,,,,,,185,-47.4453125,85.99609375,1,0,0,response7disk,,0,0.30078125,-5.2109375,1,0,0,rectangle,0.30078125,-5.2109375,1,0,0,0.30078125,-5.2109375,1,0,0,0,157,157,39,1,,,,,,,,
,,,,,,,,,,,,,FF,,,,,,,,0.5836,,,,,,,,,,,,,,,,,,,,,,610359fd24cc412e70e304e1,610369d7e5e98a764026aa2c,2021-07-29_21h55.18.549,Simcolourproject_2stim_asymm_v5,2020.2.10,MacIntel,60,61025ae37ef11b136ea224fe,,,,,,,,,3865,26.20703125,76.96875,1,0,0,response1disk,,7,8.50390625,6.71484375,1,0,0,rectangle,8.50390625,6.71484375,1,0,0,8.50390625,6.71484375,1,0,0,0,158,158,3,1,,,,,,,,
,,,,,,,,,,,,,FF,,,,,,,,0.5,,,,,,,,,,,,,,,,,,,,,,610359fd24cc412e70e304e1,610369d7e5e98a764026aa2c,2021-07-29_21h55.18.549,Simcolourproject_2stim_asymm_v5,2020.2.10,MacIntel,60,61025ae37ef11b136ea224fe,,,,,,,,,928,-31.703125,63.4453125,1,0,0,response7disk,,0,-5.91015625,3.078125,1,0,0,rectangle,-5.91015625,3.078125,1,0,0,-5.91015625,3.078125,1,0,0,0,159,159,44,1,,,,,,,,
,,,,,,,,,,,,,FF,,,,,,,,0.7171,,,,,,,,,,,,,,,,,,,,,,610359fd24cc412e70e304e1,610369d7e5e98a764026aa2c,2021-07-29_21h55.18.549,Simcolourproject_2stim_asymm_v5,2020.2.10,MacIntel,60,61025ae37ef11b136ea224fe,,,,,,,,,128,49.7890625,96.8515625,1,0,0,response1disk,,7,-3.3125,-14.48046875,1,0,0,rectangle,-3.3125,-14.48046875,1,0,0,-3.3125,-14.48046875,1,0,0,1,0,160,102,1,,,,,,,,
,,,,,,,,,,,,,FF,,,,,,,,0.5346,,,,,,,,,,,,,,,,,,,,,,610359fd24cc412e70e304e1,610369d7e5e98a764026aa2c,2021-07-29_21h55.18.549,Simcolourproject_2stim_asymm_v5,2020.2.10,MacIntel,60,61025ae37ef11b136ea224fe,,,,,,,,,36,46.77734375,70.296875,1,0,0,response1disk,,7,15.41796875,-8.0625,1,0,0,rectangle,15.41796875,-8.0625,1,0,0,15.41796875,-8.0625,1,0,0,1,1,161,46,1,,,,,,,,
,,,,,,,,,,,,,FF,,,,,,,,0.982,,,,,,,,,,,,,,,,,,,,,,610359fd24cc412e70e304e1,610369d7e5e98a764026aa2c,2021-07-29_21h55.18.549,Simcolourproject_2stim_asymm_v5,2020.2.10,MacIntel,60,61025ae37ef11b136ea224fe,,,,,,,,,434,47.3515625,-112.1289063,1,0,0,response3disk,,4,7.14453125,2.31640625,1,0,0,rectangle,7.14453125,2.31640625,1,0,0,7.14453125,2.31640625,1,0,0,1,2,162,127,1,,,,,,,,
,,,,,,,,,,,,,FF,,,,,,,,0.6176,,,,,,,,,,,,,,,,,,,,,,610359fd24cc412e70e304e1,610369d7e5e98a764026aa2c,2021-07-29_21h55.18.549,Simcolourproject_2stim_asymm_v5,2020.2.10,MacIntel,60,61025ae37ef11b136ea224fe,,,,,,,,,967,50.375,110.015625,1,0,0,response1disk,,7,10.96875,4.765625,1,0,0,rectangle,10.96875,4.765625,1,0,0,10.96875,4.765625,1,0,0,1,3,163,76,1,,,,,,,,
,,,,,,,,,,,,,FF,,,,,,,,0.7157,,,,,,,,,,,,,,,,,,,,,,610359fd24cc412e70e304e1,610369d7e5e98a764026aa2c,2021-07-29_21h55.18.549,Simcolourproject_2stim_asymm_v5,2020.2.10,MacIntel,60,61025ae37ef11b136ea224fe,,,,,,,,,993,30.77734375,79.06640625,1,0,0,response1disk,,7,3.3515625,-1.12890625,1,0,0,rectangle,3.3515625,-1.12890625,1,0,0,3.3515625,-1.12890625,1,0,0,1,4,164,156,1,,,,,,,,
,,,,,,,,,,,,,FF,,,,,,,,0.8506,,,,,,,,,,,,,,,,,,,,,,610359fd24cc412e70e304e1,610369d7e5e98a764026aa2c,2021-07-29_21h55.18.549,Simcolourproject_2stim_asymm_v5,2020.2.10,MacIntel,60,61025ae37ef11b136ea224fe,,,,,,,,,2142,30.4296875,74.640625,1,0,0,response1disk,,7,11.51171875,3.86328125,1,0,0,rectangle,11.51171875,3.86328125,1,0,0,11.51171875,3.86328125,1,0,0,1,5,165,48,1,,,,,,,,
,,,,,,,,,,,,,FF,,,,,,,,0.4678,,,,,,,,,,,,,,,,,,,,,,610359fd24cc412e70e304e1,610369d7e5e98a764026aa2c,2021-07-29_21h55.18.549,Simcolourproject_2stim_asymm_v5,2020.2.10,MacIntel,60,61025ae37ef11b136ea224fe,,,,,,,,,930,46.6640625,68.5859375,1,0,0,response1disk,,7,10.91796875,3.70703125,1,0,0,rectangle,10.91796875,3.70703125,1,0,0,10.91796875,3.70703125,1,0,0,1,6,166,32,1,,,,,,,,
,,,,,,,,,,,,,FF,,,,,,,,0.5522,,,,,,,,,,,,,,,,,,,,,,610359fd24cc412e70e304e1,610369d7e5e98a764026aa2c,2021-07-29_21h55.18.549,Simcolourproject_2stim_asymm_v5,2020.2.10,MacIntel,60,61025ae37ef11b136ea224fe,,,,,,,,,1785,34,79.70703125,1,0,0,response1disk,,7,6.46484375,3.37109375,1,0,0,rectangle,6.46484375,3.37109375,1,0,0,6.46484375,3.37109375,1,0,0,1,7,167,143,1,,,,,,,,
,,,,,,,,,,,,,FF,,,,,,,,0.7663,,,,,,,,,,,,,,,,,,,,,,610359fd24cc412e70e304e1,610369d7e5e98a764026aa2c,2021-07-29_21h55.18.549,Simcolourproject_2stim_asymm_v5,2020.2.10,MacIntel,60,61025ae37ef11b136ea224fe,,,,,,,,,4095,-56.78125,82.5625,1,0,0,response7disk,,0,8.24609375,2.46875,1,0,0,rectangle,8.24609375,2.46875,1,0,0,8.24609375,2.46875,1,0,0,1,8,168,31,1,,,,,,,,
,,,,,,,,,,,,,FF,,,,,,,,0.8833,,,,,,,,,,,,,,,,,,,,,,610359fd24cc412e70e304e1,610369d7e5e98a764026aa2c,2021-07-29_21h55.18.549,Simcolourproject_2stim_asymm_v5,2020.2.10,MacIntel,60,61025ae37ef11b136ea224fe,,,,,,,,,2735,90.0078125,44.26171875,1,0,0,response1disk,,6,-3.8515625,-0.00390625,1,0,0,rectangle,-3.8515625,-0.00390625,1,0,0,-3.8515625,-0.00390625,1,0,0,1,9,169,89,1,,,,,,,,
,,,,,,,,,,,,,FF,,,,,,,,0.6836,,,,,,,,,,,,,,,,,,,,,,610359fd24cc412e70e304e1,610369d7e5e98a764026aa2c,2021-07-29_21h55.18.549,Simcolourproject_2stim_asymm_v5,2020.2.10,MacIntel,60,61025ae37ef11b136ea224fe,,,,,,,,,2370,87.203125,43.0078125,1,0,0,response1disk,,6,-7.984375,8.0078125,1,0,0,rectangle,-7.984375,8.0078125,1,0,0,-7.984375,8.0078125,1,0,0,1,10,170,152,1,,,,,,,,
,,,,,,,,,,,,,FF,,,,,,,,0.4845,,,,,,,,,,,,,,,,,,,,,,610359fd24cc412e70e304e1,610369d7e5e98a764026aa2c,2021-07-29_21h55.18.549,Simcolourproject_2stim_asymm_v5,2020.2.10,MacIntel,60,61025ae37ef11b136ea224fe,,,,,,,,,1548,22.30078125,83.12109375,1,0,0,response1disk,,7,6.8984375,7.69921875,1,0,0,rectangle,6.8984375,7.69921875,1,0,0,6.8984375,7.69921875,1,0,0,1,11,171,8,1,,,,,,,,
,,,,,,,,,,,,,FF,,,,,,,,0.5162,,,,,,,,,,,,,,,,,,,,,,610359fd24cc412e70e304e1,610369d7e5e98a764026aa2c,2021-07-29_21h55.18.549,Simcolourproject_2stim_asymm_v5,2020.2.10,MacIntel,60,61025ae37ef11b136ea224fe,,,,,,,,,3530,41.0390625,66.69140625,1,0,0,response1disk,,7,11.0234375,3.1640625,1,0,0,rectangle,11.0234375,3.1640625,1,0,0,11.0234375,3.1640625,1,0,0,1,12,172,109,1,,,,,,,,
,,,,,,,,,,,,,FF,,,,,,,,0.4817,,,,,,,,,,,,,,,,,,,,,,610359fd24cc412e70e304e1,610369d7e5e98a764026aa2c,2021-07-29_21h55.18.549,Simcolourproject_2stim_asymm_v5,2020.2.10,MacIntel,60,61025ae37ef11b136ea224fe,,,,,,,,,4179,35.84765625,71.87109375,1,0,0,response1disk,,7,19.5625,1.83984375,1,0,0,rectangle,19.5625,1.83984375,1,0,0,19.5625,1.83984375,1,0,0,1,13,173,62,1,,,,,,,,
,,,,,,,,,,,,,FF,,,,,,,,1.0643,,,,,,,,,,,,,,,,,,,,,,610359fd24cc412e70e304e1,610369d7e5e98a764026aa2c,2021-07-29_21h55.18.549,Simcolourproject_2stim_asymm_v5,2020.2.10,MacIntel,60,61025ae37ef11b136ea224fe,,,,,,,,,637,-89.23828125,-58.23046875,1,0,0,response5disk,,2,-1.23046875,-4.03515625,1,0,0,rectangle,86.125,-33.4921875,1,0,0,6.37109375,-3.0078125,1,0,0,1,14,174,25,1,,response3disk_3,TRUE,5,5,"[219,145,189,304,201,175,138,121,259,98,254,262,11,215,94,310,281,114,7,273]",1.9153,rectangle
,,,,,,,,,,,,,FF,,,,,,,,0.6468,,,,,,,,,,,,,,,,,,,,,,610359fd24cc412e70e304e1,610369d7e5e98a764026aa2c,2021-07-29_21h55.18.549,Simcolourproject_2stim_asymm_v5,2020.2.10,MacIntel,60,61025ae37ef11b136ea224fe,,,,,,,,,2443,23.79296875,63.734375,1,0,0,response1disk,,7,2.546875,6.97265625,1,0,0,rectangle,2.546875,6.97265625,1,0,0,2.546875,6.97265625,1,0,0,1,15,175,136,1,,,,,,,,
,,,,,,,,,,,,,FF,,,,,,,,3.2346,,,,,,,,,,,,,,,,,,,,,,610359fd24cc412e70e304e1,610369d7e5e98a764026aa2c,2021-07-29_21h55.18.549,Simcolourproject_2stim_asymm_v5,2020.2.10,MacIntel,60,61025ae37ef11b136ea224fe,,,,,,,,,746,28.4453125,65.00390625,1,0,0,response1disk,,7,-8.1796875,-1.1796875,1,0,0,rectangle,-8.1796875,-1.1796875,1,0,0,-8.1796875,-1.1796875,1,0,0,1,16,176,61,1,,,,,,,,
,,,,,,,,,,,,,FF,,,,,,,,0.564,,,,,,,,,,,,,,,,,,,,,,610359fd24cc412e70e304e1,610369d7e5e98a764026aa2c,2021-07-29_21h55.18.549,Simcolourproject_2stim_asymm_v5,2020.2.10,MacIntel,60,61025ae37ef11b136ea224fe,,,,,,,,,573,40.12890625,98.0078125,1,0,0,response1disk,,7,16,-2.68359375,1,0,0,rectangle,16,-2.68359375,1,0,0,16,-2.68359375,1,0,0,1,17,177,88,1,,,,,,,,
,,,,,,,,,,,,,FF,,,,,,,,0.7351,,,,,,,,,,,,,,,,,,,,,,610359fd24cc412e70e304e1,610369d7e5e98a764026aa2c,2021-07-29_21h55.18.549,Simcolourproject_2stim_asymm_v5,2020.2.10,MacIntel,60,61025ae37ef11b136ea224fe,,,,,,,,,3335,34.86328125,57.2890625,1,0,0,response1disk,,7,15.34765625,-2.44921875,1,0,0,rectangle,15.34765625,-2.44921875,1,0,0,15.34765625,-2.44921875,1,0,0,1,18,178,113,1,,,,,,,,
,,,,,,,,,,,,,FF,,,,,,,,1.0847,,,,,,,,,,,,,,,,,,,,,,610359fd24cc412e70e304e1,610369d7e5e98a764026aa2c,2021-07-29_21h55.18.549,Simcolourproject_2stim_asymm_v5,2020.2.10,MacIntel,60,61025ae37ef11b136ea224fe,,,,,,,,,2102,98.90625,-59.44140625,1,0,0,response3disk,,5,22.9296875,-3.91015625,1,0,0,rectangle,22.9296875,-3.91015625,1,0,0,22.9296875,-3.91015625,1,0,0,1,19,179,10,1,,,,,,,,
,,,,,,,,,,,,,FF,,,,,,,,1.9983,,,,,,,,,,,,,,,,,,,,,,610359fd24cc412e70e304e1,610369d7e5e98a764026aa2c,2021-07-29_21h55.18.549,Simcolourproject_2stim_asymm_v5,2020.2.10,MacIntel,60,61025ae37ef11b136ea224fe,,,,,,,,,1104,31.28515625,62.0078125,1,0,0,response1disk,,7,1.69140625,-0.171875,1,0,0,rectangle,1.69140625,-0.171875,1,0,0,1.69140625,-0.171875,1,0,0,1,20,180,26,1,,,,,,,,
,,,,,,,,,,,,,FF,,,,,,,,1.3482,,,,,,,,,,,,,,,,,,,,,,610359fd24cc412e70e304e1,610369d7e5e98a764026aa2c,2021-07-29_21h55.18.549,Simcolourproject_2stim_asymm_v5,2020.2.10,MacIntel,60,61025ae37ef11b136ea224fe,,,,,,,,,3818,51.1953125,-112.5429688,1,0,0,response3disk,,4,8.578125,0.5625,1,0,0,rectangle,8.578125,0.5625,1,0,0,8.578125,0.5625,1,0,0,1,21,181,51,1,,,,,,,,
,,,,,,,,,,,,,FF,,,,,,,,1.0478,,,,,,,,,,,,,,,,,,,,,,610359fd24cc412e70e304e1,610369d7e5e98a764026aa2c,2021-07-29_21h55.18.549,Simcolourproject_2stim_asymm_v5,2020.2.10,MacIntel,60,61025ae37ef11b136ea224fe,,,,,,,,,3216,47.73828125,74.87109375,1,0,0,response1disk,,7,-5.18359375,-2.95703125,1,0,0,rectangle,-5.18359375,-2.95703125,1,0,0,-5.18359375,-2.95703125,1,0,0,1,22,182,106,1,,,,,,,,
,,,,,,,,,,,,,FF,,,,,,,,1.1845,,,,,,,,,,,,,,,,,,,,,,610359fd24cc412e70e304e1,610369d7e5e98a764026aa2c,2021-07-29_21h55.18.549,Simcolourproject_2stim_asymm_v5,2020.2.10,MacIntel,60,61025ae37ef11b136ea224fe,,,,,,,,,2959,65.64453125,24.265625,1,0,0,response1disk,,6,1.01953125,5.46484375,1,0,0,rectangle,1.01953125,5.46484375,1,0,0,1.01953125,5.46484375,1,0,0,1,23,183,43,1,,,,,,,,
,,,,,,,,,,,,,FF,,,,,,,,1.3854,,,,,,,,,,,,,,,,,,,,,,610359fd24cc412e70e304e1,610369d7e5e98a764026aa2c,2021-07-29_21h55.18.549,Simcolourproject_2stim_asymm_v5,2020.2.10,MacIntel,60,61025ae37ef11b136ea224fe,,,,,,,,,1722,77.66796875,44.2734375,1,0,0,response1disk,,6,1.921875,8.56640625,1,0,0,rectangle,1.921875,8.56640625,1,0,0,1.921875,8.56640625,1,0,0,1,24,184,108,1,,,,,,,,
,,,,,,,,,,,,,FF,,,,,,,,0.6987,,,,,,,,,,,,,,,,,,,,,,610359fd24cc412e70e304e1,610369d7e5e98a764026aa2c,2021-07-29_21h55.18.549,Simcolourproject_2stim_asymm_v5,2020.2.10,MacIntel,60,61025ae37ef11b136ea224fe,,,,,,,,,4131,45.2578125,73.23828125,1,0,0,response1disk,,7,-0.35546875,-4.359375,1,0,0,rectangle,-0.35546875,-4.359375,1,0,0,-0.35546875,-4.359375,1,0,0,1,25,185,92,1,,,,,,,,
,,,,,,,,,,,,,FF,,,,,,,,0.699,,,,,,,,,,,,,,,,,,,,,,610359fd24cc412e70e304e1,610369d7e5e98a764026aa2c,2021-07-29_21h55.18.549,Simcolourproject_2stim_asymm_v5,2020.2.10,MacIntel,60,61025ae37ef11b136ea224fe,,,,,,,,,2666,83.09765625,-56.109375,1,0,0,response3disk,,5,-4.72265625,3.72265625,1,0,0,rectangle,-4.72265625,3.72265625,1,0,0,-4.72265625,3.72265625,1,0,0,1,26,186,58,1,,,,,,,,
,,,,,,,,,,,,,FF,,,,,,,,0.6472,,,,,,,,,,,,,,,,,,,,,,610359fd24cc412e70e304e1,610369d7e5e98a764026aa2c,2021-07-29_21h55.18.549,Simcolourproject_2stim_asymm_v5,2020.2.10,MacIntel,60,61025ae37ef11b136ea224fe,,,,,,,,,4361,-35.56640625,94.68359375,1,0,0,response7disk,,0,-4.41796875,3.640625,1,0,0,rectangle,-4.41796875,3.640625,1,0,0,-4.41796875,3.640625,1,0,0,1,27,187,100,1,,,,,,,,
,,,,,,,,,,,,,FF,,,,,,,,0.8653,,,,,,,,,,,,,,,,,,,,,,610359fd24cc412e70e304e1,610369d7e5e98a764026aa2c,2021-07-29_21h55.18.549,Simcolourproject_2stim_asymm_v5,2020.2.10,MacIntel,60,61025ae37ef11b136ea224fe,,,,,,,,,1479,34.2734375,56.421875,1,0,0,response1disk,,7,-4.29296875,-10.734375,1,0,0,rectangle,-79.671875,-35.71484375,1,0,0,4.3046875,-6.6953125,1,0,0,1,28,188,9,1,,response5disk_3,TRUE,2,2,"[219,145,189,304,201,175,138,121,259,98,254,262,11,215,94,310,281,114,7,273]",1.7836,rectangle
,,,,,,,,,,,,,FF,,,,,,,,0.7348,,,,,,,,,,,,,,,,,,,,,,610359fd24cc412e70e304e1,610369d7e5e98a764026aa2c,2021-07-29_21h55.18.549,Simcolourproject_2stim_asymm_v5,2020.2.10,MacIntel,60,61025ae37ef11b136ea224fe,,,,,,,,,2053,53.8203125,72.609375,1,0,0,response1disk,,7,0.73046875,-3.7265625,1,0,0,rectangle,0.73046875,-3.7265625,1,0,0,0.73046875,-3.7265625,1,0,0,1,29,189,53,1,,,,,,,,
,,,,,,,,,,,,,FF,,,,,,,,0.6336,,,,,,,,,,,,,,,,,,,,,,610359fd24cc412e70e304e1,610369d7e5e98a764026aa2c,2021-07-29_21h55.18.549,Simcolourproject_2stim_asymm_v5,2020.2.10,MacIntel,60,61025ae37ef11b136ea224fe,,,,,,,,,513,40.91796875,67.27734375,1,0,0,response1disk,,7,4.02734375,-1.87109375,1,0,0,rectangle,4.02734375,-1.87109375,1,0,0,4.02734375,-1.87109375,1,0,0,1,30,190,148,1,,,,,,,,
,,,,,,,,,,,,,FF,,,,,,,,0.8159,,,,,,,,,,,,,,,,,,,,,,610359fd24cc412e70e304e1,610369d7e5e98a764026aa2c,2021-07-29_21h55.18.549,Simcolourproject_2stim_asymm_v5,2020.2.10,MacIntel,60,61025ae37ef11b136ea224fe,,,,,,,,,1665,40.0859375,55.6171875,1,0,0,response1disk,,7,5.30078125,-7.703125,1,0,0,rectangle,5.30078125,-7.703125,1,0,0,5.30078125,-7.703125,1,0,0,1,31,191,146,1,,,,,,,,
,,,,,,,,,,,,,FF,,,,,,,,0.7993,,,,,,,,,,,,,,,,,,,,,,610359fd24cc412e70e304e1,610369d7e5e98a764026aa2c,2021-07-29_21h55.18.549,Simcolourproject_2stim_asymm_v5,2020.2.10,MacIntel,60,61025ae37ef11b136ea224fe,,,,,,,,,350,33,-80.7734375,1,0,0,response3disk,,4,10.08203125,-11.8828125,1,0,0,rectangle,10.08203125,-11.8828125,1,0,0,10.08203125,-11.8828125,1,0,0,1,32,192,35,1,,,,,,,,
,,,,,,,,,,,,,FF,,,,,,,,0.7,,,,,,,,,,,,,,,,,,,,,,610359fd24cc412e70e304e1,610369d7e5e98a764026aa2c,2021-07-29_21h55.18.549,Simcolourproject_2stim_asymm_v5,2020.2.10,MacIntel,60,61025ae37ef11b136ea224fe,,,,,,,,,3705,-38.625,83.72265625,1,0,0,response7disk,,0,-8.3671875,-7.4140625,1,0,0,rectangle,-8.3671875,-7.4140625,1,0,0,-8.3671875,-7.4140625,1,0,0,1,33,193,6,1,,,,,,,,
,,,,,,,,,,,,,FF,,,,,,,,1.1007,,,,,,,,,,,,,,,,,,,,,,610359fd24cc412e70e304e1,610369d7e5e98a764026aa2c,2021-07-29_21h55.18.549,Simcolourproject_2stim_asymm_v5,2020.2.10,MacIntel,60,61025ae37ef11b136ea224fe,,,,,,,,,2312,101.734375,-57.1640625,1,0,0,response3disk,,5,0.58203125,-2.23046875,1,0,0,rectangle,0.58203125,-2.23046875,1,0,0,0.58203125,-2.23046875,1,0,0,1,34,194,94,1,,,,,,,,
,,,,,,,,,,,,,FF,,,,,,,,0.8836,,,,,,,,,,,,,,,,,,,,,,610359fd24cc412e70e304e1,610369d7e5e98a764026aa2c,2021-07-29_21h55.18.549,Simcolourproject_2stim_asymm_v5,2020.2.10,MacIntel,60,61025ae37ef11b136ea224fe,,,,,,,,,3831,40.71875,72.8515625,1,0,0,response1disk,,7,-3.61328125,-10.45703125,1,0,0,rectangle,-3.61328125,-10.45703125,1,0,0,-3.61328125,-10.45703125,1,0,0,1,35,195,16,1,,,,,,,,
,,,,,,,,,,,,,FF,,,,,,,,1.3853,,,,,,,,,,,,,,,,,,,,,,610359fd24cc412e70e304e1,610369d7e5e98a764026aa2c,2021-07-29_21h55.18.549,Simcolourproject_2stim_asymm_v5,2020.2.10,MacIntel,60,61025ae37ef11b136ea224fe,,,,,,,,,3391,-53.65234375,-78.8359375,1,0,0,response5disk,,3,-7.5546875,-3.6015625,1,0,0,rectangle,-7.5546875,-3.6015625,1,0,0,-7.5546875,-3.6015625,1,0,0,1,36,196,118,1,,,,,,,,
,,,,,,,,,,,,,FF,,,,,,,,0.6662,,,,,,,,,,,,,,,,,,,,,,610359fd24cc412e70e304e1,610369d7e5e98a764026aa2c,2021-07-29_21h55.18.549,Simcolourproject_2stim_asymm_v5,2020.2.10,MacIntel,60,61025ae37ef11b136ea224fe,,,,,,,,,2504,44.9453125,92.80078125,1,0,0,response1disk,,7,4.078125,-7.99609375,1,0,0,rectangle,4.078125,-7.99609375,1,0,0,4.078125,-7.99609375,1,0,0,1,37,197,79,1,,,,,,,,
,,,,,,,,,,,,,FF,,,,,,,,1.2169,,,,,,,,,,,,,,,,,,,,,,610359fd24cc412e70e304e1,610369d7e5e98a764026aa2c,2021-07-29_21h55.18.549,Simcolourproject_2stim_asymm_v5,2020.2.10,MacIntel,60,61025ae37ef11b136ea224fe,,,,,,,,,1512,71.1328125,45.9609375,1,0,0,response1disk,,6,1.453125,-0.296875,1,0,0,rectangle,1.453125,-0.296875,1,0,0,1.453125,-0.296875,1,0,0,1,38,198,117,1,,,,,,,,
,,,,,,,,,,,,,FF,,,,,,,,0.6837,,,,,,,,,,,,,,,,,,,,,,610359fd24cc412e70e304e1,610369d7e5e98a764026aa2c,2021-07-29_21h55.18.549,Simcolourproject_2stim_asymm_v5,2020.2.10,MacIntel,60,61025ae37ef11b136ea224fe,,,,,,,,,2200,47.03515625,70.375,1,0,0,response1disk,,7,-0.55859375,-6.09765625,1,0,0,rectangle,-0.55859375,-6.09765625,1,0,0,-0.55859375,-6.09765625,1,0,0,1,39,199,13,1,,,,,,,,
,,,,,,,,,,,,,FF,,,,,,,,0.7679,,,,,,,,,,,,,,,,,,,,,,610359fd24cc412e70e304e1,610369d7e5e98a764026aa2c,2021-07-29_21h55.18.549,Simcolourproject_2stim_asymm_v5,2020.2.10,MacIntel,60,61025ae37ef11b136ea224fe,,,,,,,,,3901,73.640625,27.0703125,1,0,0,response1disk,,6,8.671875,11.1953125,1,0,0,rectangle,-43.390625,-108.8085938,1,0,0,-1.28125,-6.08203125,1,0,0,1,40,200,135,1,,response5disk_3,TRUE,3,3,"[219,145,189,304,201,175,138,121,259,98,254,262,11,215,94,310,281,114,7,273]",1.62,rectangle
,,,,,,,,,,,,,FF,,,,,,,,0.9168,,,,,,,,,,,,,,,,,,,,,,610359fd24cc412e70e304e1,610369d7e5e98a764026aa2c,2021-07-29_21h55.18.549,Simcolourproject_2stim_asymm_v5,2020.2.10,MacIntel,60,61025ae37ef11b136ea224fe,,,,,,,,,2838,102.6328125,-79.11328125,1,0,0,response3disk,,5,1.44921875,-1.5390625,1,0,0,rectangle,1.44921875,-1.5390625,1,0,0,1.44921875,-1.5390625,1,0,0,1,41,201,107,1,,,,,,,,
,,,,,,,,,,,,,FF,,,,,,,,2.4649,,,,,,,,,,,,,,,,,,,,,,610359fd24cc412e70e304e1,610369d7e5e98a764026aa2c,2021-07-29_21h55.18.549,Simcolourproject_2stim_asymm_v5,2020.2.10,MacIntel,60,61025ae37ef11b136ea224fe,,,,,,,,,3234,71.6328125,48.41796875,1,0,0,response1disk,,6,4.51171875,9.4921875,1,0,0,rectangle,4.51171875,9.4921875,1,0,0,4.51171875,9.4921875,1,0,0,1,42,202,139,1,,,,,,,,
,,,,,,,,,,,,,FF,,,,,,,,1.1662,,,,,,,,,,,,,,,,,,,,,,610359fd24cc412e70e304e1,610369d7e5e98a764026aa2c,2021-07-29_21h55.18.549,Simcolourproject_2stim_asymm_v5,2020.2.10,MacIntel,60,61025ae37ef11b136ea224fe,,,,,,,,,399,44.390625,70.12109375,1,0,0,response1disk,,7,2.78515625,-6.37890625,1,0,0,rectangle,2.78515625,-6.37890625,1,0,0,2.78515625,-6.37890625,1,0,0,1,43,203,158,1,,,,,,,,
,,,,,,,,,,,,,FF,,,,,,,,0.8312,,,,,,,,,,,,,,,,,,,,,,610359fd24cc412e70e304e1,610369d7e5e98a764026aa2c,2021-07-29_21h55.18.549,Simcolourproject_2stim_asymm_v5,2020.2.10,MacIntel,60,61025ae37ef11b136ea224fe,,,,,,,,,253,-61.01171875,-84.24609375,1,0,0,response5disk,,3,2.16796875,2.91015625,1,0,0,rectangle,2.16796875,2.91015625,1,0,0,2.16796875,2.91015625,1,0,0,1,44,204,116,1,,,,,,,,
,,,,,,,,,,,,,FF,,,,,,,,0.6671,,,,,,,,,,,,,,,,,,,,,,610359fd24cc412e70e304e1,610369d7e5e98a764026aa2c,2021-07-29_21h55.18.549,Simcolourproject_2stim_asymm_v5,2020.2.10,MacIntel,60,61025ae37ef11b136ea224fe,,,,,,,,,4247,34.3046875,72.30859375,1,0,0,response1disk,,7,6.234375,3.61328125,1,0,0,rectangle,6.234375,3.61328125,1,0,0,6.234375,3.61328125,1,0,0,1,45,205,101,1,,,,,,,,
,,,,,,,,,,,,,FF,,,,,,,,0.6336,,,,,,,,,,,,,,,,,,,,,,610359fd24cc412e70e304e1,610369d7e5e98a764026aa2c,2021-07-29_21h55.18.549,Simcolourproject_2stim_asymm_v5,2020.2.10,MacIntel,60,61025ae37ef11b136ea224fe,,,,,,,,,1409,51.83984375,60.37109375,1,0,0,response1disk,,7,5.5546875,-0.43359375,1,0,0,rectangle,5.5546875,-0.43359375,1,0,0,5.5546875,-0.43359375,1,0,0,1,46,206,54,1,,,,,,,,
,,,,,,,,,,,,,FF,,,,,,,,0.6502,,,,,,,,,,,,,,,,,,,,,,610359fd24cc412e70e304e1,610369d7e5e98a764026aa2c,2021-07-29_21h55.18.549,Simcolourproject_2stim_asymm_v5,2020.2.10,MacIntel,60,61025ae37ef11b136ea224fe,,,,,,,,,1851,49.1796875,77.7578125,1,0,0,response1disk,,7,-5.3671875,4.43359375,1,0,0,rectangle,-5.3671875,4.43359375,1,0,0,-5.3671875,4.43359375,1,0,0,1,47,207,95,1,,,,,,,,
,,,,,,,,,,,,,FF,,,,,,,,0.5667,,,,,,,,,,,,,,,,,,,,,,610359fd24cc412e70e304e1,610369d7e5e98a764026aa2c,2021-07-29_21h55.18.549,Simcolourproject_2stim_asymm_v5,2020.2.10,MacIntel,60,61025ae37ef11b136ea224fe,,,,,,,,,2266,51.33984375,89.2109375,1,0,0,response1disk,,7,-6.3125,2.56640625,1,0,0,rectangle,-6.3125,2.56640625,1,0,0,-6.3125,2.56640625,1,0,0,1,48,208,45,1,,,,,,,,
,,,,,,,,,,,,,FF,,,,,,,,1.05,,,,,,,,,,,,,,,,,,,,,,610359fd24cc412e70e304e1,610369d7e5e98a764026aa2c,2021-07-29_21h55.18.549,Simcolourproject_2stim_asymm_v5,2020.2.10,MacIntel,60,61025ae37ef11b136ea224fe,,,,,,,,,3339,76.3125,-56.0625,1,0,0,response3disk,,5,18.06640625,-6.05078125,1,0,0,rectangle,18.06640625,-6.05078125,1,0,0,18.06640625,-6.05078125,1,0,0,1,49,209,7,1,,,,,,,,
,,,,,,,,,,,,,FF,,,,,,,,1.3831,,,,,,,,,,,,,,,,,,,,,,610359fd24cc412e70e304e1,610369d7e5e98a764026aa2c,2021-07-29_21h55.18.549,Simcolourproject_2stim_asymm_v5,2020.2.10,MacIntel,60,61025ae37ef11b136ea224fe,,,,,,,,,3622,52.36328125,-87.61328125,1,0,0,response3disk,,4,3.3359375,-1.39453125,1,0,0,rectangle,3.3359375,-1.39453125,1,0,0,3.3359375,-1.39453125,1,0,0,1,50,210,20,1,,,,,,,,
,,,,,,,,,,,,,FF,,,,,,,,0.7343,,,,,,,,,,,,,,,,,,,,,,610359fd24cc412e70e304e1,610369d7e5e98a764026aa2c,2021-07-29_21h55.18.549,Simcolourproject_2stim_asymm_v5,2020.2.10,MacIntel,60,61025ae37ef11b136ea224fe,,,,,,,,,2212,37.59375,68.98046875,1,0,0,response1disk,,7,5.5078125,1.921875,1,0,0,rectangle,5.5078125,1.921875,1,0,0,5.5078125,1.921875,1,0,0,1,51,211,85,1,,,,,,,,
,,,,,,,,,,,,,FF,,,,,,,,0.5673,,,,,,,,,,,,,,,,,,,,,,610359fd24cc412e70e304e1,610369d7e5e98a764026aa2c,2021-07-29_21h55.18.549,Simcolourproject_2stim_asymm_v5,2020.2.10,MacIntel,60,61025ae37ef11b136ea224fe,,,,,,,,,3617,40.48046875,67.70703125,1,0,0,response1disk,,7,-9.38671875,-7.15234375,1,0,0,rectangle,-9.38671875,-7.15234375,1,0,0,-9.38671875,-7.15234375,1,0,0,1,52,212,153,1,,,,,,,,
,,,,,,,,,,,,,FF,,,,,,,,0.6525,,,,,,,,,,,,,,,,,,,,,,610359fd24cc412e70e304e1,610369d7e5e98a764026aa2c,2021-07-29_21h55.18.549,Simcolourproject_2stim_asymm_v5,2020.2.10,MacIntel,60,61025ae37ef11b136ea224fe,,,,,,,,,1647,47.67578125,68.8671875,1,0,0,response1disk,,7,-12.80078125,2.5859375,1,0,0,rectangle,-12.80078125,2.5859375,1,0,0,-12.80078125,2.5859375,1,0,0,1,53,213,115,1,,,,,,,,
,,,,,,,,,,,,,FF,,,,,,,,0.6342,,,,,,,,,,,,,,,,,,,,,,610359fd24cc412e70e304e1,610369d7e5e98a764026aa2c,2021-07-29_21h55.18.549,Simcolourproject_2stim_asymm_v5,2020.2.10,MacIntel,60,61025ae37ef11b136ea224fe,,,,,,,,,1237,42.21484375,70.109375,1,0,0,response1disk,,7,-2.23828125,9.8515625,1,0,0,rectangle,-92.38671875,41.234375,1,0,0,-9.29296875,-3.98046875,1,0,0,1,54,214,159,1,,response7disk_3,TRUE,1,1,"[219,145,189,304,201,175,138,121,259,98,254,262,11,215,94,310,281,114,7,273]",1.5175,rectangle
,,,,,,,,,,,,,FF,,,,,,,,0.6504,,,,,,,,,,,,,,,,,,,,,,610359fd24cc412e70e304e1,610369d7e5e98a764026aa2c,2021-07-29_21h55.18.549,Simcolourproject_2stim_asymm_v5,2020.2.10,MacIntel,60,61025ae37ef11b136ea224fe,,,,,,,,,763,47.3984375,61.9765625,1,0,0,response1disk,,7,13.28515625,-7.71484375,1,0,0,rectangle,13.28515625,-7.71484375,1,0,0,13.28515625,-7.71484375,1,0,0,1,55,215,99,1,,,,,,,,
,,,,,,,,,,,,,FF,,,,,,,,3.1172,,,,,,,,,,,,,,,,,,,,,,610359fd24cc412e70e304e1,610369d7e5e98a764026aa2c,2021-07-29_21h55.18.549,Simcolourproject_2stim_asymm_v5,2020.2.10,MacIntel,60,61025ae37ef11b136ea224fe,,,,,,,,,113,77.66796875,20.43359375,1,0,0,response1disk,,6,1.7109375,15.94921875,1,0,0,rectangle,1.7109375,15.94921875,1,0,0,1.7109375,15.94921875,1,0,0,1,56,216,75,1,,,,,,,,
,,,,,,,,,,,,,FF,,,,,,,,0.7344,,,,,,,,,,,,,,,,,,,,,,610359fd24cc412e70e304e1,610369d7e5e98a764026aa2c,2021-07-29_21h55.18.549,Simcolourproject_2stim_asymm_v5,2020.2.10,MacIntel,60,61025ae37ef11b136ea224fe,,,,,,,,,1543,70.40234375,47.66015625,1,0,0,response1disk,,6,-6.88671875,-11.890625,1,0,0,rectangle,-6.88671875,-11.890625,1,0,0,-6.88671875,-11.890625,1,0,0,1,57,217,87,1,,,,,,,,
,,,,,,,,,,,,,FF,,,,,,,,0.6961,,,,,,,,,,,,,,,,,,,,,,610359fd24cc412e70e304e1,610369d7e5e98a764026aa2c,2021-07-29_21h55.18.549,Simcolourproject_2stim_asymm_v5,2020.2.10,MacIntel,60,61025ae37ef11b136ea224fe,,,,,,,,,209,63.94921875,87.62109375,1,0,0,response1disk,,7,6.75390625,2.83984375,1,0,0,rectangle,43.8203125,-115.234375,1,0,0,11.88671875,1.05078125,1,0,0,1,58,218,103,1,,response3disk_3,TRUE,4,4,"[219,145,189,304,201,175,138,121,259,98,254,262,11,215,94,310,281,114,7,273]",1.616,rectangle
,,,,,,,,,,,,,FF,,,,,,,,1.0315,,,,,,,,,,,,,,,,,,,,,,610359fd24cc412e70e304e1,610369d7e5e98a764026aa2c,2021-07-29_21h55.18.549,Simcolourproject_2stim_asymm_v5,2020.2.10,MacIntel,60,61025ae37ef11b136ea224fe,,,,,,,,,1377,-80.76171875,-29.609375,1,0,0,response5disk,,2,13.29296875,-10.16015625,1,0,0,rectangle,13.29296875,-10.16015625,1,0,0,13.29296875,-10.16015625,1,0,0,1,59,219,29,1,,,,,,,,
,,,,,,,,,,,,,FF,,,,,,,,1.0334,,,,,,,,,,,,,,,,,,,,,,610359fd24cc412e70e304e1,610369d7e5e98a764026aa2c,2021-07-29_21h55.18.549,Simcolourproject_2stim_asymm_v5,2020.2.10,MacIntel,60,61025ae37ef11b136ea224fe,,,,,,,,,2300,-88.97265625,-53.9375,1,0,0,response5disk,,2,4.60546875,-6.40625,1,0,0,rectangle,4.60546875,-6.40625,1,0,0,4.60546875,-6.40625,1,0,0,1,60,220,14,1,,,,,,,,
,,,,,,,,,,,,,FF,,,,,,,,1.5,,,,,,,,,,,,,,,,,,,,,,610359fd24cc412e70e304e1,610369d7e5e98a764026aa2c,2021-07-29_21h55.18.549,Simcolourproject_2stim_asymm_v5,2020.2.10,MacIntel,60,61025ae37ef11b136ea224fe,,,,,,,,,424,48.984375,-88.578125,1,0,0,response3disk,,4,17.0390625,-0.765625,1,0,0,rectangle,17.0390625,-0.765625,1,0,0,17.0390625,-0.765625,1,0,0,1,61,221,0,1,,,,,,,,
,,,,,,,,,,,,,FF,,,,,,,,0.7313,,,,,,,,,,,,,,,,,,,,,,610359fd24cc412e70e304e1,610369d7e5e98a764026aa2c,2021-07-29_21h55.18.549,Simcolourproject_2stim_asymm_v5,2020.2.10,MacIntel,60,61025ae37ef11b136ea224fe,,,,,,,,,2465,41.71875,76.51953125,1,0,0,response1disk,,7,-7.40234375,-7.96484375,1,0,0,rectangle,-7.40234375,-7.96484375,1,0,0,-7.40234375,-7.96484375,1,0,0,1,62,222,98,1,,,,,,,,
,,,,,,,,,,,,,FF,,,,,,,,0.8507,,,,,,,,,,,,,,,,,,,,,,610359fd24cc412e70e304e1,610369d7e5e98a764026aa2c,2021-07-29_21h55.18.549,Simcolourproject_2stim_asymm_v5,2020.2.10,MacIntel,60,61025ae37ef11b136ea224fe,,,,,,,,,1738,31.85546875,59.43359375,1,0,0,response1disk,,7,-11.07421875,1.171875,1,0,0,rectangle,-11.07421875,1.171875,1,0,0,-11.07421875,1.171875,1,0,0,1,63,223,84,1,,,,,,,,
,,,,,,,,,,,,,FF,,,,,,,,0.5845,,,,,,,,,,,,,,,,,,,,,,610359fd24cc412e70e304e1,610369d7e5e98a764026aa2c,2021-07-29_21h55.18.549,Simcolourproject_2stim_asymm_v5,2020.2.10,MacIntel,60,61025ae37ef11b136ea224fe,,,,,,,,,3495,38.90625,59.4453125,1,0,0,response1disk,,7,3.0859375,5.6796875,1,0,0,rectangle,3.0859375,5.6796875,1,0,0,3.0859375,5.6796875,1,0,0,1,64,224,36,1,,,,,,,,
,,,,,,,,,,,,,FF,,,,,,,,0.8711,,,,,,,,,,,,,,,,,,,,,,610359fd24cc412e70e304e1,610369d7e5e98a764026aa2c,2021-07-29_21h55.18.549,Simcolourproject_2stim_asymm_v5,2020.2.10,MacIntel,60,61025ae37ef11b136ea224fe,,,,,,,,,2163,45.609375,-83.1796875,1,0,0,response3disk,,4,13.515625,2.72265625,1,0,0,rectangle,13.515625,2.72265625,1,0,0,13.515625,2.72265625,1,0,0,1,65,225,30,1,,,,,,,,
,,,,,,,,,,,,,FF,,,,,,,,0.8336,,,,,,,,,,,,,,,,,,,,,,610359fd24cc412e70e304e1,610369d7e5e98a764026aa2c,2021-07-29_21h55.18.549,Simcolourproject_2stim_asymm_v5,2020.2.10,MacIntel,60,61025ae37ef11b136ea224fe,,,,,,,,,2541,-45.17578125,82.66015625,1,0,0,response7disk,,0,-8.43359375,0.265625,1,0,0,rectangle,-8.43359375,0.265625,1,0,0,-8.43359375,0.265625,1,0,0,1,66,226,74,1,,,,,,,,
,,,,,,,,,,,,,FF,,,,,,,,0.9992,,,,,,,,,,,,,,,,,,,,,,610359fd24cc412e70e304e1,610369d7e5e98a764026aa2c,2021-07-29_21h55.18.549,Simcolourproject_2stim_asymm_v5,2020.2.10,MacIntel,60,61025ae37ef11b136ea224fe,,,,,,,,,3918,88.9609375,-50.26171875,1,0,0,response3disk,,5,17.14453125,3.05078125,1,0,0,rectangle,17.14453125,3.05078125,1,0,0,17.14453125,3.05078125,1,0,0,1,67,227,121,1,,,,,,,,
,,,,,,,,,,,,,FF,,,,,,,,1.0175,,,,,,,,,,,,,,,,,,,,,,610359fd24cc412e70e304e1,610369d7e5e98a764026aa2c,2021-07-29_21h55.18.549,Simcolourproject_2stim_asymm_v5,2020.2.10,MacIntel,60,61025ae37ef11b136ea224fe,,,,,,,,,1684,-60.83984375,38.82421875,1,0,0,response7disk,,1,-2.734375,-6.9375,1,0,0,rectangle,-2.734375,-6.9375,1,0,0,-2.734375,-6.9375,1,0,0,1,68,228,23,1,,,,,,,,
,,,,,,,,,,,,,FF,,,,,,,,0.9637,,,,,,,,,,,,,,,,,,,,,,610359fd24cc412e70e304e1,610369d7e5e98a764026aa2c,2021-07-29_21h55.18.549,Simcolourproject_2stim_asymm_v5,2020.2.10,MacIntel,60,61025ae37ef11b136ea224fe,,,,,,,,,3010,41.48046875,-96.1796875,1,0,0,response3disk,,4,-0.41796875,0.16015625,1,0,0,rectangle,-0.41796875,0.16015625,1,0,0,-0.41796875,0.16015625,1,0,0,1,69,229,110,1,,,,,,,,
,,,,,,,,,,,,,FF,,,,,,,,0.9645,,,,,,,,,,,,,,,,,,,,,,610359fd24cc412e70e304e1,610369d7e5e98a764026aa2c,2021-07-29_21h55.18.549,Simcolourproject_2stim_asymm_v5,2020.2.10,MacIntel,60,61025ae37ef11b136ea224fe,,,,,,,,,381,78.796875,16.18359375,1,0,0,response1disk,,6,14.0546875,9.08984375,1,0,0,rectangle,14.0546875,9.08984375,1,0,0,14.0546875,9.08984375,1,0,0,1,70,230,59,1,,,,,,,,
,,,,,,,,,,,,,FF,,,,,,,,1.2306,,,,,,,,,,,,,,,,,,,,,,610359fd24cc412e70e304e1,610369d7e5e98a764026aa2c,2021-07-29_21h55.18.549,Simcolourproject_2stim_asymm_v5,2020.2.10,MacIntel,60,61025ae37ef11b136ea224fe,,,,,,,,,2288,78.9296875,36.33203125,1,0,0,response1disk,,6,-2.98046875,-0.03125,1,0,0,rectangle,-2.98046875,-0.03125,1,0,0,-2.98046875,-0.03125,1,0,0,1,71,231,81,1,,,,,,,,
,,,,,,,,,,,,,FF,,,,,,,,1.4003,,,,,,,,,,,,,,,,,,,,,,610359fd24cc412e70e304e1,610369d7e5e98a764026aa2c,2021-07-29_21h55.18.549,Simcolourproject_2stim_asymm_v5,2020.2.10,MacIntel,60,61025ae37ef11b136ea224fe,,,,,,,,,3712,-68.15625,41.90234375,1,0,0,response7disk,,1,-4.85546875,-2.609375,1,0,0,rectangle,-4.85546875,-2.609375,1,0,0,-4.85546875,-2.609375,1,0,0,1,72,232,2,1,,,,,,,,
,,,,,,,,,,,,,FF,,,,,,,,1.0541,,,,,,,,,,,,,,,,,,,,,,610359fd24cc412e70e304e1,610369d7e5e98a764026aa2c,2021-07-29_21h55.18.549,Simcolourproject_2stim_asymm_v5,2020.2.10,MacIntel,60,61025ae37ef11b136ea224fe,,,,,,,,,305,86.2109375,-49.2890625,1,0,0,response3disk,,5,10.86328125,15.55078125,1,0,0,rectangle,10.86328125,15.55078125,1,0,0,10.86328125,15.55078125,1,0,0,1,73,233,145,1,,,,,,,,
,,,,,,,,,,,,,FF,,,,,,,,0.7353,,,,,,,,,,,,,,,,,,,,,,610359fd24cc412e70e304e1,610369d7e5e98a764026aa2c,2021-07-29_21h55.18.549,Simcolourproject_2stim_asymm_v5,2020.2.10,MacIntel,60,61025ae37ef11b136ea224fe,,,,,,,,,2857,34.8515625,63.4140625,1,0,0,response1disk,,7,-2.6875,11.265625,1,0,0,rectangle,-2.6875,11.265625,1,0,0,-2.6875,11.265625,1,0,0,1,74,234,70,1,,,,,,,,
,,,,,,,,,,,,,FF,,,,,,,,0.7827,,,,,,,,,,,,,,,,,,,,,,610359fd24cc412e70e304e1,610369d7e5e98a764026aa2c,2021-07-29_21h55.18.549,Simcolourproject_2stim_asymm_v5,2020.2.10,MacIntel,60,61025ae37ef11b136ea224fe,,,,,,,,,3928,44.109375,64.3125,1,0,0,response1disk,,7,13.03125,-0.38671875,1,0,0,rectangle,13.03125,-0.38671875,1,0,0,13.03125,-0.38671875,1,0,0,1,75,235,119,1,,,,,,,,
,,,,,,,,,,,,,FF,,,,,,,,1.9188,,,,,,,,,,,,,,,,,,,,,,610359fd24cc412e70e304e1,610369d7e5e98a764026aa2c,2021-07-29_21h55.18.549,Simcolourproject_2stim_asymm_v5,2020.2.10,MacIntel,60,61025ae37ef11b136ea224fe,,,,,,,,,346,100.4804688,26.734375,1,0,0,response1disk,,6,6.04296875,0.50390625,1,0,0,rectangle,6.04296875,0.50390625,1,0,0,6.04296875,0.50390625,1,0,0,1,76,236,155,1,,,,,,,,
,,,,,,,,,,,,,FF,,,,,,,,1.281,,,,,,,,,,,,,,,,,,,,,,610359fd24cc412e70e304e1,610369d7e5e98a764026aa2c,2021-07-29_21h55.18.549,Simcolourproject_2stim_asymm_v5,2020.2.10,MacIntel,60,61025ae37ef11b136ea224fe,,,,,,,,,3675,59.11328125,-108.2421875,1,0,0,response3disk,,4,7.26953125,-1.44140625,1,0,0,rectangle,7.26953125,-1.44140625,1,0,0,7.26953125,-1.44140625,1,0,0,1,77,237,41,1,,,,,,,,
,,,,,,,,,,,,,FF,,,,,,,,0.8026,,,,,,,,,,,,,,,,,,,,,,610359fd24cc412e70e304e1,610369d7e5e98a764026aa2c,2021-07-29_21h55.18.549,Simcolourproject_2stim_asymm_v5,2020.2.10,MacIntel,60,61025ae37ef11b136ea224fe,,,,,,,,,1386,78.55078125,33.60546875,1,0,0,response1disk,,6,19.26171875,0.984375,1,0,0,rectangle,19.26171875,0.984375,1,0,0,19.26171875,0.984375,1,0,0,1,78,238,131,1,,,,,,,,
,,,,,,,,,,,,,FF,,,,,,,,0.7357,,,,,,,,,,,,,,,,,,,,,,610359fd24cc412e70e304e1,610369d7e5e98a764026aa2c,2021-07-29_21h55.18.549,Simcolourproject_2stim_asymm_v5,2020.2.10,MacIntel,60,61025ae37ef11b136ea224fe,,,,,,,,,1193,40.76953125,72.1640625,1,0,0,response1disk,,7,20.7734375,5.5859375,1,0,0,rectangle,20.7734375,5.5859375,1,0,0,20.7734375,5.5859375,1,0,0,1,79,239,140,1,,,,,,,,
,,,,,,,,,,,,,FF,,,,,,,,0.5977,,,,,,,,,,,,,,,,,,,,,,610359fd24cc412e70e304e1,610369d7e5e98a764026aa2c,2021-07-29_21h55.18.549,Simcolourproject_2stim_asymm_v5,2020.2.10,MacIntel,60,61025ae37ef11b136ea224fe,,,,,,,,,327,38.046875,76.546875,1,0,0,response1disk,,7,-5.9453125,-13.1640625,1,0,0,rectangle,-5.9453125,-13.1640625,1,0,0,-5.9453125,-13.1640625,1,0,0,1,80,240,104,1,,,,,,,,
,,,,,,,,,,,,,FF,,,,,,,,0.6874,,,,,,,,,,,,,,,,,,,,,,610359fd24cc412e70e304e1,610369d7e5e98a764026aa2c,2021-07-29_21h55.18.549,Simcolourproject_2stim_asymm_v5,2020.2.10,MacIntel,60,61025ae37ef11b136ea224fe,,,,,,,,,732,89.875,38.5234375,1,0,0,response1disk,,6,0.18359375,-8.77734375,1,0,0,rectangle,0.18359375,-8.77734375,1,0,0,0.18359375,-8.77734375,1,0,0,1,81,241,27,1,,,,,,,,
,,,,,,,,,,,,,FF,,,,,,,,0.9982,,,,,,,,,,,,,,,,,,,,,,610359fd24cc412e70e304e1,610369d7e5e98a764026aa2c,2021-07-29_21h55.18.549,Simcolourproject_2stim_asymm_v5,2020.2.10,MacIntel,60,61025ae37ef11b136ea224fe,,,,,,,,,3937,-76.2890625,-31.328125,1,0,0,response5disk,,2,-11.8125,-1.28515625,1,0,0,rectangle,-11.8125,-1.28515625,1,0,0,-11.8125,-1.28515625,1,0,0,1,82,242,38,1,,,,,,,,
,,,,,,,,,,,,,FF,,,,,,,,0.5185,,,,,,,,,,,,,,,,,,,,,,610359fd24cc412e70e304e1,610369d7e5e98a764026aa2c,2021-07-29_21h55.18.549,Simcolourproject_2stim_asymm_v5,2020.2.10,MacIntel,60,61025ae37ef11b136ea224fe,,,,,,,,,313,33.1640625,74.9765625,1,0,0,response1disk,,7,-6.26171875,-4.96484375,1,0,0,rectangle,-6.26171875,-4.96484375,1,0,0,-6.26171875,-4.96484375,1,0,0,1,83,243,12,1,,,,,,,,
,,,,,,,,,,,,,FF,,,,,,,,1.1978,,,,,,,,,,,,,,,,,,,,,,610359fd24cc412e70e304e1,610369d7e5e98a764026aa2c,2021-07-29_21h55.18.549,Simcolourproject_2stim_asymm_v5,2020.2.10,MacIntel,60,61025ae37ef11b136ea224fe,,,,,,,,,718,-86.234375,-41.3203125,1,0,0,response5disk,,2,-0.6484375,-1.88671875,1,0,0,rectangle,-0.6484375,-1.88671875,1,0,0,-0.6484375,-1.88671875,1,0,0,1,84,244,138,1,,,,,,,,
,,,,,,,,,,,,,FF,,,,,,,,1.2827,,,,,,,,,,,,,,,,,,,,,,610359fd24cc412e70e304e1,610369d7e5e98a764026aa2c,2021-07-29_21h55.18.549,Simcolourproject_2stim_asymm_v5,2020.2.10,MacIntel,60,61025ae37ef11b136ea224fe,,,,,,,,,1274,109.5898438,36.15234375,1,0,0,response1disk,,6,8.23828125,3.33203125,1,0,0,rectangle,8.23828125,3.33203125,1,0,0,8.23828125,3.33203125,1,0,0,1,85,245,149,1,,,,,,,,
,,,,,,,,,,,,,FF,,,,,,,,0.864,,,,,,,,,,,,,,,,,,,,,,610359fd24cc412e70e304e1,610369d7e5e98a764026aa2c,2021-07-29_21h55.18.549,Simcolourproject_2stim_asymm_v5,2020.2.10,MacIntel,60,61025ae37ef11b136ea224fe,,,,,,,,,3091,93.08984375,19.3515625,1,0,0,response1disk,,6,0.66015625,-1.921875,1,0,0,rectangle,0.66015625,-1.921875,1,0,0,0.66015625,-1.921875,1,0,0,1,86,246,67,1,,,,,,,,
,,,,,,,,,,,,,FF,,,,,,,,0.8849,,,,,,,,,,,,,,,,,,,,,,610359fd24cc412e70e304e1,610369d7e5e98a764026aa2c,2021-07-29_21h55.18.549,Simcolourproject_2stim_asymm_v5,2020.2.10,MacIntel,60,61025ae37ef11b136ea224fe,,,,,,,,,1144,97.36328125,39.11328125,1,0,0,response1disk,,6,12.57421875,4.5546875,1,0,0,rectangle,12.57421875,4.5546875,1,0,0,12.57421875,4.5546875,1,0,0,1,87,247,40,1,,,,,,,,
,,,,,,,,,,,,,FF,,,,,,,,0.7485,,,,,,,,,,,,,,,,,,,,,,610359fd24cc412e70e304e1,610369d7e5e98a764026aa2c,2021-07-29_21h55.18.549,Simcolourproject_2stim_asymm_v5,2020.2.10,MacIntel,60,61025ae37ef11b136ea224fe,,,,,,,,,1002,54.2265625,86.828125,1,0,0,response1disk,,7,4.796875,6.984375,1,0,0,rectangle,4.796875,6.984375,1,0,0,4.796875,6.984375,1,0,0,1,88,248,144,1,,,,,,,,
,,,,,,,,,,,,,FF,,,,,,,,0.768,,,,,,,,,,,,,,,,,,,,,,610359fd24cc412e70e304e1,610369d7e5e98a764026aa2c,2021-07-29_21h55.18.549,Simcolourproject_2stim_asymm_v5,2020.2.10,MacIntel,60,61025ae37ef11b136ea224fe,,,,,,,,,2799,63.71484375,91.6484375,1,0,0,response1disk,,7,3.875,6.1484375,1,0,0,rectangle,3.875,6.1484375,1,0,0,3.875,6.1484375,1,0,0,1,89,249,22,1,,,,,,,,
