key_resp.keys,key_resp.rt,key_resp_14.keys,key_resp_14.rt,key_resp_15.keys,key_resp_15.rt,key_resp_17.keys,key_resp_17.rt,key_resp_9.keys,key_resp_9.rt,key_resp_10.keys,key_resp_10.rt,practice_comparison,Ecc,mouse_5.x,mouse_5.y,mouse_5.leftButton,mouse_5.midButton,mouse_5.rightButton,mouse_5.clicked_name,pracsimilarity,response_time,mouse_10.x,mouse_10.y,mouse_10.leftButton,mouse_10.midButton,mouse_10.rightButton,mouse_10.clicked_name,mouse_7.x,mouse_7.y,mouse_7.leftButton,mouse_7.midButton,mouse_7.rightButton,mouse_6.x,mouse_6.y,mouse_6.leftButton,mouse_6.midButton,mouse_6.rightButton,duringprac.thisRepN,duringprac.thisTrialN,duringprac.thisN,duringprac.thisIndex,duringprac.ran,participant,session,date,expName,psychopyVersion,OS,frameRate,study_id,mouse_7.clicked_name,catchpracsimilarity,catch_response_time,catchnumberprac,catchtrialorderprac,mouse_6.clicked_name,key_resp_22.keys,key_resp_22.rt,realcomparison,mouse.x,mouse.y,mouse.leftButton,mouse.midButton,mouse.rightButton,mouse.clicked_name,Colour2,similarity,mouse_2.x,mouse_2.y,mouse_2.leftButton,mouse_2.midButton,mouse_2.rightButton,mouse_2.clicked_name,mouse_3.x,mouse_3.y,mouse_3.leftButton,mouse_3.midButton,mouse_3.rightButton,mouse_11.x,mouse_11.y,mouse_11.leftButton,mouse_11.midButton,mouse_11.rightButton,trials_2.thisRepN,trials_2.thisTrialN,trials_2.thisN,trials_2.thisIndex,trials_2.ran,Colour1,mouse_3.clicked_name,catchornah,catchsimilarity,catchnumber,catchtrialorder,catchRT,mouse_11.clicked_name
space,1.3593,space,29.5613,space,52.2969,space,3.0749,space,2.4609,space,5.1663,86,PF,48.0000205,-76.00001299,1,0,0,response3disk_5,4,9.1317,14.00001949,-4.000010848,1,0,0,rectangle_8,14.00001949,-4.000010848,1,0,0,14.00001949,-4.000010848,1,0,0,0,0,0,2,1,61035da6b080f8c199539329,61036d7d3da8a854e137c028,2021-07-29_21h10.38.097,Simcolourproject_2stim_asymm_v5,2020.2.10,Win32,60,61025ae37ef11b136ea224fe,,,,,,,,,,,,,,,,,,,,,,,,,,,,,,,,,,,,,,,,,,,,,,
,,,,,,,,,,,,72,FF,-55.9999826,-28.00001156,1,0,0,response5disk_5,2,4.8614,3.333393196,-6.666677594,1,0,0,rectangle_8,60.00002086,71.33330439,1,0,0,5.333393256,-3.333344162,1,0,0,0,1,1,0,1,61035da6b080f8c199539329,61036d7d3da8a854e137c028,2021-07-29_21h10.38.097,Simcolourproject_2stim_asymm_v5,2020.2.10,Win32,60,61025ae37ef11b136ea224fe,response1disk_7,7,4.5257,7,"[2,5]",rectangle_4,,,,,,,,,,,,,,,,,,,,,,,,,,,,,,,,,,,,,,,,
,,,,,,,,,,,,130,PF,-71.99998307,35.33330331,1,0,0,response7disk_5,1,6.807,-11.99998128,5.333322763,1,0,0,rectangle_8,-11.99998128,5.333322763,1,0,0,-11.99998128,5.333322763,1,0,0,0,2,2,4,1,61035da6b080f8c199539329,61036d7d3da8a854e137c028,2021-07-29_21h10.38.097,Simcolourproject_2stim_asymm_v5,2020.2.10,Win32,60,61025ae37ef11b136ea224fe,,,,,,,,,,,,,,,,,,,,,,,,,,,,,,,,,,,,,,,,,,,,,,
,,,,,,,,,,,,46,FF,52.00002062,85.99999183,1,0,0,response1disk_5,7,7.2542,2.000019133,6.666656137,1,0,0,rectangle_8,2.000019133,6.666656137,1,0,0,2.000019133,6.666656137,1,0,0,0,3,3,5,1,61035da6b080f8c199539329,61036d7d3da8a854e137c028,2021-07-29_21h10.38.097,Simcolourproject_2stim_asymm_v5,2020.2.10,Win32,60,61025ae37ef11b136ea224fe,,,,,,,,,,,,,,,,,,,,,,,,,,,,,,,,,,,,,,,,,,,,,,
,,,,,,,,,,,,90,FF,-33.33331525,-58.00001246,1,0,0,response5disk_5,3,2.8828,8.666685998,-1.333344102,1,0,0,rectangle_8,66.66668773,96.66665882,1,0,0,4.000019193,11.33332294,1,0,0,0,4,4,3,1,61035da6b080f8c199539329,61036d7d3da8a854e137c028,2021-07-29_21h10.38.097,Simcolourproject_2stim_asymm_v5,2020.2.10,Win32,60,61025ae37ef11b136ea224fe,response1disk_7,7,5.0674,7,"[2,5]",rectangle_4,,,,,,,,,,,,,,,,,,,,,,,,,,,,,,,,,,,,,,,,
,,,,,,,,,,,,134,PF,38.66668689,-78.66667974,1,0,0,response3disk_5,4,5.0085,5.333393256,2.666656017,1,0,0,rectangle_8,5.333393256,2.666656017,1,0,0,5.333393256,2.666656017,1,0,0,0,5,5,1,1,61035da6b080f8c199539329,61036d7d3da8a854e137c028,2021-07-29_21h10.38.097,Simcolourproject_2stim_asymm_v5,2020.2.10,Win32,60,61025ae37ef11b136ea224fe,,,,,,,,,,,,,,,,,,,,,,,,,,,,,,,,,,,,,,,,,,,,,,
,,,,,,,,,,,,8,PF,103.3333555,37.33330337,1,0,0,response1disk_5,6,6.3544,-11.3333146,9.333322883,1,0,0,rectangle_8,-11.3333146,9.333322883,1,0,0,-11.3333146,9.333322883,1,0,0,0,6,6,6,1,61035da6b080f8c199539329,61036d7d3da8a854e137c028,2021-07-29_21h10.38.097,Simcolourproject_2stim_asymm_v5,2020.2.10,Win32,60,61025ae37ef11b136ea224fe,,,,,,,,,,,,,,,,,,,,,,,,,,,,,,,,,,,,,,,,,,,,,,
,,,,,,,,,,,,,FF,,,,,,,,7.9464,,,,,,,,,,,,,,,,,,,,,,61035da6b080f8c199539329,61036d7d3da8a854e137c028,2021-07-29_21h10.38.097,Simcolourproject_2stim_asymm_v5,2020.2.10,Win32,60,61025ae37ef11b136ea224fe,,,,,,,space,5.7255,1441,-23.33331496,-86.66667998,1,0,0,response5disk,,3,-9.333314538,-5.333344221,1,0,0,rectangle,-9.333314538,-5.333344221,1,0,0,-9.333314538,-5.333344221,1,0,0,0,0,0,147,1,,,,,,,,
,,,,,,,,,,,,,FF,,,,,,,,6.0561,,,,,,,,,,,,,,,,,,,,,,61035da6b080f8c199539329,61036d7d3da8a854e137c028,2021-07-29_21h10.38.097,Simcolourproject_2stim_asymm_v5,2020.2.10,Win32,60,61025ae37ef11b136ea224fe,,,,,,,,,2969,61.33335423,29.99999017,1,0,0,response1disk,,6,2.66668582,-7.333344281,1,0,0,rectangle,2.66668582,-7.333344281,1,0,0,2.66668582,-7.333344281,1,0,0,0,1,1,116,1,,,,,,,,
,,,,,,,,,,,,,FF,,,,,,,,4.5692,,,,,,,,,,,,,,,,,,,,,,61035da6b080f8c199539329,61036d7d3da8a854e137c028,2021-07-29_21h10.38.097,Simcolourproject_2stim_asymm_v5,2020.2.10,Win32,60,61025ae37ef11b136ea224fe,,,,,,,,,1639,-94.66660972,41.99999052,1,0,0,response7disk,,1,12.00001943,2.666656017,1,0,0,rectangle,12.00001943,2.666656017,1,0,0,12.00001943,2.666656017,1,0,0,0,2,2,122,1,,,,,,,,
,,,,,,,,,,,,,FF,,,,,,,,4.5838,,,,,,,,,,,,,,,,,,,,,,61035da6b080f8c199539329,61036d7d3da8a854e137c028,2021-07-29_21h10.38.097,Simcolourproject_2stim_asymm_v5,2020.2.10,Win32,60,61025ae37ef11b136ea224fe,,,,,,,,,4073,-25.33331501,-70.00001281,1,0,0,response5disk,,3,10.00001937,-2.000010788,1,0,0,rectangle,10.00001937,-2.000010788,1,0,0,10.00001937,-2.000010788,1,0,0,0,3,3,27,1,,,,,,,,
,,,,,,,,,,,,,FF,,,,,,,,6.5357,,,,,,,,,,,,,,,,,,,,,,61035da6b080f8c199539329,61036d7d3da8a854e137c028,2021-07-29_21h10.38.097,Simcolourproject_2stim_asymm_v5,2020.2.10,Win32,60,61025ae37ef11b136ea224fe,,,,,,,,,2887,76.66668802,-44.66667873,1,0,0,response3disk,,5,13.33339349,-10.66667771,1,0,0,rectangle,13.33339349,-10.66667771,1,0,0,13.33339349,-10.66667771,1,0,0,0,4,4,89,1,,,,,,,,
,,,,,,,,,,,,,FF,,,,,,,,12.5691,,,,,,,,,,,,,,,,,,,,,,61035da6b080f8c199539329,61036d7d3da8a854e137c028,2021-07-29_21h10.38.097,Simcolourproject_2stim_asymm_v5,2020.2.10,Win32,60,61025ae37ef11b136ea224fe,,,,,,,,,119,29.33339397,-72.66667956,1,0,0,response3disk,,4,13.33339349,-1.07288E-05,1,0,0,rectangle,13.33339349,-1.07288E-05,1,0,0,13.33339349,-1.07288E-05,1,0,0,0,5,5,1,1,,,,,,,,
,,,,,,,,,,,,,FF,,,,,,,,3.1224,,,,,,,,,,,,,,,,,,,,,,61035da6b080f8c199539329,61036d7d3da8a854e137c028,2021-07-29_21h10.38.097,Simcolourproject_2stim_asymm_v5,2020.2.10,Win32,60,61025ae37ef11b136ea224fe,,,,,,,,,531,-43.99998224,-65.33334601,1,0,0,response5disk,,3,8.000019312,2.666656017,1,0,0,rectangle,8.000019312,2.666656017,1,0,0,8.000019312,2.666656017,1,0,0,0,6,6,150,1,,,,,,,,
,,,,,,,,,,,,,FF,,,,,,,,3.7188,,,,,,,,,,,,,,,,,,,,,,61035da6b080f8c199539329,61036d7d3da8a854e137c028,2021-07-29_21h10.38.097,Simcolourproject_2stim_asymm_v5,2020.2.10,Win32,60,61025ae37ef11b136ea224fe,,,,,,,,,1361,106.6666889,69.99999136,1,0,0,response1disk,,6,6.666685939,1.333322644,1,0,0,rectangle,6.666685939,1.333322644,1,0,0,6.666685939,1.333322644,1,0,0,0,7,7,113,1,,,,,,,,
,,,,,,,,,,,,,FF,,,,,,,,2.2193,,,,,,,,,,,,,,,,,,,,,,61035da6b080f8c199539329,61036d7d3da8a854e137c028,2021-07-29_21h10.38.097,Simcolourproject_2stim_asymm_v5,2020.2.10,Win32,60,61025ae37ef11b136ea224fe,,,,,,,,,1919,-39.99998212,-58.00001246,1,0,0,response5disk,,3,-5.999981105,5.333322763,1,0,0,rectangle,-5.999981105,5.333322763,1,0,0,-5.999981105,5.333322763,1,0,0,0,8,8,137,1,,,,,,,,
,,,,,,,,,,,,,FF,,,,,,,,5.6174,,,,,,,,,,,,,,,,,,,,,,61035da6b080f8c199539329,61036d7d3da8a854e137c028,2021-07-29_21h10.38.097,Simcolourproject_2stim_asymm_v5,2020.2.10,Win32,60,61025ae37ef11b136ea224fe,,,,,,,,,256,76.00002134,43.99999058,1,0,0,response1disk,,6,1.333393137,-7.333344281,1,0,0,rectangle,1.333393137,-7.333344281,1,0,0,1.333393137,-7.333344281,1,0,0,0,9,9,71,1,,,,,,,,
,,,,,,,,,,,,,FF,,,,,,,,5.3171,,,,,,,,,,,,,,,,,,,,,,61035da6b080f8c199539329,61036d7d3da8a854e137c028,2021-07-29_21h10.38.097,Simcolourproject_2stim_asymm_v5,2020.2.10,Win32,60,61025ae37ef11b136ea224fe,,,,,,,,,1222,38.66668689,-76.00001299,1,0,0,response3disk,,4,16.66668624,-9.33334434,1,0,0,rectangle,16.66668624,-9.33334434,1,0,0,16.66668624,-9.33334434,1,0,0,0,10,10,17,1,,,,,,,,
,,,,,,,,,,,,,FF,,,,,,,,2.584,,,,,,,,,,,,,,,,,,,,,,61035da6b080f8c199539329,61036d7d3da8a854e137c028,2021-07-29_21h10.38.097,Simcolourproject_2stim_asymm_v5,2020.2.10,Win32,60,61025ae37ef11b136ea224fe,,,,,,,,,3035,61.33335423,-29.33334494,1,0,0,response3disk,,5,27.33339391,-4.666677535,1,0,0,rectangle,27.33339391,-4.666677535,1,0,0,27.33339391,-4.666677535,1,0,0,0,11,11,63,1,,,,,,,,
,,,,,,,,,,,,,FF,,,,,,,,5.5335,,,,,,,,,,,,,,,,,,,,,,61035da6b080f8c199539329,61036d7d3da8a854e137c028,2021-07-29_21h10.38.097,Simcolourproject_2stim_asymm_v5,2020.2.10,Win32,60,61025ae37ef11b136ea224fe,,,,,,,,,1779,70.66668785,-44.00001204,1,0,0,response3disk,,5,4.000019193,6.666656137,1,0,0,rectangle,4.000019193,6.666656137,1,0,0,4.000019193,6.666656137,1,0,0,0,12,12,110,1,,,,,,,,
,,,,,,,,,,,,,FF,,,,,,,,5.3684,,,,,,,,,,,,,,,,,,,,,,61035da6b080f8c199539329,61036d7d3da8a854e137c028,2021-07-29_21h10.38.097,Simcolourproject_2stim_asymm_v5,2020.2.10,Win32,60,61025ae37ef11b136ea224fe,,,,,,,,,672,-28.66660776,-67.33334607,1,0,0,response5disk,,3,-10.66660722,-2.000010788,1,0,0,rectangle,-10.66660722,-2.000010788,1,0,0,-10.66660722,-2.000010788,1,0,0,0,13,13,11,1,,,,,,,,
,,,,,,,,,,,,,FF,,,,,,,,2.9002,,,,,,,,,,,,,,,,,,,,,,61035da6b080f8c199539329,61036d7d3da8a854e137c028,2021-07-29_21h10.38.097,Simcolourproject_2stim_asymm_v5,2020.2.10,Win32,60,61025ae37ef11b136ea224fe,,,,,,,,,4332,86.66668832,39.33330343,1,0,0,response1disk,,6,4.000019193,-4.000010848,1,0,0,rectangle,4.000019193,-4.000010848,1,0,0,4.000019193,-4.000010848,1,0,0,0,14,14,40,1,,,,,,,,
,,,,,,,,,,,,,FF,,,,,,,,2.4502,,,,,,,,,,,,,,,,,,,,,,61035da6b080f8c199539329,61036d7d3da8a854e137c028,2021-07-29_21h10.38.097,Simcolourproject_2stim_asymm_v5,2020.2.10,Win32,60,61025ae37ef11b136ea224fe,,,,,,,,,1023,36.00002015,-65.33334601,1,0,0,response3disk,,4,26.00001985,-6.666677594,1,0,0,rectangle,26.00001985,-6.666677594,1,0,0,26.00001985,-6.666677594,1,0,0,0,15,15,44,1,,,,,,,,
,,,,,,,,,,,,,FF,,,,,,,,3.2525,,,,,,,,,,,,,,,,,,,,,,61035da6b080f8c199539329,61036d7d3da8a854e137c028,2021-07-29_21h10.38.097,Simcolourproject_2stim_asymm_v5,2020.2.10,Win32,60,61025ae37ef11b136ea224fe,,,,,,,,,4203,78.0000214,-49.33334553,1,0,0,response3disk,,5,14.66668618,-2.000010788,1,0,0,rectangle,14.66668618,-2.000010788,1,0,0,14.66668618,-2.000010788,1,0,0,0,16,16,33,1,,,,,,,,
,,,,,,,,,,,,,FF,,,,,,,,4.8175,,,,,,,,,,,,,,,,,,,,,,61035da6b080f8c199539329,61036d7d3da8a854e137c028,2021-07-29_21h10.38.097,Simcolourproject_2stim_asymm_v5,2020.2.10,Win32,60,61025ae37ef11b136ea224fe,,,,,,,,,3979,72.66668791,-35.33334512,1,0,0,response3disk,,5,-16.6666074,-3.333344162,1,0,0,rectangle,-16.6666074,-3.333344162,1,0,0,-16.6666074,-3.333344162,1,0,0,0,17,17,142,1,,,,,,,,
,,,,,,,,,,,,,FF,,,,,,,,1.4201,,,,,,,,,,,,,,,,,,,,,,61035da6b080f8c199539329,61036d7d3da8a854e137c028,2021-07-29_21h10.38.097,Simcolourproject_2stim_asymm_v5,2020.2.10,Win32,60,61025ae37ef11b136ea224fe,,,,,,,,,802,29.33339397,-86.00001329,1,0,0,response3disk,,4,18.6666863,-4.666677535,1,0,0,rectangle,18.6666863,-4.666677535,1,0,0,18.6666863,-4.666677535,1,0,0,0,18,18,74,1,,,,,,,,
,,,,,,,,,,,,,FF,,,,,,,,3.5671,,,,,,,,,,,,,,,,,,,,,,61035da6b080f8c199539329,61036d7d3da8a854e137c028,2021-07-29_21h10.38.097,Simcolourproject_2stim_asymm_v5,2020.2.10,Win32,60,61025ae37ef11b136ea224fe,,,,,,,,,4238,32.66668671,-82.66667986,1,0,0,response3disk,,4,24.66668648,-0.666677415,1,0,0,rectangle,24.66668648,-0.666677415,1,0,0,24.66668648,-0.666677415,1,0,0,0,19,19,20,1,,,,,,,,
,,,,,,,,,,,,,FF,,,,,,,,4.9843,,,,,,,,,,,,,,,,,,,,,,61035da6b080f8c199539329,61036d7d3da8a854e137c028,2021-07-29_21h10.38.097,Simcolourproject_2stim_asymm_v5,2020.2.10,Win32,60,61025ae37ef11b136ea224fe,,,,,,,,,249,58.0000208,-66.0000127,1,0,0,response3disk,,4,1.9735E-05,5.99998945,1,0,0,rectangle,1.9735E-05,5.99998945,1,0,0,1.9735E-05,5.99998945,1,0,0,0,20,20,46,1,,,,,,,,
,,,,,,,,,,,,,FF,,,,,,,,4.0677,,,,,,,,,,,,,,,,,,,,,,61035da6b080f8c199539329,61036d7d3da8a854e137c028,2021-07-29_21h10.38.097,Simcolourproject_2stim_asymm_v5,2020.2.10,Win32,60,61025ae37ef11b136ea224fe,,,,,,,,,3156,73.33335459,-27.33334488,1,0,0,response3disk,,5,10.66668606,-4.000010848,1,0,0,rectangle,10.66668606,-4.000010848,1,0,0,10.66668606,-4.000010848,1,0,0,0,21,21,153,1,,,,,,,,
,,,,,,,,,,,,,FF,,,,,,,,1.7022,,,,,,,,,,,,,,,,,,,,,,61035da6b080f8c199539329,61036d7d3da8a854e137c028,2021-07-29_21h10.38.097,Simcolourproject_2stim_asymm_v5,2020.2.10,Win32,60,61025ae37ef11b136ea224fe,,,,,,,,,839,40.66668695,-78.66667974,1,0,0,response3disk,,4,18.00001961,-8.000010967,1,0,0,rectangle,18.00001961,-8.000010967,1,0,0,18.00001961,-8.000010967,1,0,0,0,22,22,49,1,,,,,,,,
,,,,,,,,,,,,,FF,,,,,,,,1.2348,,,,,,,,,,,,,,,,,,,,,,61035da6b080f8c199539329,61036d7d3da8a854e137c028,2021-07-29_21h10.38.097,Simcolourproject_2stim_asymm_v5,2020.2.10,Win32,60,61025ae37ef11b136ea224fe,,,,,,,,,1172,-81.99998337,-30.66667831,1,0,0,response5disk,,2,10.00001937,-8.000010967,1,0,0,rectangle,10.00001937,-8.000010967,1,0,0,10.00001937,-8.000010967,1,0,0,0,23,23,126,1,,,,,,,,
,,,,,,,,,,,,,FF,,,,,,,,1.6002,,,,,,,,,,,,,,,,,,,,,,61035da6b080f8c199539329,61036d7d3da8a854e137c028,2021-07-29_21h10.38.097,Simcolourproject_2stim_asymm_v5,2020.2.10,Win32,60,61025ae37ef11b136ea224fe,,,,,,,,,3051,-31.33331519,-68.66667944,1,0,0,response5disk,,3,-0.666606923,-4.000010848,1,0,0,rectangle,-0.666606923,-4.000010848,1,0,0,-0.666606923,-4.000010848,1,0,0,0,24,24,52,1,,,,,,,,
,,,,,,,,,,,,,FF,,,,,,,,3.1174,,,,,,,,,,,,,,,,,,,,,,61035da6b080f8c199539329,61036d7d3da8a854e137c028,2021-07-29_21h10.38.097,Simcolourproject_2stim_asymm_v5,2020.2.10,Win32,60,61025ae37ef11b136ea224fe,,,,,,,,,1285,41.33339433,-59.33334583,1,0,0,response3disk,,4,18.00001961,-2.666677475,1,0,0,rectangle,18.00001961,-2.666677475,1,0,0,18.00001961,-2.666677475,1,0,0,0,25,25,82,1,,,,,,,,
,,,,,,,,,,,,,FF,,,,,,,,3.6388,,,,,,,,,,,,,,,,,,,,,,61035da6b080f8c199539329,61036d7d3da8a854e137c028,2021-07-29_21h10.38.097,Simcolourproject_2stim_asymm_v5,2020.2.10,Win32,60,61025ae37ef11b136ea224fe,,,,,,,,,2687,34.00002009,-72.00001287,1,0,0,response3disk,,4,14.66668618,-10.66667771,1,0,0,rectangle,14.66668618,-10.66667771,1,0,0,14.66668618,-10.66667771,1,0,0,0,26,26,93,1,,,,,,,,
,,,,,,,,,,,,,FF,,,,,,,,6.7625,,,,,,,,,,,,,,,,,,,,,,61035da6b080f8c199539329,61036d7d3da8a854e137c028,2021-07-29_21h10.38.097,Simcolourproject_2stim_asymm_v5,2020.2.10,Win32,60,61025ae37ef11b136ea224fe,,,,,,,,,526,81.33335483,25.33330301,1,0,0,response1disk,,6,-11.99998128,-7.333344281,1,0,0,rectangle,-11.99998128,-7.333344281,1,0,0,-11.99998128,-7.333344281,1,0,0,0,27,27,38,1,,,,,,,,
,,,,,,,,,,,,,FF,,,,,,,,2.8238,,,,,,,,,,,,,,,,,,,,,,61035da6b080f8c199539329,61036d7d3da8a854e137c028,2021-07-29_21h10.38.097,Simcolourproject_2stim_asymm_v5,2020.2.10,Win32,60,61025ae37ef11b136ea224fe,,,,,,,,,2675,56.66668743,79.33330462,1,0,0,response1disk,,7,10.66668606,3.333322704,1,0,0,rectangle,10.66668606,3.333322704,1,0,0,10.66668606,3.333322704,1,0,0,0,28,28,145,1,,,,,,,,
,,,,,,,,,,,,,FF,,,,,,,,1.6008,,,,,,,,,,,,,,,,,,,,,,61035da6b080f8c199539329,61036d7d3da8a854e137c028,2021-07-29_21h10.38.097,Simcolourproject_2stim_asymm_v5,2020.2.10,Win32,60,61025ae37ef11b136ea224fe,,,,,,,,,2490,-65.33331621,39.33330343,1,0,0,response7disk,,1,-6.666607102,3.99998939,1,0,0,rectangle,-6.666607102,3.99998939,1,0,0,-6.666607102,3.99998939,1,0,0,0,29,29,16,1,,,,,,,,
,,,,,,,,,,,,,FF,,,,,,,,1.7841,,,,,,,,,,,,,,,,,,,,,,61035da6b080f8c199539329,61036d7d3da8a854e137c028,2021-07-29_21h10.38.097,Simcolourproject_2stim_asymm_v5,2020.2.10,Win32,60,61025ae37ef11b136ea224fe,,,,,,,,,2883,-76.66660919,-26.66667819,1,0,0,response5disk,,2,-17.33331478,13.333323,1,0,0,rectangle,-17.33331478,13.333323,1,0,0,-17.33331478,13.333323,1,0,0,0,30,30,10,1,,,,,,,,
,,,,,,,,,,,,,FF,,,,,,,,2.519,,,,,,,,,,,,,,,,,,,,,,61035da6b080f8c199539329,61036d7d3da8a854e137c028,2021-07-29_21h10.38.097,Simcolourproject_2stim_asymm_v5,2020.2.10,Win32,60,61025ae37ef11b136ea224fe,,,,,,,,,3975,88.0000217,-32.66667837,1,0,0,response3disk,,5,-2.666606983,-0.666677415,1,0,0,rectangle,-2.666606983,-0.666677415,1,0,0,-2.666606983,-0.666677415,1,0,0,0,31,31,96,1,,,,,,,,
,,,,,,,,,,,,,FF,,,,,,,,4.0888,,,,,,,,,,,,,,,,,,,,,,61035da6b080f8c199539329,61036d7d3da8a854e137c028,2021-07-29_21h10.38.097,Simcolourproject_2stim_asymm_v5,2020.2.10,Win32,60,61025ae37ef11b136ea224fe,,,,,,,,,3798,42.66668701,-76.66667968,1,0,0,response3disk,,4,20.00001967,-7.333344281,1,0,0,rectangle,20.00001967,-7.333344281,1,0,0,20.00001967,-7.333344281,1,0,0,0,32,32,51,1,,,,,,,,
,,,,,,,,,,,,,FF,,,,,,,,3.6009,,,,,,,,,,,,,,,,,,,,,,61035da6b080f8c199539329,61036d7d3da8a854e137c028,2021-07-29_21h10.38.097,Simcolourproject_2stim_asymm_v5,2020.2.10,Win32,60,61025ae37ef11b136ea224fe,,,,,,,,,2588,86.00002164,-57.33334577,1,0,0,response3disk,,5,13.33339349,-8.666677654,1,0,0,rectangle,13.33339349,-8.666677654,1,0,0,13.33339349,-8.666677654,1,0,0,0,33,33,144,1,,,,,,,,
,,,,,,,,,,,,,FF,,,,,,,,2.0955,,,,,,,,,,,,,,,,,,,,,,61035da6b080f8c199539329,61036d7d3da8a854e137c028,2021-07-29_21h10.38.097,Simcolourproject_2stim_asymm_v5,2020.2.10,Win32,60,61025ae37ef11b136ea224fe,,,,,,,,,1509,-65.99998289,-43.33334535,1,0,0,response5disk,,2,18.00001961,1.999989331,1,0,0,rectangle,18.00001961,1.999989331,1,0,0,18.00001961,1.999989331,1,0,0,0,34,34,36,1,,,,,,,,
,,,,,,,,,,,,,FF,,,,,,,,1.8005,,,,,,,,,,,,,,,,,,,,,,61035da6b080f8c199539329,61036d7d3da8a854e137c028,2021-07-29_21h10.38.097,Simcolourproject_2stim_asymm_v5,2020.2.10,Win32,60,61025ae37ef11b136ea224fe,,,,,,,,,1891,29.33339397,-55.33334571,1,0,0,response3disk,,4,8.000019312,11.99998963,1,0,0,rectangle,8.000019312,11.99998963,1,0,0,8.000019312,11.99998963,1,0,0,0,35,35,85,1,,,,,,,,
,,,,,,,,,,,,,FF,,,,,,,,1.6155,,,,,,,,,,,,,,,,,,,,,,61035da6b080f8c199539329,61036d7d3da8a854e137c028,2021-07-29_21h10.38.097,Simcolourproject_2stim_asymm_v5,2020.2.10,Win32,60,61025ae37ef11b136ea224fe,,,,,,,,,1560,41.33339433,60.66665775,1,0,0,response1disk,,7,13.33339349,1.999989331,1,0,0,rectangle,13.33339349,1.999989331,1,0,0,13.33339349,1.999989331,1,0,0,0,36,36,120,1,,,,,,,,
,,,,,,,,,,,,,FF,,,,,,,,3.7735,,,,,,,,,,,,,,,,,,,,,,61035da6b080f8c199539329,61036d7d3da8a854e137c028,2021-07-29_21h10.38.097,Simcolourproject_2stim_asymm_v5,2020.2.10,Win32,60,61025ae37ef11b136ea224fe,,,,,,,,,3555,52.66668731,79.33330462,1,0,0,response1disk,,7,16.00001955,5.333322763,1,0,0,rectangle,16.00001955,5.333322763,1,0,0,16.00001955,5.333322763,1,0,0,0,37,37,80,1,,,,,,,,
,,,,,,,,,,,,,FF,,,,,,,,2.6588,,,,,,,,,,,,,,,,,,,,,,61035da6b080f8c199539329,61036d7d3da8a854e137c028,2021-07-29_21h10.38.097,Simcolourproject_2stim_asymm_v5,2020.2.10,Win32,60,61025ae37ef11b136ea224fe,,,,,,,,,288,92.00002182,-23.33334476,1,0,0,response3disk,,5,21.33339373,5.333322763,1,0,0,rectangle,21.33339373,5.333322763,1,0,0,21.33339373,5.333322763,1,0,0,0,38,38,56,1,,,,,,,,
,,,,,,,,,,,,,FF,,,,,,,,3.5512,,,,,,,,,,,,,,,,,,,,,,61035da6b080f8c199539329,61036d7d3da8a854e137c028,2021-07-29_21h10.38.097,Simcolourproject_2stim_asymm_v5,2020.2.10,Win32,60,61025ae37ef11b136ea224fe,,,,,,,,,3915,23.33339379,-77.33334637,1,0,0,response3disk,,4,22.66668642,7.99998951,1,0,0,rectangle,22.66668642,7.99998951,1,0,0,22.66668642,7.99998951,1,0,0,0,39,39,67,1,,,,,,,,
,,,,,,,,,,,,,FF,,,,,,,,1.9329,,,,,,,,,,,,,,,,,,,,,,61035da6b080f8c199539329,61036d7d3da8a854e137c028,2021-07-29_21h10.38.097,Simcolourproject_2stim_asymm_v5,2020.2.10,Win32,60,61025ae37ef11b136ea224fe,,,,,,,,,4194,99.33335537,26.66665673,1,0,0,response1disk,,6,7.333393315,-5.333344221,1,0,0,rectangle,7.333393315,-5.333344221,1,0,0,7.333393315,-5.333344221,1,0,0,0,40,40,60,1,,,,,,,,
,,,,,,,,,,,,,FF,,,,,,,,1.418,,,,,,,,,,,,,,,,,,,,,,61035da6b080f8c199539329,61036d7d3da8a854e137c028,2021-07-29_21h10.38.097,Simcolourproject_2stim_asymm_v5,2020.2.10,Win32,60,61025ae37ef11b136ea224fe,,,,,,,,,745,74.00002128,-37.33334517,1,0,0,response3disk,,5,13.33339349,-2.000010788,1,0,0,rectangle,13.33339349,-2.000010788,1,0,0,13.33339349,-2.000010788,1,0,0,0,41,41,32,1,,,,,,,,
,,,,,,,,,,,,,FF,,,,,,,,6.5636,,,,,,,,,,,,,,,,,,,,,,61035da6b080f8c199539329,61036d7d3da8a854e137c028,2021-07-29_21h10.38.097,Simcolourproject_2stim_asymm_v5,2020.2.10,Win32,60,61025ae37ef11b136ea224fe,,,,,,,,,2326,47.33335382,-80.6666798,1,0,0,response3disk,,4,2.000019133,-5.333344221,1,0,0,rectangle,2.000019133,-5.333344221,1,0,0,2.000019133,-5.333344221,1,0,0,0,42,42,152,1,,,,,,,,
,,,,,,,,,,,,,FF,,,,,,,,3.7187,,,,,,,,,,,,,,,,,,,,,,61035da6b080f8c199539329,61036d7d3da8a854e137c028,2021-07-29_21h10.38.097,Simcolourproject_2stim_asymm_v5,2020.2.10,Win32,60,61025ae37ef11b136ea224fe,,,,,,,,,3746,-25.9999817,-56.66667908,1,0,0,response5disk,,3,14.66668618,7.333322823,1,0,0,rectangle,96.66668862,43.99999058,1,0,0,3.333393196,3.99998939,1,0,0,0,43,43,124,1,,response1disk_3,TRUE,6,6,"[196,152,232,44,104,303,208,300,274,312,264,288,162,201,105,56,65,132,91,297]",3.1998,rectangle
,,,,,,,,,,,,,FF,,,,,,,,5.0017,,,,,,,,,,,,,,,,,,,,,,61035da6b080f8c199539329,61036d7d3da8a854e137c028,2021-07-29_21h10.38.097,Simcolourproject_2stim_asymm_v5,2020.2.10,Win32,60,61025ae37ef11b136ea224fe,,,,,,,,,239,37.33339421,-93.33334684,1,0,0,response3disk,,4,1.333393137,-6.000010908,1,0,0,rectangle,1.333393137,-6.000010908,1,0,0,1.333393137,-6.000010908,1,0,0,0,44,44,83,1,,,,,,,,
,,,,,,,,,,,,,FF,,,,,,,,1.3166,,,,,,,,,,,,,,,,,,,,,,61035da6b080f8c199539329,61036d7d3da8a854e137c028,2021-07-29_21h10.38.097,Simcolourproject_2stim_asymm_v5,2020.2.10,Win32,60,61025ae37ef11b136ea224fe,,,,,,,,,3149,30.00001997,55.99999094,1,0,0,response1disk,,7,7.333393315,-2.000010788,1,0,0,rectangle,7.333393315,-2.000010788,1,0,0,7.333393315,-2.000010788,1,0,0,0,45,45,155,1,,,,,,,,
,,,,,,,,,,,,,FF,,,,,,,,5.4307,,,,,,,,,,,,,,,,,,,,,,61035da6b080f8c199539329,61036d7d3da8a854e137c028,2021-07-29_21h10.38.097,Simcolourproject_2stim_asymm_v5,2020.2.10,Win32,60,61025ae37ef11b136ea224fe,,,,,,,,,1709,40.00002027,-85.33334661,1,0,0,response3disk,,4,16.66668624,-0.666677415,1,0,0,rectangle,16.66668624,-0.666677415,1,0,0,16.66668624,-0.666677415,1,0,0,0,46,46,2,1,,,,,,,,
,,,,,,,,,,,,,FF,,,,,,,,2.6048,,,,,,,,,,,,,,,,,,,,,,61035da6b080f8c199539329,61036d7d3da8a854e137c028,2021-07-29_21h10.38.097,Simcolourproject_2stim_asymm_v5,2020.2.10,Win32,60,61025ae37ef11b136ea224fe,,,,,,,,,4297,50.66668725,27.33330307,1,0,0,response1disk,,6,16.66668624,-4.000010848,1,0,0,rectangle,16.66668624,-4.000010848,1,0,0,16.66668624,-4.000010848,1,0,0,0,47,47,146,1,,,,,,,,
,,,,,,,,,,,,,FF,,,,,,,,3.4008,,,,,,,,,,,,,,,,,,,,,,61035da6b080f8c199539329,61036d7d3da8a854e137c028,2021-07-29_21h10.38.097,Simcolourproject_2stim_asymm_v5,2020.2.10,Win32,60,61025ae37ef11b136ea224fe,,,,,,,,,2766,-93.33331704,-33.33334506,1,0,0,response5disk,,2,-3.999981046,3.333322704,1,0,0,rectangle,-3.999981046,3.333322704,1,0,0,-3.999981046,3.333322704,1,0,0,0,48,48,75,1,,,,,,,,
,,,,,,,,,,,,,FF,,,,,,,,1.4553,,,,,,,,,,,,,,,,,,,,,,61035da6b080f8c199539329,61036d7d3da8a854e137c028,2021-07-29_21h10.38.097,Simcolourproject_2stim_asymm_v5,2020.2.10,Win32,60,61025ae37ef11b136ea224fe,,,,,,,,,2453,52.66668731,-81.33334649,1,0,0,response3disk,,4,22.00001973,-1.07288E-05,1,0,0,rectangle,22.00001973,-1.07288E-05,1,0,0,22.00001973,-1.07288E-05,1,0,0,0,49,49,90,1,,,,,,,,
,,,,,,,,,,,,,FF,,,,,,,,2.5399,,,,,,,,,,,,,,,,,,,,,,61035da6b080f8c199539329,61036d7d3da8a854e137c028,2021-07-29_21h10.38.097,Simcolourproject_2stim_asymm_v5,2020.2.10,Win32,60,61025ae37ef11b136ea224fe,,,,,,,,,3137,-45.33331561,-74.00001293,1,0,0,response5disk,,3,-5.999981105,1.999989331,1,0,0,rectangle,-5.999981105,1.999989331,1,0,0,-5.999981105,1.999989331,1,0,0,0,50,50,99,1,,,,,,,,
,,,,,,,,,,,,,FF,,,,,,,,2.7498,,,,,,,,,,,,,,,,,,,,,,61035da6b080f8c199539329,61036d7d3da8a854e137c028,2021-07-29_21h10.38.097,Simcolourproject_2stim_asymm_v5,2020.2.10,Win32,60,61025ae37ef11b136ea224fe,,,,,,,,,3662,62.00002092,-78.00001305,1,0,0,response3disk,,4,6.000019252,-2.000010788,1,0,0,rectangle,6.000019252,-2.000010788,1,0,0,6.000019252,-2.000010788,1,0,0,0,51,51,47,1,,,,,,,,
,,,,,,,,,,,,,FF,,,,,,,,1.3508,,,,,,,,,,,,,,,,,,,,,,61035da6b080f8c199539329,61036d7d3da8a854e137c028,2021-07-29_21h10.38.097,Simcolourproject_2stim_asymm_v5,2020.2.10,Win32,60,61025ae37ef11b136ea224fe,,,,,,,,,2680,-55.33331591,-78.66667974,1,0,0,response5disk,,3,-1.999980986,7.99998951,1,0,0,rectangle,-1.999980986,7.99998951,1,0,0,-1.999980986,7.99998951,1,0,0,0,52,52,149,1,,,,,,,,
,,,,,,,,,,,,,FF,,,,,,,,1.6998,,,,,,,,,,,,,,,,,,,,,,61035da6b080f8c199539329,61036d7d3da8a854e137c028,2021-07-29_21h10.38.097,Simcolourproject_2stim_asymm_v5,2020.2.10,Win32,60,61025ae37ef11b136ea224fe,,,,,,,,,3922,34.00002009,76.66665822,1,0,0,response1disk,,7,7.333393315,-12.66667777,1,0,0,rectangle,7.333393315,-12.66667777,1,0,0,7.333393315,-12.66667777,1,0,0,0,53,53,59,1,,,,,,,,
,,,,,,,,,,,,,FF,,,,,,,,1.5205,,,,,,,,,,,,,,,,,,,,,,61035da6b080f8c199539329,61036d7d3da8a854e137c028,2021-07-29_21h10.38.097,Simcolourproject_2stim_asymm_v5,2020.2.10,Win32,60,61025ae37ef11b136ea224fe,,,,,,,,,2122,62.66668761,82.6666584,1,0,0,response1disk,,7,0.66668576,7.333322823,1,0,0,rectangle,0.66668576,7.333322823,1,0,0,0.66668576,7.333322823,1,0,0,0,54,54,109,1,,,,,,,,
,,,,,,,,,,,,,FF,,,,,,,,2.6056,,,,,,,,,,,,,,,,,,,,,,61035da6b080f8c199539329,61036d7d3da8a854e137c028,2021-07-29_21h10.38.097,Simcolourproject_2stim_asymm_v5,2020.2.10,Win32,60,61025ae37ef11b136ea224fe,,,,,,,,,2049,54.00002068,-64.00001264,1,0,0,response3disk,,4,3.333393196,11.99998963,1,0,0,rectangle,-82.66660937,-32.00001168,1,0,0,-7.999981165,1.333322644,1,0,0,0,55,55,101,1,,response5disk_3,TRUE,2,2,"[196,152,232,44,104,303,208,300,274,312,264,288,162,201,105,56,65,132,91,297]",2.1822,rectangle
,,,,,,,,,,,,,FF,,,,,,,,7.4394,,,,,,,,,,,,,,,,,,,,,,61035da6b080f8c199539329,61036d7d3da8a854e137c028,2021-07-29_21h10.38.097,Simcolourproject_2stim_asymm_v5,2020.2.10,Win32,60,61025ae37ef11b136ea224fe,,,,,,,,,2603,86.66668832,-38.00001186,1,0,0,response3disk,,5,-5.333314419,1.999989331,1,0,0,rectangle,-5.333314419,1.999989331,1,0,0,-5.333314419,1.999989331,1,0,0,0,56,56,104,1,,,,,,,,
,,,,,,,,,,,,,FF,,,,,,,,3.8388,,,,,,,,,,,,,,,,,,,,,,61035da6b080f8c199539329,61036d7d3da8a854e137c028,2021-07-29_21h10.38.097,Simcolourproject_2stim_asymm_v5,2020.2.10,Win32,60,61025ae37ef11b136ea224fe,,,,,,,,,2487,20.66668636,-84.66667992,1,0,0,response3disk,,4,-1.999980986,-1.333344102,1,0,0,rectangle,-1.999980986,-1.333344102,1,0,0,-1.999980986,-1.333344102,1,0,0,0,57,57,95,1,,,,,,,,
,,,,,,,,,,,,,FF,,,,,,,,1.2672,,,,,,,,,,,,,,,,,,,,,,61035da6b080f8c199539329,61036d7d3da8a854e137c028,2021-07-29_21h10.38.097,Simcolourproject_2stim_asymm_v5,2020.2.10,Win32,60,61025ae37ef11b136ea224fe,,,,,,,,,518,87.33335501,44.66665727,1,0,0,response1disk,,6,1.9735E-05,-0.666677415,1,0,0,rectangle,1.9735E-05,-0.666677415,1,0,0,1.9735E-05,-0.666677415,1,0,0,0,58,58,129,1,,,,,,,,
,,,,,,,,,,,,,FF,,,,,,,,2.9833,,,,,,,,,,,,,,,,,,,,,,61035da6b080f8c199539329,61036d7d3da8a854e137c028,2021-07-29_21h10.38.097,Simcolourproject_2stim_asymm_v5,2020.2.10,Win32,60,61025ae37ef11b136ea224fe,,,,,,,,,1343,91.33335513,-36.0000118,1,0,0,response3disk,,5,6.666685939,7.333322823,1,0,0,rectangle,6.666685939,7.333322823,1,0,0,6.666685939,7.333322823,1,0,0,0,59,59,43,1,,,,,,,,
,,,,,,,,,,,,,FF,,,,,,,,1.4809,,,,,,,,,,,,,,,,,,,,,,61035da6b080f8c199539329,61036d7d3da8a854e137c028,2021-07-29_21h10.38.097,Simcolourproject_2stim_asymm_v5,2020.2.10,Win32,60,61025ae37ef11b136ea224fe,,,,,,,,,1567,-88.66660955,-39.33334523,1,0,0,response5disk,,2,10.00001937,-2.000010788,1,0,0,rectangle,10.00001937,-2.000010788,1,0,0,10.00001937,-2.000010788,1,0,0,0,60,60,100,1,,,,,,,,
,,,,,,,,,,,,,FF,,,,,,,,3.1076,,,,,,,,,,,,,,,,,,,,,,61035da6b080f8c199539329,61036d7d3da8a854e137c028,2021-07-29_21h10.38.097,Simcolourproject_2stim_asymm_v5,2020.2.10,Win32,60,61025ae37ef11b136ea224fe,,,,,,,,,3732,70.66668785,-38.66667855,1,0,0,response3disk,,5,-1.3333143,-7.333344281,1,0,0,rectangle,-1.3333143,-7.333344281,1,0,0,-1.3333143,-7.333344281,1,0,0,0,61,61,123,1,,,,,,,,
,,,,,,,,,,,,,FF,,,,,,,,3.9166,,,,,,,,,,,,,,,,,,,,,,61035da6b080f8c199539329,61036d7d3da8a854e137c028,2021-07-29_21h10.38.097,Simcolourproject_2stim_asymm_v5,2020.2.10,Win32,60,61025ae37ef11b136ea224fe,,,,,,,,,2646,86.66668832,31.99999022,1,0,0,response1disk,,6,-1.999980986,1.999989331,1,0,0,rectangle,-1.999980986,1.999989331,1,0,0,-1.999980986,1.999989331,1,0,0,0,62,62,68,1,,,,,,,,
,,,,,,,,,,,,,FF,,,,,,,,1.4022,,,,,,,,,,,,,,,,,,,,,,61035da6b080f8c199539329,61036d7d3da8a854e137c028,2021-07-29_21h10.38.097,Simcolourproject_2stim_asymm_v5,2020.2.10,Win32,60,61025ae37ef11b136ea224fe,,,,,,,,,3594,40.66668695,62.66665781,1,0,0,response1disk,,7,4.666685879,3.99998939,1,0,0,rectangle,4.666685879,3.99998939,1,0,0,4.666685879,3.99998939,1,0,0,0,63,63,77,1,,,,,,,,
,,,,,,,,,,,,,FF,,,,,,,,1.1005,,,,,,,,,,,,,,,,,,,,,,61035da6b080f8c199539329,61036d7d3da8a854e137c028,2021-07-29_21h10.38.097,Simcolourproject_2stim_asymm_v5,2020.2.10,Win32,60,61025ae37ef11b136ea224fe,,,,,,,,,2821,26.66668653,57.33330397,1,0,0,response1disk,,7,16.00001955,1.999989331,1,0,0,rectangle,94.00002187,-30.00001162,1,0,0,10.66668606,-2.000010788,1,0,0,0,64,64,135,1,,response3disk_3,TRUE,5,5,"[196,152,232,44,104,303,208,300,274,312,264,288,162,201,105,56,65,132,91,297]",1.8342,rectangle
,,,,,,,,,,,,,FF,,,,,,,,4.9184,,,,,,,,,,,,,,,,,,,,,,61035da6b080f8c199539329,61036d7d3da8a854e137c028,2021-07-29_21h10.38.097,Simcolourproject_2stim_asymm_v5,2020.2.10,Win32,60,61025ae37ef11b136ea224fe,,,,,,,,,1191,86.66668832,21.99998993,1,0,0,response1disk,,6,4.000019193,-0.666677415,1,0,0,rectangle,4.000019193,-0.666677415,1,0,0,4.000019193,-0.666677415,1,0,0,0,65,65,7,1,,,,,,,,
,,,,,,,,,,,,,FF,,,,,,,,1.7676,,,,,,,,,,,,,,,,,,,,,,61035da6b080f8c199539329,61036d7d3da8a854e137c028,2021-07-29_21h10.38.097,Simcolourproject_2stim_asymm_v5,2020.2.10,Win32,60,61025ae37ef11b136ea224fe,,,,,,,,,621,-65.99998289,-38.66667855,1,0,0,response5disk,,2,-0.666606923,-5.333344221,1,0,0,rectangle,-0.666606923,-5.333344221,1,0,0,-0.666606923,-5.333344221,1,0,0,0,66,66,139,1,,,,,,,,
,,,,,,,,,,,,,FF,,,,,,,,2.2328,,,,,,,,,,,,,,,,,,,,,,61035da6b080f8c199539329,61036d7d3da8a854e137c028,2021-07-29_21h10.38.097,Simcolourproject_2stim_asymm_v5,2020.2.10,Win32,60,61025ae37ef11b136ea224fe,,,,,,,,,2334,51.33335394,73.99999148,1,0,0,response1disk,,7,-1.3333143,-11.3333444,1,0,0,rectangle,-1.3333143,-11.3333444,1,0,0,-1.3333143,-11.3333444,1,0,0,0,67,67,97,1,,,,,,,,
,,,,,,,,,,,,,FF,,,,,,,,8.0337,,,,,,,,,,,,,,,,,,,,,,61035da6b080f8c199539329,61036d7d3da8a854e137c028,2021-07-29_21h10.38.097,Simcolourproject_2stim_asymm_v5,2020.2.10,Win32,60,61025ae37ef11b136ea224fe,,,,,,,,,1072,72.00002122,-30.00001162,1,0,0,response3disk,,5,4.000019193,4.666656077,1,0,0,rectangle,4.000019193,4.666656077,1,0,0,4.000019193,4.666656077,1,0,0,0,68,68,22,1,,,,,,,,
,,,,,,,,,,,,,FF,,,,,,,,1.8682,,,,,,,,,,,,,,,,,,,,,,61035da6b080f8c199539329,61036d7d3da8a854e137c028,2021-07-29_21h10.38.097,Simcolourproject_2stim_asymm_v5,2020.2.10,Win32,60,61025ae37ef11b136ea224fe,,,,,,,,,536,-31.33331519,-55.33334571,1,0,0,response5disk,,3,0.66668576,13.333323,1,0,0,rectangle,0.66668576,13.333323,1,0,0,0.66668576,13.333323,1,0,0,0,69,69,140,1,,,,,,,,
,,,,,,,,,,,,,FF,,,,,,,,1.7838,,,,,,,,,,,,,,,,,,,,,,61035da6b080f8c199539329,61036d7d3da8a854e137c028,2021-07-29_21h10.38.097,Simcolourproject_2stim_asymm_v5,2020.2.10,Win32,60,61025ae37ef11b136ea224fe,,,,,,,,,2192,58.66668749,71.99999142,1,0,0,response1disk,,7,16.00001955,12.66665632,1,0,0,rectangle,16.00001955,12.66665632,1,0,0,16.00001955,12.66665632,1,0,0,0,70,70,57,1,,,,,,,,
,,,,,,,,,,,,,FF,,,,,,,,2.333,,,,,,,,,,,,,,,,,,,,,,61035da6b080f8c199539329,61036d7d3da8a854e137c028,2021-07-29_21h10.38.097,Simcolourproject_2stim_asymm_v5,2020.2.10,Win32,60,61025ae37ef11b136ea224fe,,,,,,,,,2709,-57.99998266,-28.00001156,1,0,0,response5disk,,2,-18.66660746,9.999989569,1,0,0,rectangle,-18.66660746,9.999989569,1,0,0,-18.66660746,9.999989569,1,0,0,0,71,71,14,1,,,,,,,,
,,,,,,,,,,,,,FF,,,,,,,,2.2414,,,,,,,,,,,,,,,,,,,,,,61035da6b080f8c199539329,61036d7d3da8a854e137c028,2021-07-29_21h10.38.097,Simcolourproject_2stim_asymm_v5,2020.2.10,Win32,60,61025ae37ef11b136ea224fe,,,,,,,,,880,43.3333537,69.33330433,1,0,0,response1disk,,7,6.000019252,1.999989331,1,0,0,rectangle,6.000019252,1.999989331,1,0,0,6.000019252,1.999989331,1,0,0,0,72,72,69,1,,,,,,,,
,,,,,,,,,,,,,FF,,,,,,,,1.4915,,,,,,,,,,,,,,,,,,,,,,61035da6b080f8c199539329,61036d7d3da8a854e137c028,2021-07-29_21h10.38.097,Simcolourproject_2stim_asymm_v5,2020.2.10,Win32,60,61025ae37ef11b136ea224fe,,,,,,,,,3912,36.00002015,-74.00001293,1,0,0,response3disk,,4,11.33339343,-4.666677535,1,0,0,rectangle,11.33339343,-4.666677535,1,0,0,11.33339343,-4.666677535,1,0,0,0,73,73,73,1,,,,,,,,
,,,,,,,,,,,,,FF,,,,,,,,1.3872,,,,,,,,,,,,,,,,,,,,,,61035da6b080f8c199539329,61036d7d3da8a854e137c028,2021-07-29_21h10.38.097,Simcolourproject_2stim_asymm_v5,2020.2.10,Win32,60,61025ae37ef11b136ea224fe,,,,,,,,,886,48.66668719,65.99999124,1,0,0,response1disk,,7,8.666685998,5.99998945,1,0,0,rectangle,8.666685998,5.99998945,1,0,0,8.666685998,5.99998945,1,0,0,0,74,74,114,1,,,,,,,,
,,,,,,,,,,,,,FF,,,,,,,,2.316,,,,,,,,,,,,,,,,,,,,,,61035da6b080f8c199539329,61036d7d3da8a854e137c028,2021-07-29_21h10.38.097,Simcolourproject_2stim_asymm_v5,2020.2.10,Win32,60,61025ae37ef11b136ea224fe,,,,,,,,,3403,80.00002146,40.66665715,1,0,0,response1disk,,6,2.000019133,1.999989331,1,0,0,rectangle,2.000019133,1.999989331,1,0,0,2.000019133,1.999989331,1,0,0,0,75,75,50,1,,,,,,,,
,,,,,,,,,,,,,FF,,,,,,,,1.5502,,,,,,,,,,,,,,,,,,,,,,61035da6b080f8c199539329,61036d7d3da8a854e137c028,2021-07-29_21h10.38.097,Simcolourproject_2stim_asymm_v5,2020.2.10,Win32,60,61025ae37ef11b136ea224fe,,,,,,,,,3307,-51.33331579,-67.33334607,1,0,0,response5disk,,3,-4.666607042,2.666656017,1,0,0,rectangle,-4.666607042,2.666656017,1,0,0,-4.666607042,2.666656017,1,0,0,0,76,76,6,1,,,,,,,,
,,,,,,,,,,,,,FF,,,,,,,,1.8847,,,,,,,,,,,,,,,,,,,,,,61035da6b080f8c199539329,61036d7d3da8a854e137c028,2021-07-29_21h10.38.097,Simcolourproject_2stim_asymm_v5,2020.2.10,Win32,60,61025ae37ef11b136ea224fe,,,,,,,,,2526,66.66668773,25.33330301,1,0,0,response1disk,,6,14.00001949,-1.07288E-05,1,0,0,rectangle,14.00001949,-1.07288E-05,1,0,0,14.00001949,-1.07288E-05,1,0,0,0,77,77,157,1,,,,,,,,
,,,,,,,,,,,,,FF,,,,,,,,1.7498,,,,,,,,,,,,,,,,,,,,,,61035da6b080f8c199539329,61036d7d3da8a854e137c028,2021-07-29_21h10.38.097,Simcolourproject_2stim_asymm_v5,2020.2.10,Win32,60,61025ae37ef11b136ea224fe,,,,,,,,,1356,42.00002033,-72.00001287,1,0,0,response3disk,,4,5.333393256,-1.333344102,1,0,0,rectangle,5.333393256,-1.333344102,1,0,0,5.333393256,-1.333344102,1,0,0,0,78,78,48,1,,,,,,,,
,,,,,,,,,,,,,FF,,,,,,,,1.8877,,,,,,,,,,,,,,,,,,,,,,61035da6b080f8c199539329,61036d7d3da8a854e137c028,2021-07-29_21h10.38.097,Simcolourproject_2stim_asymm_v5,2020.2.10,Win32,60,61025ae37ef11b136ea224fe,,,,,,,,,107,-59.99998271,-44.00001204,1,0,0,response5disk,,2,-26.6666077,-1.07288E-05,1,0,0,rectangle,-26.6666077,-1.07288E-05,1,0,0,-26.6666077,-1.07288E-05,1,0,0,0,79,79,64,1,,,,,,,,
,,,,,,,,,,,,,FF,,,,,,,,4.0011,,,,,,,,,,,,,,,,,,,,,,61035da6b080f8c199539329,61036d7d3da8a854e137c028,2021-07-29_21h10.38.097,Simcolourproject_2stim_asymm_v5,2020.2.10,Win32,60,61025ae37ef11b136ea224fe,,,,,,,,,1750,74.66668797,-63.33334595,1,0,0,response3disk,,5,20.66668636,1.999989331,1,0,0,rectangle,20.66668636,1.999989331,1,0,0,20.66668636,1.999989331,1,0,0,0,80,80,18,1,,,,,,,,
,,,,,,,,,,,,,FF,,,,,,,,3.9201,,,,,,,,,,,,,,,,,,,,,,61035da6b080f8c199539329,61036d7d3da8a854e137c028,2021-07-29_21h10.38.097,Simcolourproject_2stim_asymm_v5,2020.2.10,Win32,60,61025ae37ef11b136ea224fe,,,,,,,,,1807,-27.99998176,-62.00001258,1,0,0,response5disk,,3,17.33339361,4.666656077,1,0,0,rectangle,17.33339361,4.666656077,1,0,0,17.33339361,4.666656077,1,0,0,0,81,81,37,1,,,,,,,,
,,,,,,,,,,,,,FF,,,,,,,,1.4504,,,,,,,,,,,,,,,,,,,,,,61035da6b080f8c199539329,61036d7d3da8a854e137c028,2021-07-29_21h10.38.097,Simcolourproject_2stim_asymm_v5,2020.2.10,Win32,60,61025ae37ef11b136ea224fe,,,,,,,,,3782,77.33335471,33.99999028,1,0,0,response1disk,,6,12.00001943,-2.000010788,1,0,0,rectangle,12.00001943,-2.000010788,1,0,0,12.00001943,-2.000010788,1,0,0,0,82,82,136,1,,,,,,,,
,,,,,,,,,,,,,FF,,,,,,,,4.0181,,,,,,,,,,,,,,,,,,,,,,61035da6b080f8c199539329,61036d7d3da8a854e137c028,2021-07-29_21h10.38.097,Simcolourproject_2stim_asymm_v5,2020.2.10,Win32,60,61025ae37ef11b136ea224fe,,,,,,,,,225,86.66668832,31.99999022,1,0,0,response1disk,,6,13.33339349,7.99998951,1,0,0,rectangle,13.33339349,7.99998951,1,0,0,13.33339349,7.99998951,1,0,0,0,83,83,4,1,,,,,,,,
,,,,,,,,,,,,,FF,,,,,,,,2.5189,,,,,,,,,,,,,,,,,,,,,,61035da6b080f8c199539329,61036d7d3da8a854e137c028,2021-07-29_21h10.38.097,Simcolourproject_2stim_asymm_v5,2020.2.10,Win32,60,61025ae37ef11b136ea224fe,,,,,,,,,2491,32.00002003,62.66665781,1,0,0,response1disk,,7,6.666685939,9.999989569,1,0,0,rectangle,6.666685939,9.999989569,1,0,0,6.666685939,9.999989569,1,0,0,0,84,84,70,1,,,,,,,,
,,,,,,,,,,,,,FF,,,,,,,,1.1008,,,,,,,,,,,,,,,,,,,,,,61035da6b080f8c199539329,61036d7d3da8a854e137c028,2021-07-29_21h10.38.097,Simcolourproject_2stim_asymm_v5,2020.2.10,Win32,60,61025ae37ef11b136ea224fe,,,,,,,,,142,30.66668665,55.99999094,1,0,0,response1disk,,7,-0.666606923,-1.333344102,1,0,0,rectangle,-0.666606923,-1.333344102,1,0,0,-0.666606923,-1.333344102,1,0,0,0,85,85,128,1,,,,,,,,
,,,,,,,,,,,,,FF,,,,,,,,2.6554,,,,,,,,,,,,,,,,,,,,,,61035da6b080f8c199539329,61036d7d3da8a854e137c028,2021-07-29_21h10.38.097,Simcolourproject_2stim_asymm_v5,2020.2.10,Win32,60,61025ae37ef11b136ea224fe,,,,,,,,,1186,80.66668814,-30.00001162,1,0,0,response3disk,,5,1.333393137,0.666655958,1,0,0,rectangle,1.333393137,0.666655958,1,0,0,1.333393137,0.666655958,1,0,0,0,86,86,5,1,,,,,,,,
,,,,,,,,,,,,,FF,,,,,,,,5.0538,,,,,,,,,,,,,,,,,,,,,,61035da6b080f8c199539329,61036d7d3da8a854e137c028,2021-07-29_21h10.38.097,Simcolourproject_2stim_asymm_v5,2020.2.10,Win32,60,61025ae37ef11b136ea224fe,,,,,,,,,377,32.66668671,-62.66667926,1,0,0,response3disk,,4,14.00001949,4.666656077,1,0,0,rectangle,14.00001949,4.666656077,1,0,0,14.00001949,4.666656077,1,0,0,0,87,87,154,1,,,,,,,,
,,,,,,,,,,,,,FF,,,,,,,,1.7834,,,,,,,,,,,,,,,,,,,,,,61035da6b080f8c199539329,61036d7d3da8a854e137c028,2021-07-29_21h10.38.097,Simcolourproject_2stim_asymm_v5,2020.2.10,Win32,60,61025ae37ef11b136ea224fe,,,,,,,,,1997,26.66668653,-77.33334637,1,0,0,response3disk,,4,14.66668618,-2.000010788,1,0,0,rectangle,14.66668618,-2.000010788,1,0,0,14.66668618,-2.000010788,1,0,0,0,88,88,13,1,,,,,,,,
,,,,,,,,,,,,,FF,,,,,,,,2.5523,,,,,,,,,,,,,,,,,,,,,,61035da6b080f8c199539329,61036d7d3da8a854e137c028,2021-07-29_21h10.38.097,Simcolourproject_2stim_asymm_v5,2020.2.10,Win32,60,61025ae37ef11b136ea224fe,,,,,,,,,404,-34.66660794,-74.66667962,1,0,0,response5disk,,3,10.66668606,0.666655958,1,0,0,rectangle,10.66668606,0.666655958,1,0,0,10.66668606,0.666655958,1,0,0,0,89,89,141,1,,,,,,,,
,,,,,,,,,,,,,FF,,,,,,,,4.2896,,,,,,,,,,,,,,,,,,,,,,61035da6b080f8c199539329,61036d7d3da8a854e137c028,2021-07-29_21h10.38.097,Simcolourproject_2stim_asymm_v5,2020.2.10,Win32,60,61025ae37ef11b136ea224fe,,,,,,,,,530,56.66668743,-90.00001341,1,0,0,response3disk,,4,18.00001961,-9.33334434,1,0,0,rectangle,-47.33331567,-82.66667986,1,0,0,3.333393196,0.666655958,1,0,0,0,90,90,117,1,,response5disk_3,TRUE,3,3,"[196,152,232,44,104,303,208,300,274,312,264,288,162,201,105,56,65,132,91,297]",2.1664,rectangle
,,,,,,,,,,,,,FF,,,,,,,,3.7519,,,,,,,,,,,,,,,,,,,,,,61035da6b080f8c199539329,61036d7d3da8a854e137c028,2021-07-29_21h10.38.097,Simcolourproject_2stim_asymm_v5,2020.2.10,Win32,60,61025ae37ef11b136ea224fe,,,,,,,,,82,-40.66660812,-70.00001281,1,0,0,response5disk,,3,2.66668582,11.33332294,1,0,0,rectangle,2.66668582,11.33332294,1,0,0,2.66668582,11.33332294,1,0,0,0,91,91,21,1,,,,,,,,
,,,,,,,,,,,,,FF,,,,,,,,2.2893,,,,,,,,,,,,,,,,,,,,,,61035da6b080f8c199539329,61036d7d3da8a854e137c028,2021-07-29_21h10.38.097,Simcolourproject_2stim_asymm_v5,2020.2.10,Win32,60,61025ae37ef11b136ea224fe,,,,,,,,,2868,90.00002176,-29.33334494,1,0,0,response3disk,,5,11.33339343,11.33332294,1,0,0,rectangle,11.33339343,11.33332294,1,0,0,11.33339343,11.33332294,1,0,0,0,92,92,115,1,,,,,,,,
,,,,,,,,,,,,,FF,,,,,,,,1.3646,,,,,,,,,,,,,,,,,,,,,,61035da6b080f8c199539329,61036d7d3da8a854e137c028,2021-07-29_21h10.38.097,Simcolourproject_2stim_asymm_v5,2020.2.10,Win32,60,61025ae37ef11b136ea224fe,,,,,,,,,2681,54.66668737,84.66665846,1,0,0,response1disk,,7,7.333393315,9.333322883,1,0,0,rectangle,7.333393315,9.333322883,1,0,0,7.333393315,9.333322883,1,0,0,0,93,93,148,1,,,,,,,,
,,,,,,,,,,,,,FF,,,,,,,,4.0513,,,,,,,,,,,,,,,,,,,,,,61035da6b080f8c199539329,61036d7d3da8a854e137c028,2021-07-29_21h10.38.097,Simcolourproject_2stim_asymm_v5,2020.2.10,Win32,60,61025ae37ef11b136ea224fe,,,,,,,,,3330,84.00002158,23.33330295,1,0,0,response1disk,,6,27.33339391,11.99998963,1,0,0,rectangle,27.33339391,11.99998963,1,0,0,27.33339391,11.99998963,1,0,0,0,94,94,127,1,,,,,,,,
,,,,,,,,,,,,,FF,,,,,,,,3.4005,,,,,,,,,,,,,,,,,,,,,,61035da6b080f8c199539329,61036d7d3da8a854e137c028,2021-07-29_21h10.38.097,Simcolourproject_2stim_asymm_v5,2020.2.10,Win32,60,61025ae37ef11b136ea224fe,,,,,,,,,3985,53.333354,-74.00001293,1,0,0,response3disk,,4,-1.3333143,7.333322823,1,0,0,rectangle,-1.3333143,7.333322823,1,0,0,-1.3333143,7.333322823,1,0,0,0,95,95,15,1,,,,,,,,
,,,,,,,,,,,,,FF,,,,,,,,1.8294,,,,,,,,,,,,,,,,,,,,,,61035da6b080f8c199539329,61036d7d3da8a854e137c028,2021-07-29_21h10.38.097,Simcolourproject_2stim_asymm_v5,2020.2.10,Win32,60,61025ae37ef11b136ea224fe,,,,,,,,,3629,70.00002116,32.66665691,1,0,0,response1disk,,6,22.66668642,7.99998951,1,0,0,rectangle,22.66668642,7.99998951,1,0,0,22.66668642,7.99998951,1,0,0,0,96,96,92,1,,,,,,,,
,,,,,,,,,,,,,FF,,,,,,,,1.3338,,,,,,,,,,,,,,,,,,,,,,61035da6b080f8c199539329,61036d7d3da8a854e137c028,2021-07-29_21h10.38.097,Simcolourproject_2stim_asymm_v5,2020.2.10,Win32,60,61025ae37ef11b136ea224fe,,,,,,,,,2189,31.33339403,-78.00001305,1,0,0,response3disk,,4,16.00001955,1.333322644,1,0,0,rectangle,16.00001955,1.333322644,1,0,0,16.00001955,1.333322644,1,0,0,0,97,97,41,1,,,,,,,,
,,,,,,,,,,,,,FF,,,,,,,,2.2221,,,,,,,,,,,,,,,,,,,,,,61035da6b080f8c199539329,61036d7d3da8a854e137c028,2021-07-29_21h10.38.097,Simcolourproject_2stim_asymm_v5,2020.2.10,Win32,60,61025ae37ef11b136ea224fe,,,,,,,,,3568,78.66668808,-40.00001192,1,0,0,response3disk,,5,14.66668618,9.333322883,1,0,0,rectangle,14.66668618,9.333322883,1,0,0,14.66668618,9.333322883,1,0,0,0,98,98,39,1,,,,,,,,
,,,,,,,,,,,,,FF,,,,,,,,1.5338,,,,,,,,,,,,,,,,,,,,,,61035da6b080f8c199539329,61036d7d3da8a854e137c028,2021-07-29_21h10.38.097,Simcolourproject_2stim_asymm_v5,2020.2.10,Win32,60,61025ae37ef11b136ea224fe,,,,,,,,,1002,37.33339421,-56.66667908,1,0,0,response3disk,,4,8.000019312,4.666656077,1,0,0,rectangle,8.000019312,4.666656077,1,0,0,8.000019312,4.666656077,1,0,0,0,99,99,102,1,,,,,,,,
,,,,,,,,,,,,,FF,,,,,,,,2.9858,,,,,,,,,,,,,,,,,,,,,,61035da6b080f8c199539329,61036d7d3da8a854e137c028,2021-07-29_21h10.38.097,Simcolourproject_2stim_asymm_v5,2020.2.10,Win32,60,61025ae37ef11b136ea224fe,,,,,,,,,1008,-27.99998176,-56.0000124,1,0,0,response5disk,,3,-11.99998128,-7.333344281,1,0,0,rectangle,-11.99998128,-7.333344281,1,0,0,-11.99998128,-7.333344281,1,0,0,0,100,100,112,1,,,,,,,,
,,,,,,,,,,,,,FF,,,,,,,,3.1897,,,,,,,,,,,,,,,,,,,,,,61035da6b080f8c199539329,61036d7d3da8a854e137c028,2021-07-29_21h10.38.097,Simcolourproject_2stim_asymm_v5,2020.2.10,Win32,60,61025ae37ef11b136ea224fe,,,,,,,,,1623,-31.99998188,-58.00001246,1,0,0,response5disk,,3,9.333393375,1.333322644,1,0,0,rectangle,9.333393375,1.333322644,1,0,0,9.333393375,1.333322644,1,0,0,0,101,101,111,1,,,,,,,,
,,,,,,,,,,,,,FF,,,,,,,,3.9071,,,,,,,,,,,,,,,,,,,,,,61035da6b080f8c199539329,61036d7d3da8a854e137c028,2021-07-29_21h10.38.097,Simcolourproject_2stim_asymm_v5,2020.2.10,Win32,60,61025ae37ef11b136ea224fe,,,,,,,,,2215,-43.33331555,-67.33334607,1,0,0,response5disk,,3,28.00001991,-4.000010848,1,0,0,rectangle,28.00001991,-4.000010848,1,0,0,28.00001991,-4.000010848,1,0,0,0,102,102,86,1,,,,,,,,
,,,,,,,,,,,,,FF,,,,,,,,1.3312,,,,,,,,,,,,,,,,,,,,,,61035da6b080f8c199539329,61036d7d3da8a854e137c028,2021-07-29_21h10.38.097,Simcolourproject_2stim_asymm_v5,2020.2.10,Win32,60,61025ae37ef11b136ea224fe,,,,,,,,,1840,74.00002128,29.99999017,1,0,0,response1disk,,6,-21.99998158,-1.07288E-05,1,0,0,rectangle,79.33335477,-26.66667819,1,0,0,-4.666607042,9.999989569,1,0,0,0,103,103,53,1,,response3disk_3,TRUE,5,5,"[196,152,232,44,104,303,208,300,274,312,264,288,162,201,105,56,65,132,91,297]",2.0399,rectangle
,,,,,,,,,,,,,FF,,,,,,,,5.785,,,,,,,,,,,,,,,,,,,,,,61035da6b080f8c199539329,61036d7d3da8a854e137c028,2021-07-29_21h10.38.097,Simcolourproject_2stim_asymm_v5,2020.2.10,Win32,60,61025ae37ef11b136ea224fe,,,,,,,,,4118,26.00001985,72.6666581,1,0,0,response1disk,,7,4.666685879,-0.666677415,1,0,0,rectangle,-49.99998242,79.99999166,1,0,0,-5.999981105,5.333322763,1,0,0,0,104,104,158,1,,response7disk_3,TRUE,0,0,"[196,152,232,44,104,303,208,300,274,312,264,288,162,201,105,56,65,132,91,297]",1.7819,rectangle
,,,,,,,,,,,,,FF,,,,,,,,3.1642,,,,,,,,,,,,,,,,,,,,,,61035da6b080f8c199539329,61036d7d3da8a854e137c028,2021-07-29_21h10.38.097,Simcolourproject_2stim_asymm_v5,2020.2.10,Win32,60,61025ae37ef11b136ea224fe,,,,,,,,,3293,108.0000223,39.33330343,1,0,0,response1disk,,6,8.000019312,-4.000010848,1,0,0,rectangle,8.000019312,-4.000010848,1,0,0,8.000019312,-4.000010848,1,0,0,0,105,105,78,1,,,,,,,,
,,,,,,,,,,,,,FF,,,,,,,,6.5693,,,,,,,,,,,,,,,,,,,,,,61035da6b080f8c199539329,61036d7d3da8a854e137c028,2021-07-29_21h10.38.097,Simcolourproject_2stim_asymm_v5,2020.2.10,Win32,60,61025ae37ef11b136ea224fe,,,,,,,,,1202,58.0000208,101.9999923,1,0,0,response1disk,,7,-9.999981225,-1.333344102,1,0,0,rectangle,-9.999981225,-1.333344102,1,0,0,-9.999981225,-1.333344102,1,0,0,0,106,106,130,1,,,,,,,,
,,,,,,,,,,,,,FF,,,,,,,,3.7005,,,,,,,,,,,,,,,,,,,,,,61035da6b080f8c199539329,61036d7d3da8a854e137c028,2021-07-29_21h10.38.097,Simcolourproject_2stim_asymm_v5,2020.2.10,Win32,60,61025ae37ef11b136ea224fe,,,,,,,,,1965,-22.66660758,-88.66668004,1,0,0,response5disk,,3,10.00001937,-9.33334434,1,0,0,rectangle,10.00001937,-9.33334434,1,0,0,10.00001937,-9.33334434,1,0,0,0,107,107,107,1,,,,,,,,
,,,,,,,,,,,,,FF,,,,,,,,1.2169,,,,,,,,,,,,,,,,,,,,,,61035da6b080f8c199539329,61036d7d3da8a854e137c028,2021-07-29_21h10.38.097,Simcolourproject_2stim_asymm_v5,2020.2.10,Win32,60,61025ae37ef11b136ea224fe,,,,,,,,,3318,48.0000205,69.99999136,1,0,0,response1disk,,7,1.333393137,1.333322644,1,0,0,rectangle,1.333393137,1.333322644,1,0,0,1.333393137,1.333322644,1,0,0,0,108,108,28,1,,,,,,,,
,,,,,,,,,,,,,FF,,,,,,,,2.2704,,,,,,,,,,,,,,,,,,,,,,61035da6b080f8c199539329,61036d7d3da8a854e137c028,2021-07-29_21h10.38.097,Simcolourproject_2stim_asymm_v5,2020.2.10,Win32,60,61025ae37ef11b136ea224fe,,,,,,,,,2847,84.00002158,-32.00001168,1,0,0,response3disk,,5,24.00001979,-1.07288E-05,1,0,0,rectangle,24.00001979,-1.07288E-05,1,0,0,24.00001979,-1.07288E-05,1,0,0,0,109,109,9,1,,,,,,,,
,,,,,,,,,,,,,FF,,,,,,,,2.3343,,,,,,,,,,,,,,,,,,,,,,61035da6b080f8c199539329,61036d7d3da8a854e137c028,2021-07-29_21h10.38.097,Simcolourproject_2stim_asymm_v5,2020.2.10,Win32,60,61025ae37ef11b136ea224fe,,,,,,,,,22,60.00002086,28.66665679,1,0,0,response1disk,,6,10.66668606,7.333322823,1,0,0,rectangle,10.66668606,7.333322823,1,0,0,10.66668606,7.333322823,1,0,0,0,110,110,42,1,,,,,,,,
,,,,,,,,,,,,,FF,,,,,,,,3.5838,,,,,,,,,,,,,,,,,,,,,,61035da6b080f8c199539329,61036d7d3da8a854e137c028,2021-07-29_21h10.38.097,Simcolourproject_2stim_asymm_v5,2020.2.10,Win32,60,61025ae37ef11b136ea224fe,,,,,,,,,1926,-87.99998355,-34.00001174,1,0,0,response5disk,,2,-2.666606983,6.666656137,1,0,0,rectangle,-2.666606983,6.666656137,1,0,0,-2.666606983,6.666656137,1,0,0,0,111,111,26,1,,,,,,,,
,,,,,,,,,,,,,FF,,,,,,,,1.7862,,,,,,,,,,,,,,,,,,,,,,61035da6b080f8c199539329,61036d7d3da8a854e137c028,2021-07-29_21h10.38.097,Simcolourproject_2stim_asymm_v5,2020.2.10,Win32,60,61025ae37ef11b136ea224fe,,,,,,,,,4258,72.66668791,-42.66667867,1,0,0,response3disk,,5,1.333393137,7.99998951,1,0,0,rectangle,1.333393137,7.99998951,1,0,0,1.333393137,7.99998951,1,0,0,0,112,112,98,1,,,,,,,,
,,,,,,,,,,,,,FF,,,,,,,,1.7395,,,,,,,,,,,,,,,,,,,,,,61035da6b080f8c199539329,61036d7d3da8a854e137c028,2021-07-29_21h10.38.097,Simcolourproject_2stim_asymm_v5,2020.2.10,Win32,60,61025ae37ef11b136ea224fe,,,,,,,,,2272,-43.33331555,-94.66668022,1,0,0,response5disk,,3,0.66668576,-6.000010908,1,0,0,rectangle,0.66668576,-6.000010908,1,0,0,0.66668576,-6.000010908,1,0,0,0,113,113,3,1,,,,,,,,
,,,,,,,,,,,,,FF,,,,,,,,1.7547,,,,,,,,,,,,,,,,,,,,,,61035da6b080f8c199539329,61036d7d3da8a854e137c028,2021-07-29_21h10.38.097,Simcolourproject_2stim_asymm_v5,2020.2.10,Win32,60,61025ae37ef11b136ea224fe,,,,,,,,,780,-30.66660782,-58.66667914,1,0,0,response5disk,,3,-8.666607161,1.333322644,1,0,0,rectangle,-8.666607161,1.333322644,1,0,0,-8.666607161,1.333322644,1,0,0,0,114,114,54,1,,,,,,,,
,,,,,,,,,,,,,FF,,,,,,,,3.6297,,,,,,,,,,,,,,,,,,,,,,61035da6b080f8c199539329,61036d7d3da8a854e137c028,2021-07-29_21h10.38.097,Simcolourproject_2stim_asymm_v5,2020.2.10,Win32,60,61025ae37ef11b136ea224fe,,,,,,,,,2045,-42.66660817,-68.66667944,1,0,0,response5disk,,3,-7.999981165,-0.666677415,1,0,0,rectangle,-7.999981165,-0.666677415,1,0,0,-7.999981165,-0.666677415,1,0,0,0,115,115,31,1,,,,,,,,
,,,,,,,,,,,,,FF,,,,,,,,1.8309,,,,,,,,,,,,,,,,,,,,,,61035da6b080f8c199539329,61036d7d3da8a854e137c028,2021-07-29_21h10.38.097,Simcolourproject_2stim_asymm_v5,2020.2.10,Win32,60,61025ae37ef11b136ea224fe,,,,,,,,,2799,31.33339403,-65.33334601,1,0,0,response3disk,,4,7.333393315,1.333322644,1,0,0,rectangle,7.333393315,1.333322644,1,0,0,7.333393315,1.333322644,1,0,0,0,116,116,118,1,,,,,,,,
,,,,,,,,,,,,,FF,,,,,,,,1.5846,,,,,,,,,,,,,,,,,,,,,,61035da6b080f8c199539329,61036d7d3da8a854e137c028,2021-07-29_21h10.38.097,Simcolourproject_2stim_asymm_v5,2020.2.10,Win32,60,61025ae37ef11b136ea224fe,,,,,,,,,2994,-29.33331513,-80.6666798,1,0,0,response5disk,,3,-13.33331466,-4.000010848,1,0,0,rectangle,-13.33331466,-4.000010848,1,0,0,-13.33331466,-4.000010848,1,0,0,0,117,117,29,1,,,,,,,,
,,,,,,,,,,,,,FF,,,,,,,,1.2716,,,,,,,,,,,,,,,,,,,,,,61035da6b080f8c199539329,61036d7d3da8a854e137c028,2021-07-29_21h10.38.097,Simcolourproject_2stim_asymm_v5,2020.2.10,Win32,60,61025ae37ef11b136ea224fe,,,,,,,,,586,-37.99998206,-53.33334565,1,0,0,response5disk,,3,-5.333314419,-4.666677535,1,0,0,rectangle,-5.333314419,-4.666677535,1,0,0,-5.333314419,-4.666677535,1,0,0,0,118,118,87,1,,,,,,,,
,,,,,,,,,,,,,FF,,,,,,,,1.1836,,,,,,,,,,,,,,,,,,,,,,61035da6b080f8c199539329,61036d7d3da8a854e137c028,2021-07-29_21h10.38.097,Simcolourproject_2stim_asymm_v5,2020.2.10,Win32,60,61025ae37ef11b136ea224fe,,,,,,,,,752,-28.66660776,-45.33334541,1,0,0,response5disk,,3,-2.666606983,-3.333344162,1,0,0,rectangle,-2.666606983,-3.333344162,1,0,0,-2.666606983,-3.333344162,1,0,0,0,119,119,0,1,,,,,,,,
,,,,,,,,,,,,,FF,,,,,,,,2.0676,,,,,,,,,,,,,,,,,,,,,,61035da6b080f8c199539329,61036d7d3da8a854e137c028,2021-07-29_21h10.38.097,Simcolourproject_2stim_asymm_v5,2020.2.10,Win32,60,61025ae37ef11b136ea224fe,,,,,,,,,2963,40.66668695,-55.33334571,1,0,0,response3disk,,4,0.66668576,3.333322704,1,0,0,rectangle,0.66668576,3.333322704,1,0,0,0.66668576,3.333322704,1,0,0,0,120,120,151,1,,,,,,,,
,,,,,,,,,,,,,FF,,,,,,,,2.2748,,,,,,,,,,,,,,,,,,,,,,61035da6b080f8c199539329,61036d7d3da8a854e137c028,2021-07-29_21h10.38.097,Simcolourproject_2stim_asymm_v5,2020.2.10,Win32,60,61025ae37ef11b136ea224fe,,,,,,,,,102,29.33339397,-55.33334571,1,0,0,response3disk,,4,18.00001961,-0.666677415,1,0,0,rectangle,18.00001961,-0.666677415,1,0,0,18.00001961,-0.666677415,1,0,0,0,121,121,131,1,,,,,,,,
,,,,,,,,,,,,,FF,,,,,,,,4.0841,,,,,,,,,,,,,,,,,,,,,,61035da6b080f8c199539329,61036d7d3da8a854e137c028,2021-07-29_21h10.38.097,Simcolourproject_2stim_asymm_v5,2020.2.10,Win32,60,61025ae37ef11b136ea224fe,,,,,,,,,3682,-78.66660925,-29.33334494,1,0,0,response5disk,,2,-14.66660734,-2.000010788,1,0,0,rectangle,-14.66660734,-2.000010788,1,0,0,-14.66660734,-2.000010788,1,0,0,0,122,122,66,1,,,,,,,,
,,,,,,,,,,,,,FF,,,,,,,,5.3167,,,,,,,,,,,,,,,,,,,,,,61035da6b080f8c199539329,61036d7d3da8a854e137c028,2021-07-29_21h10.38.097,Simcolourproject_2stim_asymm_v5,2020.2.10,Win32,60,61025ae37ef11b136ea224fe,,,,,,,,,2901,38.66668689,-60.6666792,1,0,0,response3disk,,4,20.00001967,1.333322644,1,0,0,rectangle,20.00001967,1.333322644,1,0,0,20.00001967,1.333322644,1,0,0,0,123,123,12,1,,,,,,,,
,,,,,,,,,,,,,FF,,,,,,,,1.9381,,,,,,,,,,,,,,,,,,,,,,61035da6b080f8c199539329,61036d7d3da8a854e137c028,2021-07-29_21h10.38.097,Simcolourproject_2stim_asymm_v5,2020.2.10,Win32,60,61025ae37ef11b136ea224fe,,,,,,,,,1550,20.66668636,-48.66667885,1,0,0,response3disk,,4,17.33339361,3.333322704,1,0,0,rectangle,17.33339361,3.333322704,1,0,0,17.33339361,3.333322704,1,0,0,0,124,124,108,1,,,,,,,,
,,,,,,,,,,,,,FF,,,,,,,,3.201,,,,,,,,,,,,,,,,,,,,,,61035da6b080f8c199539329,61036d7d3da8a854e137c028,2021-07-29_21h10.38.097,Simcolourproject_2stim_asymm_v5,2020.2.10,Win32,60,61025ae37ef11b136ea224fe,,,,,,,,,3346,-66.66660889,-42.66667867,1,0,0,response5disk,,2,17.33339361,0.666655958,1,0,0,rectangle,17.33339361,0.666655958,1,0,0,17.33339361,0.666655958,1,0,0,0,125,125,138,1,,,,,,,,
,,,,,,,,,,,,,FF,,,,,,,,1.9168,,,,,,,,,,,,,,,,,,,,,,61035da6b080f8c199539329,61036d7d3da8a854e137c028,2021-07-29_21h10.38.097,Simcolourproject_2stim_asymm_v5,2020.2.10,Win32,60,61025ae37ef11b136ea224fe,,,,,,,,,1913,80.00002146,-42.00001198,1,0,0,response3disk,,5,-9.999981225,-4.000010848,1,0,0,rectangle,-9.999981225,-4.000010848,1,0,0,-9.999981225,-4.000010848,1,0,0,0,126,126,105,1,,,,,,,,
,,,,,,,,,,,,,FF,,,,,,,,0.9007,,,,,,,,,,,,,,,,,,,,,,61035da6b080f8c199539329,61036d7d3da8a854e137c028,2021-07-29_21h10.38.097,Simcolourproject_2stim_asymm_v5,2020.2.10,Win32,60,61025ae37ef11b136ea224fe,,,,,,,,,2873,38.00002021,69.33330433,1,0,0,response1disk,,7,-7.333314478,-4.666677535,1,0,0,rectangle,-7.333314478,-4.666677535,1,0,0,-7.333314478,-4.666677535,1,0,0,0,127,127,35,1,,,,,,,,
,,,,,,,,,,,,,FF,,,,,,,,2.8136,,,,,,,,,,,,,,,,,,,,,,61035da6b080f8c199539329,61036d7d3da8a854e137c028,2021-07-29_21h10.38.097,Simcolourproject_2stim_asymm_v5,2020.2.10,Win32,60,61025ae37ef11b136ea224fe,,,,,,,,,1707,52.00002062,23.33330295,1,0,0,response1disk,,6,11.33339343,3.99998939,1,0,0,rectangle,11.33339343,3.99998939,1,0,0,11.33339343,3.99998939,1,0,0,0,128,128,125,1,,,,,,,,
,,,,,,,,,,,,,FF,,,,,,,,3.7663,,,,,,,,,,,,,,,,,,,,,,61035da6b080f8c199539329,61036d7d3da8a854e137c028,2021-07-29_21h10.38.097,Simcolourproject_2stim_asymm_v5,2020.2.10,Win32,60,61025ae37ef11b136ea224fe,,,,,,,,,1012,57.33335412,-36.0000118,1,0,0,response3disk,,5,7.333393315,-1.333344102,1,0,0,rectangle,7.333393315,-1.333344102,1,0,0,7.333393315,-1.333344102,1,0,0,0,129,129,88,1,,,,,,,,
,,,,,,,,,,,,,FF,,,,,,,,2.4523,,,,,,,,,,,,,,,,,,,,,,61035da6b080f8c199539329,61036d7d3da8a854e137c028,2021-07-29_21h10.38.097,Simcolourproject_2stim_asymm_v5,2020.2.10,Win32,60,61025ae37ef11b136ea224fe,,,,,,,,,975,-81.33331668,-40.00001192,1,0,0,response5disk,,2,8.666685998,5.99998945,1,0,0,rectangle,8.666685998,5.99998945,1,0,0,8.666685998,5.99998945,1,0,0,0,130,130,132,1,,,,,,,,
,,,,,,,,,,,,,FF,,,,,,,,2.0384,,,,,,,,,,,,,,,,,,,,,,61035da6b080f8c199539329,61036d7d3da8a854e137c028,2021-07-29_21h10.38.097,Simcolourproject_2stim_asymm_v5,2020.2.10,Win32,60,61025ae37ef11b136ea224fe,,,,,,,,,901,-28.66660776,-89.33334672,1,0,0,response5disk,,3,12.66668612,-2.666677475,1,0,0,rectangle,-94.66660972,33.99999028,1,0,0,10.66668606,5.99998945,1,0,0,0,131,131,45,1,,response7disk_3,TRUE,1,1,"[196,152,232,44,104,303,208,300,274,312,264,288,162,201,105,56,65,132,91,297]",1.9765,rectangle
,,,,,,,,,,,,,FF,,,,,,,,5.752,,,,,,,,,,,,,,,,,,,,,,61035da6b080f8c199539329,61036d7d3da8a854e137c028,2021-07-29_21h10.38.097,Simcolourproject_2stim_asymm_v5,2020.2.10,Win32,60,61025ae37ef11b136ea224fe,,,,,,,,,600,67.33335441,-30.66667831,1,0,0,response3disk,,5,4.666685879,-0.666677415,1,0,0,rectangle,4.666685879,-0.666677415,1,0,0,4.666685879,-0.666677415,1,0,0,0,132,132,25,1,,,,,,,,
,,,,,,,,,,,,,FF,,,,,,,,3.1459,,,,,,,,,,,,,,,,,,,,,,61035da6b080f8c199539329,61036d7d3da8a854e137c028,2021-07-29_21h10.38.097,Simcolourproject_2stim_asymm_v5,2020.2.10,Win32,60,61025ae37ef11b136ea224fe,,,,,,,,,4170,44.66668707,-62.00001258,1,0,0,response3disk,,4,12.66668612,0.666655958,1,0,0,rectangle,12.66668612,0.666655958,1,0,0,12.66668612,0.666655958,1,0,0,0,133,133,19,1,,,,,,,,
,,,,,,,,,,,,,FF,,,,,,,,1.2834,,,,,,,,,,,,,,,,,,,,,,61035da6b080f8c199539329,61036d7d3da8a854e137c028,2021-07-29_21h10.38.097,Simcolourproject_2stim_asymm_v5,2020.2.10,Win32,60,61025ae37ef11b136ea224fe,,,,,,,,,3372,33.33339409,73.33330444,1,0,0,response1disk,,7,-3.999981046,-4.000010848,1,0,0,rectangle,-3.999981046,-4.000010848,1,0,0,-3.999981046,-4.000010848,1,0,0,0,134,134,79,1,,,,,,,,
,,,,,,,,,,,,,FF,,,,,,,,1.6522,,,,,,,,,,,,,,,,,,,,,,61035da6b080f8c199539329,61036d7d3da8a854e137c028,2021-07-29_21h10.38.097,Simcolourproject_2stim_asymm_v5,2020.2.10,Win32,60,61025ae37ef11b136ea224fe,,,,,,,,,828,35.33339415,69.99999136,1,0,0,response1disk,,7,6.000019252,7.99998951,1,0,0,rectangle,6.000019252,7.99998951,1,0,0,6.000019252,7.99998951,1,0,0,0,135,135,81,1,,,,,,,,
,,,,,,,,,,,,,FF,,,,,,,,2.1622,,,,,,,,,,,,,,,,,,,,,,61035da6b080f8c199539329,61036d7d3da8a854e137c028,2021-07-29_21h10.38.097,Simcolourproject_2stim_asymm_v5,2020.2.10,Win32,60,61025ae37ef11b136ea224fe,,,,,,,,,409,34.66668677,-70.00001281,1,0,0,response3disk,,4,5.333393256,4.666656077,1,0,0,rectangle,5.333393256,4.666656077,1,0,0,5.333393256,4.666656077,1,0,0,0,136,136,134,1,,,,,,,,
,,,,,,,,,,,,,FF,,,,,,,,1.7005,,,,,,,,,,,,,,,,,,,,,,61035da6b080f8c199539329,61036d7d3da8a854e137c028,2021-07-29_21h10.38.097,Simcolourproject_2stim_asymm_v5,2020.2.10,Win32,60,61025ae37ef11b136ea224fe,,,,,,,,,3739,40.00002027,-54.00001234,1,0,0,response3disk,,4,20.66668636,-9.33334434,1,0,0,rectangle,20.66668636,-9.33334434,1,0,0,20.66668636,-9.33334434,1,0,0,0,137,137,106,1,,,,,,,,
,,,,,,,,,,,,,FF,,,,,,,,1.8363,,,,,,,,,,,,,,,,,,,,,,61035da6b080f8c199539329,61036d7d3da8a854e137c028,2021-07-29_21h10.38.097,Simcolourproject_2stim_asymm_v5,2020.2.10,Win32,60,61025ae37ef11b136ea224fe,,,,,,,,,2224,89.33335507,43.33330355,1,0,0,response1disk,,6,7.333393315,9.999989569,1,0,0,rectangle,7.333393315,9.999989569,1,0,0,7.333393315,9.999989569,1,0,0,0,138,138,8,1,,,,,,,,
,,,,,,,,,,,,,FF,,,,,,,,2.0227,,,,,,,,,,,,,,,,,,,,,,61035da6b080f8c199539329,61036d7d3da8a854e137c028,2021-07-29_21h10.38.097,Simcolourproject_2stim_asymm_v5,2020.2.10,Win32,60,61025ae37ef11b136ea224fe,,,,,,,,,2506,-63.33331615,41.33330349,1,0,0,response7disk,,1,6.666685939,0.666655958,1,0,0,rectangle,6.666685939,0.666655958,1,0,0,6.666685939,0.666655958,1,0,0,0,139,139,76,1,,,,,,,,
,,,,,,,,,,,,,FF,,,,,,,,3.2756,,,,,,,,,,,,,,,,,,,,,,61035da6b080f8c199539329,61036d7d3da8a854e137c028,2021-07-29_21h10.38.097,Simcolourproject_2stim_asymm_v5,2020.2.10,Win32,60,61025ae37ef11b136ea224fe,,,,,,,,,3283,-27.99998176,-81.33334649,1,0,0,response5disk,,3,10.00001937,-1.333344102,1,0,0,rectangle,10.00001937,-1.333344102,1,0,0,10.00001937,-1.333344102,1,0,0,0,140,140,119,1,,,,,,,,
,,,,,,,,,,,,,FF,,,,,,,,4.9168,,,,,,,,,,,,,,,,,,,,,,61035da6b080f8c199539329,61036d7d3da8a854e137c028,2021-07-29_21h10.38.097,Simcolourproject_2stim_asymm_v5,2020.2.10,Win32,60,61025ae37ef11b136ea224fe,,,,,,,,,89,32.66668671,-60.00001252,1,0,0,response3disk,,4,8.666685998,-1.333344102,0,0,1,rectangle,8.666685998,-1.333344102,0,0,1,8.666685998,-1.333344102,0,0,1,0,141,141,91,1,,,,,,,,
,,,,,,,,,,,,,FF,,,,,,,,2.2036,,,,,,,,,,,,,,,,,,,,,,61035da6b080f8c199539329,61036d7d3da8a854e137c028,2021-07-29_21h10.38.097,Simcolourproject_2stim_asymm_v5,2020.2.10,Win32,60,61025ae37ef11b136ea224fe,,,,,,,,,100,-85.99998349,23.99998999,1,0,0,response7disk,,1,7.333393315,7.333322823,1,0,0,rectangle,7.333393315,7.333322823,1,0,0,7.333393315,7.333322823,1,0,0,0,142,142,62,1,,,,,,,,
,,,,,,,,,,,,,FF,,,,,,,,4.2332,,,,,,,,,,,,,,,,,,,,,,61035da6b080f8c199539329,61036d7d3da8a854e137c028,2021-07-29_21h10.38.097,Simcolourproject_2stim_asymm_v5,2020.2.10,Win32,60,61025ae37ef11b136ea224fe,,,,,,,,,4320,-85.3333168,29.33330313,1,0,0,response7disk,,1,-9.999981225,3.99998939,1,0,0,rectangle,-9.999981225,3.99998939,1,0,0,-9.999981225,3.99998939,1,0,0,0,143,143,159,1,,,,,,,,
,,,,,,,,,,,,,FF,,,,,,,,1.9029,,,,,,,,,,,,,,,,,,,,,,61035da6b080f8c199539329,61036d7d3da8a854e137c028,2021-07-29_21h10.38.097,Simcolourproject_2stim_asymm_v5,2020.2.10,Win32,60,61025ae37ef11b136ea224fe,,,,,,,,,368,-85.3333168,39.99999046,1,0,0,response7disk,,1,0.66668576,5.99998945,1,0,0,rectangle,0.66668576,5.99998945,1,0,0,0.66668576,5.99998945,1,0,0,0,144,144,103,1,,,,,,,,
,,,,,,,,,,,,,FF,,,,,,,,6.2338,,,,,,,,,,,,,,,,,,,,,,61035da6b080f8c199539329,61036d7d3da8a854e137c028,2021-07-29_21h10.38.097,Simcolourproject_2stim_asymm_v5,2020.2.10,Win32,60,61025ae37ef11b136ea224fe,,,,,,,,,1162,-41.33331549,-65.33334601,1,0,0,response5disk,,3,-11.99998128,-0.666677415,1,0,0,rectangle,-11.99998128,-0.666677415,1,0,0,-11.99998128,-0.666677415,1,0,0,0,145,145,72,1,,,,,,,,
,,,,,,,,,,,,,FF,,,,,,,,1.4343,,,,,,,,,,,,,,,,,,,,,,61035da6b080f8c199539329,61036d7d3da8a854e137c028,2021-07-29_21h10.38.097,Simcolourproject_2stim_asymm_v5,2020.2.10,Win32,60,61025ae37ef11b136ea224fe,,,,,,,,,940,-79.33331662,-42.66667867,1,0,0,response5disk,,2,-5.999981105,5.99998945,1,0,0,rectangle,-5.999981105,5.99998945,1,0,0,-5.999981105,5.99998945,1,0,0,0,146,146,143,1,,,,,,,,
,,,,,,,,,,,,,FF,,,,,,,,1.3343,,,,,,,,,,,,,,,,,,,,,,61035da6b080f8c199539329,61036d7d3da8a854e137c028,2021-07-29_21h10.38.097,Simcolourproject_2stim_asymm_v5,2020.2.10,Win32,60,61025ae37ef11b136ea224fe,,,,,,,,,2124,58.66668749,71.33330439,1,0,0,response1disk,,7,-3.999981046,-12.66667777,1,0,0,rectangle,-3.999981046,-12.66667777,1,0,0,-3.999981046,-12.66667777,1,0,0,0,147,147,58,1,,,,,,,,
,,,,,,,,,,,,,FF,,,,,,,,2.3835,,,,,,,,,,,,,,,,,,,,,,61035da6b080f8c199539329,61036d7d3da8a854e137c028,2021-07-29_21h10.38.097,Simcolourproject_2stim_asymm_v5,2020.2.10,Win32,60,61025ae37ef11b136ea224fe,,,,,,,,,3061,19.33339367,-69.33334613,1,0,0,response3disk,,4,18.6666863,5.333322763,1,0,0,rectangle,18.6666863,5.333322763,1,0,0,18.6666863,5.333322763,1,0,0,0,148,148,34,1,,,,,,,,
,,,,,,,,,,,,,FF,,,,,,,,3.4235,,,,,,,,,,,,,,,,,,,,,,61035da6b080f8c199539329,61036d7d3da8a854e137c028,2021-07-29_21h10.38.097,Simcolourproject_2stim_asymm_v5,2020.2.10,Win32,60,61025ae37ef11b136ea224fe,,,,,,,,,1546,-36.666608,-82.00001317,1,0,0,response5disk,,3,-13.33331466,-10.00001103,1,0,0,rectangle,-13.33331466,-10.00001103,1,0,0,-13.33331466,-10.00001103,1,0,0,0,149,149,24,1,,,,,,,,
,,,,,,,,,,,,,FF,,,,,,,,3.0156,,,,,,,,,,,,,,,,,,,,,,61035da6b080f8c199539329,61036d7d3da8a854e137c028,2021-07-29_21h10.38.097,Simcolourproject_2stim_asymm_v5,2020.2.10,Win32,60,61025ae37ef11b136ea224fe,,,,,,,,,2975,80.00002146,32.66665691,1,0,0,response1disk,,6,-21.99998158,-7.333344281,1,0,0,rectangle,-21.99998158,-7.333344281,1,0,0,-21.99998158,-7.333344281,1,0,0,0,150,150,84,1,,,,,,,,
,,,,,,,,,,,,,FF,,,,,,,,2.5684,,,,,,,,,,,,,,,,,,,,,,61035da6b080f8c199539329,61036d7d3da8a854e137c028,2021-07-29_21h10.38.097,Simcolourproject_2stim_asymm_v5,2020.2.10,Win32,60,61025ae37ef11b136ea224fe,,,,,,,,,767,43.3333537,-81.33334649,1,0,0,response3disk,,4,24.66668648,-4.666677535,1,0,0,rectangle,-48.66660835,-68.66667944,1,0,0,-12.66660728,-0.666677415,1,0,0,0,151,151,133,1,,response5disk_3,TRUE,3,3,"[196,152,232,44,104,303,208,300,274,312,264,288,162,201,105,56,65,132,91,297]",2.5037,rectangle
,,,,,,,,,,,,,FF,,,,,,,,2.9371,,,,,,,,,,,,,,,,,,,,,,61035da6b080f8c199539329,61036d7d3da8a854e137c028,2021-07-29_21h10.38.097,Simcolourproject_2stim_asymm_v5,2020.2.10,Win32,60,61025ae37ef11b136ea224fe,,,,,,,,,1143,-79.33331662,-42.00001198,1,0,0,response5disk,,2,-10.66660722,-1.333344102,1,0,0,rectangle,-10.66660722,-1.333344102,1,0,0,-10.66660722,-1.333344102,1,0,0,0,152,152,156,1,,,,,,,,
,,,,,,,,,,,,,FF,,,,,,,,2.0417,,,,,,,,,,,,,,,,,,,,,,61035da6b080f8c199539329,61036d7d3da8a854e137c028,2021-07-29_21h10.38.097,Simcolourproject_2stim_asymm_v5,2020.2.10,Win32,60,61025ae37ef11b136ea224fe,,,,,,,,,843,-53.99998254,-20.00001132,1,0,0,response5disk,,2,-19.99998152,-2.000010788,1,0,0,rectangle,-19.99998152,-2.000010788,1,0,0,-19.99998152,-2.000010788,1,0,0,0,153,153,30,1,,,,,,,,
,,,,,,,,,,,,,FF,,,,,,,,2.5685,,,,,,,,,,,,,,,,,,,,,,61035da6b080f8c199539329,61036d7d3da8a854e137c028,2021-07-29_21h10.38.097,Simcolourproject_2stim_asymm_v5,2020.2.10,Win32,60,61025ae37ef11b136ea224fe,,,,,,,,,334,34.00002009,-80.6666798,1,0,0,response3disk,,4,18.00001961,2.666656017,1,0,0,rectangle,18.00001961,2.666656017,1,0,0,18.00001961,2.666656017,1,0,0,0,154,154,55,1,,,,,,,,
,,,,,,,,,,,,,FF,,,,,,,,2.5701,,,,,,,,,,,,,,,,,,,,,,61035da6b080f8c199539329,61036d7d3da8a854e137c028,2021-07-29_21h10.38.097,Simcolourproject_2stim_asymm_v5,2020.2.10,Win32,60,61025ae37ef11b136ea224fe,,,,,,,,,333,-41.99998218,-76.00001299,1,0,0,response5disk,,3,11.33339343,-0.666677415,1,0,0,rectangle,11.33339343,-0.666677415,1,0,0,11.33339343,-0.666677415,1,0,0,0,155,155,23,1,,,,,,,,
,,,,,,,,,,,,,FF,,,,,,,,1.6999,,,,,,,,,,,,,,,,,,,,,,61035da6b080f8c199539329,61036d7d3da8a854e137c028,2021-07-29_21h10.38.097,Simcolourproject_2stim_asymm_v5,2020.2.10,Win32,60,61025ae37ef11b136ea224fe,,,,,,,,,3199,102.6666888,39.33330343,1,0,0,response1disk,,6,-23.33331496,-1.07288E-05,1,0,0,rectangle,-23.33331496,-1.07288E-05,1,0,0,-23.33331496,-1.07288E-05,1,0,0,0,156,156,61,1,,,,,,,,
,,,,,,,,,,,,,FF,,,,,,,,1.4983,,,,,,,,,,,,,,,,,,,,,,61035da6b080f8c199539329,61036d7d3da8a854e137c028,2021-07-29_21h10.38.097,Simcolourproject_2stim_asymm_v5,2020.2.10,Win32,60,61025ae37ef11b136ea224fe,,,,,,,,,170,43.3333537,63.33330415,1,0,0,response1disk,,7,6.000019252,3.333322704,1,0,0,rectangle,6.000019252,3.333322704,1,0,0,6.000019252,3.333322704,1,0,0,0,157,157,121,1,,,,,,,,
,,,,,,,,,,,,,FF,,,,,,,,2.4503,,,,,,,,,,,,,,,,,,,,,,61035da6b080f8c199539329,61036d7d3da8a854e137c028,2021-07-29_21h10.38.097,Simcolourproject_2stim_asymm_v5,2020.2.10,Win32,60,61025ae37ef11b136ea224fe,,,,,,,,,3000,66.00002104,33.33330325,1,0,0,response1disk,,6,6.666685939,7.99998951,1,0,0,rectangle,6.666685939,7.99998951,1,0,0,6.666685939,7.99998951,1,0,0,0,158,158,65,1,,,,,,,,
,,,,,,,,,,,,,FF,,,,,,,,2.2239,,,,,,,,,,,,,,,,,,,,,,61035da6b080f8c199539329,61036d7d3da8a854e137c028,2021-07-29_21h10.38.097,Simcolourproject_2stim_asymm_v5,2020.2.10,Win32,60,61025ae37ef11b136ea224fe,,,,,,,,,2003,87.33335501,48.66665739,1,0,0,response1disk,,6,22.00001973,4.666656077,1,0,0,rectangle,22.00001973,4.666656077,1,0,0,22.00001973,4.666656077,1,0,0,0,159,159,94,1,,,,,,,,
,,,,,,,,,,,,,FF,,,,,,,,4.9345,,,,,,,,,,,,,,,,,,,,,,61035da6b080f8c199539329,61036d7d3da8a854e137c028,2021-07-29_21h10.38.097,Simcolourproject_2stim_asymm_v5,2020.2.10,Win32,60,61025ae37ef11b136ea224fe,,,,,,,,,1441,94.00002187,35.99999034,1,0,0,response1disk,,6,10.66668606,9.999989569,1,0,0,rectangle,10.66668606,9.999989569,1,0,0,10.66668606,9.999989569,1,0,0,1,0,160,107,1,,,,,,,,
,,,,,,,,,,,,,FF,,,,,,,,1.0257,,,,,,,,,,,,,,,,,,,,,,61035da6b080f8c199539329,61036d7d3da8a854e137c028,2021-07-29_21h10.38.097,Simcolourproject_2stim_asymm_v5,2020.2.10,Win32,60,61025ae37ef11b136ea224fe,,,,,,,,,2969,30.00001997,81.33330468,1,0,0,response1disk,,7,10.00001937,-6.000010908,1,0,0,rectangle,-84.66660943,29.99999017,1,0,0,-7.333314478,3.99998939,1,0,0,1,1,161,75,1,,response7disk_3,TRUE,1,1,"[196,152,232,44,104,303,208,300,274,312,264,288,162,201,105,56,65,132,91,297]",2.1168,rectangle
,,,,,,,,,,,,,FF,,,,,,,,2.8208,,,,,,,,,,,,,,,,,,,,,,61035da6b080f8c199539329,61036d7d3da8a854e137c028,2021-07-29_21h10.38.097,Simcolourproject_2stim_asymm_v5,2020.2.10,Win32,60,61025ae37ef11b136ea224fe,,,,,,,,,1639,38.00002021,57.999991,1,0,0,response1disk,,7,1.333393137,6.666656137,1,0,0,rectangle,1.333393137,6.666656137,1,0,0,1.333393137,6.666656137,1,0,0,1,2,162,102,1,,,,,,,,
,,,,,,,,,,,,,FF,,,,,,,,3.468,,,,,,,,,,,,,,,,,,,,,,61035da6b080f8c199539329,61036d7d3da8a854e137c028,2021-07-29_21h10.38.097,Simcolourproject_2stim_asymm_v5,2020.2.10,Win32,60,61025ae37ef11b136ea224fe,,,,,,,,,4073,93.33335519,36.66665703,1,0,0,response1disk,,6,6.000019252,5.99998945,1,0,0,rectangle,6.000019252,5.99998945,1,0,0,6.000019252,5.99998945,1,0,0,1,3,163,62,1,,,,,,,,
,,,,,,,,,,,,,FF,,,,,,,,2.1499,,,,,,,,,,,,,,,,,,,,,,61035da6b080f8c199539329,61036d7d3da8a854e137c028,2021-07-29_21h10.38.097,Simcolourproject_2stim_asymm_v5,2020.2.10,Win32,60,61025ae37ef11b136ea224fe,,,,,,,,,2887,32.00002003,54.66665757,1,0,0,response1disk,,7,10.00001937,3.99998939,1,0,0,rectangle,10.00001937,3.99998939,1,0,0,10.00001937,3.99998939,1,0,0,1,4,164,127,1,,,,,,,,
,,,,,,,,,,,,,FF,,,,,,,,1.4171,,,,,,,,,,,,,,,,,,,,,,61035da6b080f8c199539329,61036d7d3da8a854e137c028,2021-07-29_21h10.38.097,Simcolourproject_2stim_asymm_v5,2020.2.10,Win32,60,61025ae37ef11b136ea224fe,,,,,,,,,119,71.33335453,38.66665709,1,0,0,response1disk,,6,11.33339343,-2.000010788,1,0,0,rectangle,11.33339343,-2.000010788,1,0,0,11.33339343,-2.000010788,1,0,0,1,5,165,13,1,,,,,,,,
,,,,,,,,,,,,,FF,,,,,,,,1.786,,,,,,,,,,,,,,,,,,,,,,61035da6b080f8c199539329,61036d7d3da8a854e137c028,2021-07-29_21h10.38.097,Simcolourproject_2stim_asymm_v5,2020.2.10,Win32,60,61025ae37ef11b136ea224fe,,,,,,,,,531,59.33335418,-26.0000115,1,0,0,response3disk,,5,16.00001955,-4.666677535,1,0,0,rectangle,16.00001955,-4.666677535,1,0,0,16.00001955,-4.666677535,1,0,0,1,6,166,48,1,,,,,,,,
,,,,,,,,,,,,,FF,,,,,,,,2.0673,,,,,,,,,,,,,,,,,,,,,,61035da6b080f8c199539329,61036d7d3da8a854e137c028,2021-07-29_21h10.38.097,Simcolourproject_2stim_asymm_v5,2020.2.10,Win32,60,61025ae37ef11b136ea224fe,,,,,,,,,1361,74.00002128,59.99999106,1,0,0,response1disk,,6,13.33339349,6.666656137,1,0,0,rectangle,13.33339349,6.666656137,1,0,0,13.33339349,6.666656137,1,0,0,1,7,167,33,1,,,,,,,,
,,,,,,,,,,,,,FF,,,,,,,,3.45,,,,,,,,,,,,,,,,,,,,,,61035da6b080f8c199539329,61036d7d3da8a854e137c028,2021-07-29_21h10.38.097,Simcolourproject_2stim_asymm_v5,2020.2.10,Win32,60,61025ae37ef11b136ea224fe,,,,,,,,,1919,28.00001991,-66.66667938,1,0,0,response3disk,,4,0.66668576,-3.333344162,1,0,0,rectangle,0.66668576,-3.333344162,1,0,0,0.66668576,-3.333344162,1,0,0,1,8,168,125,1,,,,,,,,
,,,,,,,,,,,,,FF,,,,,,,,2.4169,,,,,,,,,,,,,,,,,,,,,,61035da6b080f8c199539329,61036d7d3da8a854e137c028,2021-07-29_21h10.38.097,Simcolourproject_2stim_asymm_v5,2020.2.10,Win32,60,61025ae37ef11b136ea224fe,,,,,,,,,256,68.66668779,-36.0000118,1,0,0,response3disk,,5,9.333393375,-3.333344162,1,0,0,rectangle,9.333393375,-3.333344162,1,0,0,9.333393375,-3.333344162,1,0,0,1,9,169,99,1,,,,,,,,
,,,,,,,,,,,,,FF,,,,,,,,4.2044,,,,,,,,,,,,,,,,,,,,,,61035da6b080f8c199539329,61036d7d3da8a854e137c028,2021-07-29_21h10.38.097,Simcolourproject_2stim_asymm_v5,2020.2.10,Win32,60,61025ae37ef11b136ea224fe,,,,,,,,,1222,24.00001979,-34.00001174,1,0,0,response3disk,,4,7.333393315,-6.666677594,1,0,0,rectangle,7.333393315,-6.666677594,1,0,0,7.333393315,-6.666677594,1,0,0,1,10,170,103,1,,,,,,,,
,,,,,,,,,,,,,FF,,,,,,,,3.1094,,,,,,,,,,,,,,,,,,,,,,61035da6b080f8c199539329,61036d7d3da8a854e137c028,2021-07-29_21h10.38.097,Simcolourproject_2stim_asymm_v5,2020.2.10,Win32,60,61025ae37ef11b136ea224fe,,,,,,,,,3035,78.66668808,46.66665733,1,0,0,response1disk,,6,-1.999980986,9.999989569,1,0,0,rectangle,-1.999980986,9.999989569,1,0,0,-1.999980986,9.999989569,1,0,0,1,11,171,139,1,,,,,,,,
,,,,,,,,,,,,,FF,,,,,,,,1.1339,,,,,,,,,,,,,,,,,,,,,,61035da6b080f8c199539329,61036d7d3da8a854e137c028,2021-07-29_21h10.38.097,Simcolourproject_2stim_asymm_v5,2020.2.10,Win32,60,61025ae37ef11b136ea224fe,,,,,,,,,1779,45.33335376,74.66665816,1,0,0,response1disk,,7,6.000019252,3.99998939,1,0,0,rectangle,6.000019252,3.99998939,1,0,0,6.000019252,3.99998939,1,0,0,1,12,172,134,1,,,,,,,,
,,,,,,,,,,,,,FF,,,,,,,,1.5169,,,,,,,,,,,,,,,,,,,,,,61035da6b080f8c199539329,61036d7d3da8a854e137c028,2021-07-29_21h10.38.097,Simcolourproject_2stim_asymm_v5,2020.2.10,Win32,60,61025ae37ef11b136ea224fe,,,,,,,,,672,-55.33331591,35.33330331,1,0,0,response7disk,,1,-1.999980986,7.99998951,1,0,0,rectangle,-1.999980986,7.99998951,1,0,0,-1.999980986,7.99998951,1,0,0,1,13,173,27,1,,,,,,,,
,,,,,,,,,,,,,FF,,,,,,,,2.4845,,,,,,,,,,,,,,,,,,,,,,61035da6b080f8c199539329,61036d7d3da8a854e137c028,2021-07-29_21h10.38.097,Simcolourproject_2stim_asymm_v5,2020.2.10,Win32,60,61025ae37ef11b136ea224fe,,,,,,,,,4332,64.00002098,-47.33334547,1,0,0,response3disk,,5,4.666685879,-4.666677535,1,0,0,rectangle,4.666685879,-4.666677535,1,0,0,4.666685879,-4.666677535,1,0,0,1,14,174,140,1,,,,,,,,
,,,,,,,,,,,,,FF,,,,,,,,1.5679,,,,,,,,,,,,,,,,,,,,,,61035da6b080f8c199539329,61036d7d3da8a854e137c028,2021-07-29_21h10.38.097,Simcolourproject_2stim_asymm_v5,2020.2.10,Win32,60,61025ae37ef11b136ea224fe,,,,,,,,,1023,36.00002015,62.66665781,1,0,0,response1disk,,7,14.00001949,-1.07288E-05,1,0,0,rectangle,14.00001949,-1.07288E-05,1,0,0,14.00001949,-1.07288E-05,1,0,0,1,15,175,149,1,,,,,,,,
,,,,,,,,,,,,,FF,,,,,,,,1.7671,,,,,,,,,,,,,,,,,,,,,,61035da6b080f8c199539329,61036d7d3da8a854e137c028,2021-07-29_21h10.38.097,Simcolourproject_2stim_asymm_v5,2020.2.10,Win32,60,61025ae37ef11b136ea224fe,,,,,,,,,4203,58.0000208,47.9999907,1,0,0,response1disk,,6,9.333393375,3.99998939,1,0,0,rectangle,9.333393375,3.99998939,1,0,0,9.333393375,3.99998939,1,0,0,1,16,176,112,1,,,,,,,,
,,,,,,,,,,,,,FF,,,,,,,,1.5159,,,,,,,,,,,,,,,,,,,,,,61035da6b080f8c199539329,61036d7d3da8a854e137c028,2021-07-29_21h10.38.097,Simcolourproject_2stim_asymm_v5,2020.2.10,Win32,60,61025ae37ef11b136ea224fe,,,,,,,,,3979,68.0000211,-29.33334494,1,0,0,response3disk,,5,13.33339349,-0.666677415,1,0,0,rectangle,13.33339349,-0.666677415,1,0,0,13.33339349,-0.666677415,1,0,0,1,17,177,135,1,,,,,,,,
,,,,,,,,,,,,,FF,,,,,,,,2.1002,,,,,,,,,,,,,,,,,,,,,,61035da6b080f8c199539329,61036d7d3da8a854e137c028,2021-07-29_21h10.38.097,Simcolourproject_2stim_asymm_v5,2020.2.10,Win32,60,61025ae37ef11b136ea224fe,,,,,,,,,802,55.33335406,75.3333045,1,0,0,response1disk,,7,-1.999980986,7.333322823,1,0,0,rectangle,-1.999980986,7.333322823,1,0,0,-1.999980986,7.333322823,1,0,0,1,18,178,138,1,,,,,,,,
,,,,,,,,,,,,,FF,,,,,,,,4.8336,,,,,,,,,,,,,,,,,,,,,,61035da6b080f8c199539329,61036d7d3da8a854e137c028,2021-07-29_21h10.38.097,Simcolourproject_2stim_asymm_v5,2020.2.10,Win32,60,61025ae37ef11b136ea224fe,,,,,,,,,4238,33.33339409,-60.6666792,1,0,0,response3disk,,4,11.33339343,-5.333344221,1,0,0,rectangle,11.33339343,-5.333344221,1,0,0,11.33339343,-5.333344221,1,0,0,1,19,179,65,1,,,,,,,,
,,,,,,,,,,,,,FF,,,,,,,,9.451,,,,,,,,,,,,,,,,,,,,,,61035da6b080f8c199539329,61036d7d3da8a854e137c028,2021-07-29_21h10.38.097,Simcolourproject_2stim_asymm_v5,2020.2.10,Win32,60,61025ae37ef11b136ea224fe,,,,,,,,,249,30.00001997,-56.0000124,1,0,0,response3disk,,4,10.66668606,-6.000010908,1,0,0,rectangle,10.66668606,-6.000010908,1,0,0,10.66668606,-6.000010908,1,0,0,1,20,180,104,1,,,,,,,,
,,,,,,,,,,,,,FF,,,,,,,,8.7677,,,,,,,,,,,,,,,,,,,,,,61035da6b080f8c199539329,61036d7d3da8a854e137c028,2021-07-29_21h10.38.097,Simcolourproject_2stim_asymm_v5,2020.2.10,Win32,60,61025ae37ef11b136ea224fe,,,,,,,,,3156,84.00002158,19.33330284,1,0,0,response1disk,,6,18.00001961,6.666656137,1,0,0,rectangle,18.00001961,6.666656137,1,0,0,18.00001961,6.666656137,1,0,0,1,21,181,95,1,,,,,,,,
,,,,,,,,,,,,,FF,,,,,,,,2.235,,,,,,,,,,,,,,,,,,,,,,61035da6b080f8c199539329,61036d7d3da8a854e137c028,2021-07-29_21h10.38.097,Simcolourproject_2stim_asymm_v5,2020.2.10,Win32,60,61025ae37ef11b136ea224fe,,,,,,,,,839,83.33335489,-31.333345,1,0,0,response3disk,,5,-7.333314478,1.999989331,1,0,0,rectangle,-7.333314478,1.999989331,1,0,0,-7.333314478,1.999989331,1,0,0,1,22,182,12,1,,,,,,,,
,,,,,,,,,,,,,FF,,,,,,,,2.6665,,,,,,,,,,,,,,,,,,,,,,61035da6b080f8c199539329,61036d7d3da8a854e137c028,2021-07-29_21h10.38.097,Simcolourproject_2stim_asymm_v5,2020.2.10,Win32,60,61025ae37ef11b136ea224fe,,,,,,,,,1172,-75.3333165,31.99999022,1,0,0,response7disk,,1,21.33339373,3.99998939,1,0,0,rectangle,21.33339373,3.99998939,1,0,0,21.33339373,3.99998939,1,0,0,1,23,183,126,1,,,,,,,,
,,,,,,,,,,,,,FF,,,,,,,,1.9343,,,,,,,,,,,,,,,,,,,,,,61035da6b080f8c199539329,61036d7d3da8a854e137c028,2021-07-29_21h10.38.097,Simcolourproject_2stim_asymm_v5,2020.2.10,Win32,60,61025ae37ef11b136ea224fe,,,,,,,,,3051,-28.66660776,-83.33334655,1,0,0,response5disk,,3,-14.66660734,4.666656077,1,0,0,rectangle,-14.66660734,4.666656077,1,0,0,-14.66660734,4.666656077,1,0,0,1,24,184,15,1,,,,,,,,
,,,,,,,,,,,,,FF,,,,,,,,3.0885,,,,,,,,,,,,,,,,,,,,,,61035da6b080f8c199539329,61036d7d3da8a854e137c028,2021-07-29_21h10.38.097,Simcolourproject_2stim_asymm_v5,2020.2.10,Win32,60,61025ae37ef11b136ea224fe,,,,,,,,,1285,75.33335465,-27.33334488,1,0,0,response3disk,,5,10.00001937,1.999989331,1,0,0,rectangle,10.00001937,1.999989331,1,0,0,10.00001937,1.999989331,1,0,0,1,25,185,136,1,,,,,,,,
,,,,,,,,,,,,,FF,,,,,,,,5.8158,,,,,,,,,,,,,,,,,,,,,,61035da6b080f8c199539329,61036d7d3da8a854e137c028,2021-07-29_21h10.38.097,Simcolourproject_2stim_asymm_v5,2020.2.10,Win32,60,61025ae37ef11b136ea224fe,,,,,,,,,2687,75.33335465,-32.00001168,1,0,0,response3disk,,5,-5.999981105,13.333323,1,0,0,rectangle,-5.999981105,13.333323,1,0,0,-5.999981105,13.333323,1,0,0,1,26,186,106,1,,,,,,,,
,,,,,,,,,,,,,FF,,,,,,,,0.9065,,,,,,,,,,,,,,,,,,,,,,61035da6b080f8c199539329,61036d7d3da8a854e137c028,2021-07-29_21h10.38.097,Simcolourproject_2stim_asymm_v5,2020.2.10,Win32,60,61025ae37ef11b136ea224fe,,,,,,,,,526,41.33339433,79.33330462,1,0,0,response1disk,,7,-21.99998158,-8.000010967,1,0,0,rectangle,-21.99998158,-8.000010967,1,0,0,-21.99998158,-8.000010967,1,0,0,1,27,187,115,1,,,,,,,,
,,,,,,,,,,,,,FF,,,,,,,,0.9674,,,,,,,,,,,,,,,,,,,,,,61035da6b080f8c199539329,61036d7d3da8a854e137c028,2021-07-29_21h10.38.097,Simcolourproject_2stim_asymm_v5,2020.2.10,Win32,60,61025ae37ef11b136ea224fe,,,,,,,,,2675,46.00002044,61.33330409,1,0,0,response1disk,,7,-2.666606983,-12.00001109,1,0,0,rectangle,-2.666606983,-12.00001109,1,0,0,-2.666606983,-12.00001109,1,0,0,1,28,188,5,1,,,,,,,,
,,,,,,,,,,,,,FF,,,,,,,,1.9246,,,,,,,,,,,,,,,,,,,,,,61035da6b080f8c199539329,61036d7d3da8a854e137c028,2021-07-29_21h10.38.097,Simcolourproject_2stim_asymm_v5,2020.2.10,Win32,60,61025ae37ef11b136ea224fe,,,,,,,,,2490,75.33335465,29.33330313,1,0,0,response1disk,,6,4.000019193,6.666656137,1,0,0,rectangle,4.000019193,6.666656137,1,0,0,4.000019193,6.666656137,1,0,0,1,29,189,89,1,,,,,,,,
,,,,,,,,,,,,,FF,,,,,,,,2.3874,,,,,,,,,,,,,,,,,,,,,,61035da6b080f8c199539329,61036d7d3da8a854e137c028,2021-07-29_21h10.38.097,Simcolourproject_2stim_asymm_v5,2020.2.10,Win32,60,61025ae37ef11b136ea224fe,,,,,,,,,2883,-29.99998182,-84.66667992,1,0,0,response5disk,,3,-3.999981046,-1.333344102,1,0,0,rectangle,-3.999981046,-1.333344102,1,0,0,-3.999981046,-1.333344102,1,0,0,1,30,190,34,1,,,,,,,,
,,,,,,,,,,,,,FF,,,,,,,,1.8338,,,,,,,,,,,,,,,,,,,,,,61035da6b080f8c199539329,61036d7d3da8a854e137c028,2021-07-29_21h10.38.097,Simcolourproject_2stim_asymm_v5,2020.2.10,Win32,60,61025ae37ef11b136ea224fe,,,,,,,,,3975,51.33335394,79.99999166,1,0,0,response1disk,,7,1.333393137,8.666656196,1,0,0,rectangle,1.333393137,8.666656196,1,0,0,1.333393137,8.666656196,1,0,0,1,31,191,83,1,,,,,,,,
,,,,,,,,,,,,,FF,,,,,,,,3.5837,,,,,,,,,,,,,,,,,,,,,,61035da6b080f8c199539329,61036d7d3da8a854e137c028,2021-07-29_21h10.38.097,Simcolourproject_2stim_asymm_v5,2020.2.10,Win32,60,61025ae37ef11b136ea224fe,,,,,,,,,3798,-41.99998218,-76.66667968,1,0,0,response5disk,,3,9.333393375,-2.666677475,1,0,0,rectangle,9.333393375,-2.666677475,1,0,0,9.333393375,-2.666677475,1,0,0,1,32,192,82,1,,,,,,,,
,,,,,,,,,,,,,FF,,,,,,,,3.2336,,,,,,,,,,,,,,,,,,,,,,61035da6b080f8c199539329,61036d7d3da8a854e137c028,2021-07-29_21h10.38.097,Simcolourproject_2stim_asymm_v5,2020.2.10,Win32,60,61025ae37ef11b136ea224fe,,,,,,,,,2588,98.00002199,64.66665787,1,0,0,response1disk,,6,-6.666607102,-1.07288E-05,1,0,0,rectangle,-6.666607102,-1.07288E-05,1,0,0,-6.666607102,-1.07288E-05,1,0,0,1,33,193,98,1,,,,,,,,
,,,,,,,,,,,,,FF,,,,,,,,4.734,,,,,,,,,,,,,,,,,,,,,,61035da6b080f8c199539329,61036d7d3da8a854e137c028,2021-07-29_21h10.38.097,Simcolourproject_2stim_asymm_v5,2020.2.10,Win32,60,61025ae37ef11b136ea224fe,,,,,,,,,1509,33.33339409,-58.66667914,1,0,0,response3disk,,4,13.33339349,-7.333344281,1,0,0,rectangle,13.33339349,-7.333344281,1,0,0,13.33339349,-7.333344281,1,0,0,1,34,194,73,1,,,,,,,,
,,,,,,,,,,,,,FF,,,,,,,,1.9133,,,,,,,,,,,,,,,,,,,,,,61035da6b080f8c199539329,61036d7d3da8a854e137c028,2021-07-29_21h10.38.097,Simcolourproject_2stim_asymm_v5,2020.2.10,Win32,60,61025ae37ef11b136ea224fe,,,,,,,,,1891,78.0000214,27.33330307,1,0,0,response1disk,,6,1.333393137,7.99998951,1,0,0,rectangle,-75.99998319,36.66665703,1,0,0,-11.3333146,-1.333344102,1,0,0,1,35,195,148,1,,response7disk_3,TRUE,1,1,"[196,152,232,44,104,303,208,300,274,312,264,288,162,201,105,56,65,132,91,297]",1.4861,rectangle
,,,,,,,,,,,,,FF,,,,,,,,2.4174,,,,,,,,,,,,,,,,,,,,,,61035da6b080f8c199539329,61036d7d3da8a854e137c028,2021-07-29_21h10.38.097,Simcolourproject_2stim_asymm_v5,2020.2.10,Win32,60,61025ae37ef11b136ea224fe,,,,,,,,,1560,80.66668814,-46.66667879,1,0,0,response3disk,,5,-6.666607102,-0.666677415,1,0,0,rectangle,-6.666607102,-0.666677415,1,0,0,-6.666607102,-0.666677415,1,0,0,1,36,196,71,1,,,,,,,,
,,,,,,,,,,,,,FF,,,,,,,,2.3749,,,,,,,,,,,,,,,,,,,,,,61035da6b080f8c199539329,61036d7d3da8a854e137c028,2021-07-29_21h10.38.097,Simcolourproject_2stim_asymm_v5,2020.2.10,Win32,60,61025ae37ef11b136ea224fe,,,,,,,,,3555,68.66668779,-42.00001198,1,0,0,response3disk,,5,15.33339355,8.666656196,1,0,0,rectangle,15.33339355,8.666656196,1,0,0,15.33339355,8.666656196,1,0,0,1,37,197,23,1,,,,,,,,
,,,,,,,,,,,,,FF,,,,,,,,1.4234,,,,,,,,,,,,,,,,,,,,,,61035da6b080f8c199539329,61036d7d3da8a854e137c028,2021-07-29_21h10.38.097,Simcolourproject_2stim_asymm_v5,2020.2.10,Win32,60,61025ae37ef11b136ea224fe,,,,,,,,,288,79.33335477,29.99999017,1,0,0,response1disk,,6,9.333393375,10.66665626,1,0,0,rectangle,9.333393375,10.66665626,1,0,0,9.333393375,10.66665626,1,0,0,1,38,198,133,1,,,,,,,,
,,,,,,,,,,,,,FF,,,,,,,,2.0014,,,,,,,,,,,,,,,,,,,,,,61035da6b080f8c199539329,61036d7d3da8a854e137c028,2021-07-29_21h10.38.097,Simcolourproject_2stim_asymm_v5,2020.2.10,Win32,60,61025ae37ef11b136ea224fe,,,,,,,,,3915,66.66668773,21.3333029,1,0,0,response1disk,,6,13.33339349,-4.000010848,1,0,0,rectangle,13.33339349,-4.000010848,1,0,0,13.33339349,-4.000010848,1,0,0,1,39,199,45,1,,,,,,,,
,,,,,,,,,,,,,FF,,,,,,,,2.5829,,,,,,,,,,,,,,,,,,,,,,61035da6b080f8c199539329,61036d7d3da8a854e137c028,2021-07-29_21h10.38.097,Simcolourproject_2stim_asymm_v5,2020.2.10,Win32,60,61025ae37ef11b136ea224fe,,,,,,,,,4194,58.0000208,-37.33334517,1,0,0,response3disk,,5,11.33339343,-4.666677535,1,0,0,rectangle,34.66668677,66.66665792,1,0,0,-1.3333143,5.333322763,1,0,0,1,40,200,26,1,,response1disk_3,TRUE,7,7,"[196,152,232,44,104,303,208,300,274,312,264,288,162,201,105,56,65,132,91,297]",1.8659,rectangle
,,,,,,,,,,,,,FF,,,,,,,,5.9973,,,,,,,,,,,,,,,,,,,,,,61035da6b080f8c199539329,61036d7d3da8a854e137c028,2021-07-29_21h10.38.097,Simcolourproject_2stim_asymm_v5,2020.2.10,Win32,60,61025ae37ef11b136ea224fe,,,,,,,,,745,77.33335471,-57.33334577,1,0,0,response3disk,,5,8.000019312,6.666656137,1,0,0,rectangle,8.000019312,6.666656137,1,0,0,8.000019312,6.666656137,1,0,0,1,41,201,6,1,,,,,,,,
,,,,,,,,,,,,,FF,,,,,,,,2.6566,,,,,,,,,,,,,,,,,,,,,,61035da6b080f8c199539329,61036d7d3da8a854e137c028,2021-07-29_21h10.38.097,Simcolourproject_2stim_asymm_v5,2020.2.10,Win32,60,61025ae37ef11b136ea224fe,,,,,,,,,2326,68.66668779,37.9999904,1,0,0,response1disk,,6,14.66668618,11.33332294,1,0,0,rectangle,14.66668618,11.33332294,1,0,0,14.66668618,11.33332294,1,0,0,1,42,202,87,1,,,,,,,,
,,,,,,,,,,,,,FF,,,,,,,,2.2781,,,,,,,,,,,,,,,,,,,,,,61035da6b080f8c199539329,61036d7d3da8a854e137c028,2021-07-29_21h10.38.097,Simcolourproject_2stim_asymm_v5,2020.2.10,Win32,60,61025ae37ef11b136ea224fe,,,,,,,,,3746,45.33335376,-34.00001174,1,0,0,response3disk,,5,18.6666863,-6.000010908,1,0,0,rectangle,18.6666863,-6.000010908,1,0,0,18.6666863,-6.000010908,1,0,0,1,43,203,41,1,,,,,,,,
,,,,,,,,,,,,,FF,,,,,,,,1.6223,,,,,,,,,,,,,,,,,,,,,,61035da6b080f8c199539329,61036d7d3da8a854e137c028,2021-07-29_21h10.38.097,Simcolourproject_2stim_asymm_v5,2020.2.10,Win32,60,61025ae37ef11b136ea224fe,,,,,,,,,239,26.00001985,-62.00001258,1,0,0,response3disk,,4,22.00001973,-5.333344221,1,0,0,rectangle,22.00001973,-5.333344221,1,0,0,22.00001973,-5.333344221,1,0,0,1,44,204,93,1,,,,,,,,
,,,,,,,,,,,,,FF,,,,,,,,4.3025,,,,,,,,,,,,,,,,,,,,,,61035da6b080f8c199539329,61036d7d3da8a854e137c028,2021-07-29_21h10.38.097,Simcolourproject_2stim_asymm_v5,2020.2.10,Win32,60,61025ae37ef11b136ea224fe,,,,,,,,,3149,93.33335519,-40.66667861,1,0,0,response3disk,,5,15.33339355,-4.666677535,1,0,0,rectangle,15.33339355,-4.666677535,1,0,0,15.33339355,-4.666677535,1,0,0,1,45,205,157,1,,,,,,,,
,,,,,,,,,,,,,FF,,,,,,,,4.9836,,,,,,,,,,,,,,,,,,,,,,61035da6b080f8c199539329,61036d7d3da8a854e137c028,2021-07-29_21h10.38.097,Simcolourproject_2stim_asymm_v5,2020.2.10,Win32,60,61025ae37ef11b136ea224fe,,,,,,,,,1709,29.33339397,-85.33334661,1,0,0,response3disk,,4,5.333393256,6.666656137,1,0,0,rectangle,5.333393256,6.666656137,1,0,0,5.333393256,6.666656137,1,0,0,1,46,206,78,1,,,,,,,,
,,,,,,,,,,,,,FF,,,,,,,,1.1833,,,,,,,,,,,,,,,,,,,,,,61035da6b080f8c199539329,61036d7d3da8a854e137c028,2021-07-29_21h10.38.097,Simcolourproject_2stim_asymm_v5,2020.2.10,Win32,60,61025ae37ef11b136ea224fe,,,,,,,,,4297,34.00002009,63.99999118,1,0,0,response1disk,,7,4.000019193,4.666656077,1,0,0,rectangle,67.33335441,-24.66667813,1,0,0,16.00001955,-1.333344102,1,0,0,1,47,207,96,1,,response3disk_3,TRUE,5,5,"[196,152,232,44,104,303,208,300,274,312,264,288,162,201,105,56,65,132,91,297]",1.7859,rectangle
,,,,,,,,,,,,,FF,,,,,,,,3.4346,,,,,,,,,,,,,,,,,,,,,,61035da6b080f8c199539329,61036d7d3da8a854e137c028,2021-07-29_21h10.38.097,Simcolourproject_2stim_asymm_v5,2020.2.10,Win32,60,61025ae37ef11b136ea224fe,,,,,,,,,2766,37.33339421,-82.66667986,1,0,0,response3disk,,4,-3.999981046,-6.000010908,1,0,0,rectangle,-3.999981046,-6.000010908,1,0,0,-3.999981046,-6.000010908,1,0,0,1,48,208,119,1,,,,,,,,
,,,,,,,,,,,,,FF,,,,,,,,3.8868,,,,,,,,,,,,,,,,,,,,,,61035da6b080f8c199539329,61036d7d3da8a854e137c028,2021-07-29_21h10.38.097,Simcolourproject_2stim_asymm_v5,2020.2.10,Win32,60,61025ae37ef11b136ea224fe,,,,,,,,,2453,72.66668791,-31.333345,1,0,0,response3disk,,5,-20.66660752,4.666656077,1,0,0,rectangle,-20.66660752,4.666656077,1,0,0,-20.66660752,4.666656077,1,0,0,1,49,209,11,1,,,,,,,,
,,,,,,,,,,,,,FF,,,,,,,,3.2704,,,,,,,,,,,,,,,,,,,,,,61035da6b080f8c199539329,61036d7d3da8a854e137c028,2021-07-29_21h10.38.097,Simcolourproject_2stim_asymm_v5,2020.2.10,Win32,60,61025ae37ef11b136ea224fe,,,,,,,,,3137,83.33335489,-38.66667855,1,0,0,response3disk,,5,13.33339349,0.666655958,1,0,0,rectangle,13.33339349,0.666655958,1,0,0,13.33339349,0.666655958,1,0,0,1,50,210,105,1,,,,,,,,
,,,,,,,,,,,,,FF,,,,,,,,1.7362,,,,,,,,,,,,,,,,,,,,,,61035da6b080f8c199539329,61036d7d3da8a854e137c028,2021-07-29_21h10.38.097,Simcolourproject_2stim_asymm_v5,2020.2.10,Win32,60,61025ae37ef11b136ea224fe,,,,,,,,,3662,33.33339409,-76.66667968,1,0,0,response3disk,,4,4.666685879,7.333322823,1,0,0,rectangle,4.666685879,7.333322823,1,0,0,4.666685879,7.333322823,1,0,0,1,51,211,151,1,,,,,,,,
,,,,,,,,,,,,,FF,,,,,,,,1.4806,,,,,,,,,,,,,,,,,,,,,,61035da6b080f8c199539329,61036d7d3da8a854e137c028,2021-07-29_21h10.38.097,Simcolourproject_2stim_asymm_v5,2020.2.10,Win32,60,61025ae37ef11b136ea224fe,,,,,,,,,2680,33.33339409,-64.00001264,1,0,0,response3disk,,4,3.333393196,-6.000010908,1,0,0,rectangle,3.333393196,-6.000010908,1,0,0,3.333393196,-6.000010908,1,0,0,1,52,212,80,1,,,,,,,,
,,,,,,,,,,,,,FF,,,,,,,,1.7002,,,,,,,,,,,,,,,,,,,,,,61035da6b080f8c199539329,61036d7d3da8a854e137c028,2021-07-29_21h10.38.097,Simcolourproject_2stim_asymm_v5,2020.2.10,Win32,60,61025ae37ef11b136ea224fe,,,,,,,,,3922,28.66668659,83.33330474,1,0,0,response1disk,,7,10.66668606,11.33332294,1,0,0,rectangle,10.66668606,11.33332294,1,0,0,10.66668606,11.33332294,1,0,0,1,53,213,35,1,,,,,,,,
,,,,,,,,,,,,,FF,,,,,,,,1.05,,,,,,,,,,,,,,,,,,,,,,61035da6b080f8c199539329,61036d7d3da8a854e137c028,2021-07-29_21h10.38.097,Simcolourproject_2stim_asymm_v5,2020.2.10,Win32,60,61025ae37ef11b136ea224fe,,,,,,,,,2122,26.66668653,73.33330444,1,0,0,response1disk,,7,14.66668618,1.333322644,1,0,0,rectangle,14.66668618,1.333322644,1,0,0,14.66668618,1.333322644,1,0,0,1,54,214,70,1,,,,,,,,
,,,,,,,,,,,,,FF,,,,,,,,2.7686,,,,,,,,,,,,,,,,,,,,,,61035da6b080f8c199539329,61036d7d3da8a854e137c028,2021-07-29_21h10.38.097,Simcolourproject_2stim_asymm_v5,2020.2.10,Win32,60,61025ae37ef11b136ea224fe,,,,,,,,,2049,82.00002152,-37.33334517,1,0,0,response3disk,,5,8.666685998,-2.000010788,1,0,0,rectangle,8.666685998,-2.000010788,1,0,0,8.666685998,-2.000010788,1,0,0,1,55,215,110,1,,,,,,,,
,,,,,,,,,,,,,FF,,,,,,,,5.0672,,,,,,,,,,,,,,,,,,,,,,61035da6b080f8c199539329,61036d7d3da8a854e137c028,2021-07-29_21h10.38.097,Simcolourproject_2stim_asymm_v5,2020.2.10,Win32,60,61025ae37ef11b136ea224fe,,,,,,,,,2603,-32.66660788,-78.66667974,1,0,0,response5disk,,3,11.33339343,7.333322823,1,0,0,rectangle,11.33339343,7.333322823,1,0,0,11.33339343,7.333322823,1,0,0,1,56,216,7,1,,,,,,,,
,,,,,,,,,,,,,FF,,,,,,,,3.6511,,,,,,,,,,,,,,,,,,,,,,61035da6b080f8c199539329,61036d7d3da8a854e137c028,2021-07-29_21h10.38.097,Simcolourproject_2stim_asymm_v5,2020.2.10,Win32,60,61025ae37ef11b136ea224fe,,,,,,,,,2487,32.66668671,-69.33334613,1,0,0,response3disk,,4,20.66668636,-4.000010848,1,0,0,rectangle,20.66668636,-4.000010848,1,0,0,20.66668636,-4.000010848,1,0,0,1,57,217,97,1,,,,,,,,
,,,,,,,,,,,,,FF,,,,,,,,1.351,,,,,,,,,,,,,,,,,,,,,,61035da6b080f8c199539329,61036d7d3da8a854e137c028,2021-07-29_21h10.38.097,Simcolourproject_2stim_asymm_v5,2020.2.10,Win32,60,61025ae37ef11b136ea224fe,,,,,,,,,518,21.33339373,63.99999118,1,0,0,response1disk,,7,12.00001943,12.66665632,1,0,0,rectangle,12.00001943,12.66665632,1,0,0,12.00001943,12.66665632,1,0,0,1,58,218,141,1,,,,,,,,
,,,,,,,,,,,,,FF,,,,,,,,3.0502,,,,,,,,,,,,,,,,,,,,,,61035da6b080f8c199539329,61036d7d3da8a854e137c028,2021-07-29_21h10.38.097,Simcolourproject_2stim_asymm_v5,2020.2.10,Win32,60,61025ae37ef11b136ea224fe,,,,,,,,,1343,34.00002009,-76.00001299,1,0,0,response3disk,,4,2.000019133,4.666656077,1,0,0,rectangle,2.000019133,4.666656077,1,0,0,2.000019133,4.666656077,1,0,0,1,59,219,37,1,,,,,,,,
,,,,,,,,,,,,,FF,,,,,,,,3.6491,,,,,,,,,,,,,,,,,,,,,,61035da6b080f8c199539329,61036d7d3da8a854e137c028,2021-07-29_21h10.38.097,Simcolourproject_2stim_asymm_v5,2020.2.10,Win32,60,61025ae37ef11b136ea224fe,,,,,,,,,1567,73.33335459,-36.66667849,1,0,0,response3disk,,5,13.33339349,0.666655958,1,0,0,rectangle,13.33339349,0.666655958,1,0,0,13.33339349,0.666655958,1,0,0,1,60,220,130,1,,,,,,,,
,,,,,,,,,,,,,FF,,,,,,,,1.2166,,,,,,,,,,,,,,,,,,,,,,61035da6b080f8c199539329,61036d7d3da8a854e137c028,2021-07-29_21h10.38.097,Simcolourproject_2stim_asymm_v5,2020.2.10,Win32,60,61025ae37ef11b136ea224fe,,,,,,,,,3732,66.00002104,34.66665697,1,0,0,response1disk,,6,12.00001943,1.333322644,1,0,0,rectangle,12.00001943,1.333322644,1,0,0,12.00001943,1.333322644,1,0,0,1,61,221,52,1,,,,,,,,
,,,,,,,,,,,,,FF,,,,,,,,1.6502,,,,,,,,,,,,,,,,,,,,,,61035da6b080f8c199539329,61036d7d3da8a854e137c028,2021-07-29_21h10.38.097,Simcolourproject_2stim_asymm_v5,2020.2.10,Win32,60,61025ae37ef11b136ea224fe,,,,,,,,,2646,22.00001973,57.33330397,1,0,0,response1disk,,7,5.333393256,13.333323,1,0,0,rectangle,5.333393256,13.333323,1,0,0,5.333393256,13.333323,1,0,0,1,62,222,142,1,,,,,,,,
,,,,,,,,,,,,,FF,,,,,,,,2.7003,,,,,,,,,,,,,,,,,,,,,,61035da6b080f8c199539329,61036d7d3da8a854e137c028,2021-07-29_21h10.38.097,Simcolourproject_2stim_asymm_v5,2020.2.10,Win32,60,61025ae37ef11b136ea224fe,,,,,,,,,3594,58.0000208,29.99999017,1,0,0,response1disk,,6,6.000019252,3.333322704,1,0,0,rectangle,6.000019252,3.333322704,1,0,0,6.000019252,3.333322704,1,0,0,1,63,223,66,1,,,,,,,,
,,,,,,,,,,,,,FF,,,,,,,,1.9685,,,,,,,,,,,,,,,,,,,,,,61035da6b080f8c199539329,61036d7d3da8a854e137c028,2021-07-29_21h10.38.097,Simcolourproject_2stim_asymm_v5,2020.2.10,Win32,60,61025ae37ef11b136ea224fe,,,,,,,,,2821,79.33335477,31.33330319,1,0,0,response1disk,,6,-8.666607161,8.666656196,1,0,0,rectangle,-8.666607161,8.666656196,1,0,0,-8.666607161,8.666656196,1,0,0,1,64,224,21,1,,,,,,,,
,,,,,,,,,,,,,FF,,,,,,,,2.5204,,,,,,,,,,,,,,,,,,,,,,61035da6b080f8c199539329,61036d7d3da8a854e137c028,2021-07-29_21h10.38.097,Simcolourproject_2stim_asymm_v5,2020.2.10,Win32,60,61025ae37ef11b136ea224fe,,,,,,,,,1191,86.66668832,-58.66667914,1,0,0,response3disk,,5,-0.666606923,5.99998945,1,0,0,rectangle,-0.666606923,5.99998945,1,0,0,-0.666606923,5.99998945,1,0,0,1,65,225,145,1,,,,,,,,
,,,,,,,,,,,,,FF,,,,,,,,1.584,,,,,,,,,,,,,,,,,,,,,,61035da6b080f8c199539329,61036d7d3da8a854e137c028,2021-07-29_21h10.38.097,Simcolourproject_2stim_asymm_v5,2020.2.10,Win32,60,61025ae37ef11b136ea224fe,,,,,,,,,621,36.66668683,-66.0000127,1,0,0,response3disk,,4,2.000019133,-2.000010788,1,0,0,rectangle,2.000019133,-2.000010788,1,0,0,2.000019133,-2.000010788,1,0,0,1,66,226,55,1,,,,,,,,
,,,,,,,,,,,,,FF,,,,,,,,2.0327,,,,,,,,,,,,,,,,,,,,,,61035da6b080f8c199539329,61036d7d3da8a854e137c028,2021-07-29_21h10.38.097,Simcolourproject_2stim_asymm_v5,2020.2.10,Win32,60,61025ae37ef11b136ea224fe,,,,,,,,,2334,50.66668725,77.33330456,1,0,0,response1disk,,7,8.666685998,9.333322883,1,0,0,rectangle,8.666685998,9.333322883,1,0,0,8.666685998,9.333322883,1,0,0,1,67,227,123,1,,,,,,,,
,,,,,,,,,,,,,FF,,,,,,,,1.9036,,,,,,,,,,,,,,,,,,,,,,61035da6b080f8c199539329,61036d7d3da8a854e137c028,2021-07-29_21h10.38.097,Simcolourproject_2stim_asymm_v5,2020.2.10,Win32,60,61025ae37ef11b136ea224fe,,,,,,,,,1072,32.00002003,54.66665757,1,0,0,response1disk,,7,12.66668612,-3.333344162,1,0,0,rectangle,12.66668612,-3.333344162,1,0,0,12.66668612,-3.333344162,1,0,0,1,68,228,28,1,,,,,,,,
,,,,,,,,,,,,,FF,,,,,,,,1.4559,,,,,,,,,,,,,,,,,,,,,,61035da6b080f8c199539329,61036d7d3da8a854e137c028,2021-07-29_21h10.38.097,Simcolourproject_2stim_asymm_v5,2020.2.10,Win32,60,61025ae37ef11b136ea224fe,,,,,,,,,536,38.00002021,-66.66667938,1,0,0,response3disk,,4,14.00001949,-5.333344221,1,0,0,rectangle,14.00001949,-5.333344221,1,0,0,14.00001949,-5.333344221,1,0,0,1,69,229,90,1,,,,,,,,
,,,,,,,,,,,,,FF,,,,,,,,3.1842,,,,,,,,,,,,,,,,,,,,,,61035da6b080f8c199539329,61036d7d3da8a854e137c028,2021-07-29_21h10.38.097,Simcolourproject_2stim_asymm_v5,2020.2.10,Win32,60,61025ae37ef11b136ea224fe,,,,,,,,,2192,87.33335501,22.66665661,1,0,0,response1disk,,6,23.33339379,7.333322823,1,0,0,rectangle,23.33339379,7.333322823,1,0,0,23.33339379,7.333322823,1,0,0,1,70,230,137,1,,,,,,,,
,,,,,,,,,,,,,FF,,,,,,,,1.7674,,,,,,,,,,,,,,,,,,,,,,61035da6b080f8c199539329,61036d7d3da8a854e137c028,2021-07-29_21h10.38.097,Simcolourproject_2stim_asymm_v5,2020.2.10,Win32,60,61025ae37ef11b136ea224fe,,,,,,,,,2709,-44.66660823,-72.00001287,1,0,0,response5disk,,3,-1.3333143,-9.33334434,1,0,0,rectangle,-72.66660907,48.66665739,1,0,0,-7.333314478,9.333322883,1,0,0,1,71,231,131,1,,response7disk_3,TRUE,1,1,"[196,152,232,44,104,303,208,300,274,312,264,288,162,201,105,56,65,132,91,297]",1.7987,rectangle
,,,,,,,,,,,,,FF,,,,,,,,2.918,,,,,,,,,,,,,,,,,,,,,,61035da6b080f8c199539329,61036d7d3da8a854e137c028,2021-07-29_21h10.38.097,Simcolourproject_2stim_asymm_v5,2020.2.10,Win32,60,61025ae37ef11b136ea224fe,,,,,,,,,880,82.00002152,43.33330355,1,0,0,response1disk,,6,-7.333314478,-8.666677654,1,0,0,rectangle,-7.333314478,-8.666677654,1,0,0,-7.333314478,-8.666677654,1,0,0,1,72,232,150,1,,,,,,,,
,,,,,,,,,,,,,FF,,,,,,,,3.5029,,,,,,,,,,,,,,,,,,,,,,61035da6b080f8c199539329,61036d7d3da8a854e137c028,2021-07-29_21h10.38.097,Simcolourproject_2stim_asymm_v5,2020.2.10,Win32,60,61025ae37ef11b136ea224fe,,,,,,,,,3912,22.66668642,-71.33334619,1,0,0,response3disk,,4,3.333393196,5.99998945,1,0,0,rectangle,3.333393196,5.99998945,1,0,0,3.333393196,5.99998945,1,0,0,1,73,233,16,1,,,,,,,,
,,,,,,,,,,,,,FF,,,,,,,,1.7363,,,,,,,,,,,,,,,,,,,,,,61035da6b080f8c199539329,61036d7d3da8a854e137c028,2021-07-29_21h10.38.097,Simcolourproject_2stim_asymm_v5,2020.2.10,Win32,60,61025ae37ef11b136ea224fe,,,,,,,,,886,104.6666889,-43.33334535,1,0,0,response3disk,,5,20.00001967,-8.000010967,1,0,0,rectangle,20.00001967,-8.000010967,1,0,0,20.00001967,-8.000010967,1,0,0,1,74,234,122,1,,,,,,,,
,,,,,,,,,,,,,FF,,,,,,,,2.4017,,,,,,,,,,,,,,,,,,,,,,61035da6b080f8c199539329,61036d7d3da8a854e137c028,2021-07-29_21h10.38.097,Simcolourproject_2stim_asymm_v5,2020.2.10,Win32,60,61025ae37ef11b136ea224fe,,,,,,,,,3403,86.00002164,22.66665661,1,0,0,response1disk,,6,-1.3333143,7.333322823,1,0,0,rectangle,-1.3333143,7.333322823,1,0,0,-1.3333143,7.333322823,1,0,0,1,75,235,68,1,,,,,,,,
,,,,,,,,,,,,,FF,,,,,,,,1.8338,,,,,,,,,,,,,,,,,,,,,,61035da6b080f8c199539329,61036d7d3da8a854e137c028,2021-07-29_21h10.38.097,Simcolourproject_2stim_asymm_v5,2020.2.10,Win32,60,61025ae37ef11b136ea224fe,,,,,,,,,3307,46.66668713,-91.33334678,1,0,0,response3disk,,4,18.6666863,2.666656017,1,0,0,rectangle,18.6666863,2.666656017,1,0,0,18.6666863,2.666656017,1,0,0,1,76,236,108,1,,,,,,,,
,,,,,,,,,,,,,FF,,,,,,,,2.1192,,,,,,,,,,,,,,,,,,,,,,61035da6b080f8c199539329,61036d7d3da8a854e137c028,2021-07-29_21h10.38.097,Simcolourproject_2stim_asymm_v5,2020.2.10,Win32,60,61025ae37ef11b136ea224fe,,,,,,,,,2526,74.00002128,-25.33334482,1,0,0,response3disk,,5,20.66668636,4.666656077,1,0,0,rectangle,20.66668636,4.666656077,1,0,0,20.66668636,4.666656077,1,0,0,1,77,237,56,1,,,,,,,,
,,,,,,,,,,,,,FF,,,,,,,,2.5671,,,,,,,,,,,,,,,,,,,,,,61035da6b080f8c199539329,61036d7d3da8a854e137c028,2021-07-29_21h10.38.097,Simcolourproject_2stim_asymm_v5,2020.2.10,Win32,60,61025ae37ef11b136ea224fe,,,,,,,,,1356,90.66668844,40.66665715,1,0,0,response1disk,,6,1.9735E-05,4.666656077,1,0,0,rectangle,1.9735E-05,4.666656077,1,0,0,1.9735E-05,4.666656077,1,0,0,1,78,238,61,1,,,,,,,,
,,,,,,,,,,,,,FF,,,,,,,,1.8169,,,,,,,,,,,,,,,,,,,,,,61035da6b080f8c199539329,61036d7d3da8a854e137c028,2021-07-29_21h10.38.097,Simcolourproject_2stim_asymm_v5,2020.2.10,Win32,60,61025ae37ef11b136ea224fe,,,,,,,,,107,29.33339397,-70.6666795,1,0,0,response3disk,,4,22.66668642,-8.000010967,1,0,0,rectangle,22.66668642,-8.000010967,1,0,0,22.66668642,-8.000010967,1,0,0,1,79,239,51,1,,,,,,,,
,,,,,,,,,,,,,FF,,,,,,,,1.3001,,,,,,,,,,,,,,,,,,,,,,61035da6b080f8c199539329,61036d7d3da8a854e137c028,2021-07-29_21h10.38.097,Simcolourproject_2stim_asymm_v5,2020.2.10,Win32,60,61025ae37ef11b136ea224fe,,,,,,,,,1750,-35.999982,-68.00001276,1,0,0,response5disk,,3,-1.999980986,-8.000010967,1,0,0,rectangle,-1.999980986,-8.000010967,1,0,0,-1.999980986,-8.000010967,1,0,0,1,80,240,14,1,,,,,,,,
,,,,,,,,,,,,,FF,,,,,,,,1.4169,,,,,,,,,,,,,,,,,,,,,,61035da6b080f8c199539329,61036d7d3da8a854e137c028,2021-07-29_21h10.38.097,Simcolourproject_2stim_asymm_v5,2020.2.10,Win32,60,61025ae37ef11b136ea224fe,,,,,,,,,1807,-20.66660752,-78.00001305,1,0,0,response5disk,,3,8.666685998,8.666656196,1,0,0,rectangle,8.666685998,8.666656196,1,0,0,8.666685998,8.666656196,1,0,0,1,81,241,84,1,,,,,,,,
,,,,,,,,,,,,,FF,,,,,,,,1.3387,,,,,,,,,,,,,,,,,,,,,,61035da6b080f8c199539329,61036d7d3da8a854e137c028,2021-07-29_21h10.38.097,Simcolourproject_2stim_asymm_v5,2020.2.10,Win32,60,61025ae37ef11b136ea224fe,,,,,,,,,3782,68.66668779,-55.33334571,1,0,0,response3disk,,5,17.33339361,-4.000010848,1,0,0,rectangle,17.33339361,-4.000010848,1,0,0,17.33339361,-4.000010848,1,0,0,1,82,242,158,1,,,,,,,,
,,,,,,,,,,,,,FF,,,,,,,,1.9816,,,,,,,,,,,,,,,,,,,,,,61035da6b080f8c199539329,61036d7d3da8a854e137c028,2021-07-29_21h10.38.097,Simcolourproject_2stim_asymm_v5,2020.2.10,Win32,60,61025ae37ef11b136ea224fe,,,,,,,,,225,38.00002021,81.33330468,1,0,0,response1disk,,7,-3.333314359,6.666656137,1,0,0,rectangle,-3.333314359,6.666656137,1,0,0,-3.333314359,6.666656137,1,0,0,1,83,243,22,1,,,,,,,,
