key_resp.keys,key_resp.rt,key_resp_14.keys,key_resp_14.rt,key_resp_15.keys,key_resp_15.rt,key_resp_17.keys,key_resp_17.rt,key_resp_9.keys,key_resp_9.rt,key_resp_10.keys,key_resp_10.rt,practice_comparison,Ecc,mouse_5.x,mouse_5.y,mouse_5.leftButton,mouse_5.midButton,mouse_5.rightButton,mouse_5.clicked_name,pracsimilarity,response_time,mouse_10.x,mouse_10.y,mouse_10.leftButton,mouse_10.midButton,mouse_10.rightButton,mouse_10.clicked_name,mouse_7.x,mouse_7.y,mouse_7.leftButton,mouse_7.midButton,mouse_7.rightButton,mouse_6.x,mouse_6.y,mouse_6.leftButton,mouse_6.midButton,mouse_6.rightButton,duringprac.thisRepN,duringprac.thisTrialN,duringprac.thisN,duringprac.thisIndex,duringprac.ran,participant,session,date,expName,psychopyVersion,OS,frameRate,study_id,mouse_7.clicked_name,catchpracsimilarity,catch_response_time,catchnumberprac,catchtrialorderprac,mouse_6.clicked_name,key_resp_22.keys,key_resp_22.rt,realcomparison,mouse.x,mouse.y,mouse.leftButton,mouse.midButton,mouse.rightButton,mouse.clicked_name,Colour2,similarity,mouse_2.x,mouse_2.y,mouse_2.leftButton,mouse_2.midButton,mouse_2.rightButton,mouse_2.clicked_name,mouse_3.x,mouse_3.y,mouse_3.leftButton,mouse_3.midButton,mouse_3.rightButton,mouse_11.x,mouse_11.y,mouse_11.leftButton,mouse_11.midButton,mouse_11.rightButton,trials_2.thisRepN,trials_2.thisTrialN,trials_2.thisN,trials_2.thisIndex,trials_2.ran,Colour1,mouse_3.clicked_name,catchornah,catchsimilarity,catchnumber,catchtrialorder,catchRT,mouse_11.clicked_name
space,1.7042,space,10.0798,space,23.9122,space,6.4178,space,1.76,space,4.159,151,FF,-39.99998915,-112.0000081,1,0,0,response5disk_5,3,5.6461,-4.799988627,4.799993634,1,0,0,rectangle_8,-4.799988627,4.799993634,1,0,0,-4.799988627,4.799993634,1,0,0,0,0,0,5,1,61035f0c5670985a943f70f1,61036c2484ad83fd30723a5c,2021-07-29_23h04.45.358,Simcolourproject_2stim_asymm_v5,2020.2.10,Win32,60,61025ae37ef11b136ea224fe,,,,,,,,,,,,,,,,,,,,,,,,,,,,,,,,,,,,,,,,,,,,,,
,,,,,,,,,,,,60,PF,72.00001252,51.99999434,1,0,0,response1disk_5,6,2.3982,1.14441E-05,-6.4373E-06,1,0,0,rectangle_8,-57.59998941,-101.6000568,1,0,0,-4.799988627,4.799993634,1,0,0,0,1,1,6,1,61035f0c5670985a943f70f1,61036c2484ad83fd30723a5c,2021-07-29_23h04.45.358,Simcolourproject_2stim_asymm_v5,2020.2.10,Win32,60,61025ae37ef11b136ea224fe,response5disk_7,3,3.4817,3,"[2,5]",rectangle_4,,,,,,,,,,,,,,,,,,,,,,,,,,,,,,,,,,,,,,,,
,,,,,,,,,,,,95,FF,80.00001264,35.19996967,1,0,0,response1disk_5,6,3.2816,-6.399939823,-2.400006473,1,0,0,rectangle_8,-6.399939823,-2.400006473,1,0,0,-6.399939823,-2.400006473,1,0,0,0,2,2,3,1,61035f0c5670985a943f70f1,61036c2484ad83fd30723a5c,2021-07-29_23h04.45.358,Simcolourproject_2stim_asymm_v5,2020.2.10,Win32,60,61025ae37ef11b136ea224fe,,,,,,,,,,,,,,,,,,,,,,,,,,,,,,,,,,,,,,,,,,,,,,
,,,,,,,,,,,,44,FF,44.80001211,-68.00000745,1,0,0,response3disk_5,4,1.9817,-7.999988675,-0.800006449,1,0,0,rectangle_8,-7.999988675,-0.800006449,1,0,0,-7.999988675,-0.800006449,1,0,0,0,3,3,0,1,61035f0c5670985a943f70f1,61036c2484ad83fd30723a5c,2021-07-29_23h04.45.358,Simcolourproject_2stim_asymm_v5,2020.2.10,Win32,60,61025ae37ef11b136ea224fe,,,,,,,,,,,,,,,,,,,,,,,,,,,,,,,,,,,,,,,,,,,,,,
,,,,,,,,,,,,126,PF,48.80001217,71.99999464,1,0,0,response1disk_5,7,2.4974,-5.599988639,-11.2000066,1,0,0,rectangle_8,-42.39994036,-95.20000786,1,0,0,-5.599988639,8.799993694,1,0,0,0,4,4,1,1,61035f0c5670985a943f70f1,61036c2484ad83fd30723a5c,2021-07-29_23h04.45.358,Simcolourproject_2stim_asymm_v5,2020.2.10,Win32,60,61025ae37ef11b136ea224fe,response5disk_7,3,1.5324,3,"[2,5]",rectangle_4,,,,,,,,,,,,,,,,,,,,,,,,,,,,,,,,,,,,,,,,
,,,,,,,,,,,,94,PF,56.80001229,63.99999452,1,0,0,response1disk_5,7,3.7803,15.20001167,2.399993598,1,0,0,rectangle_8,15.20001167,2.399993598,1,0,0,15.20001167,2.399993598,1,0,0,0,5,5,2,1,61035f0c5670985a943f70f1,61036c2484ad83fd30723a5c,2021-07-29_23h04.45.358,Simcolourproject_2stim_asymm_v5,2020.2.10,Win32,60,61025ae37ef11b136ea224fe,,,,,,,,,,,,,,,,,,,,,,,,,,,,,,,,,,,,,,,,,,,,,,
,,,,,,,,,,,,154,PF,94.40001285,35.9999941,1,0,0,response1disk_5,6,5.512,3.200011492,4.799993634,1,0,0,rectangle_8,3.200011492,4.799993634,1,0,0,3.200011492,4.799993634,1,0,0,0,6,6,4,1,61035f0c5670985a943f70f1,61036c2484ad83fd30723a5c,2021-07-29_23h04.45.358,Simcolourproject_2stim_asymm_v5,2020.2.10,Win32,60,61025ae37ef11b136ea224fe,,,,,,,,,,,,,,,,,,,,,,,,,,,,,,,,,,,,,,,,,,,,,,
,,,,,,,,,,,,,FF,,,,,,,,2.8146,,,,,,,,,,,,,,,,,,,,,,61035f0c5670985a943f70f1,61036c2484ad83fd30723a5c,2021-07-29_23h04.45.358,Simcolourproject_2stim_asymm_v5,2020.2.10,Win32,60,61025ae37ef11b136ea224fe,,,,,,,space,7.6346,598,105.600013,47.19996985,1,0,0,response1disk,,6,-2.399939764,7.19999367,1,0,0,rectangle,-2.399939764,7.19999367,1,0,0,-2.399939764,7.19999367,1,0,0,0,0,0,155,1,,,,,,,,
,,,,,,,,,,,,,FF,,,,,,,,2.4315,,,,,,,,,,,,,,,,,,,,,,61035f0c5670985a943f70f1,61036c2484ad83fd30723a5c,2021-07-29_23h04.45.358,Simcolourproject_2stim_asymm_v5,2020.2.10,Win32,60,61025ae37ef11b136ea224fe,,,,,,,,,120,95.20001286,42.39999419,1,0,0,response1disk,,6,11.20001161,1.599993587,1,0,0,rectangle,11.20001161,1.599993587,1,0,0,11.20001161,1.599993587,1,0,0,0,1,1,34,1,,,,,,,,
,,,,,,,,,,,,,FF,,,,,,,,1.6321,,,,,,,,,,,,,,,,,,,,,,61035f0c5670985a943f70f1,61036c2484ad83fd30723a5c,2021-07-29_23h04.45.358,Simcolourproject_2stim_asymm_v5,2020.2.10,Win32,60,61025ae37ef11b136ea224fe,,,,,,,,,2290,84.0000127,-53.60000724,1,0,0,response3disk,,5,23.20001179,-6.4373E-06,1,0,0,rectangle,23.20001179,-6.4373E-06,1,0,0,23.20001179,-6.4373E-06,1,0,0,0,2,2,151,1,,,,,,,,
,,,,,,,,,,,,,FF,,,,,,,,1.1485,,,,,,,,,,,,,,,,,,,,,,61035f0c5670985a943f70f1,61036c2484ad83fd30723a5c,2021-07-29_23h04.45.358,Simcolourproject_2stim_asymm_v5,2020.2.10,Win32,60,61025ae37ef11b136ea224fe,,,,,,,,,154,-24.79998893,-59.20000732,1,0,0,response5disk,,3,8.000011563,-4.800006509,1,0,0,rectangle,8.000011563,-4.800006509,1,0,0,8.000011563,-4.800006509,1,0,0,0,3,3,102,1,,,,,,,,
,,,,,,,,,,,,,FF,,,,,,,,1.499,,,,,,,,,,,,,,,,,,,,,,61035f0c5670985a943f70f1,61036c2484ad83fd30723a5c,2021-07-29_23h04.45.358,Simcolourproject_2stim_asymm_v5,2020.2.10,Win32,60,61025ae37ef11b136ea224fe,,,,,,,,,2531,108.8000131,33.59999406,1,0,0,response1disk,,6,16.80001169,-6.400006533,1,0,0,rectangle,16.80001169,-6.400006533,1,0,0,16.80001169,-6.400006533,1,0,0,0,4,4,73,1,,,,,,,,
,,,,,,,,,,,,,FF,,,,,,,,1.0662,,,,,,,,,,,,,,,,,,,,,,61035f0c5670985a943f70f1,61036c2484ad83fd30723a5c,2021-07-29_23h04.45.358,Simcolourproject_2stim_asymm_v5,2020.2.10,Win32,60,61025ae37ef11b136ea224fe,,,,,,,,,2587,40.80001205,-81.60005648,1,0,0,response3disk,,4,14.40001166,-6.4373E-06,1,0,0,rectangle,-43.1999892,92.79999495,1,0,0,-9.599988699,3.19999361,1,0,0,0,5,5,47,1,,response7disk_3,TRUE,0,0,"[306,80,6,213,87,80,214,259,243,245,154,109,63,43,155,320,135,94,159,302]",1.8485,rectangle
,,,,,,,,,,,,,FF,,,,,,,,2.9142,,,,,,,,,,,,,,,,,,,,,,61035f0c5670985a943f70f1,61036c2484ad83fd30723a5c,2021-07-29_23h04.45.358,Simcolourproject_2stim_asymm_v5,2020.2.10,Win32,60,61025ae37ef11b136ea224fe,,,,,,,,,2395,92.00001281,-41.60000706,1,0,0,response3disk,,5,8.800011575,-4.800006509,1,0,0,rectangle,8.800011575,-4.800006509,1,0,0,8.800011575,-4.800006509,1,0,0,0,6,6,112,1,,,,,,,,
,,,,,,,,,,,,,FF,,,,,,,,2.2148,,,,,,,,,,,,,,,,,,,,,,61035f0c5670985a943f70f1,61036c2484ad83fd30723a5c,2021-07-29_23h04.45.358,Simcolourproject_2stim_asymm_v5,2020.2.10,Win32,60,61025ae37ef11b136ea224fe,,,,,,,,,2598,60.00001234,-85.60005654,1,0,0,response3disk,,4,13.60006047,-2.400006473,1,0,0,rectangle,13.60006047,-2.400006473,1,0,0,13.60006047,-2.400006473,1,0,0,0,7,7,131,1,,,,,,,,
,,,,,,,,,,,,,FF,,,,,,,,2.3145,,,,,,,,,,,,,,,,,,,,,,61035f0c5670985a943f70f1,61036c2484ad83fd30723a5c,2021-07-29_23h04.45.358,Simcolourproject_2stim_asymm_v5,2020.2.10,Win32,60,61025ae37ef11b136ea224fe,,,,,,,,,2422,-95.19998997,-36.00000697,1,0,0,response5disk,,2,-23.99998891,2.399993598,1,0,0,rectangle,-23.99998891,2.399993598,1,0,0,-23.99998891,2.399993598,1,0,0,0,8,8,103,1,,,,,,,,
,,,,,,,,,,,,,FF,,,,,,,,7.627,,,,,,,,,,,,,,,,,,,,,,61035f0c5670985a943f70f1,61036c2484ad83fd30723a5c,2021-07-29_23h04.45.358,Simcolourproject_2stim_asymm_v5,2020.2.10,Win32,60,61025ae37ef11b136ea224fe,,,,,,,,,747,57.6000123,75.9999947,1,0,0,response1disk,,7,12.80001163,9.599993706,1,0,0,rectangle,12.80001163,9.599993706,1,0,0,12.80001163,9.599993706,1,0,0,0,9,9,76,1,,,,,,,,
,,,,,,,,,,,,,FF,,,,,,,,1.5988,,,,,,,,,,,,,,,,,,,,,,61035f0c5670985a943f70f1,61036c2484ad83fd30723a5c,2021-07-29_23h04.45.358,Simcolourproject_2stim_asymm_v5,2020.2.10,Win32,60,61025ae37ef11b136ea224fe,,,,,,,,,1945,91.2000128,58.39999443,1,0,0,response1disk,,6,20.80001175,11.19999373,1,0,0,rectangle,20.80001175,11.19999373,1,0,0,20.80001175,11.19999373,1,0,0,0,10,10,132,1,,,,,,,,
,,,,,,,,,,,,,FF,,,,,,,,2.0487,,,,,,,,,,,,,,,,,,,,,,61035f0c5670985a943f70f1,61036c2484ad83fd30723a5c,2021-07-29_23h04.45.358,Simcolourproject_2stim_asymm_v5,2020.2.10,Win32,60,61025ae37ef11b136ea224fe,,,,,,,,,1731,64.80001241,-67.20000744,1,0,0,response3disk,,4,2.40001148,5.599993646,1,0,0,rectangle,2.40001148,5.599993646,1,0,0,2.40001148,5.599993646,1,0,0,0,11,11,123,1,,,,,,,,
,,,,,,,,,,,,,FF,,,,,,,,1.6983,,,,,,,,,,,,,,,,,,,,,,61035f0c5670985a943f70f1,61036c2484ad83fd30723a5c,2021-07-29_23h04.45.358,Simcolourproject_2stim_asymm_v5,2020.2.10,Win32,60,61025ae37ef11b136ea224fe,,,,,,,,,1749,-76.7999897,-22.40000677,1,0,0,response5disk,,2,-31.19998902,-5.600006521,1,0,0,rectangle,-31.19998902,-5.600006521,1,0,0,-31.19998902,-5.600006521,1,0,0,0,12,12,3,1,,,,,,,,
,,,,,,,,,,,,,FF,,,,,,,,2.8971,,,,,,,,,,,,,,,,,,,,,,61035f0c5670985a943f70f1,61036c2484ad83fd30723a5c,2021-07-29_23h04.45.358,Simcolourproject_2stim_asymm_v5,2020.2.10,Win32,60,61025ae37ef11b136ea224fe,,,,,,,,,1186,82.40001267,39.19996973,1,0,0,response1disk,,6,6.400011539,-5.600006521,1,0,0,rectangle,6.400011539,-5.600006521,1,0,0,6.400011539,-5.600006521,1,0,0,0,13,13,22,1,,,,,,,,
,,,,,,,,,,,,,FF,,,,,,,,1.4993,,,,,,,,,,,,,,,,,,,,,,61035f0c5670985a943f70f1,61036c2484ad83fd30723a5c,2021-07-29_23h04.45.358,Simcolourproject_2stim_asymm_v5,2020.2.10,Win32,60,61025ae37ef11b136ea224fe,,,,,,,,,1361,-31.99998903,-72.00000751,1,0,0,response5disk,,3,-3.199988604,-5.600006521,1,0,0,rectangle,-3.199988604,-5.600006521,1,0,0,-3.199988604,-5.600006521,1,0,0,0,14,14,24,1,,,,,,,,
,,,,,,,,,,,,,FF,,,,,,,,1.9481,,,,,,,,,,,,,,,,,,,,,,61035f0c5670985a943f70f1,61036c2484ad83fd30723a5c,2021-07-29_23h04.45.358,Simcolourproject_2stim_asymm_v5,2020.2.10,Win32,60,61025ae37ef11b136ea224fe,,,,,,,,,3075,54.40001225,27.19996955,1,0,0,response1disk,,6,21.60006059,7.999993682,1,0,0,rectangle,21.60006059,7.999993682,1,0,0,21.60006059,7.999993682,1,0,0,0,15,15,11,1,,,,,,,,
,,,,,,,,,,,,,FF,,,,,,,,6.195,,,,,,,,,,,,,,,,,,,,,,61035f0c5670985a943f70f1,61036c2484ad83fd30723a5c,2021-07-29_23h04.45.358,Simcolourproject_2stim_asymm_v5,2020.2.10,Win32,60,61025ae37ef11b136ea224fe,,,,,,,,,2762,78.40001261,-120.0000082,1,0,0,response3disk,,4,9.600060415,-8.000006557,1,0,0,rectangle,9.600060415,-8.000006557,1,0,0,9.600060415,-8.000006557,1,0,0,0,16,16,27,1,,,,,,,,
,,,,,,,,,,,,,FF,,,,,,,,1.2159,,,,,,,,,,,,,,,,,,,,,,61035f0c5670985a943f70f1,61036c2484ad83fd30723a5c,2021-07-29_23h04.45.358,Simcolourproject_2stim_asymm_v5,2020.2.10,Win32,60,61025ae37ef11b136ea224fe,,,,,,,,,3932,-91.19998991,31.99999404,1,0,0,response7disk,,1,-11.99998873,2.399993598,1,0,0,rectangle,-11.99998873,2.399993598,1,0,0,-11.99998873,2.399993598,1,0,0,0,17,17,92,1,,,,,,,,
,,,,,,,,,,,,,FF,,,,,,,,1.1323,,,,,,,,,,,,,,,,,,,,,,61035f0c5670985a943f70f1,61036c2484ad83fd30723a5c,2021-07-29_23h04.45.358,Simcolourproject_2stim_asymm_v5,2020.2.10,Win32,60,61025ae37ef11b136ea224fe,,,,,,,,,4269,-83.99998981,28.79999399,1,0,0,response7disk,,1,-11.99998873,1.599993587,1,0,0,rectangle,-11.99998873,1.599993587,1,0,0,-11.99998873,1.599993587,1,0,0,0,18,18,137,1,,,,,,,,
,,,,,,,,,,,,,FF,,,,,,,,2.498,,,,,,,,,,,,,,,,,,,,,,61035f0c5670985a943f70f1,61036c2484ad83fd30723a5c,2021-07-29_23h04.45.358,Simcolourproject_2stim_asymm_v5,2020.2.10,Win32,60,61025ae37ef11b136ea224fe,,,,,,,,,913,31.20001191,-72.80000752,1,0,0,response3disk,,4,-5.599988639,7.19999367,1,0,0,rectangle,-5.599988639,7.19999367,1,0,0,-5.599988639,7.19999367,1,0,0,0,19,19,23,1,,,,,,,,
,,,,,,,,,,,,,FF,,,,,,,,4.2632,,,,,,,,,,,,,,,,,,,,,,61035f0c5670985a943f70f1,61036c2484ad83fd30723a5c,2021-07-29_23h04.45.358,Simcolourproject_2stim_asymm_v5,2020.2.10,Win32,60,61025ae37ef11b136ea224fe,,,,,,,,,823,-74.39994084,37.59999412,1,0,0,response7disk,,1,-5.599988639,-2.400006473,1,0,0,rectangle,-5.599988639,-2.400006473,1,0,0,-5.599988639,-2.400006473,1,0,0,0,20,20,79,1,,,,,,,,
,,,,,,,,,,,,,FF,,,,,,,,0.9161,,,,,,,,,,,,,,,,,,,,,,61035f0c5670985a943f70f1,61036c2484ad83fd30723a5c,2021-07-29_23h04.45.358,Simcolourproject_2stim_asymm_v5,2020.2.10,Win32,60,61025ae37ef11b136ea224fe,,,,,,,,,4294,-27.99998897,39.19996973,1,0,0,response7disk,,0,-17.59998882,4.799993634,1,0,0,rectangle,-17.59998882,4.799993634,1,0,0,-17.59998882,4.799993634,1,0,0,0,21,21,61,1,,,,,,,,
,,,,,,,,,,,,,FF,,,,,,,,1.1489,,,,,,,,,,,,,,,,,,,,,,61035f0c5670985a943f70f1,61036c2484ad83fd30723a5c,2021-07-29_23h04.45.358,Simcolourproject_2stim_asymm_v5,2020.2.10,Win32,60,61025ae37ef11b136ea224fe,,,,,,,,,2824,-107.9999902,35.19996967,1,0,0,response7disk,,1,-15.99998879,-2.400006473,1,0,0,rectangle,-15.99998879,-2.400006473,1,0,0,-15.99998879,-2.400006473,1,0,0,0,22,22,117,1,,,,,,,,
,,,,,,,,,,,,,FF,,,,,,,,1.8813,,,,,,,,,,,,,,,,,,,,,,61035f0c5670985a943f70f1,61036c2484ad83fd30723a5c,2021-07-29_23h04.45.358,Simcolourproject_2stim_asymm_v5,2020.2.10,Win32,60,61025ae37ef11b136ea224fe,,,,,,,,,2570,93.60001284,-31.2000069,1,0,0,response3disk,,5,24.80001181,-6.400006533,1,0,0,rectangle,24.80001181,-6.400006533,1,0,0,24.80001181,-6.400006533,1,0,0,0,23,23,72,1,,,,,,,,
,,,,,,,,,,,,,FF,,,,,,,,1.6321,,,,,,,,,,,,,,,,,,,,,,61035f0c5670985a943f70f1,61036c2484ad83fd30723a5c,2021-07-29_23h04.45.358,Simcolourproject_2stim_asymm_v5,2020.2.10,Win32,60,61025ae37ef11b136ea224fe,,,,,,,,,2329,106.400013,-41.60000706,1,0,0,response3disk,,5,12.80001163,-7.200006545,1,0,0,rectangle,12.80001163,-7.200006545,1,0,0,12.80001163,-7.200006545,1,0,0,0,24,24,9,1,,,,,,,,
,,,,,,,,,,,,,FF,,,,,,,,1.3657,,,,,,,,,,,,,,,,,,,,,,61035f0c5670985a943f70f1,61036c2484ad83fd30723a5c,2021-07-29_23h04.45.358,Simcolourproject_2stim_asymm_v5,2020.2.10,Win32,60,61025ae37ef11b136ea224fe,,,,,,,,,4060,-91.99998993,-60.80000734,1,0,0,response5disk,,2,-3.199988604,-6.400006533,1,0,0,rectangle,-3.199988604,-6.400006533,1,0,0,-3.199988604,-6.400006533,1,0,0,0,25,25,143,1,,,,,,,,
,,,,,,,,,,,,,FF,,,,,,,,1.5649,,,,,,,,,,,,,,,,,,,,,,61035f0c5670985a943f70f1,61036c2484ad83fd30723a5c,2021-07-29_23h04.45.358,Simcolourproject_2stim_asymm_v5,2020.2.10,Win32,60,61025ae37ef11b136ea224fe,,,,,,,,,448,86.40001273,40.79999417,1,0,0,response1disk,,6,36.00001198,7.19999367,1,0,0,rectangle,36.00001198,7.19999367,1,0,0,36.00001198,7.19999367,1,0,0,0,26,26,141,1,,,,,,,,
,,,,,,,,,,,,,FF,,,,,,,,2.4143,,,,,,,,,,,,,,,,,,,,,,61035f0c5670985a943f70f1,61036c2484ad83fd30723a5c,2021-07-29_23h04.45.358,Simcolourproject_2stim_asymm_v5,2020.2.10,Win32,60,61025ae37ef11b136ea224fe,,,,,,,,,1082,50.4000122,-120.8000082,1,0,0,response3disk,,4,1.600060296,-3.200006485,1,0,0,rectangle,1.600060296,-3.200006485,1,0,0,1.600060296,-3.200006485,1,0,0,0,27,27,105,1,,,,,,,,
,,,,,,,,,,,,,FF,,,,,,,,7.6107,,,,,,,,,,,,,,,,,,,,,,61035f0c5670985a943f70f1,61036c2484ad83fd30723a5c,2021-07-29_23h04.45.358,Simcolourproject_2stim_asymm_v5,2020.2.10,Win32,60,61025ae37ef11b136ea224fe,,,,,,,,,1912,97.6000129,56.79999441,1,0,0,response1disk,,6,4.800011516,2.399993598,1,0,0,rectangle,4.800011516,2.399993598,1,0,0,4.800011516,2.399993598,1,0,0,0,28,28,106,1,,,,,,,,
,,,,,,,,,,,,,FF,,,,,,,,2.1824,,,,,,,,,,,,,,,,,,,,,,61035f0c5670985a943f70f1,61036c2484ad83fd30723a5c,2021-07-29_23h04.45.358,Simcolourproject_2stim_asymm_v5,2020.2.10,Win32,60,61025ae37ef11b136ea224fe,,,,,,,,,577,46.40001214,-109.6000569,1,0,0,response3disk,,4,-7.199988663,9.599993706,1,0,0,rectangle,-7.199988663,9.599993706,1,0,0,-7.199988663,9.599993706,1,0,0,0,29,29,29,1,,,,,,,,
,,,,,,,,,,,,,FF,,,,,,,,7.0433,,,,,,,,,,,,,,,,,,,,,,61035f0c5670985a943f70f1,61036c2484ad83fd30723a5c,2021-07-29_23h04.45.358,Simcolourproject_2stim_asymm_v5,2020.2.10,Win32,60,61025ae37ef11b136ea224fe,,,,,,,,,2097,-116.7999903,-57.6000073,1,0,0,response5disk,,2,-29.599989,-1.600006461,1,0,0,rectangle,-29.599989,-1.600006461,1,0,0,-29.599989,-1.600006461,1,0,0,0,30,30,150,1,,,,,,,,
,,,,,,,,,,,,,FF,,,,,,,,1.4324,,,,,,,,,,,,,,,,,,,,,,61035f0c5670985a943f70f1,61036c2484ad83fd30723a5c,2021-07-29_23h04.45.358,Simcolourproject_2stim_asymm_v5,2020.2.10,Win32,60,61025ae37ef11b136ea224fe,,,,,,,,,4202,-96.79999,58.39999443,1,0,0,response7disk,,1,-15.19998878,3.999993622,1,0,0,rectangle,-15.19998878,3.999993622,1,0,0,-15.19998878,3.999993622,1,0,0,0,31,31,50,1,,,,,,,,
,,,,,,,,,,,,,FF,,,,,,,,1.1825,,,,,,,,,,,,,,,,,,,,,,61035f0c5670985a943f70f1,61036c2484ad83fd30723a5c,2021-07-29_23h04.45.358,Simcolourproject_2stim_asymm_v5,2020.2.10,Win32,60,61025ae37ef11b136ea224fe,,,,,,,,,2135,52.80001223,-35.20000696,1,0,0,response3disk,,5,18.40001172,-4.800006509,1,0,0,rectangle,18.40001172,-4.800006509,1,0,0,18.40001172,-4.800006509,1,0,0,0,32,32,81,1,,,,,,,,
,,,,,,,,,,,,,FF,,,,,,,,1.5489,,,,,,,,,,,,,,,,,,,,,,61035f0c5670985a943f70f1,61036c2484ad83fd30723a5c,2021-07-29_23h04.45.358,Simcolourproject_2stim_asymm_v5,2020.2.10,Win32,60,61025ae37ef11b136ea224fe,,,,,,,,,387,100.0000129,43.99999422,1,0,0,response1disk,,6,8.800011575,4.799993634,1,0,0,rectangle,8.800011575,4.799993634,1,0,0,8.800011575,4.799993634,1,0,0,0,33,33,75,1,,,,,,,,
,,,,,,,,,,,,,FF,,,,,,,,1.582,,,,,,,,,,,,,,,,,,,,,,61035f0c5670985a943f70f1,61036c2484ad83fd30723a5c,2021-07-29_23h04.45.358,Simcolourproject_2stim_asymm_v5,2020.2.10,Win32,60,61025ae37ef11b136ea224fe,,,,,,,,,3826,-65.59998953,-112.0000081,1,0,0,response5disk,,3,-9.599988699,-12.80000663,1,0,0,rectangle,-9.599988699,-12.80000663,1,0,0,-9.599988699,-12.80000663,1,0,0,0,34,34,88,1,,,,,,,,
,,,,,,,,,,,,,FF,,,,,,,,1.1487,,,,,,,,,,,,,,,,,,,,,,61035f0c5670985a943f70f1,61036c2484ad83fd30723a5c,2021-07-29_23h04.45.358,Simcolourproject_2stim_asymm_v5,2020.2.10,Win32,60,61025ae37ef11b136ea224fe,,,,,,,,,2964,116.8000132,47.19996985,1,0,0,response1disk,,6,4.000011504,16.79999381,1,0,0,rectangle,4.000011504,16.79999381,1,0,0,4.000011504,16.79999381,1,0,0,0,35,35,86,1,,,,,,,,
,,,,,,,,,,,,,FF,,,,,,,,0.6161,,,,,,,,,,,,,,,,,,,,,,61035f0c5670985a943f70f1,61036c2484ad83fd30723a5c,2021-07-29_23h04.45.358,Simcolourproject_2stim_asymm_v5,2020.2.10,Win32,60,61025ae37ef11b136ea224fe,,,,,,,,,3133,37.60006083,87.19997045,1,0,0,response1disk,,7,16.00001168,-8.800006568,1,0,0,rectangle,16.00001168,-8.800006568,1,0,0,16.00001168,-8.800006568,1,0,0,0,36,36,138,1,,,,,,,,
,,,,,,,,,,,,,FF,,,,,,,,1.1994,,,,,,,,,,,,,,,,,,,,,,61035f0c5670985a943f70f1,61036c2484ad83fd30723a5c,2021-07-29_23h04.45.358,Simcolourproject_2stim_asymm_v5,2020.2.10,Win32,60,61025ae37ef11b136ea224fe,,,,,,,,,1314,-39.99998915,-60.00000733,1,0,0,response5disk,,3,8.800011575,2.399993598,1,0,0,rectangle,8.800011575,2.399993598,1,0,0,8.800011575,2.399993598,1,0,0,0,37,37,6,1,,,,,,,,
,,,,,,,,,,,,,FF,,,,,,,,2.598,,,,,,,,,,,,,,,,,,,,,,61035f0c5670985a943f70f1,61036c2484ad83fd30723a5c,2021-07-29_23h04.45.358,Simcolourproject_2stim_asymm_v5,2020.2.10,Win32,60,61025ae37ef11b136ea224fe,,,,,,,,,4307,77.6000126,-32.80000693,1,0,0,response3disk,,5,-14.39993994,-2.400006473,1,0,0,rectangle,-14.39993994,-2.400006473,1,0,0,-14.39993994,-2.400006473,1,0,0,0,38,38,78,1,,,,,,,,
,,,,,,,,,,,,,FF,,,,,,,,1.1985,,,,,,,,,,,,,,,,,,,,,,61035f0c5670985a943f70f1,61036c2484ad83fd30723a5c,2021-07-29_23h04.45.358,Simcolourproject_2stim_asymm_v5,2020.2.10,Win32,60,61025ae37ef11b136ea224fe,,,,,,,,,980,-52.79998934,-76.00000757,1,0,0,response5disk,,3,-10.39993988,2.399993598,1,0,0,rectangle,-10.39993988,2.399993598,1,0,0,-10.39993988,2.399993598,1,0,0,0,39,39,107,1,,,,,,,,
,,,,,,,,,,,,,FF,,,,,,,,1.9048,,,,,,,,,,,,,,,,,,,,,,61035f0c5670985a943f70f1,61036c2484ad83fd30723a5c,2021-07-29_23h04.45.358,Simcolourproject_2stim_asymm_v5,2020.2.10,Win32,60,61025ae37ef11b136ea224fe,,,,,,,,,1495,100,-44.80001831,1,0,0,response3disk,,5,4.799987793,0,1,0,0,rectangle,4.799987793,0,1,0,0,4.799987793,0,1,0,0,0,40,40,126,1,,,,,,,,
,,,,,,,,,,,,,FF,,,,,,,,0.7825,,,,,,,,,,,,,,,,,,,,,,61035f0c5670985a943f70f1,61036c2484ad83fd30723a5c,2021-07-29_23h04.45.358,Simcolourproject_2stim_asymm_v5,2020.2.10,Win32,60,61025ae37ef11b136ea224fe,,,,,,,,,2025,-60.79998779,74.3999939,1,0,0,response7disk,,0,0.799987793,5.600006104,1,0,0,rectangle,0.799987793,5.600006104,1,0,0,0.799987793,5.600006104,1,0,0,0,41,41,157,1,,,,,,,,
,,,,,,,,,,,,,FF,,,,,,,,1.4816,,,,,,,,,,,,,,,,,,,,,,61035f0c5670985a943f70f1,61036c2484ad83fd30723a5c,2021-07-29_23h04.45.358,Simcolourproject_2stim_asymm_v5,2020.2.10,Win32,60,61025ae37ef11b136ea224fe,,,,,,,,,2559,105.6000366,33.6000061,1,0,0,response1disk,,6,-0.799987793,-16.80001831,1,0,0,rectangle,-101.5999756,33.6000061,1,0,0,-1.599975586,-3.200012207,1,0,0,0,42,42,25,1,,response7disk_3,TRUE,1,1,"[306,80,6,213,87,80,214,259,243,245,154,109,63,43,155,320,135,94,159,302]",1.4153,rectangle
,,,,,,,,,,,,,FF,,,,,,,,2.2811,,,,,,,,,,,,,,,,,,,,,,61035f0c5670985a943f70f1,61036c2484ad83fd30723a5c,2021-07-29_23h04.45.358,Simcolourproject_2stim_asymm_v5,2020.2.10,Win32,60,61025ae37ef11b136ea224fe,,,,,,,,,424,-45.59997559,-88.79998779,1,0,0,response5disk,,3,4.799987793,-4,1,0,0,rectangle,4.799987793,-4,1,0,0,4.799987793,-4,1,0,0,0,43,43,20,1,,,,,,,,
,,,,,,,,,,,,,FF,,,,,,,,1.2487,,,,,,,,,,,,,,,,,,,,,,61035f0c5670985a943f70f1,61036c2484ad83fd30723a5c,2021-07-29_23h04.45.358,Simcolourproject_2stim_asymm_v5,2020.2.10,Win32,60,61025ae37ef11b136ea224fe,,,,,,,,,2727,-100,32.79998779,1,0,0,response7disk,,1,3.200012207,-11.20001221,1,0,0,rectangle,3.200012207,-11.20001221,1,0,0,3.200012207,-11.20001221,1,0,0,0,44,44,19,1,,,,,,,,
,,,,,,,,,,,,,FF,,,,,,,,0.9989,,,,,,,,,,,,,,,,,,,,,,61035f0c5670985a943f70f1,61036c2484ad83fd30723a5c,2021-07-29_23h04.45.358,Simcolourproject_2stim_asymm_v5,2020.2.10,Win32,60,61025ae37ef11b136ea224fe,,,,,,,,,3116,103.2000122,-55.20001221,1,0,0,response3disk,,5,4.799987793,-4.800018311,1,0,0,rectangle,4.799987793,-4.800018311,1,0,0,4.799987793,-4.800018311,1,0,0,0,45,45,60,1,,,,,,,,
,,,,,,,,,,,,,FF,,,,,,,,0.9325,,,,,,,,,,,,,,,,,,,,,,61035f0c5670985a943f70f1,61036c2484ad83fd30723a5c,2021-07-29_23h04.45.358,Simcolourproject_2stim_asymm_v5,2020.2.10,Win32,60,61025ae37ef11b136ea224fe,,,,,,,,,1179,114.4000244,48.79998779,1,0,0,response1disk,,6,10.40002441,-4.800018311,1,0,0,rectangle,10.40002441,-4.800018311,1,0,0,10.40002441,-4.800018311,1,0,0,0,46,46,95,1,,,,,,,,
,,,,,,,,,,,,,FF,,,,,,,,1.332,,,,,,,,,,,,,,,,,,,,,,61035f0c5670985a943f70f1,61036c2484ad83fd30723a5c,2021-07-29_23h04.45.358,Simcolourproject_2stim_asymm_v5,2020.2.10,Win32,60,61025ae37ef11b136ea224fe,,,,,,,,,1774,52.79998779,-98.40002441,1,0,0,response3disk,,4,6.400024414,-1.600006104,1,0,0,rectangle,6.400024414,-1.600006104,1,0,0,6.400024414,-1.600006104,1,0,0,0,47,47,124,1,,,,,,,,
,,,,,,,,,,,,,FF,,,,,,,,4.2626,,,,,,,,,,,,,,,,,,,,,,61035f0c5670985a943f70f1,61036c2484ad83fd30723a5c,2021-07-29_23h04.45.358,Simcolourproject_2stim_asymm_v5,2020.2.10,Win32,60,61025ae37ef11b136ea224fe,,,,,,,,,957,49.60003662,-105.6000366,1,0,0,response3disk,,4,-0.799987793,-10.3999939,1,0,0,rectangle,-0.799987793,-10.3999939,1,0,0,-0.799987793,-10.3999939,1,0,0,0,48,48,48,1,,,,,,,,
,,,,,,,,,,,,,FF,,,,,,,,1.0822,,,,,,,,,,,,,,,,,,,,,,61035f0c5670985a943f70f1,61036c2484ad83fd30723a5c,2021-07-29_23h04.45.358,Simcolourproject_2stim_asymm_v5,2020.2.10,Win32,60,61025ae37ef11b136ea224fe,,,,,,,,,3429,-104.7999878,34.3999939,1,0,0,response7disk,,1,1.600036621,-7.200012207,1,0,0,rectangle,1.600036621,-7.200012207,1,0,0,1.600036621,-7.200012207,1,0,0,0,49,49,33,1,,,,,,,,
,,,,,,,,,,,,,FF,,,,,,,,1.2652,,,,,,,,,,,,,,,,,,,,,,61035f0c5670985a943f70f1,61036c2484ad83fd30723a5c,2021-07-29_23h04.45.358,Simcolourproject_2stim_asymm_v5,2020.2.10,Win32,60,61025ae37ef11b136ea224fe,,,,,,,,,2087,-34.39996338,-76.80001831,1,0,0,response5disk,,3,6.400024414,-8,1,0,0,rectangle,6.400024414,-8,1,0,0,6.400024414,-8,1,0,0,0,50,50,62,1,,,,,,,,
,,,,,,,,,,,,,FF,,,,,,,,0.882,,,,,,,,,,,,,,,,,,,,,,61035f0c5670985a943f70f1,61036c2484ad83fd30723a5c,2021-07-29_23h04.45.358,Simcolourproject_2stim_asymm_v5,2020.2.10,Win32,60,61025ae37ef11b136ea224fe,,,,,,,,,3910,-83.20001221,-46.3999939,1,0,0,response5disk,,2,4.799987793,-10.3999939,1,0,0,rectangle,4.799987793,-10.3999939,1,0,0,4.799987793,-10.3999939,1,0,0,0,51,51,43,1,,,,,,,,
,,,,,,,,,,,,,FF,,,,,,,,1.0491,,,,,,,,,,,,,,,,,,,,,,61035f0c5670985a943f70f1,61036c2484ad83fd30723a5c,2021-07-29_23h04.45.358,Simcolourproject_2stim_asymm_v5,2020.2.10,Win32,60,61025ae37ef11b136ea224fe,,,,,,,,,1644,96,-75.20001221,1,0,0,response3disk,,5,9.600036621,-8.800018311,1,0,0,rectangle,9.600036621,-8.800018311,1,0,0,9.600036621,-8.800018311,1,0,0,0,52,52,119,1,,,,,,,,
,,,,,,,,,,,,,FF,,,,,,,,1.5655,,,,,,,,,,,,,,,,,,,,,,61035f0c5670985a943f70f1,61036c2484ad83fd30723a5c,2021-07-29_23h04.45.358,Simcolourproject_2stim_asymm_v5,2020.2.10,Win32,60,61025ae37ef11b136ea224fe,,,,,,,,,3212,-41.59997559,-90.40002441,1,0,0,response5disk,,3,9.600036621,-11.20001221,1,0,0,rectangle,9.600036621,-11.20001221,1,0,0,9.600036621,-11.20001221,1,0,0,0,53,53,99,1,,,,,,,,
,,,,,,,,,,,,,FF,,,,,,,,0.8819,,,,,,,,,,,,,,,,,,,,,,61035f0c5670985a943f70f1,61036c2484ad83fd30723a5c,2021-07-29_23h04.45.358,Simcolourproject_2stim_asymm_v5,2020.2.10,Win32,60,61025ae37ef11b136ea224fe,,,,,,,,,2374,106.4000244,36,1,0,0,response1disk,,6,4.799987793,-5.600006104,1,0,0,rectangle,4.799987793,-5.600006104,1,0,0,4.799987793,-5.600006104,1,0,0,0,54,54,145,1,,,,,,,,
,,,,,,,,,,,,,FF,,,,,,,,0.8655,,,,,,,,,,,,,,,,,,,,,,61035f0c5670985a943f70f1,61036c2484ad83fd30723a5c,2021-07-29_23h04.45.358,Simcolourproject_2stim_asymm_v5,2020.2.10,Win32,60,61025ae37ef11b136ea224fe,,,,,,,,,3510,-50.39996338,103.1999817,1,0,0,response7disk,,0,2.400024414,-4,1,0,0,rectangle,2.400024414,-4,1,0,0,2.400024414,-4,1,0,0,0,55,55,21,1,,,,,,,,
,,,,,,,,,,,,,FF,,,,,,,,0.9994,,,,,,,,,,,,,,,,,,,,,,61035f0c5670985a943f70f1,61036c2484ad83fd30723a5c,2021-07-29_23h04.45.358,Simcolourproject_2stim_asymm_v5,2020.2.10,Win32,60,61025ae37ef11b136ea224fe,,,,,,,,,2218,-50.39996338,89.6000061,1,0,0,response7disk,,0,0.799987793,-13.6000061,1,0,0,rectangle,0.799987793,-13.6000061,1,0,0,0.799987793,-13.6000061,1,0,0,0,56,56,116,1,,,,,,,,
,,,,,,,,,,,,,FF,,,,,,,,1.3489,,,,,,,,,,,,,,,,,,,,,,61035f0c5670985a943f70f1,61036c2484ad83fd30723a5c,2021-07-29_23h04.45.358,Simcolourproject_2stim_asymm_v5,2020.2.10,Win32,60,61025ae37ef11b136ea224fe,,,,,,,,,1765,32.79998779,-104.7999878,1,0,0,response3disk,,4,0.799987793,-8.800018311,1,0,0,rectangle,0.799987793,-8.800018311,1,0,0,0.799987793,-8.800018311,1,0,0,0,57,57,65,1,,,,,,,,
,,,,,,,,,,,,,FF,,,,,,,,0.7989,,,,,,,,,,,,,,,,,,,,,,61035f0c5670985a943f70f1,61036c2484ad83fd30723a5c,2021-07-29_23h04.45.358,Simcolourproject_2stim_asymm_v5,2020.2.10,Win32,60,61025ae37ef11b136ea224fe,,,,,,,,,3883,104,-64.80001831,1,0,0,response3disk,,5,3.200012207,-0.800018311,1,0,0,rectangle,3.200012207,-0.800018311,1,0,0,3.200012207,-0.800018311,1,0,0,0,58,58,8,1,,,,,,,,
,,,,,,,,,,,,,FF,,,,,,,,1.8816,,,,,,,,,,,,,,,,,,,,,,61035f0c5670985a943f70f1,61036c2484ad83fd30723a5c,2021-07-29_23h04.45.358,Simcolourproject_2stim_asymm_v5,2020.2.10,Win32,60,61025ae37ef11b136ea224fe,,,,,,,,,1674,-106.3999634,36.79998779,1,0,0,response7disk,,1,13.60003662,-12.80001831,1,0,0,rectangle,13.60003662,-12.80001831,1,0,0,13.60003662,-12.80001831,1,0,0,0,59,59,90,1,,,,,,,,
,,,,,,,,,,,,,FF,,,,,,,,1.7318,,,,,,,,,,,,,,,,,,,,,,61035f0c5670985a943f70f1,61036c2484ad83fd30723a5c,2021-07-29_23h04.45.358,Simcolourproject_2stim_asymm_v5,2020.2.10,Win32,60,61025ae37ef11b136ea224fe,,,,,,,,,474,111.2000122,48.79998779,1,0,0,response1disk,,6,1.600036621,-2.399993896,1,0,0,rectangle,1.600036621,-2.399993896,1,0,0,1.600036621,-2.399993896,1,0,0,0,60,60,26,1,,,,,,,,
,,,,,,,,,,,,,FF,,,,,,,,0.7666,,,,,,,,,,,,,,,,,,,,,,61035f0c5670985a943f70f1,61036c2484ad83fd30723a5c,2021-07-29_23h04.45.358,Simcolourproject_2stim_asymm_v5,2020.2.10,Win32,60,61025ae37ef11b136ea224fe,,,,,,,,,2993,-64.79998779,92.79998779,1,0,0,response7disk,,0,7.200012207,-6.399993896,1,0,0,rectangle,7.200012207,-6.399993896,1,0,0,7.200012207,-6.399993896,1,0,0,0,61,61,110,1,,,,,,,,
,,,,,,,,,,,,,FF,,,,,,,,0.9824,,,,,,,,,,,,,,,,,,,,,,61035f0c5670985a943f70f1,61036c2484ad83fd30723a5c,2021-07-29_23h04.45.358,Simcolourproject_2stim_asymm_v5,2020.2.10,Win32,60,61025ae37ef11b136ea224fe,,,,,,,,,3894,41.60003662,-108,1,0,0,response3disk,,4,-11.20001221,4.799987793,1,0,0,rectangle,101.6000366,-59.20001221,1,0,0,4.799987793,-11.20001221,1,0,0,0,62,62,129,1,,response3disk_3,TRUE,5,5,"[306,80,6,213,87,80,214,259,243,245,154,109,63,43,155,320,135,94,159,302]",1.3649,rectangle
,,,,,,,,,,,,,FF,,,,,,,,1.2655,,,,,,,,,,,,,,,,,,,,,,61035f0c5670985a943f70f1,61036c2484ad83fd30723a5c,2021-07-29_23h04.45.358,Simcolourproject_2stim_asymm_v5,2020.2.10,Win32,60,61025ae37ef11b136ea224fe,,,,,,,,,530,-108.7999878,45.6000061,1,0,0,response7disk,,1,-4.799987793,-11.20001221,1,0,0,rectangle,-4.799987793,-11.20001221,1,0,0,-4.799987793,-11.20001221,1,0,0,0,63,63,127,1,,,,,,,,
,,,,,,,,,,,,,FF,,,,,,,,1.4822,,,,,,,,,,,,,,,,,,,,,,61035f0c5670985a943f70f1,61036c2484ad83fd30723a5c,2021-07-29_23h04.45.358,Simcolourproject_2stim_asymm_v5,2020.2.10,Win32,60,61025ae37ef11b136ea224fe,,,,,,,,,2889,-97.59997559,22.3999939,1,0,0,response7disk,,1,-0.799987793,-6.399993896,1,0,0,rectangle,-0.799987793,-6.399993896,1,0,0,-0.799987793,-6.399993896,1,0,0,0,64,64,44,1,,,,,,,,
,,,,,,,,,,,,,FF,,,,,,,,0.6325,,,,,,,,,,,,,,,,,,,,,,61035f0c5670985a943f70f1,61036c2484ad83fd30723a5c,2021-07-29_23h04.45.358,Simcolourproject_2stim_asymm_v5,2020.2.10,Win32,60,61025ae37ef11b136ea224fe,,,,,,,,,3475,-61.59997559,85.6000061,1,0,0,response7disk,,0,1.600036621,-2.399993896,1,0,0,rectangle,1.600036621,-2.399993896,1,0,0,1.600036621,-2.399993896,1,0,0,0,65,65,35,1,,,,,,,,
,,,,,,,,,,,,,FF,,,,,,,,1.099,,,,,,,,,,,,,,,,,,,,,,61035f0c5670985a943f70f1,61036c2484ad83fd30723a5c,2021-07-29_23h04.45.358,Simcolourproject_2stim_asymm_v5,2020.2.10,Win32,60,61025ae37ef11b136ea224fe,,,,,,,,,1039,61.60003662,-95.20001221,1,0,0,response3disk,,4,-4,-10.3999939,1,0,0,rectangle,-4,-10.3999939,1,0,0,-4,-10.3999939,1,0,0,0,66,66,42,1,,,,,,,,
,,,,,,,,,,,,,FF,,,,,,,,1.2,,,,,,,,,,,,,,,,,,,,,,61035f0c5670985a943f70f1,61036c2484ad83fd30723a5c,2021-07-29_23h04.45.358,Simcolourproject_2stim_asymm_v5,2020.2.10,Win32,60,61025ae37ef11b136ea224fe,,,,,,,,,3786,-36.79998779,-83.20001221,1,0,0,response5disk,,3,2.400024414,2.399993896,1,0,0,rectangle,2.400024414,2.399993896,1,0,0,2.400024414,2.399993896,1,0,0,0,67,67,153,1,,,,,,,,
,,,,,,,,,,,,,FF,,,,,,,,1.4316,,,,,,,,,,,,,,,,,,,,,,61035f0c5670985a943f70f1,61036c2484ad83fd30723a5c,2021-07-29_23h04.45.358,Simcolourproject_2stim_asymm_v5,2020.2.10,Win32,60,61025ae37ef11b136ea224fe,,,,,,,,,3334,95.20001221,-75.20001221,1,0,0,response3disk,,5,1.600036621,-6.399993896,1,0,0,rectangle,1.600036621,-6.399993896,1,0,0,1.600036621,-6.399993896,1,0,0,0,68,68,71,1,,,,,,,,
,,,,,,,,,,,,,FF,,,,,,,,2.1311,,,,,,,,,,,,,,,,,,,,,,61035f0c5670985a943f70f1,61036c2484ad83fd30723a5c,2021-07-29_23h04.45.358,Simcolourproject_2stim_asymm_v5,2020.2.10,Win32,60,61025ae37ef11b136ea224fe,,,,,,,,,3633,-52.79998779,-96,1,0,0,response5disk,,3,7.200012207,2.399993896,1,0,0,rectangle,7.200012207,2.399993896,1,0,0,7.200012207,2.399993896,1,0,0,0,69,69,83,1,,,,,,,,
,,,,,,,,,,,,,FF,,,,,,,,0.6497,,,,,,,,,,,,,,,,,,,,,,61035f0c5670985a943f70f1,61036c2484ad83fd30723a5c,2021-07-29_23h04.45.358,Simcolourproject_2stim_asymm_v5,2020.2.10,Win32,60,61025ae37ef11b136ea224fe,,,,,,,,,3112,98.40002441,-58.3999939,1,0,0,response3disk,,5,0,-7.200012207,1,0,0,rectangle,0,-7.200012207,1,0,0,0,-7.200012207,1,0,0,0,70,70,1,1,,,,,,,,
,,,,,,,,,,,,,FF,,,,,,,,1.6151,,,,,,,,,,,,,,,,,,,,,,61035f0c5670985a943f70f1,61036c2484ad83fd30723a5c,2021-07-29_23h04.45.358,Simcolourproject_2stim_asymm_v5,2020.2.10,Win32,60,61025ae37ef11b136ea224fe,,,,,,,,,3586,-65.59997559,-37.6000061,1,0,0,response5disk,,2,8.799987793,-9.600006104,1,0,0,rectangle,8.799987793,-9.600006104,1,0,0,8.799987793,-9.600006104,1,0,0,0,71,71,10,1,,,,,,,,
,,,,,,,,,,,,,FF,,,,,,,,0.6661,,,,,,,,,,,,,,,,,,,,,,61035f0c5670985a943f70f1,61036c2484ad83fd30723a5c,2021-07-29_23h04.45.358,Simcolourproject_2stim_asymm_v5,2020.2.10,Win32,60,61025ae37ef11b136ea224fe,,,,,,,,,1817,-62.39996338,85.6000061,1,0,0,response7disk,,0,-1.599975586,-14.3999939,1,0,0,rectangle,-1.599975586,-14.3999939,1,0,0,-1.599975586,-14.3999939,1,0,0,0,72,72,128,1,,,,,,,,
,,,,,,,,,,,,,FF,,,,,,,,0.7161,,,,,,,,,,,,,,,,,,,,,,61035f0c5670985a943f70f1,61036c2484ad83fd30723a5c,2021-07-29_23h04.45.358,Simcolourproject_2stim_asymm_v5,2020.2.10,Win32,60,61025ae37ef11b136ea224fe,,,,,,,,,1776,45.60003662,-72,1,0,0,response3disk,,4,15.20001221,-1.600006104,1,0,0,rectangle,15.20001221,-1.600006104,1,0,0,15.20001221,-1.600006104,1,0,0,0,73,73,53,1,,,,,,,,
,,,,,,,,,,,,,FF,,,,,,,,1.0823,,,,,,,,,,,,,,,,,,,,,,61035f0c5670985a943f70f1,61036c2484ad83fd30723a5c,2021-07-29_23h04.45.358,Simcolourproject_2stim_asymm_v5,2020.2.10,Win32,60,61025ae37ef11b136ea224fe,,,,,,,,,1221,-107.2000122,42.3999939,1,0,0,response7disk,,1,-1.599975586,-2.399993896,1,0,0,rectangle,-1.599975586,-2.399993896,1,0,0,-1.599975586,-2.399993896,1,0,0,0,74,74,93,1,,,,,,,,
,,,,,,,,,,,,,FF,,,,,,,,1.2319,,,,,,,,,,,,,,,,,,,,,,61035f0c5670985a943f70f1,61036c2484ad83fd30723a5c,2021-07-29_23h04.45.358,Simcolourproject_2stim_asymm_v5,2020.2.10,Win32,60,61025ae37ef11b136ea224fe,,,,,,,,,867,43.20001221,-98.40002441,1,0,0,response3disk,,4,9.600036621,-9.600006104,1,0,0,rectangle,9.600036621,-9.600006104,1,0,0,9.600036621,-9.600006104,1,0,0,0,75,75,130,1,,,,,,,,
,,,,,,,,,,,,,FF,,,,,,,,0.6992,,,,,,,,,,,,,,,,,,,,,,61035f0c5670985a943f70f1,61036c2484ad83fd30723a5c,2021-07-29_23h04.45.358,Simcolourproject_2stim_asymm_v5,2020.2.10,Win32,60,61025ae37ef11b136ea224fe,,,,,,,,,3013,93.60003662,-49.6000061,1,0,0,response3disk,,5,2.400024414,-8,1,0,0,rectangle,2.400024414,-8,1,0,0,2.400024414,-8,1,0,0,0,76,76,4,1,,,,,,,,
,,,,,,,,,,,,,FF,,,,,,,,1.182,,,,,,,,,,,,,,,,,,,,,,61035f0c5670985a943f70f1,61036c2484ad83fd30723a5c,2021-07-29_23h04.45.358,Simcolourproject_2stim_asymm_v5,2020.2.10,Win32,60,61025ae37ef11b136ea224fe,,,,,,,,,781,88.79998779,-56,1,0,0,response3disk,,5,-2.399963379,8.799987793,1,0,0,rectangle,-2.399963379,8.799987793,1,0,0,-2.399963379,8.799987793,1,0,0,0,77,77,0,1,,,,,,,,
,,,,,,,,,,,,,FF,,,,,,,,1.8447,,,,,,,,,,,,,,,,,,,,,,61035f0c5670985a943f70f1,61036c2484ad83fd30723a5c,2021-07-29_23h04.45.358,Simcolourproject_2stim_asymm_v5,2020.2.10,Win32,60,61025ae37ef11b136ea224fe,,,,,,,,,3499,89.60003662,38.3999939,1,0,0,response1disk,,6,-9.599975586,-9.600006104,1,0,0,rectangle,-9.599975586,-9.600006104,1,0,0,-9.599975586,-9.600006104,1,0,0,0,78,78,28,1,,,,,,,,
,,,,,,,,,,,,,FF,,,,,,,,1.7487,,,,,,,,,,,,,,,,,,,,,,61035f0c5670985a943f70f1,61036c2484ad83fd30723a5c,2021-07-29_23h04.45.358,Simcolourproject_2stim_asymm_v5,2020.2.10,Win32,60,61025ae37ef11b136ea224fe,,,,,,,,,3896,57.6000123,-70.40000749,1,0,0,response3disk,,4,-1.59998858,-1.600006461,1,0,0,rectangle,32.80001193,67.99999458,1,0,0,7.200011551,-8.000006557,1,0,0,0,79,79,46,1,,response1disk_3,TRUE,7,7,"[306,80,6,213,87,80,214,259,243,245,154,109,63,43,155,320,135,94,159,302]",1.5652,rectangle
,,,,,,,,,,,,,FF,,,,,,,,1.0659,,,,,,,,,,,,,,,,,,,,,,61035f0c5670985a943f70f1,61036c2484ad83fd30723a5c,2021-07-29_23h04.45.358,Simcolourproject_2stim_asymm_v5,2020.2.10,Win32,60,61025ae37ef11b136ea224fe,,,,,,,,,3385,-87.19998986,45.59999424,1,0,0,response7disk,,1,23.20001179,5.599993646,1,0,0,rectangle,23.20001179,5.599993646,1,0,0,23.20001179,5.599993646,1,0,0,0,80,80,64,1,,,,,,,,
,,,,,,,,,,,,,FF,,,,,,,,1.3821,,,,,,,,,,,,,,,,,,,,,,61035f0c5670985a943f70f1,61036c2484ad83fd30723a5c,2021-07-29_23h04.45.358,Simcolourproject_2stim_asymm_v5,2020.2.10,Win32,60,61025ae37ef11b136ea224fe,,,,,,,,,2842,77.6000126,-42.40000707,1,0,0,response3disk,,5,16.00001168,-3.200006485,1,0,0,rectangle,16.00001168,-3.200006485,1,0,0,16.00001168,-3.200006485,1,0,0,0,81,81,139,1,,,,,,,,
,,,,,,,,,,,,,FF,,,,,,,,1.9653,,,,,,,,,,,,,,,,,,,,,,61035f0c5670985a943f70f1,61036c2484ad83fd30723a5c,2021-07-29_23h04.45.358,Simcolourproject_2stim_asymm_v5,2020.2.10,Win32,60,61025ae37ef11b136ea224fe,,,,,,,,,3280,70.40001249,42.39999419,1,0,0,response1disk,,6,27.20001185,16.79999381,1,0,0,rectangle,27.20001185,16.79999381,1,0,0,27.20001185,16.79999381,1,0,0,0,82,82,142,1,,,,,,,,
,,,,,,,,,,,,,FF,,,,,,,,1.2162,,,,,,,,,,,,,,,,,,,,,,61035f0c5670985a943f70f1,61036c2484ad83fd30723a5c,2021-07-29_23h04.45.358,Simcolourproject_2stim_asymm_v5,2020.2.10,Win32,60,61025ae37ef11b136ea224fe,,,,,,,,,2364,-71.19998962,47.19996985,1,0,0,response7disk,,1,2.40001148,-2.400006473,1,0,0,rectangle,2.40001148,-2.400006473,1,0,0,2.40001148,-2.400006473,1,0,0,0,83,83,77,1,,,,,,,,
,,,,,,,,,,,,,FF,,,,,,,,1.632,,,,,,,,,,,,,,,,,,,,,,61035f0c5670985a943f70f1,61036c2484ad83fd30723a5c,2021-07-29_23h04.45.358,Simcolourproject_2stim_asymm_v5,2020.2.10,Win32,60,61025ae37ef11b136ea224fe,,,,,,,,,2352,86.40002441,28.79998779,1,0,0,response1disk,,6,1.600036621,-1.600006104,1,0,0,rectangle,1.600036621,-1.600006104,1,0,0,1.600036621,-1.600006104,1,0,0,0,84,84,13,1,,,,,,,,
,,,,,,,,,,,,,FF,,,,,,,,2.3143,,,,,,,,,,,,,,,,,,,,,,61035f0c5670985a943f70f1,61036c2484ad83fd30723a5c,2021-07-29_23h04.45.358,Simcolourproject_2stim_asymm_v5,2020.2.10,Win32,60,61025ae37ef11b136ea224fe,,,,,,,,,2745,100.7999878,35.19998169,1,0,0,response1disk,,6,5.600036621,-8.800018311,1,0,0,rectangle,5.600036621,-8.800018311,1,0,0,5.600036621,-8.800018311,1,0,0,0,85,85,101,1,,,,,,,,
,,,,,,,,,,,,,FF,,,,,,,,1.6653,,,,,,,,,,,,,,,,,,,,,,61035f0c5670985a943f70f1,61036c2484ad83fd30723a5c,2021-07-29_23h04.45.358,Simcolourproject_2stim_asymm_v5,2020.2.10,Win32,60,61025ae37ef11b136ea224fe,,,,,,,,,227,97.60003662,-40.80001831,1,0,0,response3disk,,5,8,2.399993896,1,0,0,rectangle,-39.20001221,80,1,0,0,2.400024414,3.199981689,1,0,0,0,86,86,97,1,,response7disk_3,TRUE,0,0,"[306,80,6,213,87,80,214,259,243,245,154,109,63,43,155,320,135,94,159,302]",1.4143,rectangle
,,,,,,,,,,,,,FF,,,,,,,,1.8985,,,,,,,,,,,,,,,,,,,,,,61035f0c5670985a943f70f1,61036c2484ad83fd30723a5c,2021-07-29_23h04.45.358,Simcolourproject_2stim_asymm_v5,2020.2.10,Win32,60,61025ae37ef11b136ea224fe,,,,,,,,,380,-36.79998779,-90.40002441,1,0,0,response5disk,,3,11.20001221,-5.600006104,1,0,0,rectangle,11.20001221,-5.600006104,1,0,0,11.20001221,-5.600006104,1,0,0,0,87,87,122,1,,,,,,,,
,,,,,,,,,,,,,FF,,,,,,,,0.9324,,,,,,,,,,,,,,,,,,,,,,61035f0c5670985a943f70f1,61036c2484ad83fd30723a5c,2021-07-29_23h04.45.358,Simcolourproject_2stim_asymm_v5,2020.2.10,Win32,60,61025ae37ef11b136ea224fe,,,,,,,,,753,40.79998779,76.79998779,1,0,0,response1disk,,7,15.20001221,-4.800018311,1,0,0,rectangle,15.20001221,-4.800018311,1,0,0,15.20001221,-4.800018311,1,0,0,0,88,88,16,1,,,,,,,,
,,,,,,,,,,,,,FF,,,,,,,,1.4479,,,,,,,,,,,,,,,,,,,,,,61035f0c5670985a943f70f1,61036c2484ad83fd30723a5c,2021-07-29_23h04.45.358,Simcolourproject_2stim_asymm_v5,2020.2.10,Win32,60,61025ae37ef11b136ea224fe,,,,,,,,,1927,84.79998779,-56.80001831,1,0,0,response3disk,,5,6.400024414,-7.200012207,1,0,0,rectangle,6.400024414,-7.200012207,1,0,0,6.400024414,-7.200012207,1,0,0,0,89,89,156,1,,,,,,,,
,,,,,,,,,,,,,FF,,,,,,,,1.465,,,,,,,,,,,,,,,,,,,,,,61035f0c5670985a943f70f1,61036c2484ad83fd30723a5c,2021-07-29_23h04.45.358,Simcolourproject_2stim_asymm_v5,2020.2.10,Win32,60,61025ae37ef11b136ea224fe,,,,,,,,,2406,52.79998779,-87.20001221,1,0,0,response3disk,,4,1.600036621,-3.200012207,1,0,0,rectangle,1.600036621,-3.200012207,1,0,0,1.600036621,-3.200012207,1,0,0,0,90,90,108,1,,,,,,,,
,,,,,,,,,,,,,FF,,,,,,,,1.8814,,,,,,,,,,,,,,,,,,,,,,61035f0c5670985a943f70f1,61036c2484ad83fd30723a5c,2021-07-29_23h04.45.358,Simcolourproject_2stim_asymm_v5,2020.2.10,Win32,60,61025ae37ef11b136ea224fe,,,,,,,,,1381,-88,-42.3999939,1,0,0,response5disk,,2,-5.599975586,0,1,0,0,rectangle,-5.599975586,0,1,0,0,-5.599975586,0,1,0,0,0,91,91,114,1,,,,,,,,
,,,,,,,,,,,,,FF,,,,,,,,0.7156,,,,,,,,,,,,,,,,,,,,,,61035f0c5670985a943f70f1,61036c2484ad83fd30723a5c,2021-07-29_23h04.45.358,Simcolourproject_2stim_asymm_v5,2020.2.10,Win32,60,61025ae37ef11b136ea224fe,,,,,,,,,1173,82.40002441,-76,1,0,0,response3disk,,5,-11.20001221,-11.20001221,1,0,0,rectangle,-11.20001221,-11.20001221,1,0,0,-11.20001221,-11.20001221,1,0,0,0,92,92,2,1,,,,,,,,
,,,,,,,,,,,,,FF,,,,,,,,1.0152,,,,,,,,,,,,,,,,,,,,,,61035f0c5670985a943f70f1,61036c2484ad83fd30723a5c,2021-07-29_23h04.45.358,Simcolourproject_2stim_asymm_v5,2020.2.10,Win32,60,61025ae37ef11b136ea224fe,,,,,,,,,2683,108.7999878,33.6000061,1,0,0,response1disk,,6,0,-8,1,0,0,rectangle,109.6000366,51.19998169,1,0,0,12,-8.800018311,1,0,0,0,93,93,136,1,,response1disk_3,TRUE,6,6,"[306,80,6,213,87,80,214,259,243,245,154,109,63,43,155,320,135,94,159,302]",1.615,rectangle
,,,,,,,,,,,,,FF,,,,,,,,2.8804,,,,,,,,,,,,,,,,,,,,,,61035f0c5670985a943f70f1,61036c2484ad83fd30723a5c,2021-07-29_23h04.45.358,Simcolourproject_2stim_asymm_v5,2020.2.10,Win32,60,61025ae37ef11b136ea224fe,,,,,,,,,1101,104.7999878,-55.20001221,1,0,0,response3disk,,5,4,-0.800018311,1,0,0,rectangle,4,-0.800018311,1,0,0,4,-0.800018311,1,0,0,0,94,94,63,1,,,,,,,,
,,,,,,,,,,,,,FF,,,,,,,,2.7142,,,,,,,,,,,,,,,,,,,,,,61035f0c5670985a943f70f1,61036c2484ad83fd30723a5c,2021-07-29_23h04.45.358,Simcolourproject_2stim_asymm_v5,2020.2.10,Win32,60,61025ae37ef11b136ea224fe,,,,,,,,,2470,56,-94.40002441,1,0,0,response3disk,,4,1.600036621,-4,1,0,0,rectangle,1.600036621,-4,1,0,0,1.600036621,-4,1,0,0,0,95,95,148,1,,,,,,,,
,,,,,,,,,,,,,FF,,,,,,,,2.0814,,,,,,,,,,,,,,,,,,,,,,61035f0c5670985a943f70f1,61036c2484ad83fd30723a5c,2021-07-29_23h04.45.358,Simcolourproject_2stim_asymm_v5,2020.2.10,Win32,60,61025ae37ef11b136ea224fe,,,,,,,,,3053,-108.7999878,-52.80001831,1,0,0,response5disk,,2,-0.799987793,-14.3999939,1,0,0,rectangle,-0.799987793,-14.3999939,1,0,0,-0.799987793,-14.3999939,1,0,0,0,96,96,12,1,,,,,,,,
,,,,,,,,,,,,,FF,,,,,,,,0.7329,,,,,,,,,,,,,,,,,,,,,,61035f0c5670985a943f70f1,61036c2484ad83fd30723a5c,2021-07-29_23h04.45.358,Simcolourproject_2stim_asymm_v5,2020.2.10,Win32,60,61025ae37ef11b136ea224fe,,,,,,,,,1445,-40.79998779,108.7999878,1,0,0,response7disk,,0,-5.599975586,6.399993896,1,0,0,rectangle,-5.599975586,6.399993896,1,0,0,-5.599975586,6.399993896,1,0,0,0,97,97,89,1,,,,,,,,
,,,,,,,,,,,,,FF,,,,,,,,1.3819,,,,,,,,,,,,,,,,,,,,,,61035f0c5670985a943f70f1,61036c2484ad83fd30723a5c,2021-07-29_23h04.45.358,Simcolourproject_2stim_asymm_v5,2020.2.10,Win32,60,61025ae37ef11b136ea224fe,,,,,,,,,405,96,34.3999939,1,0,0,response1disk,,6,0.799987793,-0.800018311,1,0,0,rectangle,0.799987793,-0.800018311,1,0,0,0.799987793,-0.800018311,1,0,0,0,98,98,147,1,,,,,,,,
,,,,,,,,,,,,,FF,,,,,,,,3.0804,,,,,,,,,,,,,,,,,,,,,,61035f0c5670985a943f70f1,61036c2484ad83fd30723a5c,2021-07-29_23h04.45.358,Simcolourproject_2stim_asymm_v5,2020.2.10,Win32,60,61025ae37ef11b136ea224fe,,,,,,,,,1793,75.20001221,-41.6000061,1,0,0,response3disk,,5,3.200012207,-4.800018311,1,0,0,rectangle,3.200012207,-4.800018311,1,0,0,3.200012207,-4.800018311,1,0,0,0,99,99,66,1,,,,,,,,
,,,,,,,,,,,,,FF,,,,,,,,2.2647,,,,,,,,,,,,,,,,,,,,,,61035f0c5670985a943f70f1,61036c2484ad83fd30723a5c,2021-07-29_23h04.45.358,Simcolourproject_2stim_asymm_v5,2020.2.10,Win32,60,61025ae37ef11b136ea224fe,,,,,,,,,370,-43.99998921,-98.4000079,1,0,0,response5disk,,3,-7.999988675,12.79999375,1,0,0,rectangle,-7.999988675,12.79999375,1,0,0,-7.999988675,12.79999375,1,0,0,0,100,100,80,1,,,,,,,,
,,,,,,,,,,,,,FF,,,,,,,,0.8819,,,,,,,,,,,,,,,,,,,,,,61035f0c5670985a943f70f1,61036c2484ad83fd30723a5c,2021-07-29_23h04.45.358,Simcolourproject_2stim_asymm_v5,2020.2.10,Win32,60,61025ae37ef11b136ea224fe,,,,,,,,,601,51.20001221,-32.80000693,1,0,0,response3disk,,5,26.40001184,-10.40000659,1,0,0,rectangle,26.40001184,-10.40000659,1,0,0,26.40001184,-10.40000659,1,0,0,0,101,101,125,1,,,,,,,,
,,,,,,,,,,,,,FF,,,,,,,,1.9314,,,,,,,,,,,,,,,,,,,,,,61035f0c5670985a943f70f1,61036c2484ad83fd30723a5c,2021-07-29_23h04.45.358,Simcolourproject_2stim_asymm_v5,2020.2.10,Win32,60,61025ae37ef11b136ea224fe,,,,,,,,,3144,64.80001241,33.59999406,1,0,0,response1disk,,6,2.40001148,7.19999367,1,0,0,rectangle,2.40001148,7.19999367,1,0,0,2.40001148,7.19999367,1,0,0,0,102,102,120,1,,,,,,,,
,,,,,,,,,,,,,FF,,,,,,,,1.1657,,,,,,,,,,,,,,,,,,,,,,61035f0c5670985a943f70f1,61036c2484ad83fd30723a5c,2021-07-29_23h04.45.358,Simcolourproject_2stim_asymm_v5,2020.2.10,Win32,60,61025ae37ef11b136ea224fe,,,,,,,,,1493,72.00001252,36.79999411,1,0,0,response1disk,,6,5.600060356,7.19999367,1,0,0,rectangle,5.600060356,7.19999367,1,0,0,5.600060356,7.19999367,1,0,0,0,103,103,14,1,,,,,,,,
,,,,,,,,,,,,,FF,,,,,,,,1.2993,,,,,,,,,,,,,,,,,,,,,,61035f0c5670985a943f70f1,61036c2484ad83fd30723a5c,2021-07-29_23h04.45.358,Simcolourproject_2stim_asymm_v5,2020.2.10,Win32,60,61025ae37ef11b136ea224fe,,,,,,,,,2969,46.40001214,73.59999466,1,0,0,response1disk,,7,-7.199988663,13.59999377,1,0,0,rectangle,-7.199988663,13.59999377,1,0,0,-7.199988663,13.59999377,1,0,0,0,104,104,5,1,,,,,,,,
,,,,,,,,,,,,,FF,,,,,,,,0.9158,,,,,,,,,,,,,,,,,,,,,,61035f0c5670985a943f70f1,61036c2484ad83fd30723a5c,2021-07-29_23h04.45.358,Simcolourproject_2stim_asymm_v5,2020.2.10,Win32,60,61025ae37ef11b136ea224fe,,,,,,,,,948,83.20001268,-46.40000713,1,0,0,response3disk,,5,8.000011563,-14.40000665,1,0,0,rectangle,8.000011563,-14.40000665,1,0,0,8.000011563,-14.40000665,1,0,0,0,105,105,113,1,,,,,,,,
,,,,,,,,,,,,,FF,,,,,,,,2.2145,,,,,,,,,,,,,,,,,,,,,,61035f0c5670985a943f70f1,61036c2484ad83fd30723a5c,2021-07-29_23h04.45.358,Simcolourproject_2stim_asymm_v5,2020.2.10,Win32,60,61025ae37ef11b136ea224fe,,,,,,,,,1237,37.60006083,-64.00000739,1,0,0,response3disk,,4,7.200011551,-3.200006485,1,0,0,rectangle,7.200011551,-3.200006485,1,0,0,7.200011551,-3.200006485,1,0,0,0,106,106,40,1,,,,,,,,
,,,,,,,,,,,,,FF,,,,,,,,1.3987,,,,,,,,,,,,,,,,,,,,,,61035f0c5670985a943f70f1,61036c2484ad83fd30723a5c,2021-07-29_23h04.45.358,Simcolourproject_2stim_asymm_v5,2020.2.10,Win32,60,61025ae37ef11b136ea224fe,,,,,,,,,2434,52,-86.40002441,1,0,0,response3disk,,4,3.200012207,0.799987793,1,0,0,rectangle,3.200012207,0.799987793,1,0,0,3.200012207,0.799987793,1,0,0,0,107,107,159,1,,,,,,,,
,,,,,,,,,,,,,FF,,,,,,,,1.1826,,,,,,,,,,,,,,,,,,,,,,61035f0c5670985a943f70f1,61036c2484ad83fd30723a5c,2021-07-29_23h04.45.358,Simcolourproject_2stim_asymm_v5,2020.2.10,Win32,60,61025ae37ef11b136ea224fe,,,,,,,,,1663,-30.39996338,-96.79998779,1,0,0,response5disk,,3,19.20001221,-10.3999939,1,0,0,rectangle,-105.5999756,50.3999939,1,0,0,-0.799987793,0.799987793,1,0,0,0,108,108,32,1,,response7disk_3,TRUE,1,1,"[306,80,6,213,87,80,214,259,243,245,154,109,63,43,155,320,135,94,159,302]",1.3656,rectangle
,,,,,,,,,,,,,FF,,,,,,,,2.4807,,,,,,,,,,,,,,,,,,,,,,61035f0c5670985a943f70f1,61036c2484ad83fd30723a5c,2021-07-29_23h04.45.358,Simcolourproject_2stim_asymm_v5,2020.2.10,Win32,60,61025ae37ef11b136ea224fe,,,,,,,,,14,-46.39996338,-99.20001221,1,0,0,response5disk,,3,-0.799987793,-9.600006104,1,0,0,rectangle,-0.799987793,-9.600006104,1,0,0,-0.799987793,-9.600006104,1,0,0,0,109,109,59,1,,,,,,,,
,,,,,,,,,,,,,FF,,,,,,,,0.7156,,,,,,,,,,,,,,,,,,,,,,61035f0c5670985a943f70f1,61036c2484ad83fd30723a5c,2021-07-29_23h04.45.358,Simcolourproject_2stim_asymm_v5,2020.2.10,Win32,60,61025ae37ef11b136ea224fe,,,,,,,,,4350,-45.59997559,95.19998169,1,0,0,response7disk,,0,4,0,1,0,0,rectangle,4,0,1,0,0,4,0,1,0,0,0,110,110,17,1,,,,,,,,
,,,,,,,,,,,,,FF,,,,,,,,1.0653,,,,,,,,,,,,,,,,,,,,,,61035f0c5670985a943f70f1,61036c2484ad83fd30723a5c,2021-07-29_23h04.45.358,Simcolourproject_2stim_asymm_v5,2020.2.10,Win32,60,61025ae37ef11b136ea224fe,,,,,,,,,3976,-56.79998779,-107.2000122,1,0,0,response5disk,,3,-2.399963379,-5.600006104,1,0,0,rectangle,-2.399963379,-5.600006104,1,0,0,-2.399963379,-5.600006104,1,0,0,0,111,111,56,1,,,,,,,,
,,,,,,,,,,,,,FF,,,,,,,,1.0657,,,,,,,,,,,,,,,,,,,,,,61035f0c5670985a943f70f1,61036c2484ad83fd30723a5c,2021-07-29_23h04.45.358,Simcolourproject_2stim_asymm_v5,2020.2.10,Win32,60,61025ae37ef11b136ea224fe,,,,,,,,,3687,48,-96,1,0,0,response3disk,,4,1.600036621,0.799987793,1,0,0,rectangle,1.600036621,0.799987793,1,0,0,1.600036621,0.799987793,1,0,0,0,112,112,54,1,,,,,,,,
,,,,,,,,,,,,,FF,,,,,,,,1.9982,,,,,,,,,,,,,,,,,,,,,,61035f0c5670985a943f70f1,61036c2484ad83fd30723a5c,2021-07-29_23h04.45.358,Simcolourproject_2stim_asymm_v5,2020.2.10,Win32,60,61025ae37ef11b136ea224fe,,,,,,,,,3570,-45.59997559,-95.20001221,1,0,0,response5disk,,3,-1.599975586,-0.800018311,1,0,0,rectangle,-1.599975586,-0.800018311,1,0,0,-1.599975586,-0.800018311,1,0,0,0,113,113,140,1,,,,,,,,
,,,,,,,,,,,,,FF,,,,,,,,0.8661,,,,,,,,,,,,,,,,,,,,,,61035f0c5670985a943f70f1,61036c2484ad83fd30723a5c,2021-07-29_23h04.45.358,Simcolourproject_2stim_asymm_v5,2020.2.10,Win32,60,61025ae37ef11b136ea224fe,,,,,,,,,2987,-94.39996338,50.3999939,1,0,0,response7disk,,1,2.400024414,-8,1,0,0,rectangle,2.400024414,-8,1,0,0,2.400024414,-8,1,0,0,0,114,114,91,1,,,,,,,,
,,,,,,,,,,,,,FF,,,,,,,,1.2154,,,,,,,,,,,,,,,,,,,,,,61035f0c5670985a943f70f1,61036c2484ad83fd30723a5c,2021-07-29_23h04.45.358,Simcolourproject_2stim_asymm_v5,2020.2.10,Win32,60,61025ae37ef11b136ea224fe,,,,,,,,,4082,-92,-59.20001221,1,0,0,response5disk,,2,-7.200012207,-0.800018311,1,0,0,rectangle,-7.200012207,-0.800018311,1,0,0,-7.200012207,-0.800018311,1,0,0,0,115,115,36,1,,,,,,,,
,,,,,,,,,,,,,FF,,,,,,,,1.0321,,,,,,,,,,,,,,,,,,,,,,61035f0c5670985a943f70f1,61036c2484ad83fd30723a5c,2021-07-29_23h04.45.358,Simcolourproject_2stim_asymm_v5,2020.2.10,Win32,60,61025ae37ef11b136ea224fe,,,,,,,,,1834,-36,-96,1,0,0,response5disk,,3,6.400024414,-3.200012207,1,0,0,rectangle,6.400024414,-3.200012207,1,0,0,6.400024414,-3.200012207,1,0,0,0,116,116,31,1,,,,,,,,
,,,,,,,,,,,,,FF,,,,,,,,0.6827,,,,,,,,,,,,,,,,,,,,,,61035f0c5670985a943f70f1,61036c2484ad83fd30723a5c,2021-07-29_23h04.45.358,Simcolourproject_2stim_asymm_v5,2020.2.10,Win32,60,61025ae37ef11b136ea224fe,,,,,,,,,2661,-38.39996338,96,1,0,0,response7disk,,0,1.600036621,-3.200012207,1,0,0,rectangle,1.600036621,-3.200012207,1,0,0,1.600036621,-3.200012207,1,0,0,0,117,117,121,1,,,,,,,,
,,,,,,,,,,,,,FF,,,,,,,,0.7821,,,,,,,,,,,,,,,,,,,,,,61035f0c5670985a943f70f1,61036c2484ad83fd30723a5c,2021-07-29_23h04.45.358,Simcolourproject_2stim_asymm_v5,2020.2.10,Win32,60,61025ae37ef11b136ea224fe,,,,,,,,,2811,36.79998779,-104.7999878,1,0,0,response3disk,,4,0.799987793,2.399993896,1,0,0,rectangle,0.799987793,2.399993896,1,0,0,0.799987793,2.399993896,1,0,0,0,118,118,45,1,,,,,,,,
,,,,,,,,,,,,,FF,,,,,,,,0.533,,,,,,,,,,,,,,,,,,,,,,61035f0c5670985a943f70f1,61036c2484ad83fd30723a5c,2021-07-29_23h04.45.358,Simcolourproject_2stim_asymm_v5,2020.2.10,Win32,60,61025ae37ef11b136ea224fe,,,,,,,,,2850,36,-101.6000366,1,0,0,response3disk,,4,-4,1.600006104,1,0,0,rectangle,-4,1.600006104,1,0,0,-4,1.600006104,1,0,0,0,119,119,115,1,,,,,,,,
,,,,,,,,,,,,,FF,,,,,,,,0.6157,,,,,,,,,,,,,,,,,,,,,,61035f0c5670985a943f70f1,61036c2484ad83fd30723a5c,2021-07-29_23h04.45.358,Simcolourproject_2stim_asymm_v5,2020.2.10,Win32,60,61025ae37ef11b136ea224fe,,,,,,,,,828,96.79998779,-54.3999939,1,0,0,response3disk,,5,6.400024414,-11.20001221,1,0,0,rectangle,6.400024414,-11.20001221,1,0,0,6.400024414,-11.20001221,1,0,0,0,120,120,133,1,,,,,,,,
,,,,,,,,,,,,,FF,,,,,,,,0.8158,,,,,,,,,,,,,,,,,,,,,,61035f0c5670985a943f70f1,61036c2484ad83fd30723a5c,2021-07-29_23h04.45.358,Simcolourproject_2stim_asymm_v5,2020.2.10,Win32,60,61025ae37ef11b136ea224fe,,,,,,,,,2682,46.40002441,-108.7999878,1,0,0,response3disk,,4,0.799987793,-3.200012207,1,0,0,rectangle,0.799987793,-3.200012207,1,0,0,0.799987793,-3.200012207,1,0,0,0,121,121,74,1,,,,,,,,
,,,,,,,,,,,,,FF,,,,,,,,5.9611,,,,,,,,,,,,,,,,,,,,,,61035f0c5670985a943f70f1,61036c2484ad83fd30723a5c,2021-07-29_23h04.45.358,Simcolourproject_2stim_asymm_v5,2020.2.10,Win32,60,61025ae37ef11b136ea224fe,,,,,,,,,1160,80.79998779,-49.6000061,1,0,0,response3disk,,5,0,-11.20001221,1,0,0,rectangle,0,-11.20001221,1,0,0,0,-11.20001221,1,0,0,0,122,122,134,1,,,,,,,,
,,,,,,,,,,,,,FF,,,,,,,,0.7326,,,,,,,,,,,,,,,,,,,,,,61035f0c5670985a943f70f1,61036c2484ad83fd30723a5c,2021-07-29_23h04.45.358,Simcolourproject_2stim_asymm_v5,2020.2.10,Win32,60,61025ae37ef11b136ea224fe,,,,,,,,,3166,-44,-103.2000122,1,0,0,response5disk,,3,0,-0.800018311,1,0,0,rectangle,0,-0.800018311,1,0,0,0,-0.800018311,1,0,0,0,123,123,111,1,,,,,,,,
,,,,,,,,,,,,,FF,,,,,,,,0.8829,,,,,,,,,,,,,,,,,,,,,,61035f0c5670985a943f70f1,61036c2484ad83fd30723a5c,2021-07-29_23h04.45.358,Simcolourproject_2stim_asymm_v5,2020.2.10,Win32,60,61025ae37ef11b136ea224fe,,,,,,,,,3876,-103.2000122,-56.80001831,1,0,0,response5disk,,2,1.600036621,3.199981689,1,0,0,rectangle,1.600036621,3.199981689,1,0,0,1.600036621,3.199981689,1,0,0,0,124,124,158,1,,,,,,,,
,,,,,,,,,,,,,FF,,,,,,,,1.1157,,,,,,,,,,,,,,,,,,,,,,61035f0c5670985a943f70f1,61036c2484ad83fd30723a5c,2021-07-29_23h04.45.358,Simcolourproject_2stim_asymm_v5,2020.2.10,Win32,60,61025ae37ef11b136ea224fe,,,,,,,,,3699,48,-110.4000244,1,0,0,response3disk,,4,3.200012207,4,1,0,0,rectangle,3.200012207,4,1,0,0,3.200012207,4,1,0,0,0,125,125,96,1,,,,,,,,
,,,,,,,,,,,,,FF,,,,,,,,1.2489,,,,,,,,,,,,,,,,,,,,,,61035f0c5670985a943f70f1,61036c2484ad83fd30723a5c,2021-07-29_23h04.45.358,Simcolourproject_2stim_asymm_v5,2020.2.10,Win32,60,61025ae37ef11b136ea224fe,,,,,,,,,2247,86.40002441,44.79998779,1,0,0,response1disk,,6,0,-0.800018311,1,0,0,rectangle,0,-0.800018311,1,0,0,0,-0.800018311,1,0,0,0,126,126,37,1,,,,,,,,
,,,,,,,,,,,,,FF,,,,,,,,4.5459,,,,,,,,,,,,,,,,,,,,,,61035f0c5670985a943f70f1,61036c2484ad83fd30723a5c,2021-07-29_23h04.45.358,Simcolourproject_2stim_asymm_v5,2020.2.10,Win32,60,61025ae37ef11b136ea224fe,,,,,,,,,3270,47.20001221,-80,1,0,0,response3disk,,4,0.799987793,1.600006104,1,0,0,rectangle,0.799987793,1.600006104,1,0,0,0.799987793,1.600006104,1,0,0,0,127,127,58,1,,,,,,,,
,,,,,,,,,,,,,FF,,,,,,,,1.0324,,,,,,,,,,,,,,,,,,,,,,61035f0c5670985a943f70f1,61036c2484ad83fd30723a5c,2021-07-29_23h04.45.358,Simcolourproject_2stim_asymm_v5,2020.2.10,Win32,60,61025ae37ef11b136ea224fe,,,,,,,,,1986,-42.39996338,-98.40002441,1,0,0,response5disk,,3,7.200012207,-1.600006104,1,0,0,rectangle,7.200012207,-1.600006104,1,0,0,7.200012207,-1.600006104,1,0,0,0,128,128,69,1,,,,,,,,
,,,,,,,,,,,,,FF,,,,,,,,0.8487,,,,,,,,,,,,,,,,,,,,,,61035f0c5670985a943f70f1,61036c2484ad83fd30723a5c,2021-07-29_23h04.45.358,Simcolourproject_2stim_asymm_v5,2020.2.10,Win32,60,61025ae37ef11b136ea224fe,,,,,,,,,3949,-76,-43.20001221,1,0,0,response5disk,,2,-4,-7.200012207,1,0,0,rectangle,-4,-7.200012207,1,0,0,-4,-7.200012207,1,0,0,0,129,129,149,1,,,,,,,,
,,,,,,,,,,,,,FF,,,,,,,,1.3652,,,,,,,,,,,,,,,,,,,,,,61035f0c5670985a943f70f1,61036c2484ad83fd30723a5c,2021-07-29_23h04.45.358,Simcolourproject_2stim_asymm_v5,2020.2.10,Win32,60,61025ae37ef11b136ea224fe,,,,,,,,,2738,84,32,1,0,0,response1disk,,6,3.200012207,-6.399993896,1,0,0,rectangle,3.200012207,-6.399993896,1,0,0,3.200012207,-6.399993896,1,0,0,0,130,130,70,1,,,,,,,,
,,,,,,,,,,,,,FF,,,,,,,,0.6988,,,,,,,,,,,,,,,,,,,,,,61035f0c5670985a943f70f1,61036c2484ad83fd30723a5c,2021-07-29_23h04.45.358,Simcolourproject_2stim_asymm_v5,2020.2.10,Win32,60,61025ae37ef11b136ea224fe,,,,,,,,,1450,-40,95.19998169,1,0,0,response7disk,,0,2.400024414,-4,1,0,0,rectangle,2.400024414,-4,1,0,0,2.400024414,-4,1,0,0,0,131,131,7,1,,,,,,,,
,,,,,,,,,,,,,FF,,,,,,,,0.8822,,,,,,,,,,,,,,,,,,,,,,61035f0c5670985a943f70f1,61036c2484ad83fd30723a5c,2021-07-29_23h04.45.358,Simcolourproject_2stim_asymm_v5,2020.2.10,Win32,60,61025ae37ef11b136ea224fe,,,,,,,,,3989,-48.79998779,-87.20001221,1,0,0,response5disk,,3,2.400024414,-4.800018311,1,0,0,rectangle,2.400024414,-4.800018311,1,0,0,2.400024414,-4.800018311,1,0,0,0,132,132,144,1,,,,,,,,
,,,,,,,,,,,,,FF,,,,,,,,0.8994,,,,,,,,,,,,,,,,,,,,,,61035f0c5670985a943f70f1,61036c2484ad83fd30723a5c,2021-07-29_23h04.45.358,Simcolourproject_2stim_asymm_v5,2020.2.10,Win32,60,61025ae37ef11b136ea224fe,,,,,,,,,1391,42.40002441,-96.79998779,1,0,0,response3disk,,4,12.79998779,1.600006104,1,0,0,rectangle,12.79998779,1.600006104,1,0,0,12.79998779,1.600006104,1,0,0,0,133,133,55,1,,,,,,,,
,,,,,,,,,,,,,FF,,,,,,,,3.8298,,,,,,,,,,,,,,,,,,,,,,61035f0c5670985a943f70f1,61036c2484ad83fd30723a5c,2021-07-29_23h04.45.358,Simcolourproject_2stim_asymm_v5,2020.2.10,Win32,60,61025ae37ef11b136ea224fe,,,,,,,,,2102,-46.39996338,-90.40002441,1,0,0,response5disk,,3,8.799987793,-2.399993896,1,0,0,rectangle,-42.39996338,-90.40002441,1,0,0,3.200012207,4,1,0,0,0,134,134,109,1,,response5disk_3,TRUE,3,3,"[306,80,6,213,87,80,214,259,243,245,154,109,63,43,155,320,135,94,159,302]",1.7644,rectangle
,,,,,,,,,,,,,FF,,,,,,,,0.6991,,,,,,,,,,,,,,,,,,,,,,61035f0c5670985a943f70f1,61036c2484ad83fd30723a5c,2021-07-29_23h04.45.358,Simcolourproject_2stim_asymm_v5,2020.2.10,Win32,60,61025ae37ef11b136ea224fe,,,,,,,,,1418,104.7999878,-64.80001831,1,0,0,response3disk,,5,17.60003662,-8.800018311,1,0,0,rectangle,17.60003662,-8.800018311,1,0,0,17.60003662,-8.800018311,1,0,0,0,135,135,82,1,,,,,,,,
,,,,,,,,,,,,,FF,,,,,,,,0.7655,,,,,,,,,,,,,,,,,,,,,,61035f0c5670985a943f70f1,61036c2484ad83fd30723a5c,2021-07-29_23h04.45.358,Simcolourproject_2stim_asymm_v5,2020.2.10,Win32,60,61025ae37ef11b136ea224fe,,,,,,,,,214,-41.59997559,-95.20001221,1,0,0,response5disk,,3,2.400024414,-4,1,0,0,rectangle,2.400024414,-4,1,0,0,2.400024414,-4,1,0,0,0,136,136,154,1,,,,,,,,
,,,,,,,,,,,,,FF,,,,,,,,0.8488,,,,,,,,,,,,,,,,,,,,,,61035f0c5670985a943f70f1,61036c2484ad83fd30723a5c,2021-07-29_23h04.45.358,Simcolourproject_2stim_asymm_v5,2020.2.10,Win32,60,61025ae37ef11b136ea224fe,,,,,,,,,2625,98.40002441,31.19998169,1,0,0,response1disk,,6,4.799987793,-5.600006104,1,0,0,rectangle,4.799987793,-5.600006104,1,0,0,4.799987793,-5.600006104,1,0,0,0,137,137,49,1,,,,,,,,
,,,,,,,,,,,,,FF,,,,,,,,1.0157,,,,,,,,,,,,,,,,,,,,,,61035f0c5670985a943f70f1,61036c2484ad83fd30723a5c,2021-07-29_23h04.45.358,Simcolourproject_2stim_asymm_v5,2020.2.10,Win32,60,61025ae37ef11b136ea224fe,,,,,,,,,633,-92,40,1,0,0,response7disk,,1,-4.799987793,0.799987793,1,0,0,rectangle,-4.799987793,0.799987793,1,0,0,-4.799987793,0.799987793,1,0,0,0,138,138,57,1,,,,,,,,
,,,,,,,,,,,,,FF,,,,,,,,1.565,,,,,,,,,,,,,,,,,,,,,,61035f0c5670985a943f70f1,61036c2484ad83fd30723a5c,2021-07-29_23h04.45.358,Simcolourproject_2stim_asymm_v5,2020.2.10,Win32,60,61025ae37ef11b136ea224fe,,,,,,,,,666,92,-48.80001831,1,0,0,response3disk,,5,-3.200012207,-6.399993896,1,0,0,rectangle,-3.200012207,-6.399993896,1,0,0,-3.200012207,-6.399993896,1,0,0,0,139,139,84,1,,,,,,,,
,,,,,,,,,,,,,FF,,,,,,,,1.4817,,,,,,,,,,,,,,,,,,,,,,61035f0c5670985a943f70f1,61036c2484ad83fd30723a5c,2021-07-29_23h04.45.358,Simcolourproject_2stim_asymm_v5,2020.2.10,Win32,60,61025ae37ef11b136ea224fe,,,,,,,,,3176,90.40002441,22.3999939,1,0,0,response1disk,,6,3.200012207,-3.200012207,1,0,0,rectangle,3.200012207,-3.200012207,1,0,0,3.200012207,-3.200012207,1,0,0,0,140,140,100,1,,,,,,,,
,,,,,,,,,,,,,FF,,,,,,,,1.0155,,,,,,,,,,,,,,,,,,,,,,61035f0c5670985a943f70f1,61036c2484ad83fd30723a5c,2021-07-29_23h04.45.358,Simcolourproject_2stim_asymm_v5,2020.2.10,Win32,60,61025ae37ef11b136ea224fe,,,,,,,,,1217,-38.39996338,-107.2000122,1,0,0,response5disk,,3,0.799987793,-1.600006104,1,0,0,rectangle,0.799987793,-1.600006104,1,0,0,0.799987793,-1.600006104,1,0,0,0,141,141,68,1,,,,,,,,
,,,,,,,,,,,,,FF,,,,,,,,0.6988,,,,,,,,,,,,,,,,,,,,,,61035f0c5670985a943f70f1,61036c2484ad83fd30723a5c,2021-07-29_23h04.45.358,Simcolourproject_2stim_asymm_v5,2020.2.10,Win32,60,61025ae37ef11b136ea224fe,,,,,,,,,1527,-88,-52.80001831,1,0,0,response5disk,,2,0.799987793,-2.399993896,1,0,0,rectangle,0.799987793,-2.399993896,1,0,0,0.799987793,-2.399993896,1,0,0,0,142,142,85,1,,,,,,,,
,,,,,,,,,,,,,FF,,,,,,,,1.0655,,,,,,,,,,,,,,,,,,,,,,61035f0c5670985a943f70f1,61036c2484ad83fd30723a5c,2021-07-29_23h04.45.358,Simcolourproject_2stim_asymm_v5,2020.2.10,Win32,60,61025ae37ef11b136ea224fe,,,,,,,,,1778,84.79998779,36,1,0,0,response1disk,,6,8.799987793,-2.399993896,1,0,0,rectangle,8.799987793,-2.399993896,1,0,0,8.799987793,-2.399993896,1,0,0,0,143,143,52,1,,,,,,,,
,,,,,,,,,,,,,FF,,,,,,,,1.0322,,,,,,,,,,,,,,,,,,,,,,61035f0c5670985a943f70f1,61036c2484ad83fd30723a5c,2021-07-29_23h04.45.358,Simcolourproject_2stim_asymm_v5,2020.2.10,Win32,60,61025ae37ef11b136ea224fe,,,,,,,,,367,-65.59997559,33.6000061,1,0,0,response7disk,,1,-3.200012207,0,1,0,0,rectangle,-3.200012207,0,1,0,0,-3.200012207,0,1,0,0,0,144,144,41,1,,,,,,,,
,,,,,,,,,,,,,FF,,,,,,,,0.9656,,,,,,,,,,,,,,,,,,,,,,61035f0c5670985a943f70f1,61036c2484ad83fd30723a5c,2021-07-29_23h04.45.358,Simcolourproject_2stim_asymm_v5,2020.2.10,Win32,60,61025ae37ef11b136ea224fe,,,,,,,,,4359,-74.39996338,41.6000061,1,0,0,response7disk,,1,-7.200012207,-4.800018311,1,0,0,rectangle,-7.200012207,-4.800018311,1,0,0,-7.200012207,-4.800018311,1,0,0,0,145,145,18,1,,,,,,,,
,,,,,,,,,,,,,FF,,,,,,,,0.6492,,,,,,,,,,,,,,,,,,,,,,61035f0c5670985a943f70f1,61036c2484ad83fd30723a5c,2021-07-29_23h04.45.358,Simcolourproject_2stim_asymm_v5,2020.2.10,Win32,60,61025ae37ef11b136ea224fe,,,,,,,,,455,-39.20001221,92,1,0,0,response7disk,,0,8,-12,1,0,0,rectangle,8,-12,1,0,0,8,-12,1,0,0,0,146,146,67,1,,,,,,,,
,,,,,,,,,,,,,FF,,,,,,,,1.6823,,,,,,,,,,,,,,,,,,,,,,61035f0c5670985a943f70f1,61036c2484ad83fd30723a5c,2021-07-29_23h04.45.358,Simcolourproject_2stim_asymm_v5,2020.2.10,Win32,60,61025ae37ef11b136ea224fe,,,,,,,,,932,39.20001221,72,1,0,0,response1disk,,7,-2.399963379,-9.600006104,1,0,0,rectangle,-2.399963379,-9.600006104,1,0,0,-2.399963379,-9.600006104,1,0,0,0,147,147,87,1,,,,,,,,
,,,,,,,,,,,,,FF,,,,,,,,1.1313,,,,,,,,,,,,,,,,,,,,,,61035f0c5670985a943f70f1,61036c2484ad83fd30723a5c,2021-07-29_23h04.45.358,Simcolourproject_2stim_asymm_v5,2020.2.10,Win32,60,61025ae37ef11b136ea224fe,,,,,,,,,3169,98.40002441,24.79998779,1,0,0,response1disk,,6,21.60003662,-16.80001831,1,0,0,rectangle,21.60003662,-16.80001831,1,0,0,21.60003662,-16.80001831,1,0,0,0,148,148,38,1,,,,,,,,
,,,,,,,,,,,,,FF,,,,,,,,0.982,,,,,,,,,,,,,,,,,,,,,,61035f0c5670985a943f70f1,61036c2484ad83fd30723a5c,2021-07-29_23h04.45.358,Simcolourproject_2stim_asymm_v5,2020.2.10,Win32,60,61025ae37ef11b136ea224fe,,,,,,,,,4107,-81.59997559,-45.6000061,1,0,0,response5disk,,2,-4,-4,1,0,0,rectangle,-4,-4,1,0,0,-4,-4,1,0,0,0,149,149,51,1,,,,,,,,
,,,,,,,,,,,,,FF,,,,,,,,0.8994,,,,,,,,,,,,,,,,,,,,,,61035f0c5670985a943f70f1,61036c2484ad83fd30723a5c,2021-07-29_23h04.45.358,Simcolourproject_2stim_asymm_v5,2020.2.10,Win32,60,61025ae37ef11b136ea224fe,,,,,,,,,3379,76,-47.20001221,1,0,0,response3disk,,5,4,-0.800018311,1,0,0,rectangle,4,-0.800018311,1,0,0,4,-0.800018311,1,0,0,0,150,150,104,1,,,,,,,,
,,,,,,,,,,,,,FF,,,,,,,,0.8658,,,,,,,,,,,,,,,,,,,,,,61035f0c5670985a943f70f1,61036c2484ad83fd30723a5c,2021-07-29_23h04.45.358,Simcolourproject_2stim_asymm_v5,2020.2.10,Win32,60,61025ae37ef11b136ea224fe,,,,,,,,,2482,-36.79998779,89.6000061,1,0,0,response7disk,,0,-3.200012207,5.600006104,1,0,0,rectangle,-3.200012207,5.600006104,1,0,0,-3.200012207,5.600006104,1,0,0,0,151,151,118,1,,,,,,,,
,,,,,,,,,,,,,FF,,,,,,,,2.1976,,,,,,,,,,,,,,,,,,,,,,61035f0c5670985a943f70f1,61036c2484ad83fd30723a5c,2021-07-29_23h04.45.358,Simcolourproject_2stim_asymm_v5,2020.2.10,Win32,60,61025ae37ef11b136ea224fe,,,,,,,,,1077,-40,-85.60003662,1,0,0,response5disk,,3,13.60003662,-2.399993896,1,0,0,rectangle,13.60003662,-2.399993896,1,0,0,13.60003662,-2.399993896,1,0,0,0,152,152,152,1,,,,,,,,
,,,,,,,,,,,,,FF,,,,,,,,1.8979,,,,,,,,,,,,,,,,,,,,,,61035f0c5670985a943f70f1,61036c2484ad83fd30723a5c,2021-07-29_23h04.45.358,Simcolourproject_2stim_asymm_v5,2020.2.10,Win32,60,61025ae37ef11b136ea224fe,,,,,,,,,2459,128.7999878,-75.20001221,1,0,0,response3disk,,5,-10.39996338,-6.399993896,1,0,0,rectangle,88,-47.20001221,1,0,0,0.799987793,4.799987793,1,0,0,0,153,153,146,1,,response3disk_3,TRUE,5,5,"[306,80,6,213,87,80,214,259,243,245,154,109,63,43,155,320,135,94,159,302]",1.5649,rectangle
,,,,,,,,,,,,,FF,,,,,,,,0.8494,,,,,,,,,,,,,,,,,,,,,,61035f0c5670985a943f70f1,61036c2484ad83fd30723a5c,2021-07-29_23h04.45.358,Simcolourproject_2stim_asymm_v5,2020.2.10,Win32,60,61025ae37ef11b136ea224fe,,,,,,,,,671,36.79998779,-112,1,0,0,response3disk,,4,12,-9.600006104,1,0,0,rectangle,-41.59997559,97.6000061,1,0,0,0,-4,1,0,0,0,154,154,30,1,,response7disk_3,TRUE,0,0,"[306,80,6,213,87,80,214,259,243,245,154,109,63,43,155,320,135,94,159,302]",1.465,rectangle
,,,,,,,,,,,,,FF,,,,,,,,9.0091,,,,,,,,,,,,,,,,,,,,,,61035f0c5670985a943f70f1,61036c2484ad83fd30723a5c,2021-07-29_23h04.45.358,Simcolourproject_2stim_asymm_v5,2020.2.10,Win32,60,61025ae37ef11b136ea224fe,,,,,,,,,2725,69.60003662,-44.80001831,1,0,0,response3disk,,5,-0.799987793,1.600006104,1,0,0,rectangle,-0.799987793,1.600006104,1,0,0,-0.799987793,1.600006104,1,0,0,0,155,155,39,1,,,,,,,,
,,,,,,,,,,,,,FF,,,,,,,,0.8488,,,,,,,,,,,,,,,,,,,,,,61035f0c5670985a943f70f1,61036c2484ad83fd30723a5c,2021-07-29_23h04.45.358,Simcolourproject_2stim_asymm_v5,2020.2.10,Win32,60,61025ae37ef11b136ea224fe,,,,,,,,,3997,-54.39996338,-93.60003662,1,0,0,response5disk,,3,0,-1.600006104,1,0,0,rectangle,0,-1.600006104,1,0,0,0,-1.600006104,1,0,0,0,156,156,15,1,,,,,,,,
,,,,,,,,,,,,,FF,,,,,,,,1.1496,,,,,,,,,,,,,,,,,,,,,,61035f0c5670985a943f70f1,61036c2484ad83fd30723a5c,2021-07-29_23h04.45.358,Simcolourproject_2stim_asymm_v5,2020.2.10,Win32,60,61025ae37ef11b136ea224fe,,,,,,,,,4220,-90.39996338,-48.80001831,1,0,0,response5disk,,2,8,0,1,0,0,rectangle,8,0,1,0,0,8,0,1,0,0,0,157,157,135,1,,,,,,,,
,,,,,,,,,,,,,FF,,,,,,,,0.5999,,,,,,,,,,,,,,,,,,,,,,61035f0c5670985a943f70f1,61036c2484ad83fd30723a5c,2021-07-29_23h04.45.358,Simcolourproject_2stim_asymm_v5,2020.2.10,Win32,60,61025ae37ef11b136ea224fe,,,,,,,,,549,-88,51.19998169,1,0,0,response7disk,,1,-3.200012207,-0.800018311,1,0,0,rectangle,111.2000122,50.3999939,1,0,0,0,2.399993896,1,0,0,0,158,158,94,1,,response1disk_3,TRUE,6,6,"[306,80,6,213,87,80,214,259,243,245,154,109,63,43,155,320,135,94,159,302]",1.4647,rectangle
,,,,,,,,,,,,,FF,,,,,,,,0.9157,,,,,,,,,,,,,,,,,,,,,,61035f0c5670985a943f70f1,61036c2484ad83fd30723a5c,2021-07-29_23h04.45.358,Simcolourproject_2stim_asymm_v5,2020.2.10,Win32,60,61025ae37ef11b136ea224fe,,,,,,,,,2248,32.79998779,-97.60003662,1,0,0,response3disk,,4,-0.799987793,-0.800018311,1,0,0,rectangle,-0.799987793,-0.800018311,1,0,0,-0.799987793,-0.800018311,1,0,0,0,159,159,98,1,,,,,,,,
,,,,,,,,,,,,,FF,,,,,,,,1.1988,,,,,,,,,,,,,,,,,,,,,,61035f0c5670985a943f70f1,61036c2484ad83fd30723a5c,2021-07-29_23h04.45.358,Simcolourproject_2stim_asymm_v5,2020.2.10,Win32,60,61025ae37ef11b136ea224fe,,,,,,,,,598,77.60003662,-43.20001221,1,0,0,response3disk,,5,-6.399963379,8.799987793,1,0,0,rectangle,-6.399963379,8.799987793,1,0,0,-6.399963379,8.799987793,1,0,0,1,0,160,100,1,,,,,,,,
,,,,,,,,,,,,,FF,,,,,,,,0.7489,,,,,,,,,,,,,,,,,,,,,,61035f0c5670985a943f70f1,61036c2484ad83fd30723a5c,2021-07-29_23h04.45.358,Simcolourproject_2stim_asymm_v5,2020.2.10,Win32,60,61025ae37ef11b136ea224fe,,,,,,,,,120,99.20001221,-44,1,0,0,response3disk,,5,0,1.600006104,1,0,0,rectangle,0,1.600006104,1,0,0,0,1.600006104,1,0,0,1,1,161,107,1,,,,,,,,
,,,,,,,,,,,,,FF,,,,,,,,0.7827,,,,,,,,,,,,,,,,,,,,,,61035f0c5670985a943f70f1,61036c2484ad83fd30723a5c,2021-07-29_23h04.45.358,Simcolourproject_2stim_asymm_v5,2020.2.10,Win32,60,61025ae37ef11b136ea224fe,,,,,,,,,2290,-51.20001221,-112.7999878,1,0,0,response5disk,,3,1.600036621,0.799987793,1,0,0,rectangle,1.600036621,0.799987793,1,0,0,1.600036621,0.799987793,1,0,0,1,2,162,60,1,,,,,,,,
,,,,,,,,,,,,,FF,,,,,,,,1.9479,,,,,,,,,,,,,,,,,,,,,,61035f0c5670985a943f70f1,61036c2484ad83fd30723a5c,2021-07-29_23h04.45.358,Simcolourproject_2stim_asymm_v5,2020.2.10,Win32,60,61025ae37ef11b136ea224fe,,,,,,,,,154,-44.79998779,-114.4000244,1,0,0,response5disk,,3,9.600036621,0,1,0,0,rectangle,9.600036621,0,1,0,0,9.600036621,0,1,0,0,1,3,163,7,1,,,,,,,,
,,,,,,,,,,,,,FF,,,,,,,,2.0485,,,,,,,,,,,,,,,,,,,,,,61035f0c5670985a943f70f1,61036c2484ad83fd30723a5c,2021-07-29_23h04.45.358,Simcolourproject_2stim_asymm_v5,2020.2.10,Win32,60,61025ae37ef11b136ea224fe,,,,,,,,,2531,41.60006089,-63.20000738,1,0,0,response3disk,,4,-9.599988699,7.19999367,1,0,0,rectangle,-9.599988699,7.19999367,1,0,0,-9.599988699,7.19999367,1,0,0,1,4,164,87,1,,,,,,,,
,,,,,,,,,,,,,FF,,,,,,,,1.0825,,,,,,,,,,,,,,,,,,,,,,61035f0c5670985a943f70f1,61036c2484ad83fd30723a5c,2021-07-29_23h04.45.358,Simcolourproject_2stim_asymm_v5,2020.2.10,Win32,60,61025ae37ef11b136ea224fe,,,,,,,,,2587,29.60006071,-59.20000732,1,0,0,response3disk,,4,6.400011539,10.39999372,1,0,0,rectangle,6.400011539,10.39999372,1,0,0,6.400011539,10.39999372,1,0,0,1,5,165,114,1,,,,,,,,
,,,,,,,,,,,,,FF,,,,,,,,0.899,,,,,,,,,,,,,,,,,,,,,,61035f0c5670985a943f70f1,61036c2484ad83fd30723a5c,2021-07-29_23h04.45.358,Simcolourproject_2stim_asymm_v5,2020.2.10,Win32,60,61025ae37ef11b136ea224fe,,,,,,,,,2395,-34.39994024,-48.00000715,1,0,0,response5disk,,3,-2.399939764,1.599993587,1,0,0,rectangle,-2.399939764,1.599993587,1,0,0,-2.399939764,1.599993587,1,0,0,1,6,166,61,1,,,,,,,,
,,,,,,,,,,,,,FF,,,,,,,,0.866,,,,,,,,,,,,,,,,,,,,,,61035f0c5670985a943f70f1,61036c2484ad83fd30723a5c,2021-07-29_23h04.45.358,Simcolourproject_2stim_asymm_v5,2020.2.10,Win32,60,61025ae37ef11b136ea224fe,,,,,,,,,2598,-19.99998885,-54.40000725,1,0,0,response5disk,,3,1.600060296,7.19999367,1,0,0,rectangle,1.600060296,7.19999367,1,0,0,1.600060296,7.19999367,1,0,0,1,7,167,121,1,,,,,,,,
,,,,,,,,,,,,,FF,,,,,,,,0.8326,,,,,,,,,,,,,,,,,,,,,,61035f0c5670985a943f70f1,61036c2484ad83fd30723a5c,2021-07-29_23h04.45.358,Simcolourproject_2stim_asymm_v5,2020.2.10,Win32,60,61025ae37ef11b136ea224fe,,,,,,,,,2422,-39.99998915,-28.00000685,1,0,0,response5disk,,2,8.000011563,-3.200006485,1,0,0,rectangle,8.000011563,-3.200006485,1,0,0,8.000011563,-3.200006485,1,0,0,1,8,168,46,1,,,,,,,,
,,,,,,,,,,,,,FF,,,,,,,,1.3319,,,,,,,,,,,,,,,,,,,,,,61035f0c5670985a943f70f1,61036c2484ad83fd30723a5c,2021-07-29_23h04.45.358,Simcolourproject_2stim_asymm_v5,2020.2.10,Win32,60,61025ae37ef11b136ea224fe,,,,,,,,,747,32.80001193,-43.20000708,1,0,0,response3disk,,4,6.400011539,-6.400006533,1,0,0,rectangle,6.400011539,-6.400006533,1,0,0,6.400011539,-6.400006533,1,0,0,1,9,169,134,1,,,,,,,,
,,,,,,,,,,,,,FF,,,,,,,,1.4659,,,,,,,,,,,,,,,,,,,,,,61035f0c5670985a943f70f1,61036c2484ad83fd30723a5c,2021-07-29_23h04.45.358,Simcolourproject_2stim_asymm_v5,2020.2.10,Win32,60,61025ae37ef11b136ea224fe,,,,,,,,,1945,51.20001221,24.79999393,1,0,0,response1disk,,6,21.60006059,-9.60000658,1,0,0,rectangle,21.60006059,-9.60000658,1,0,0,21.60006059,-9.60000658,1,0,0,1,10,170,39,1,,,,,,,,
,,,,,,,,,,,,,FF,,,,,,,,0.8496,,,,,,,,,,,,,,,,,,,,,,61035f0c5670985a943f70f1,61036c2484ad83fd30723a5c,2021-07-29_23h04.45.358,Simcolourproject_2stim_asymm_v5,2020.2.10,Win32,60,61025ae37ef11b136ea224fe,,,,,,,,,1731,64.80001241,-35.20000696,1,0,0,response3disk,,5,18.40001172,-3.200006485,1,0,0,rectangle,18.40001172,-3.200006485,1,0,0,18.40001172,-3.200006485,1,0,0,1,11,171,85,1,,,,,,,,
,,,,,,,,,,,,,FF,,,,,,,,1.2162,,,,,,,,,,,,,,,,,,,,,,61035f0c5670985a943f70f1,61036c2484ad83fd30723a5c,2021-07-29_23h04.45.358,Simcolourproject_2stim_asymm_v5,2020.2.10,Win32,60,61025ae37ef11b136ea224fe,,,,,,,,,1749,-27.19998896,-20.80000675,1,0,0,response5disk,,2,-15.99998879,-10.40000659,1,0,0,rectangle,-15.99998879,-10.40000659,1,0,0,-15.99998879,-10.40000659,1,0,0,1,12,172,74,1,,,,,,,,
,,,,,,,,,,,,,FF,,,,,,,,1.9151,,,,,,,,,,,,,,,,,,,,,,61035f0c5670985a943f70f1,61036c2484ad83fd30723a5c,2021-07-29_23h04.45.358,Simcolourproject_2stim_asymm_v5,2020.2.10,Win32,60,61025ae37ef11b136ea224fe,,,,,,,,,1186,73.60001254,-28.80000687,1,0,0,response3disk,,5,-25.59998894,4.799993634,1,0,0,rectangle,-25.59998894,4.799993634,1,0,0,-25.59998894,4.799993634,1,0,0,1,13,173,36,1,,,,,,,,
,,,,,,,,,,,,,FF,,,,,,,,0.7493,,,,,,,,,,,,,,,,,,,,,,61035f0c5670985a943f70f1,61036c2484ad83fd30723a5c,2021-07-29_23h04.45.358,Simcolourproject_2stim_asymm_v5,2020.2.10,Win32,60,61025ae37ef11b136ea224fe,,,,,,,,,1361,-40.79998916,-57.6000073,1,0,0,response5disk,,3,-11.99998873,-9.60000658,1,0,0,rectangle,-11.99998873,-9.60000658,1,0,0,-11.99998873,-9.60000658,1,0,0,1,14,174,8,1,,,,,,,,
,,,,,,,,,,,,,FF,,,,,,,,2.3311,,,,,,,,,,,,,,,,,,,,,,61035f0c5670985a943f70f1,61036c2484ad83fd30723a5c,2021-07-29_23h04.45.358,Simcolourproject_2stim_asymm_v5,2020.2.10,Win32,60,61025ae37ef11b136ea224fe,,,,,,,,,3075,89.60003662,-47.20001221,1,0,0,response3disk,,5,10.40002441,-8,1,0,0,rectangle,10.40002441,-8,1,0,0,10.40002441,-8,1,0,0,1,15,175,2,1,,,,,,,,
,,,,,,,,,,,,,FF,,,,,,,,0.4994,,,,,,,,,,,,,,,,,,,,,,61035f0c5670985a943f70f1,61036c2484ad83fd30723a5c,2021-07-29_23h04.45.358,Simcolourproject_2stim_asymm_v5,2020.2.10,Win32,60,61025ae37ef11b136ea224fe,,,,,,,,,2762,88,29.6000061,1,0,0,response1disk,,6,0.799987793,-0.800018311,1,0,0,rectangle,0.799987793,-0.800018311,1,0,0,0.799987793,-0.800018311,1,0,0,1,16,176,76,1,,,,,,,,
,,,,,,,,,,,,,FF,,,,,,,,1.2482,,,,,,,,,,,,,,,,,,,,,,61035f0c5670985a943f70f1,61036c2484ad83fd30723a5c,2021-07-29_23h04.45.358,Simcolourproject_2stim_asymm_v5,2020.2.10,Win32,60,61025ae37ef11b136ea224fe,,,,,,,,,3932,-44.79998779,-82.40002441,1,0,0,response5disk,,3,-8.799987793,-0.800018311,1,0,0,rectangle,-8.799987793,-0.800018311,1,0,0,-8.799987793,-0.800018311,1,0,0,1,17,177,62,1,,,,,,,,
,,,,,,,,,,,,,FF,,,,,,,,0.9155,,,,,,,,,,,,,,,,,,,,,,61035f0c5670985a943f70f1,61036c2484ad83fd30723a5c,2021-07-29_23h04.45.358,Simcolourproject_2stim_asymm_v5,2020.2.10,Win32,60,61025ae37ef11b136ea224fe,,,,,,,,,4269,-84.79998779,40.79998779,1,0,0,response7disk,,1,-3.200012207,0.799987793,1,0,0,rectangle,-3.200012207,0.799987793,1,0,0,-3.200012207,0.799987793,1,0,0,1,18,178,99,1,,,,,,,,
,,,,,,,,,,,,,FF,,,,,,,,2.3646,,,,,,,,,,,,,,,,,,,,,,61035f0c5670985a943f70f1,61036c2484ad83fd30723a5c,2021-07-29_23h04.45.358,Simcolourproject_2stim_asymm_v5,2020.2.10,Win32,60,61025ae37ef11b136ea224fe,,,,,,,,,913,-48,-85.60003662,1,0,0,response5disk,,3,2.400024414,7.199981689,1,0,0,rectangle,2.400024414,7.199981689,1,0,0,2.400024414,7.199981689,1,0,0,1,19,179,82,1,,,,,,,,
,,,,,,,,,,,,,FF,,,,,,,,1.132,,,,,,,,,,,,,,,,,,,,,,61035f0c5670985a943f70f1,61036c2484ad83fd30723a5c,2021-07-29_23h04.45.358,Simcolourproject_2stim_asymm_v5,2020.2.10,Win32,60,61025ae37ef11b136ea224fe,,,,,,,,,823,-26.39996338,-85.60003662,1,0,0,response5disk,,3,10.40002441,2.399993896,1,0,0,rectangle,10.40002441,2.399993896,1,0,0,10.40002441,2.399993896,1,0,0,1,20,180,25,1,,,,,,,,
,,,,,,,,,,,,,FF,,,,,,,,1.2486,,,,,,,,,,,,,,,,,,,,,,61035f0c5670985a943f70f1,61036c2484ad83fd30723a5c,2021-07-29_23h04.45.358,Simcolourproject_2stim_asymm_v5,2020.2.10,Win32,60,61025ae37ef11b136ea224fe,,,,,,,,,4294,-68,36.79998779,1,0,0,response7disk,,1,12.79998779,-1.600006104,1,0,0,rectangle,12.79998779,-1.600006104,1,0,0,12.79998779,-1.600006104,1,0,0,1,21,181,4,1,,,,,,,,
,,,,,,,,,,,,,FF,,,,,,,,0.7491,,,,,,,,,,,,,,,,,,,,,,61035f0c5670985a943f70f1,61036c2484ad83fd30723a5c,2021-07-29_23h04.45.358,Simcolourproject_2stim_asymm_v5,2020.2.10,Win32,60,61025ae37ef11b136ea224fe,,,,,,,,,2824,-85.59997559,28,1,0,0,response7disk,,1,-12,-12.80001831,1,0,0,rectangle,-12,-12.80001831,1,0,0,-12,-12.80001831,1,0,0,1,22,182,34,1,,,,,,,,
,,,,,,,,,,,,,FF,,,,,,,,0.9189,,,,,,,,,,,,,,,,,,,,,,61035f0c5670985a943f70f1,61036c2484ad83fd30723a5c,2021-07-29_23h04.45.358,Simcolourproject_2stim_asymm_v5,2020.2.10,Win32,60,61025ae37ef11b136ea224fe,,,,,,,,,2570,100,-36.80001831,1,0,0,response3disk,,5,-10.39996338,4,1,0,0,rectangle,-10.39996338,4,1,0,0,-10.39996338,4,1,0,0,1,23,183,98,1,,,,,,,,
,,,,,,,,,,,,,FF,,,,,,,,0.6329,,,,,,,,,,,,,,,,,,,,,,61035f0c5670985a943f70f1,61036c2484ad83fd30723a5c,2021-07-29_23h04.45.358,Simcolourproject_2stim_asymm_v5,2020.2.10,Win32,60,61025ae37ef11b136ea224fe,,,,,,,,,2329,90.40002441,41.6000061,1,0,0,response1disk,,6,1.600036621,-9.600006104,1,0,0,rectangle,1.600036621,-9.600006104,1,0,0,1.600036621,-9.600006104,1,0,0,1,24,184,155,1,,,,,,,,
,,,,,,,,,,,,,FF,,,,,,,,0.7997,,,,,,,,,,,,,,,,,,,,,,61035f0c5670985a943f70f1,61036c2484ad83fd30723a5c,2021-07-29_23h04.45.358,Simcolourproject_2stim_asymm_v5,2020.2.10,Win32,60,61025ae37ef11b136ea224fe,,,,,,,,,4060,-83.20001221,-51.20001221,1,0,0,response5disk,,2,9.600036621,-3.200012207,1,0,0,rectangle,9.600036621,-3.200012207,1,0,0,9.600036621,-3.200012207,1,0,0,1,25,185,126,1,,,,,,,,
,,,,,,,,,,,,,FF,,,,,,,,0.6653,,,,,,,,,,,,,,,,,,,,,,61035f0c5670985a943f70f1,61036c2484ad83fd30723a5c,2021-07-29_23h04.45.358,Simcolourproject_2stim_asymm_v5,2020.2.10,Win32,60,61025ae37ef11b136ea224fe,,,,,,,,,448,88,28,1,0,0,response1disk,,6,1.600036621,-9.600006104,1,0,0,rectangle,1.600036621,-9.600006104,1,0,0,1.600036621,-9.600006104,1,0,0,1,26,186,116,1,,,,,,,,
,,,,,,,,,,,,,FF,,,,,,,,1.2324,,,,,,,,,,,,,,,,,,,,,,61035f0c5670985a943f70f1,61036c2484ad83fd30723a5c,2021-07-29_23h04.45.358,Simcolourproject_2stim_asymm_v5,2020.2.10,Win32,60,61025ae37ef11b136ea224fe,,,,,,,,,1082,43.20001221,-76.80001831,1,0,0,response3disk,,4,-6.399963379,-10.3999939,1,0,0,rectangle,-6.399963379,-10.3999939,1,0,0,-6.399963379,-10.3999939,1,0,0,1,27,187,159,1,,,,,,,,
,,,,,,,,,,,,,FF,,,,,,,,0.7958,,,,,,,,,,,,,,,,,,,,,,61035f0c5670985a943f70f1,61036c2484ad83fd30723a5c,2021-07-29_23h04.45.358,Simcolourproject_2stim_asymm_v5,2020.2.10,Win32,60,61025ae37ef11b136ea224fe,,,,,,,,,1912,-59.20001221,-116,1,0,0,response5disk,,3,0.799987793,3.199981689,1,0,0,rectangle,0.799987793,3.199981689,1,0,0,0.799987793,3.199981689,1,0,0,1,28,188,26,1,,,,,,,,
,,,,,,,,,,,,,FF,,,,,,,,1.0995,,,,,,,,,,,,,,,,,,,,,,61035f0c5670985a943f70f1,61036c2484ad83fd30723a5c,2021-07-29_23h04.45.358,Simcolourproject_2stim_asymm_v5,2020.2.10,Win32,60,61025ae37ef11b136ea224fe,,,,,,,,,577,-35.20001221,-116,1,0,0,response5disk,,3,4.799987793,-10.3999939,1,0,0,rectangle,4.799987793,-10.3999939,1,0,0,4.799987793,-10.3999939,1,0,0,1,29,189,45,1,,,,,,,,
,,,,,,,,,,,,,FF,,,,,,,,0.7793,,,,,,,,,,,,,,,,,,,,,,61035f0c5670985a943f70f1,61036c2484ad83fd30723a5c,2021-07-29_23h04.45.358,Simcolourproject_2stim_asymm_v5,2020.2.10,Win32,60,61025ae37ef11b136ea224fe,,,,,,,,,2097,-86.39996338,-41.6000061,1,0,0,response5disk,,2,9.600036621,9.600006104,1,0,0,rectangle,9.600036621,9.600006104,1,0,0,9.600036621,9.600006104,1,0,0,1,30,190,154,1,,,,,,,,
,,,,,,,,,,,,,FF,,,,,,,,0.5658,,,,,,,,,,,,,,,,,,,,,,61035f0c5670985a943f70f1,61036c2484ad83fd30723a5c,2021-07-29_23h04.45.358,Simcolourproject_2stim_asymm_v5,2020.2.10,Win32,60,61025ae37ef11b136ea224fe,,,,,,,,,4202,-81.59997559,-48,1,0,0,response5disk,,2,4,-3.200012207,1,0,0,rectangle,4,-3.200012207,1,0,0,4,-3.200012207,1,0,0,1,31,191,53,1,,,,,,,,
,,,,,,,,,,,,,FF,,,,,,,,0.799,,,,,,,,,,,,,,,,,,,,,,61035f0c5670985a943f70f1,61036c2484ad83fd30723a5c,2021-07-29_23h04.45.358,Simcolourproject_2stim_asymm_v5,2020.2.10,Win32,60,61025ae37ef11b136ea224fe,,,,,,,,,2135,95.20001221,-50.3999939,1,0,0,response3disk,,5,2.400024414,3.199981689,1,0,0,rectangle,2.400024414,3.199981689,1,0,0,2.400024414,3.199981689,1,0,0,1,32,192,55,1,,,,,,,,
,,,,,,,,,,,,,FF,,,,,,,,0.6993,,,,,,,,,,,,,,,,,,,,,,61035f0c5670985a943f70f1,61036c2484ad83fd30723a5c,2021-07-29_23h04.45.358,Simcolourproject_2stim_asymm_v5,2020.2.10,Win32,60,61025ae37ef11b136ea224fe,,,,,,,,,387,49.60003662,-88.79998779,1,0,0,response3disk,,4,-2.399963379,-0.800018311,1,0,0,rectangle,-2.399963379,-0.800018311,1,0,0,-2.399963379,-0.800018311,1,0,0,1,33,193,80,1,,,,,,,,
,,,,,,,,,,,,,FF,,,,,,,,0.832,,,,,,,,,,,,,,,,,,,,,,61035f0c5670985a943f70f1,61036c2484ad83fd30723a5c,2021-07-29_23h04.45.358,Simcolourproject_2stim_asymm_v5,2020.2.10,Win32,60,61025ae37ef11b136ea224fe,,,,,,,,,3826,76.79998779,-45.6000061,1,0,0,response3disk,,5,8,2.399993896,1,0,0,rectangle,8,2.399993896,1,0,0,8,2.399993896,1,0,0,1,34,194,95,1,,,,,,,,
,,,,,,,,,,,,,FF,,,,,,,,0.9494,,,,,,,,,,,,,,,,,,,,,,61035f0c5670985a943f70f1,61036c2484ad83fd30723a5c,2021-07-29_23h04.45.358,Simcolourproject_2stim_asymm_v5,2020.2.10,Win32,60,61025ae37ef11b136ea224fe,,,,,,,,,2964,87.20001221,42.3999939,1,0,0,response1disk,,6,1.600036621,-15.20001221,1,0,0,rectangle,1.600036621,-15.20001221,1,0,0,1.600036621,-15.20001221,1,0,0,1,35,195,81,1,,,,,,,,
,,,,,,,,,,,,,FF,,,,,,,,0.699,,,,,,,,,,,,,,,,,,,,,,61035f0c5670985a943f70f1,61036c2484ad83fd30723a5c,2021-07-29_23h04.45.358,Simcolourproject_2stim_asymm_v5,2020.2.10,Win32,60,61025ae37ef11b136ea224fe,,,,,,,,,3133,42.40002441,77.6000061,1,0,0,response1disk,,7,0,-10.3999939,1,0,0,rectangle,0,-10.3999939,1,0,0,0,-10.3999939,1,0,0,1,36,196,32,1,,,,,,,,
,,,,,,,,,,,,,FF,,,,,,,,1.1656,,,,,,,,,,,,,,,,,,,,,,61035f0c5670985a943f70f1,61036c2484ad83fd30723a5c,2021-07-29_23h04.45.358,Simcolourproject_2stim_asymm_v5,2020.2.10,Win32,60,61025ae37ef11b136ea224fe,,,,,,,,,1314,-41.59997559,-87.20001221,1,0,0,response5disk,,3,5.600036621,-4,1,0,0,rectangle,5.600036621,-4,1,0,0,5.600036621,-4,1,0,0,1,37,197,57,1,,,,,,,,
,,,,,,,,,,,,,FF,,,,,,,,2.4143,,,,,,,,,,,,,,,,,,,,,,61035f0c5670985a943f70f1,61036c2484ad83fd30723a5c,2021-07-29_23h04.45.358,Simcolourproject_2stim_asymm_v5,2020.2.10,Win32,60,61025ae37ef11b136ea224fe,,,,,,,,,4307,44.79998779,76,1,0,0,response1disk,,7,2.400024414,4,1,0,0,rectangle,2.400024414,4,1,0,0,2.400024414,4,1,0,0,1,38,198,1,1,,,,,,,,
,,,,,,,,,,,,,FF,,,,,,,,1.1318,,,,,,,,,,,,,,,,,,,,,,61035f0c5670985a943f70f1,61036c2484ad83fd30723a5c,2021-07-29_23h04.45.358,Simcolourproject_2stim_asymm_v5,2020.2.10,Win32,60,61025ae37ef11b136ea224fe,,,,,,,,,980,-40,-108,1,0,0,response5disk,,3,2.400024414,4,1,0,0,rectangle,2.400024414,4,1,0,0,2.400024414,4,1,0,0,1,39,199,66,1,,,,,,,,
,,,,,,,,,,,,,FF,,,,,,,,0.6826,,,,,,,,,,,,,,,,,,,,,,61035f0c5670985a943f70f1,61036c2484ad83fd30723a5c,2021-07-29_23h04.45.358,Simcolourproject_2stim_asymm_v5,2020.2.10,Win32,60,61025ae37ef11b136ea224fe,,,,,,,,,1495,49.60003662,-92,1,0,0,response3disk,,4,5.600036621,-0.800018311,1,0,0,rectangle,5.600036621,-0.800018311,1,0,0,5.600036621,-0.800018311,1,0,0,1,40,200,41,1,,,,,,,,
,,,,,,,,,,,,,FF,,,,,,,,0.8168,,,,,,,,,,,,,,,,,,,,,,61035f0c5670985a943f70f1,61036c2484ad83fd30723a5c,2021-07-29_23h04.45.358,Simcolourproject_2stim_asymm_v5,2020.2.10,Win32,60,61025ae37ef11b136ea224fe,,,,,,,,,2025,-32,75.19998169,1,0,0,response7disk,,0,9.600036621,-5.600006104,1,0,0,rectangle,9.600036621,-5.600006104,1,0,0,9.600036621,-5.600006104,1,0,0,1,41,201,120,1,,,,,,,,
,,,,,,,,,,,,,FF,,,,,,,,1.3317,,,,,,,,,,,,,,,,,,,,,,61035f0c5670985a943f70f1,61036c2484ad83fd30723a5c,2021-07-29_23h04.45.358,Simcolourproject_2stim_asymm_v5,2020.2.10,Win32,60,61025ae37ef11b136ea224fe,,,,,,,,,2559,103.2000122,-58.3999939,1,0,0,response3disk,,5,7.200012207,-4,1,0,0,rectangle,7.200012207,-4,1,0,0,7.200012207,-4,1,0,0,1,42,202,152,1,,,,,,,,
,,,,,,,,,,,,,FF,,,,,,,,1.0993,,,,,,,,,,,,,,,,,,,,,,61035f0c5670985a943f70f1,61036c2484ad83fd30723a5c,2021-07-29_23h04.45.358,Simcolourproject_2stim_asymm_v5,2020.2.10,Win32,60,61025ae37ef11b136ea224fe,,,,,,,,,424,84,40,1,0,0,response1disk,,6,15.20001221,2.399993896,1,0,0,rectangle,15.20001221,2.399993896,1,0,0,15.20001221,2.399993896,1,0,0,1,43,203,108,1,,,,,,,,
,,,,,,,,,,,,,FF,,,,,,,,1.4479,,,,,,,,,,,,,,,,,,,,,,61035f0c5670985a943f70f1,61036c2484ad83fd30723a5c,2021-07-29_23h04.45.358,Simcolourproject_2stim_asymm_v5,2020.2.10,Win32,60,61025ae37ef11b136ea224fe,,,,,,,,,2727,-75.20001221,42.3999939,1,0,0,response7disk,,1,-17.59997559,8.799987793,1,0,0,rectangle,-17.59997559,8.799987793,1,0,0,-17.59997559,8.799987793,1,0,0,1,44,204,111,1,,,,,,,,
,,,,,,,,,,,,,FF,,,,,,,,0.7647,,,,,,,,,,,,,,,,,,,,,,61035f0c5670985a943f70f1,61036c2484ad83fd30723a5c,2021-07-29_23h04.45.358,Simcolourproject_2stim_asymm_v5,2020.2.10,Win32,60,61025ae37ef11b136ea224fe,,,,,,,,,3116,102.4000244,36.79998779,1,0,0,response1disk,,6,12.79998779,-1.600006104,1,0,0,rectangle,12.79998779,-1.600006104,1,0,0,12.79998779,-1.600006104,1,0,0,1,45,205,19,1,,,,,,,,
,,,,,,,,,,,,,FF,,,,,,,,0.9825,,,,,,,,,,,,,,,,,,,,,,61035f0c5670985a943f70f1,61036c2484ad83fd30723a5c,2021-07-29_23h04.45.358,Simcolourproject_2stim_asymm_v5,2020.2.10,Win32,60,61025ae37ef11b136ea224fe,,,,,,,,,1179,97.60003662,-46.3999939,1,0,0,response3disk,,5,-3.200012207,-2.399993896,1,0,0,rectangle,-3.200012207,-2.399993896,1,0,0,-3.200012207,-2.399993896,1,0,0,1,46,206,131,1,,,,,,,,
,,,,,,,,,,,,,FF,,,,,,,,1.1154,,,,,,,,,,,,,,,,,,,,,,61035f0c5670985a943f70f1,61036c2484ad83fd30723a5c,2021-07-29_23h04.45.358,Simcolourproject_2stim_asymm_v5,2020.2.10,Win32,60,61025ae37ef11b136ea224fe,,,,,,,,,1774,40.79998779,-100,1,0,0,response3disk,,4,-10.39996338,-1.600006104,1,0,0,rectangle,-10.39996338,-1.600006104,1,0,0,-10.39996338,-1.600006104,1,0,0,1,47,207,112,1,,,,,,,,
,,,,,,,,,,,,,FF,,,,,,,,1.0129,,,,,,,,,,,,,,,,,,,,,,61035f0c5670985a943f70f1,61036c2484ad83fd30723a5c,2021-07-29_23h04.45.358,Simcolourproject_2stim_asymm_v5,2020.2.10,Win32,60,61025ae37ef11b136ea224fe,,,,,,,,,957,-49.59997559,-84.79998779,1,0,0,response5disk,,3,2.400024414,10.3999939,1,0,0,rectangle,2.400024414,10.3999939,1,0,0,2.400024414,10.3999939,1,0,0,1,48,208,86,1,,,,,,,,
,,,,,,,,,,,,,FF,,,,,,,,0.8324,,,,,,,,,,,,,,,,,,,,,,61035f0c5670985a943f70f1,61036c2484ad83fd30723a5c,2021-07-29_23h04.45.358,Simcolourproject_2stim_asymm_v5,2020.2.10,Win32,60,61025ae37ef11b136ea224fe,,,,,,,,,3429,-36,92.79998779,1,0,0,response7disk,,0,-0.799987793,1.600006104,1,0,0,rectangle,-0.799987793,1.600006104,1,0,0,-0.799987793,1.600006104,1,0,0,1,49,209,68,1,,,,,,,,
,,,,,,,,,,,,,FF,,,,,,,,2.2481,,,,,,,,,,,,,,,,,,,,,,61035f0c5670985a943f70f1,61036c2484ad83fd30723a5c,2021-07-29_23h04.45.358,Simcolourproject_2stim_asymm_v5,2020.2.10,Win32,60,61025ae37ef11b136ea224fe,,,,,,,,,2087,-56,-96.79998779,1,0,0,response5disk,,3,-4.799987793,-1.600006104,1,0,0,rectangle,-4.799987793,-1.600006104,1,0,0,-4.799987793,-1.600006104,1,0,0,1,50,210,93,1,,,,,,,,
,,,,,,,,,,,,,FF,,,,,,,,1.0658,,,,,,,,,,,,,,,,,,,,,,61035f0c5670985a943f70f1,61036c2484ad83fd30723a5c,2021-07-29_23h04.45.358,Simcolourproject_2stim_asymm_v5,2020.2.10,Win32,60,61025ae37ef11b136ea224fe,,,,,,,,,3910,-90.39996338,-50.3999939,1,0,0,response5disk,,2,4.799987793,4,1,0,0,rectangle,4.799987793,4,1,0,0,4.799987793,4,1,0,0,1,51,211,144,1,,,,,,,,
,,,,,,,,,,,,,FF,,,,,,,,0.7338,,,,,,,,,,,,,,,,,,,,,,61035f0c5670985a943f70f1,61036c2484ad83fd30723a5c,2021-07-29_23h04.45.358,Simcolourproject_2stim_asymm_v5,2020.2.10,Win32,60,61025ae37ef11b136ea224fe,,,,,,,,,1644,96,-55.20001221,1,0,0,response3disk,,5,-3.200012207,-3.200012207,1,0,0,rectangle,-85.59997559,49.6000061,1,0,0,0,-16.80001831,1,0,0,1,52,212,84,1,,response7disk_3,TRUE,1,1,"[306,80,6,213,87,80,214,259,243,245,154,109,63,43,155,320,135,94,159,302]",1.5648,rectangle
,,,,,,,,,,,,,FF,,,,,,,,0.9825,,,,,,,,,,,,,,,,,,,,,,61035f0c5670985a943f70f1,61036c2484ad83fd30723a5c,2021-07-29_23h04.45.358,Simcolourproject_2stim_asymm_v5,2020.2.10,Win32,60,61025ae37ef11b136ea224fe,,,,,,,,,3212,-64.79998779,-84.79998779,1,0,0,response5disk,,3,0,2.399993896,1,0,0,rectangle,-28.79998779,84,1,0,0,-2.399963379,-7.200012207,1,0,0,1,53,213,89,1,,response7disk_3,TRUE,0,0,"[306,80,6,213,87,80,214,259,243,245,154,109,63,43,155,320,135,94,159,302]",1.7662,rectangle
,,,,,,,,,,,,,FF,,,,,,,,0.7457,,,,,,,,,,,,,,,,,,,,,,61035f0c5670985a943f70f1,61036c2484ad83fd30723a5c,2021-07-29_23h04.45.358,Simcolourproject_2stim_asymm_v5,2020.2.10,Win32,60,61025ae37ef11b136ea224fe,,,,,,,,,2374,96.79998779,-44,1,0,0,response3disk,,5,11.20001221,-2.399993896,1,0,0,rectangle,11.20001221,-2.399993896,1,0,0,11.20001221,-2.399993896,1,0,0,1,54,214,147,1,,,,,,,,
,,,,,,,,,,,,,FF,,,,,,,,0.7498,,,,,,,,,,,,,,,,,,,,,,61035f0c5670985a943f70f1,61036c2484ad83fd30723a5c,2021-07-29_23h04.45.358,Simcolourproject_2stim_asymm_v5,2020.2.10,Win32,60,61025ae37ef11b136ea224fe,,,,,,,,,3510,-41.59997559,103.1999817,1,0,0,response7disk,,0,0,-8.800018311,1,0,0,rectangle,0,-8.800018311,1,0,0,0,-8.800018311,1,0,0,1,55,215,23,1,,,,,,,,
,,,,,,,,,,,,,FF,,,,,,,,0.6167,,,,,,,,,,,,,,,,,,,,,,61035f0c5670985a943f70f1,61036c2484ad83fd30723a5c,2021-07-29_23h04.45.358,Simcolourproject_2stim_asymm_v5,2020.2.10,Win32,60,61025ae37ef11b136ea224fe,,,,,,,,,2218,-43.20001221,92.79998779,1,0,0,response7disk,,0,-3.200012207,-3.200012207,1,0,0,rectangle,-3.200012207,-3.200012207,1,0,0,-3.200012207,-3.200012207,1,0,0,1,56,216,15,1,,,,,,,,
,,,,,,,,,,,,,FF,,,,,,,,0.832,,,,,,,,,,,,,,,,,,,,,,61035f0c5670985a943f70f1,61036c2484ad83fd30723a5c,2021-07-29_23h04.45.358,Simcolourproject_2stim_asymm_v5,2020.2.10,Win32,60,61025ae37ef11b136ea224fe,,,,,,,,,1765,-81.59997559,-45.6000061,1,0,0,response5disk,,2,0.799987793,-8,1,0,0,rectangle,0.799987793,-8,1,0,0,0.799987793,-8,1,0,0,1,57,217,105,1,,,,,,,,
,,,,,,,,,,,,,FF,,,,,,,,1.2149,,,,,,,,,,,,,,,,,,,,,,61035f0c5670985a943f70f1,61036c2484ad83fd30723a5c,2021-07-29_23h04.45.358,Simcolourproject_2stim_asymm_v5,2020.2.10,Win32,60,61025ae37ef11b136ea224fe,,,,,,,,,3883,62.40002441,-44.80001831,1,0,0,response3disk,,5,-6.399963379,2.399993896,1,0,0,rectangle,-6.399963379,2.399993896,1,0,0,-6.399963379,2.399993896,1,0,0,1,58,218,69,1,,,,,,,,
,,,,,,,,,,,,,FF,,,,,,,,0.7152,,,,,,,,,,,,,,,,,,,,,,61035f0c5670985a943f70f1,61036c2484ad83fd30723a5c,2021-07-29_23h04.45.358,Simcolourproject_2stim_asymm_v5,2020.2.10,Win32,60,61025ae37ef11b136ea224fe,,,,,,,,,1674,-44.79998779,71.19998169,1,0,0,response7disk,,0,9.600036621,-13.6000061,1,0,0,rectangle,9.600036621,-13.6000061,1,0,0,9.600036621,-13.6000061,1,0,0,1,59,219,73,1,,,,,,,,
,,,,,,,,,,,,,FF,,,,,,,,1.232,,,,,,,,,,,,,,,,,,,,,,61035f0c5670985a943f70f1,61036c2484ad83fd30723a5c,2021-07-29_23h04.45.358,Simcolourproject_2stim_asymm_v5,2020.2.10,Win32,60,61025ae37ef11b136ea224fe,,,,,,,,,474,45.60003662,-84,1,0,0,response3disk,,4,1.600036621,0.799987793,1,0,0,rectangle,1.600036621,0.799987793,1,0,0,1.600036621,0.799987793,1,0,0,1,60,220,48,1,,,,,,,,
,,,,,,,,,,,,,FF,,,,,,,,0.7663,,,,,,,,,,,,,,,,,,,,,,61035f0c5670985a943f70f1,61036c2484ad83fd30723a5c,2021-07-29_23h04.45.358,Simcolourproject_2stim_asymm_v5,2020.2.10,Win32,60,61025ae37ef11b136ea224fe,,,,,,,,,2993,-41.59997559,88,1,0,0,response7disk,,0,-0.799987793,0.799987793,1,0,0,rectangle,-0.799987793,0.799987793,1,0,0,-0.799987793,0.799987793,1,0,0,1,61,221,102,1,,,,,,,,
,,,,,,,,,,,,,FF,,,,,,,,1.4508,,,,,,,,,,,,,,,,,,,,,,61035f0c5670985a943f70f1,61036c2484ad83fd30723a5c,2021-07-29_23h04.45.358,Simcolourproject_2stim_asymm_v5,2020.2.10,Win32,60,61025ae37ef11b136ea224fe,,,,,,,,,3894,61.60003662,-68.80001831,1,0,0,response3disk,,4,17.60003662,-2.399993896,1,0,0,rectangle,17.60003662,-2.399993896,1,0,0,17.60003662,-2.399993896,1,0,0,1,62,222,132,1,,,,,,,,
,,,,,,,,,,,,,FF,,,,,,,,1.0155,,,,,,,,,,,,,,,,,,,,,,61035f0c5670985a943f70f1,61036c2484ad83fd30723a5c,2021-07-29_23h04.45.358,Simcolourproject_2stim_asymm_v5,2020.2.10,Win32,60,61025ae37ef11b136ea224fe,,,,,,,,,530,-86.39996338,44.79998779,1,0,0,response7disk,,1,-4,-12,1,0,0,rectangle,-4,-12,1,0,0,-4,-12,1,0,0,1,63,223,14,1,,,,,,,,
,,,,,,,,,,,,,FF,,,,,,,,0.7988,,,,,,,,,,,,,,,,,,,,,,61035f0c5670985a943f70f1,61036c2484ad83fd30723a5c,2021-07-29_23h04.45.358,Simcolourproject_2stim_asymm_v5,2020.2.10,Win32,60,61025ae37ef11b136ea224fe,,,,,,,,,2889,-76,-46.3999939,1,0,0,response5disk,,2,7.200012207,-5.600006104,1,0,0,rectangle,7.200012207,-5.600006104,1,0,0,7.200012207,-5.600006104,1,0,0,1,64,224,30,1,,,,,,,,
,,,,,,,,,,,,,FF,,,,,,,,0.9153,,,,,,,,,,,,,,,,,,,,,,61035f0c5670985a943f70f1,61036c2484ad83fd30723a5c,2021-07-29_23h04.45.358,Simcolourproject_2stim_asymm_v5,2020.2.10,Win32,60,61025ae37ef11b136ea224fe,,,,,,,,,3475,-106.3999634,51.19998169,1,0,0,response7disk,,1,-17.59997559,3.199981689,1,0,0,rectangle,-17.59997559,3.199981689,1,0,0,-17.59997559,3.199981689,1,0,0,1,65,225,139,1,,,,,,,,
,,,,,,,,,,,,,FF,,,,,,,,1.5494,,,,,,,,,,,,,,,,,,,,,,61035f0c5670985a943f70f1,61036c2484ad83fd30723a5c,2021-07-29_23h04.45.358,Simcolourproject_2stim_asymm_v5,2020.2.10,Win32,60,61025ae37ef11b136ea224fe,,,,,,,,,1039,78.40002441,-51.20001221,1,0,0,response3disk,,5,7.200012207,-11.20001221,1,0,0,rectangle,7.200012207,-11.20001221,1,0,0,7.200012207,-11.20001221,1,0,0,1,66,226,56,1,,,,,,,,
,,,,,,,,,,,,,FF,,,,,,,,0.9622,,,,,,,,,,,,,,,,,,,,,,61035f0c5670985a943f70f1,61036c2484ad83fd30723a5c,2021-07-29_23h04.45.358,Simcolourproject_2stim_asymm_v5,2020.2.10,Win32,60,61025ae37ef11b136ea224fe,,,,,,,,,3786,-32.79998779,-82.40002441,1,0,0,response5disk,,3,12.79998779,4.799987793,1,0,0,rectangle,12.79998779,4.799987793,1,0,0,12.79998779,4.799987793,1,0,0,1,67,227,75,1,,,,,,,,
,,,,,,,,,,,,,FF,,,,,,,,0.7958,,,,,,,,,,,,,,,,,,,,,,61035f0c5670985a943f70f1,61036c2484ad83fd30723a5c,2021-07-29_23h04.45.358,Simcolourproject_2stim_asymm_v5,2020.2.10,Win32,60,61025ae37ef11b136ea224fe,,,,,,,,,3334,-41.59997559,-90.40002441,1,0,0,response5disk,,3,8,2.399993896,1,0,0,rectangle,8,2.399993896,1,0,0,8,2.399993896,1,0,0,1,68,228,133,1,,,,,,,,
,,,,,,,,,,,,,FF,,,,,,,,0.7845,,,,,,,,,,,,,,,,,,,,,,61035f0c5670985a943f70f1,61036c2484ad83fd30723a5c,2021-07-29_23h04.45.358,Simcolourproject_2stim_asymm_v5,2020.2.10,Win32,60,61025ae37ef11b136ea224fe,,,,,,,,,3633,79.20001221,-48,1,0,0,response3disk,,5,12.79998779,-6.399993896,1,0,0,rectangle,12.79998779,-6.399993896,1,0,0,12.79998779,-6.399993896,1,0,0,1,69,229,38,1,,,,,,,,
,,,,,,,,,,,,,FF,,,,,,,,1.1996,,,,,,,,,,,,,,,,,,,,,,61035f0c5670985a943f70f1,61036c2484ad83fd30723a5c,2021-07-29_23h04.45.358,Simcolourproject_2stim_asymm_v5,2020.2.10,Win32,60,61025ae37ef11b136ea224fe,,,,,,,,,3112,40,-86.40002441,1,0,0,response3disk,,4,-3.200012207,7.199981689,1,0,0,rectangle,-3.200012207,7.199981689,1,0,0,-3.200012207,7.199981689,1,0,0,1,70,230,13,1,,,,,,,,
,,,,,,,,,,,,,FF,,,,,,,,1.0021,,,,,,,,,,,,,,,,,,,,,,61035f0c5670985a943f70f1,61036c2484ad83fd30723a5c,2021-07-29_23h04.45.358,Simcolourproject_2stim_asymm_v5,2020.2.10,Win32,60,61025ae37ef11b136ea224fe,,,,,,,,,3586,-76,-39.20001221,1,0,0,response5disk,,2,2.400024414,2.399993896,1,0,0,rectangle,2.400024414,2.399993896,1,0,0,2.400024414,2.399993896,1,0,0,1,71,231,141,1,,,,,,,,
,,,,,,,,,,,,,FF,,,,,,,,0.6491,,,,,,,,,,,,,,,,,,,,,,61035f0c5670985a943f70f1,61036c2484ad83fd30723a5c,2021-07-29_23h04.45.358,Simcolourproject_2stim_asymm_v5,2020.2.10,Win32,60,61025ae37ef11b136ea224fe,,,,,,,,,1817,-47.20001221,85.6000061,1,0,0,response7disk,,0,-8.799987793,-4.800018311,1,0,0,rectangle,-8.799987793,-4.800018311,1,0,0,-8.799987793,-4.800018311,1,0,0,1,72,232,146,1,,,,,,,,
,,,,,,,,,,,,,FF,,,,,,,,1.0348,,,,,,,,,,,,,,,,,,,,,,61035f0c5670985a943f70f1,61036c2484ad83fd30723a5c,2021-07-29_23h04.45.358,Simcolourproject_2stim_asymm_v5,2020.2.10,Win32,60,61025ae37ef11b136ea224fe,,,,,,,,,1776,50.40002441,-84.79998779,1,0,0,response3disk,,4,-12.79998779,-4,1,0,0,rectangle,-12.79998779,-4,1,0,0,-12.79998779,-4,1,0,0,1,73,233,17,1,,,,,,,,
,,,,,,,,,,,,,FF,,,,,,,,1.8469,,,,,,,,,,,,,,,,,,,,,,61035f0c5670985a943f70f1,61036c2484ad83fd30723a5c,2021-07-29_23h04.45.358,Simcolourproject_2stim_asymm_v5,2020.2.10,Win32,60,61025ae37ef11b136ea224fe,,,,,,,,,1221,-79.20001221,33.6000061,1,0,0,response7disk,,1,-9.599975586,-2.399993896,1,0,0,rectangle,-9.599975586,-2.399993896,1,0,0,-9.599975586,-2.399993896,1,0,0,1,74,234,24,1,,,,,,,,
,,,,,,,,,,,,,FF,,,,,,,,1.3317,,,,,,,,,,,,,,,,,,,,,,61035f0c5670985a943f70f1,61036c2484ad83fd30723a5c,2021-07-29_23h04.45.358,Simcolourproject_2stim_asymm_v5,2020.2.10,Win32,60,61025ae37ef11b136ea224fe,,,,,,,,,867,38.40002441,-79.20001221,1,0,0,response3disk,,4,-8.799987793,0,1,0,0,rectangle,-8.799987793,0,1,0,0,-8.799987793,0,1,0,0,1,75,235,106,1,,,,,,,,
,,,,,,,,,,,,,FF,,,,,,,,0.632,,,,,,,,,,,,,,,,,,,,,,61035f0c5670985a943f70f1,61036c2484ad83fd30723a5c,2021-07-29_23h04.45.358,Simcolourproject_2stim_asymm_v5,2020.2.10,Win32,60,61025ae37ef11b136ea224fe,,,,,,,,,3013,96.79998779,36.79998779,1,0,0,response1disk,,6,16,-4,1,0,0,rectangle,16,-4,1,0,0,16,-4,1,0,0,1,76,236,115,1,,,,,,,,
,,,,,,,,,,,,,FF,,,,,,,,1.6301,,,,,,,,,,,,,,,,,,,,,,61035f0c5670985a943f70f1,61036c2484ad83fd30723a5c,2021-07-29_23h04.45.358,Simcolourproject_2stim_asymm_v5,2020.2.10,Win32,60,61025ae37ef11b136ea224fe,,,,,,,,,781,43.20001221,-79.20001221,1,0,0,response3disk,,4,4.799987793,0.799987793,1,0,0,rectangle,4.799987793,0.799987793,1,0,0,4.799987793,0.799987793,1,0,0,1,77,237,18,1,,,,,,,,
,,,,,,,,,,,,,FF,,,,,,,,0.6657,,,,,,,,,,,,,,,,,,,,,,61035f0c5670985a943f70f1,61036c2484ad83fd30723a5c,2021-07-29_23h04.45.358,Simcolourproject_2stim_asymm_v5,2020.2.10,Win32,60,61025ae37ef11b136ea224fe,,,,,,,,,3499,23.20001221,71.19998169,1,0,0,response1disk,,7,4,-4,1,0,0,rectangle,4,-4,1,0,0,4,-4,1,0,0,1,78,238,156,1,,,,,,,,
,,,,,,,,,,,,,FF,,,,,,,,1.1166,,,,,,,,,,,,,,,,,,,,,,61035f0c5670985a943f70f1,61036c2484ad83fd30723a5c,2021-07-29_23h04.45.358,Simcolourproject_2stim_asymm_v5,2020.2.10,Win32,60,61025ae37ef11b136ea224fe,,,,,,,,,3896,36,-91.20001221,1,0,0,response3disk,,4,12,7.199981689,1,0,0,rectangle,12,7.199981689,1,0,0,12,7.199981689,1,0,0,1,79,239,123,1,,,,,,,,
,,,,,,,,,,,,,FF,,,,,,,,0.9797,,,,,,,,,,,,,,,,,,,,,,61035f0c5670985a943f70f1,61036c2484ad83fd30723a5c,2021-07-29_23h04.45.358,Simcolourproject_2stim_asymm_v5,2020.2.10,Win32,60,61025ae37ef11b136ea224fe,,,,,,,,,3385,-85.59997559,40,1,0,0,response7disk,,1,4,-2.399993896,1,0,0,rectangle,4,-2.399993896,1,0,0,4,-2.399993896,1,0,0,1,80,240,125,1,,,,,,,,
,,,,,,,,,,,,,FF,,,,,,,,2.263,,,,,,,,,,,,,,,,,,,,,,61035f0c5670985a943f70f1,61036c2484ad83fd30723a5c,2021-07-29_23h04.45.358,Simcolourproject_2stim_asymm_v5,2020.2.10,Win32,60,61025ae37ef11b136ea224fe,,,,,,,,,2842,78.40002441,-51.20001221,1,0,0,response3disk,,5,3.200012207,0,1,0,0,rectangle,3.200012207,0,1,0,0,3.200012207,0,1,0,0,1,81,241,29,1,,,,,,,,
,,,,,,,,,,,,,FF,,,,,,,,2.1644,,,,,,,,,,,,,,,,,,,,,,61035f0c5670985a943f70f1,61036c2484ad83fd30723a5c,2021-07-29_23h04.45.358,Simcolourproject_2stim_asymm_v5,2020.2.10,Win32,60,61025ae37ef11b136ea224fe,,,,,,,,,3280,89.60003662,20.79998779,1,0,0,response1disk,,6,4,-12,1,0,0,rectangle,46.40002441,83.19998169,1,0,0,-4.799987793,-1.600006104,1,0,0,1,82,242,28,1,,response1disk_3,TRUE,7,7,"[306,80,6,213,87,80,214,259,243,245,154,109,63,43,155,320,135,94,159,302]",1.3819,rectangle
,,,,,,,,,,,,,FF,,,,,,,,1.3153,,,,,,,,,,,,,,,,,,,,,,61035f0c5670985a943f70f1,61036c2484ad83fd30723a5c,2021-07-29_23h04.45.358,Simcolourproject_2stim_asymm_v5,2020.2.10,Win32,60,61025ae37ef11b136ea224fe,,,,,,,,,2364,-105.5999756,48.79998779,1,0,0,response7disk,,1,-12,8.799987793,1,0,0,rectangle,-12,8.799987793,1,0,0,-12,8.799987793,1,0,0,1,83,243,64,1,,,,,,,,
,,,,,,,,,,,,,FF,,,,,,,,1.1502,,,,,,,,,,,,,,,,,,,,,,61035f0c5670985a943f70f1,61036c2484ad83fd30723a5c,2021-07-29_23h04.45.358,Simcolourproject_2stim_asymm_v5,2020.2.10,Win32,60,61025ae37ef11b136ea224fe,,,,,,,,,2352,41.60003662,-88,1,0,0,response3disk,,4,0,6.399993896,1,0,0,rectangle,-44.79998779,-104.7999878,1,0,0,19.20001221,4,1,0,0,1,84,244,65,1,,response5disk_3,TRUE,3,3,"[306,80,6,213,87,80,214,259,243,245,154,109,63,43,155,320,135,94,159,302]",1.6469,rectangle
,,,,,,,,,,,,,FF,,,,,,,,0.9159,,,,,,,,,,,,,,,,,,,,,,61035f0c5670985a943f70f1,61036c2484ad83fd30723a5c,2021-07-29_23h04.45.358,Simcolourproject_2stim_asymm_v5,2020.2.10,Win32,60,61025ae37ef11b136ea224fe,,,,,,,,,2745,52,-84.79998779,1,0,0,response3disk,,4,21.60003662,3.199981689,1,0,0,rectangle,21.60003662,3.199981689,1,0,0,21.60003662,3.199981689,1,0,0,1,85,245,157,1,,,,,,,,
,,,,,,,,,,,,,FF,,,,,,,,0.9985,,,,,,,,,,,,,,,,,,,,,,61035f0c5670985a943f70f1,61036c2484ad83fd30723a5c,2021-07-29_23h04.45.358,Simcolourproject_2stim_asymm_v5,2020.2.10,Win32,60,61025ae37ef11b136ea224fe,,,,,,,,,227,51.20001221,-101.6000366,1,0,0,response3disk,,4,4,13.6000061,1,0,0,rectangle,4,13.6000061,1,0,0,4,13.6000061,1,0,0,1,86,246,113,1,,,,,,,,
,,,,,,,,,,,,,FF,,,,,,,,0.6831,,,,,,,,,,,,,,,,,,,,,,61035f0c5670985a943f70f1,61036c2484ad83fd30723a5c,2021-07-29_23h04.45.358,Simcolourproject_2stim_asymm_v5,2020.2.10,Win32,60,61025ae37ef11b136ea224fe,,,,,,,,,380,-48,-97.60003662,1,0,0,response5disk,,3,0.799987793,-2.399993896,1,0,0,rectangle,0.799987793,-2.399993896,1,0,0,0.799987793,-2.399993896,1,0,0,1,87,247,3,1,,,,,,,,
,,,,,,,,,,,,,FF,,,,,,,,0.8841,,,,,,,,,,,,,,,,,,,,,,61035f0c5670985a943f70f1,61036c2484ad83fd30723a5c,2021-07-29_23h04.45.358,Simcolourproject_2stim_asymm_v5,2020.2.10,Win32,60,61025ae37ef11b136ea224fe,,,,,,,,,753,88,46.3999939,1,0,0,response1disk,,6,4,-2.399993896,1,0,0,rectangle,4,-2.399993896,1,0,0,4,-2.399993896,1,0,0,1,88,248,37,1,,,,,,,,
,,,,,,,,,,,,,FF,,,,,,,,0.5822,,,,,,,,,,,,,,,,,,,,,,61035f0c5670985a943f70f1,61036c2484ad83fd30723a5c,2021-07-29_23h04.45.358,Simcolourproject_2stim_asymm_v5,2020.2.10,Win32,60,61025ae37ef11b136ea224fe,,,,,,,,,1927,105.6000366,46.3999939,1,0,0,response1disk,,6,12.79998779,0,1,0,0,rectangle,12.79998779,0,1,0,0,12.79998779,0,1,0,0,1,89,249,124,1,,,,,,,,
