key_resp.keys,key_resp.rt,key_resp_14.keys,key_resp_14.rt,key_resp_15.keys,key_resp_15.rt,key_resp_17.keys,key_resp_17.rt,key_resp_9.keys,key_resp_9.rt,key_resp_10.keys,key_resp_10.rt,practice_comparison,Ecc,mouse_5.x,mouse_5.y,mouse_5.leftButton,mouse_5.midButton,mouse_5.rightButton,mouse_5.clicked_name,pracsimilarity,response_time,mouse_10.x,mouse_10.y,mouse_10.leftButton,mouse_10.midButton,mouse_10.rightButton,mouse_10.clicked_name,mouse_7.x,mouse_7.y,mouse_7.leftButton,mouse_7.midButton,mouse_7.rightButton,mouse_6.x,mouse_6.y,mouse_6.leftButton,mouse_6.midButton,mouse_6.rightButton,duringprac.thisRepN,duringprac.thisTrialN,duringprac.thisN,duringprac.thisIndex,duringprac.ran,participant,session,date,expName,psychopyVersion,OS,frameRate,study_id,mouse_7.clicked_name,catchpracsimilarity,catch_response_time,catchnumberprac,catchtrialorderprac,mouse_6.clicked_name,key_resp_22.keys,key_resp_22.rt,realcomparison,mouse.x,mouse.y,mouse.leftButton,mouse.midButton,mouse.rightButton,mouse.clicked_name,Colour2,similarity,mouse_2.x,mouse_2.y,mouse_2.leftButton,mouse_2.midButton,mouse_2.rightButton,mouse_2.clicked_name,mouse_3.x,mouse_3.y,mouse_3.leftButton,mouse_3.midButton,mouse_3.rightButton,mouse_11.x,mouse_11.y,mouse_11.leftButton,mouse_11.midButton,mouse_11.rightButton,trials_2.thisRepN,trials_2.thisTrialN,trials_2.thisN,trials_2.thisIndex,trials_2.ran,Colour1,mouse_3.clicked_name,catchornah,catchsimilarity,catchnumber,catchtrialorder,catchRT,mouse_11.clicked_name
space,2.2992,space,20.3837,space,16.1483,space,8.6531,space,1.5289,space,4.8171,6,PF,73,55,1,0,0,response1disk_5,6,16.8347,-13,-8,1,0,0,rectangle_8,-13,-8,1,0,0,-13,-8,1,0,0,0,0,0,6,1,61034996de4bc91eafb48814,61036a29b33d786f994eba7b,2021-07-29_19h56.48.406,Simcolourproject_2stim_asymm_v5,2020.2.10,Win32,60,61025ae37ef11b136ea224fe,,,,,,,,,,,,,,,,,,,,,,,,,,,,,,,,,,,,,,,,,,,,,,
,,,,,,,,,,,,109,FF,58,-36,1,0,0,response3disk_5,5,12.7641,-15,14,1,0,0,rectangle_8,-27,78,1,0,0,-3,-1,1,0,0,0,1,1,5,1,61034996de4bc91eafb48814,61036a29b33d786f994eba7b,2021-07-29_19h56.48.406,Simcolourproject_2stim_asymm_v5,2020.2.10,Win32,60,61025ae37ef11b136ea224fe,response7disk_7,0,4,0,"[2,5]",rectangle_4,,,,,,,,,,,,,,,,,,,,,,,,,,,,,,,,,,,,,,,,
,,,,,,,,,,,,16,PF,-30,-75,1,0,0,response5disk_5,3,12.0645,1,5,1,0,0,rectangle_8,1,5,1,0,0,1,5,1,0,0,0,2,2,1,1,61034996de4bc91eafb48814,61036a29b33d786f994eba7b,2021-07-29_19h56.48.406,Simcolourproject_2stim_asymm_v5,2020.2.10,Win32,60,61025ae37ef11b136ea224fe,,,,,,,,,,,,,,,,,,,,,,,,,,,,,,,,,,,,,,,,,,,,,,
,,,,,,,,,,,,126,PF,-37,-69,1,0,0,response5disk_5,3,3.6993,-3,6,1,0,0,rectangle_8,-3,6,1,0,0,-3,6,1,0,0,0,3,3,4,1,61034996de4bc91eafb48814,61036a29b33d786f994eba7b,2021-07-29_19h56.48.406,Simcolourproject_2stim_asymm_v5,2020.2.10,Win32,60,61025ae37ef11b136ea224fe,,,,,,,,,,,,,,,,,,,,,,,,,,,,,,,,,,,,,,,,,,,,,,
,,,,,,,,,,,,21,FF,28,-61,1,0,0,response3disk_5,4,2.4831,-12,-4,1,0,0,rectangle_8,-55,92,1,0,0,-22,12,1,0,0,0,4,4,3,1,61034996de4bc91eafb48814,61036a29b33d786f994eba7b,2021-07-29_19h56.48.406,Simcolourproject_2stim_asymm_v5,2020.2.10,Win32,60,61025ae37ef11b136ea224fe,response7disk_7,0,2.8331,0,"[2,5]",rectangle_4,,,,,,,,,,,,,,,,,,,,,,,,,,,,,,,,,,,,,,,,
,,,,,,,,,,,,10,FF,86,43,1,0,0,response1disk_5,6,2.7164,-5,2,1,0,0,rectangle_8,-5,2,1,0,0,-5,2,1,0,0,0,5,5,0,1,61034996de4bc91eafb48814,61036a29b33d786f994eba7b,2021-07-29_19h56.48.406,Simcolourproject_2stim_asymm_v5,2020.2.10,Win32,60,61025ae37ef11b136ea224fe,,,,,,,,,,,,,,,,,,,,,,,,,,,,,,,,,,,,,,,,,,,,,,
,,,,,,,,,,,,53,PF,35,41,1,0,0,response1disk_5,7,1.3332,17,-8,1,0,0,rectangle_8,17,-8,1,0,0,17,-8,1,0,0,0,6,6,2,1,61034996de4bc91eafb48814,61036a29b33d786f994eba7b,2021-07-29_19h56.48.406,Simcolourproject_2stim_asymm_v5,2020.2.10,Win32,60,61025ae37ef11b136ea224fe,,,,,,,,,,,,,,,,,,,,,,,,,,,,,,,,,,,,,,,,,,,,,,
,,,,,,,,,,,,,FF,,,,,,,,3.6328,,,,,,,,,,,,,,,,,,,,,,61034996de4bc91eafb48814,61036a29b33d786f994eba7b,2021-07-29_19h56.48.406,Simcolourproject_2stim_asymm_v5,2020.2.10,Win32,60,61025ae37ef11b136ea224fe,,,,,,,space,2.1789,2691,76,-36,1,0,0,response3disk,,5,20,12,1,0,0,rectangle,20,12,1,0,0,20,12,1,0,0,0,0,0,41,1,,,,,,,,
,,,,,,,,,,,,,FF,,,,,,,,2.3139,,,,,,,,,,,,,,,,,,,,,,61034996de4bc91eafb48814,61036a29b33d786f994eba7b,2021-07-29_19h56.48.406,Simcolourproject_2stim_asymm_v5,2020.2.10,Win32,60,61025ae37ef11b136ea224fe,,,,,,,,,1364,-25,-82,1,0,0,response5disk,,3,6,1,1,0,0,rectangle,6,1,1,0,0,6,1,1,0,0,0,1,1,86,1,,,,,,,,
,,,,,,,,,,,,,FF,,,,,,,,2.1313,,,,,,,,,,,,,,,,,,,,,,61034996de4bc91eafb48814,61036a29b33d786f994eba7b,2021-07-29_19h56.48.406,Simcolourproject_2stim_asymm_v5,2020.2.10,Win32,60,61025ae37ef11b136ea224fe,,,,,,,,,3722,-32,-75,1,0,0,response5disk,,3,-1,5,1,0,0,rectangle,-1,5,1,0,0,-1,5,1,0,0,0,2,2,20,1,,,,,,,,
,,,,,,,,,,,,,FF,,,,,,,,1.4813,,,,,,,,,,,,,,,,,,,,,,61034996de4bc91eafb48814,61036a29b33d786f994eba7b,2021-07-29_19h56.48.406,Simcolourproject_2stim_asymm_v5,2020.2.10,Win32,60,61025ae37ef11b136ea224fe,,,,,,,,,3679,-68,-47,1,0,0,response5disk,,2,-4,-1,1,0,0,rectangle,-4,-1,1,0,0,-4,-1,1,0,0,0,3,3,122,1,,,,,,,,
,,,,,,,,,,,,,FF,,,,,,,,2.8166,,,,,,,,,,,,,,,,,,,,,,61034996de4bc91eafb48814,61036a29b33d786f994eba7b,2021-07-29_19h56.48.406,Simcolourproject_2stim_asymm_v5,2020.2.10,Win32,60,61025ae37ef11b136ea224fe,,,,,,,,,2491,78,-34,1,0,0,response3disk,,5,-8,3,1,0,0,rectangle,-8,3,1,0,0,-8,3,1,0,0,0,4,4,52,1,,,,,,,,
,,,,,,,,,,,,,FF,,,,,,,,1.63,,,,,,,,,,,,,,,,,,,,,,61034996de4bc91eafb48814,61036a29b33d786f994eba7b,2021-07-29_19h56.48.406,Simcolourproject_2stim_asymm_v5,2020.2.10,Win32,60,61025ae37ef11b136ea224fe,,,,,,,,,3980,-43,-93,1,0,0,response5disk,,3,-4,0,1,0,0,rectangle,-4,0,1,0,0,-4,0,1,0,0,0,5,5,6,1,,,,,,,,
,,,,,,,,,,,,,FF,,,,,,,,1.5498,,,,,,,,,,,,,,,,,,,,,,61034996de4bc91eafb48814,61036a29b33d786f994eba7b,2021-07-29_19h56.48.406,Simcolourproject_2stim_asymm_v5,2020.2.10,Win32,60,61025ae37ef11b136ea224fe,,,,,,,,,3182,33,55,1,0,0,response1disk,,7,0,-5,1,0,0,rectangle,0,-5,1,0,0,0,-5,1,0,0,0,6,6,44,1,,,,,,,,
,,,,,,,,,,,,,FF,,,,,,,,1.3139,,,,,,,,,,,,,,,,,,,,,,61034996de4bc91eafb48814,61036a29b33d786f994eba7b,2021-07-29_19h56.48.406,Simcolourproject_2stim_asymm_v5,2020.2.10,Win32,60,61025ae37ef11b136ea224fe,,,,,,,,,1035,29,-48,1,0,0,response3disk,,4,8,4,1,0,0,rectangle,8,4,1,0,0,8,4,1,0,0,0,7,7,111,1,,,,,,,,
,,,,,,,,,,,,,FF,,,,,,,,5.4186,,,,,,,,,,,,,,,,,,,,,,61034996de4bc91eafb48814,61036a29b33d786f994eba7b,2021-07-29_19h56.48.406,Simcolourproject_2stim_asymm_v5,2020.2.10,Win32,60,61025ae37ef11b136ea224fe,,,,,,,,,1568,89,-44,1,0,0,response3disk,,5,-7,5,1,0,0,rectangle,-7,5,1,0,0,-7,5,1,0,0,0,8,8,153,1,,,,,,,,
,,,,,,,,,,,,,FF,,,,,,,,3.1666,,,,,,,,,,,,,,,,,,,,,,61034996de4bc91eafb48814,61036a29b33d786f994eba7b,2021-07-29_19h56.48.406,Simcolourproject_2stim_asymm_v5,2020.2.10,Win32,60,61025ae37ef11b136ea224fe,,,,,,,,,4369,-40,77,1,0,0,response7disk,,0,4,12,1,0,0,rectangle,4,12,1,0,0,4,12,1,0,0,0,9,9,131,1,,,,,,,,
,,,,,,,,,,,,,FF,,,,,,,,2.3307,,,,,,,,,,,,,,,,,,,,,,61034996de4bc91eafb48814,61036a29b33d786f994eba7b,2021-07-29_19h56.48.406,Simcolourproject_2stim_asymm_v5,2020.2.10,Win32,60,61025ae37ef11b136ea224fe,,,,,,,,,3833,-54,-79,1,0,0,response5disk,,3,-7,6,1,0,0,rectangle,-7,6,1,0,0,-7,6,1,0,0,0,10,10,45,1,,,,,,,,
,,,,,,,,,,,,,FF,,,,,,,,1.0996,,,,,,,,,,,,,,,,,,,,,,61034996de4bc91eafb48814,61036a29b33d786f994eba7b,2021-07-29_19h56.48.406,Simcolourproject_2stim_asymm_v5,2020.2.10,Win32,60,61025ae37ef11b136ea224fe,,,,,,,,,1791,41,86,1,0,0,response1disk,,7,-3,-9,1,0,0,rectangle,72,-32,1,0,0,-12,5,1,0,0,0,11,11,152,1,,response3disk_3,TRUE,5,5,"[197,241,210,294,225,97,208,104,100,81,26,283,208,35,60,27,282,12,249,164]",2.0346,rectangle
,,,,,,,,,,,,,FF,,,,,,,,1.1957,,,,,,,,,,,,,,,,,,,,,,61034996de4bc91eafb48814,61036a29b33d786f994eba7b,2021-07-29_19h56.48.406,Simcolourproject_2stim_asymm_v5,2020.2.10,Win32,60,61025ae37ef11b136ea224fe,,,,,,,,,2578,-23,-96,1,0,0,response5disk,,3,9,2,1,0,0,rectangle,9,2,1,0,0,9,2,1,0,0,0,12,12,105,1,,,,,,,,
,,,,,,,,,,,,,FF,,,,,,,,1.3857,,,,,,,,,,,,,,,,,,,,,,61034996de4bc91eafb48814,61036a29b33d786f994eba7b,2021-07-29_19h56.48.406,Simcolourproject_2stim_asymm_v5,2020.2.10,Win32,60,61025ae37ef11b136ea224fe,,,,,,,,,4037,40,92,1,0,0,response1disk,,7,-6,-9,1,0,0,rectangle,-6,-9,1,0,0,-6,-9,1,0,0,0,13,13,30,1,,,,,,,,
,,,,,,,,,,,,,FF,,,,,,,,3.2328,,,,,,,,,,,,,,,,,,,,,,61034996de4bc91eafb48814,61036a29b33d786f994eba7b,2021-07-29_19h56.48.406,Simcolourproject_2stim_asymm_v5,2020.2.10,Win32,60,61025ae37ef11b136ea224fe,,,,,,,,,463,-80,-64,1,0,0,response5disk,,2,4,7,1,0,0,rectangle,4,7,1,0,0,4,7,1,0,0,0,14,14,114,1,,,,,,,,
,,,,,,,,,,,,,FF,,,,,,,,1.6166,,,,,,,,,,,,,,,,,,,,,,61034996de4bc91eafb48814,61036a29b33d786f994eba7b,2021-07-29_19h56.48.406,Simcolourproject_2stim_asymm_v5,2020.2.10,Win32,60,61025ae37ef11b136ea224fe,,,,,,,,,4178,36,56,1,0,0,response1disk,,7,7,-2,1,0,0,rectangle,7,-2,1,0,0,7,-2,1,0,0,0,15,15,146,1,,,,,,,,
,,,,,,,,,,,,,FF,,,,,,,,5.1816,,,,,,,,,,,,,,,,,,,,,,61034996de4bc91eafb48814,61036a29b33d786f994eba7b,2021-07-29_19h56.48.406,Simcolourproject_2stim_asymm_v5,2020.2.10,Win32,60,61025ae37ef11b136ea224fe,,,,,,,,,2920,46,-60,1,0,0,response3disk,,4,-2,6,1,0,0,rectangle,-2,6,1,0,0,-2,6,1,0,0,0,16,16,118,1,,,,,,,,
,,,,,,,,,,,,,FF,,,,,,,,1.2639,,,,,,,,,,,,,,,,,,,,,,61034996de4bc91eafb48814,61036a29b33d786f994eba7b,2021-07-29_19h56.48.406,Simcolourproject_2stim_asymm_v5,2020.2.10,Win32,60,61025ae37ef11b136ea224fe,,,,,,,,,2551,46,-79,1,0,0,response3disk,,4,15,2,1,0,0,rectangle,15,2,1,0,0,15,2,1,0,0,0,17,17,128,1,,,,,,,,
,,,,,,,,,,,,,FF,,,,,,,,2.4352,,,,,,,,,,,,,,,,,,,,,,61034996de4bc91eafb48814,61036a29b33d786f994eba7b,2021-07-29_19h56.48.406,Simcolourproject_2stim_asymm_v5,2020.2.10,Win32,60,61025ae37ef11b136ea224fe,,,,,,,,,1679,-89,-49,1,0,0,response5disk,,2,-9,7,1,0,0,rectangle,-9,7,1,0,0,-9,7,1,0,0,0,18,18,107,1,,,,,,,,
,,,,,,,,,,,,,FF,,,,,,,,1.0495,,,,,,,,,,,,,,,,,,,,,,61034996de4bc91eafb48814,61036a29b33d786f994eba7b,2021-07-29_19h56.48.406,Simcolourproject_2stim_asymm_v5,2020.2.10,Win32,60,61025ae37ef11b136ea224fe,,,,,,,,,3046,-68,31,1,0,0,response7disk,,1,-3,2,1,0,0,rectangle,-3,2,1,0,0,-3,2,1,0,0,0,19,19,4,1,,,,,,,,
,,,,,,,,,,,,,FF,,,,,,,,1.2199,,,,,,,,,,,,,,,,,,,,,,61034996de4bc91eafb48814,61036a29b33d786f994eba7b,2021-07-29_19h56.48.406,Simcolourproject_2stim_asymm_v5,2020.2.10,Win32,60,61025ae37ef11b136ea224fe,,,,,,,,,1904,35,-81,1,0,0,response3disk,,4,-2,-5,1,0,0,rectangle,-2,-5,1,0,0,-2,-5,1,0,0,0,20,20,138,1,,,,,,,,
,,,,,,,,,,,,,FF,,,,,,,,2.6472,,,,,,,,,,,,,,,,,,,,,,61034996de4bc91eafb48814,61036a29b33d786f994eba7b,2021-07-29_19h56.48.406,Simcolourproject_2stim_asymm_v5,2020.2.10,Win32,60,61025ae37ef11b136ea224fe,,,,,,,,,3564,64,-44,1,0,0,response3disk,,5,5,-6,1,0,0,rectangle,5,-6,1,0,0,5,-6,1,0,0,0,21,21,149,1,,,,,,,,
,,,,,,,,,,,,,FF,,,,,,,,1.1659,,,,,,,,,,,,,,,,,,,,,,61034996de4bc91eafb48814,61036a29b33d786f994eba7b,2021-07-29_19h56.48.406,Simcolourproject_2stim_asymm_v5,2020.2.10,Win32,60,61025ae37ef11b136ea224fe,,,,,,,,,3151,-39,-83,1,0,0,response5disk,,3,2,9,1,0,0,rectangle,2,9,1,0,0,2,9,1,0,0,0,22,22,88,1,,,,,,,,
,,,,,,,,,,,,,FF,,,,,,,,0.9656,,,,,,,,,,,,,,,,,,,,,,61034996de4bc91eafb48814,61036a29b33d786f994eba7b,2021-07-29_19h56.48.406,Simcolourproject_2stim_asymm_v5,2020.2.10,Win32,60,61025ae37ef11b136ea224fe,,,,,,,,,937,67,48,1,0,0,response1disk,,6,15,-4,1,0,0,rectangle,15,-4,1,0,0,15,-4,1,0,0,0,23,23,77,1,,,,,,,,
,,,,,,,,,,,,,FF,,,,,,,,1.9159,,,,,,,,,,,,,,,,,,,,,,61034996de4bc91eafb48814,61036a29b33d786f994eba7b,2021-07-29_19h56.48.406,Simcolourproject_2stim_asymm_v5,2020.2.10,Win32,60,61025ae37ef11b136ea224fe,,,,,,,,,682,70,34,1,0,0,response1disk,,6,11,4,1,0,0,rectangle,11,4,1,0,0,11,4,1,0,0,0,24,24,109,1,,,,,,,,
,,,,,,,,,,,,,FF,,,,,,,,7.2653,,,,,,,,,,,,,,,,,,,,,,61034996de4bc91eafb48814,61036a29b33d786f994eba7b,2021-07-29_19h56.48.406,Simcolourproject_2stim_asymm_v5,2020.2.10,Win32,60,61025ae37ef11b136ea224fe,,,,,,,,,3901,90,-49,1,0,0,response3disk,,5,-5,-2,1,0,0,rectangle,40,76,1,0,0,-5,0,1,0,0,0,25,25,75,1,,response1disk_3,TRUE,7,7,"[197,241,210,294,225,97,208,104,100,81,26,283,208,35,60,27,282,12,249,164]",2.2494,rectangle
,,,,,,,,,,,,,FF,,,,,,,,1.0508,,,,,,,,,,,,,,,,,,,,,,61034996de4bc91eafb48814,61036a29b33d786f994eba7b,2021-07-29_19h56.48.406,Simcolourproject_2stim_asymm_v5,2020.2.10,Win32,60,61025ae37ef11b136ea224fe,,,,,,,,,3013,61,40,1,0,0,response1disk,,6,-10,-6,1,0,0,rectangle,99,46,1,0,0,-6,3,1,0,0,0,26,26,132,1,,response1disk_3,TRUE,6,6,"[197,241,210,294,225,97,208,104,100,81,26,283,208,35,60,27,282,12,249,164]",1.8655,rectangle
,,,,,,,,,,,,,FF,,,,,,,,1.4673,,,,,,,,,,,,,,,,,,,,,,61034996de4bc91eafb48814,61036a29b33d786f994eba7b,2021-07-29_19h56.48.406,Simcolourproject_2stim_asymm_v5,2020.2.10,Win32,60,61025ae37ef11b136ea224fe,,,,,,,,,3094,-50,-66,1,0,0,response5disk,,3,11,5,1,0,0,rectangle,11,5,1,0,0,11,5,1,0,0,0,27,27,134,1,,,,,,,,
,,,,,,,,,,,,,FF,,,,,,,,1.5662,,,,,,,,,,,,,,,,,,,,,,61034996de4bc91eafb48814,61036a29b33d786f994eba7b,2021-07-29_19h56.48.406,Simcolourproject_2stim_asymm_v5,2020.2.10,Win32,60,61025ae37ef11b136ea224fe,,,,,,,,,2764,83,-32,1,0,0,response3disk,,5,3,1,1,0,0,rectangle,3,1,1,0,0,3,1,1,0,0,0,28,28,98,1,,,,,,,,
,,,,,,,,,,,,,FF,,,,,,,,1.7496,,,,,,,,,,,,,,,,,,,,,,61034996de4bc91eafb48814,61036a29b33d786f994eba7b,2021-07-29_19h56.48.406,Simcolourproject_2stim_asymm_v5,2020.2.10,Win32,60,61025ae37ef11b136ea224fe,,,,,,,,,3759,-27,-54,1,0,0,response5disk,,3,9,-2,1,0,0,rectangle,9,-2,1,0,0,9,-2,1,0,0,0,29,29,13,1,,,,,,,,
,,,,,,,,,,,,,FF,,,,,,,,1.8024,,,,,,,,,,,,,,,,,,,,,,61034996de4bc91eafb48814,61036a29b33d786f994eba7b,2021-07-29_19h56.48.406,Simcolourproject_2stim_asymm_v5,2020.2.10,Win32,60,61025ae37ef11b136ea224fe,,,,,,,,,1259,97,18,1,0,0,response1disk,,6,0,-7,1,0,0,rectangle,0,-7,1,0,0,0,-7,1,0,0,0,30,30,3,1,,,,,,,,
,,,,,,,,,,,,,FF,,,,,,,,2.5824,,,,,,,,,,,,,,,,,,,,,,61034996de4bc91eafb48814,61036a29b33d786f994eba7b,2021-07-29_19h56.48.406,Simcolourproject_2stim_asymm_v5,2020.2.10,Win32,60,61025ae37ef11b136ea224fe,,,,,,,,,2252,66,38,1,0,0,response1disk,,6,12,1,1,0,0,rectangle,12,1,1,0,0,12,1,1,0,0,0,31,31,5,1,,,,,,,,
,,,,,,,,,,,,,FF,,,,,,,,1.1825,,,,,,,,,,,,,,,,,,,,,,61034996de4bc91eafb48814,61036a29b33d786f994eba7b,2021-07-29_19h56.48.406,Simcolourproject_2stim_asymm_v5,2020.2.10,Win32,60,61025ae37ef11b136ea224fe,,,,,,,,,555,-46,-65,1,0,0,response5disk,,3,1,2,1,0,0,rectangle,1,2,1,0,0,1,2,1,0,0,0,32,32,24,1,,,,,,,,
,,,,,,,,,,,,,FF,,,,,,,,1.4007,,,,,,,,,,,,,,,,,,,,,,61034996de4bc91eafb48814,61036a29b33d786f994eba7b,2021-07-29_19h56.48.406,Simcolourproject_2stim_asymm_v5,2020.2.10,Win32,60,61025ae37ef11b136ea224fe,,,,,,,,,4299,90,-38,1,0,0,response3disk,,5,-3,1,1,0,0,rectangle,-3,1,1,0,0,-3,1,1,0,0,0,33,33,144,1,,,,,,,,
,,,,,,,,,,,,,FF,,,,,,,,1.8557,,,,,,,,,,,,,,,,,,,,,,61034996de4bc91eafb48814,61036a29b33d786f994eba7b,2021-07-29_19h56.48.406,Simcolourproject_2stim_asymm_v5,2020.2.10,Win32,60,61025ae37ef11b136ea224fe,,,,,,,,,3616,79,58,1,0,0,response1disk,,6,21,13,1,0,0,rectangle,104,34,1,0,0,-10,-4,1,0,0,0,34,34,21,1,,response1disk_3,TRUE,6,6,"[197,241,210,294,225,97,208,104,100,81,26,283,208,35,60,27,282,12,249,164]",1.6017,rectangle
,,,,,,,,,,,,,FF,,,,,,,,1.335,,,,,,,,,,,,,,,,,,,,,,61034996de4bc91eafb48814,61036a29b33d786f994eba7b,2021-07-29_19h56.48.406,Simcolourproject_2stim_asymm_v5,2020.2.10,Win32,60,61025ae37ef11b136ea224fe,,,,,,,,,1822,-69,43,1,0,0,response7disk,,1,-5,-1,1,0,0,rectangle,-5,-1,1,0,0,-5,-1,1,0,0,0,35,35,16,1,,,,,,,,
,,,,,,,,,,,,,FF,,,,,,,,3.7497,,,,,,,,,,,,,,,,,,,,,,61034996de4bc91eafb48814,61036a29b33d786f994eba7b,2021-07-29_19h56.48.406,Simcolourproject_2stim_asymm_v5,2020.2.10,Win32,60,61025ae37ef11b136ea224fe,,,,,,,,,3126,86,-36,1,0,0,response3disk,,5,1,2,1,0,0,rectangle,1,2,1,0,0,1,2,1,0,0,0,36,36,121,1,,,,,,,,
,,,,,,,,,,,,,FF,,,,,,,,1.3332,,,,,,,,,,,,,,,,,,,,,,61034996de4bc91eafb48814,61036a29b33d786f994eba7b,2021-07-29_19h56.48.406,Simcolourproject_2stim_asymm_v5,2020.2.10,Win32,60,61025ae37ef11b136ea224fe,,,,,,,,,644,-54,-81,1,0,0,response5disk,,3,-3,2,1,0,0,rectangle,-3,2,1,0,0,-3,2,1,0,0,0,37,37,89,1,,,,,,,,
,,,,,,,,,,,,,FF,,,,,,,,2.3168,,,,,,,,,,,,,,,,,,,,,,61034996de4bc91eafb48814,61036a29b33d786f994eba7b,2021-07-29_19h56.48.406,Simcolourproject_2stim_asymm_v5,2020.2.10,Win32,60,61025ae37ef11b136ea224fe,,,,,,,,,1230,-38,-93,1,0,0,response5disk,,3,14,-4,1,0,0,rectangle,14,-4,1,0,0,14,-4,1,0,0,0,38,38,135,1,,,,,,,,
,,,,,,,,,,,,,FF,,,,,,,,1.0329,,,,,,,,,,,,,,,,,,,,,,61034996de4bc91eafb48814,61036a29b33d786f994eba7b,2021-07-29_19h56.48.406,Simcolourproject_2stim_asymm_v5,2020.2.10,Win32,60,61025ae37ef11b136ea224fe,,,,,,,,,2743,78,36,1,0,0,response1disk,,6,0,-5,1,0,0,rectangle,0,-5,1,0,0,0,-5,1,0,0,0,39,39,92,1,,,,,,,,
,,,,,,,,,,,,,FF,,,,,,,,1.2498,,,,,,,,,,,,,,,,,,,,,,61034996de4bc91eafb48814,61036a29b33d786f994eba7b,2021-07-29_19h56.48.406,Simcolourproject_2stim_asymm_v5,2020.2.10,Win32,60,61025ae37ef11b136ea224fe,,,,,,,,,1864,47,70,1,0,0,response1disk,,7,19,-1,1,0,0,rectangle,19,-1,1,0,0,19,-1,1,0,0,0,40,40,19,1,,,,,,,,
,,,,,,,,,,,,,FF,,,,,,,,0.7323,,,,,,,,,,,,,,,,,,,,,,61034996de4bc91eafb48814,61036a29b33d786f994eba7b,2021-07-29_19h56.48.406,Simcolourproject_2stim_asymm_v5,2020.2.10,Win32,60,61025ae37ef11b136ea224fe,,,,,,,,,3612,32,74,1,0,0,response1disk,,7,13,4,1,0,0,rectangle,13,4,1,0,0,13,4,1,0,0,0,41,41,29,1,,,,,,,,
,,,,,,,,,,,,,FF,,,,,,,,0.9336,,,,,,,,,,,,,,,,,,,,,,61034996de4bc91eafb48814,61036a29b33d786f994eba7b,2021-07-29_19h56.48.406,Simcolourproject_2stim_asymm_v5,2020.2.10,Win32,60,61025ae37ef11b136ea224fe,,,,,,,,,3559,-47,81,1,0,0,response7disk,,0,-2,4,1,0,0,rectangle,-2,4,1,0,0,-2,4,1,0,0,0,42,42,143,1,,,,,,,,
,,,,,,,,,,,,,FF,,,,,,,,2.0832,,,,,,,,,,,,,,,,,,,,,,61034996de4bc91eafb48814,61036a29b33d786f994eba7b,2021-07-29_19h56.48.406,Simcolourproject_2stim_asymm_v5,2020.2.10,Win32,60,61025ae37ef11b136ea224fe,,,,,,,,,2258,41,-83,1,0,0,response3disk,,4,1,6,1,0,0,rectangle,1,6,1,0,0,1,6,1,0,0,0,43,43,85,1,,,,,,,,
,,,,,,,,,,,,,FF,,,,,,,,5.4161,,,,,,,,,,,,,,,,,,,,,,61034996de4bc91eafb48814,61036a29b33d786f994eba7b,2021-07-29_19h56.48.406,Simcolourproject_2stim_asymm_v5,2020.2.10,Win32,60,61025ae37ef11b136ea224fe,,,,,,,,,829,81,36,1,0,0,response1disk,,6,-1,-3,1,0,0,rectangle,-1,-3,1,0,0,-1,-3,1,0,0,0,44,44,116,1,,,,,,,,
,,,,,,,,,,,,,FF,,,,,,,,2.3994,,,,,,,,,,,,,,,,,,,,,,61034996de4bc91eafb48814,61036a29b33d786f994eba7b,2021-07-29_19h56.48.406,Simcolourproject_2stim_asymm_v5,2020.2.10,Win32,60,61025ae37ef11b136ea224fe,,,,,,,,,842,74,40,1,0,0,response1disk,,6,11,1,1,0,0,rectangle,11,1,1,0,0,11,1,1,0,0,0,45,45,133,1,,,,,,,,
,,,,,,,,,,,,,FF,,,,,,,,1.1327,,,,,,,,,,,,,,,,,,,,,,61034996de4bc91eafb48814,61036a29b33d786f994eba7b,2021-07-29_19h56.48.406,Simcolourproject_2stim_asymm_v5,2020.2.10,Win32,60,61025ae37ef11b136ea224fe,,,,,,,,,3764,83,40,1,0,0,response1disk,,6,-3,-2,1,0,0,rectangle,-3,-2,1,0,0,-3,-2,1,0,0,0,46,46,142,1,,,,,,,,
,,,,,,,,,,,,,FF,,,,,,,,1.1329,,,,,,,,,,,,,,,,,,,,,,61034996de4bc91eafb48814,61036a29b33d786f994eba7b,2021-07-29_19h56.48.406,Simcolourproject_2stim_asymm_v5,2020.2.10,Win32,60,61025ae37ef11b136ea224fe,,,,,,,,,960,30,64,1,0,0,response1disk,,7,4,10,1,0,0,rectangle,4,10,1,0,0,4,10,1,0,0,0,47,47,97,1,,,,,,,,
,,,,,,,,,,,,,FF,,,,,,,,4.5491,,,,,,,,,,,,,,,,,,,,,,61034996de4bc91eafb48814,61036a29b33d786f994eba7b,2021-07-29_19h56.48.406,Simcolourproject_2stim_asymm_v5,2020.2.10,Win32,60,61025ae37ef11b136ea224fe,,,,,,,,,361,47,73,1,0,0,response1disk,,7,0,-1,1,0,0,rectangle,0,-1,1,0,0,0,-1,1,0,0,0,48,48,154,1,,,,,,,,
,,,,,,,,,,,,,FF,,,,,,,,0.7336,,,,,,,,,,,,,,,,,,,,,,61034996de4bc91eafb48814,61036a29b33d786f994eba7b,2021-07-29_19h56.48.406,Simcolourproject_2stim_asymm_v5,2020.2.10,Win32,60,61025ae37ef11b136ea224fe,,,,,,,,,2541,-32,75,1,0,0,response7disk,,0,-16,6,1,0,0,rectangle,-16,6,1,0,0,-16,6,1,0,0,0,49,49,62,1,,,,,,,,
,,,,,,,,,,,,,FF,,,,,,,,2.7666,,,,,,,,,,,,,,,,,,,,,,61034996de4bc91eafb48814,61036a29b33d786f994eba7b,2021-07-29_19h56.48.406,Simcolourproject_2stim_asymm_v5,2020.2.10,Win32,60,61025ae37ef11b136ea224fe,,,,,,,,,86,50,93,1,0,0,response1disk,,7,6,-2,1,0,0,rectangle,6,-2,1,0,0,6,-2,1,0,0,0,50,50,127,1,,,,,,,,
,,,,,,,,,,,,,FF,,,,,,,,0.6831,,,,,,,,,,,,,,,,,,,,,,61034996de4bc91eafb48814,61036a29b33d786f994eba7b,2021-07-29_19h56.48.406,Simcolourproject_2stim_asymm_v5,2020.2.10,Win32,60,61025ae37ef11b136ea224fe,,,,,,,,,270,40,64,1,0,0,response1disk,,7,13,6,1,0,0,rectangle,13,6,1,0,0,13,6,1,0,0,0,51,51,99,1,,,,,,,,
,,,,,,,,,,,,,FF,,,,,,,,1.1657,,,,,,,,,,,,,,,,,,,,,,61034996de4bc91eafb48814,61036a29b33d786f994eba7b,2021-07-29_19h56.48.406,Simcolourproject_2stim_asymm_v5,2020.2.10,Win32,60,61025ae37ef11b136ea224fe,,,,,,,,,3165,-38,-66,1,0,0,response5disk,,3,-3,3,1,0,0,rectangle,-3,3,1,0,0,-3,3,1,0,0,0,52,52,94,1,,,,,,,,
,,,,,,,,,,,,,FF,,,,,,,,1.333,,,,,,,,,,,,,,,,,,,,,,61034996de4bc91eafb48814,61036a29b33d786f994eba7b,2021-07-29_19h56.48.406,Simcolourproject_2stim_asymm_v5,2020.2.10,Win32,60,61025ae37ef11b136ea224fe,,,,,,,,,3447,84,-23,1,0,0,response3disk,,5,21,0,1,0,0,rectangle,21,0,1,0,0,21,0,1,0,0,0,53,53,58,1,,,,,,,,
,,,,,,,,,,,,,FF,,,,,,,,1.1668,,,,,,,,,,,,,,,,,,,,,,61034996de4bc91eafb48814,61036a29b33d786f994eba7b,2021-07-29_19h56.48.406,Simcolourproject_2stim_asymm_v5,2020.2.10,Win32,60,61025ae37ef11b136ea224fe,,,,,,,,,545,-31,-87,1,0,0,response5disk,,3,1,-4,1,0,0,rectangle,1,-4,1,0,0,1,-4,1,0,0,0,54,54,117,1,,,,,,,,
,,,,,,,,,,,,,FF,,,,,,,,4.1161,,,,,,,,,,,,,,,,,,,,,,61034996de4bc91eafb48814,61036a29b33d786f994eba7b,2021-07-29_19h56.48.406,Simcolourproject_2stim_asymm_v5,2020.2.10,Win32,60,61025ae37ef11b136ea224fe,,,,,,,,,3832,95,49,1,0,0,response1disk,,6,-1,3,1,0,0,rectangle,-1,3,1,0,0,-1,3,1,0,0,0,55,55,103,1,,,,,,,,
,,,,,,,,,,,,,FF,,,,,,,,2.8497,,,,,,,,,,,,,,,,,,,,,,61034996de4bc91eafb48814,61036a29b33d786f994eba7b,2021-07-29_19h56.48.406,Simcolourproject_2stim_asymm_v5,2020.2.10,Win32,60,61025ae37ef11b136ea224fe,,,,,,,,,3064,88,-43,1,0,0,response3disk,,5,-4,-5,1,0,0,rectangle,-4,-5,1,0,0,-4,-5,1,0,0,0,56,56,71,1,,,,,,,,
,,,,,,,,,,,,,FF,,,,,,,,1.5163,,,,,,,,,,,,,,,,,,,,,,61034996de4bc91eafb48814,61036a29b33d786f994eba7b,2021-07-29_19h56.48.406,Simcolourproject_2stim_asymm_v5,2020.2.10,Win32,60,61025ae37ef11b136ea224fe,,,,,,,,,375,-42,-62,1,0,0,response5disk,,3,-5,-3,1,0,0,rectangle,-5,-3,1,0,0,-5,-3,1,0,0,0,57,57,49,1,,,,,,,,
,,,,,,,,,,,,,FF,,,,,,,,0.9672,,,,,,,,,,,,,,,,,,,,,,61034996de4bc91eafb48814,61036a29b33d786f994eba7b,2021-07-29_19h56.48.406,Simcolourproject_2stim_asymm_v5,2020.2.10,Win32,60,61025ae37ef11b136ea224fe,,,,,,,,,557,84,-33,1,0,0,response3disk,,5,-5,2,1,0,0,rectangle,-5,2,1,0,0,-5,2,1,0,0,0,58,58,11,1,,,,,,,,
,,,,,,,,,,,,,FF,,,,,,,,0.6841,,,,,,,,,,,,,,,,,,,,,,61034996de4bc91eafb48814,61036a29b33d786f994eba7b,2021-07-29_19h56.48.406,Simcolourproject_2stim_asymm_v5,2020.2.10,Win32,60,61025ae37ef11b136ea224fe,,,,,,,,,554,76,-39,1,0,0,response3disk,,5,13,-4,1,0,0,rectangle,-44,-88,1,0,0,1,-5,1,0,0,0,59,59,156,1,,response5disk_3,TRUE,3,3,"[197,241,210,294,225,97,208,104,100,81,26,283,208,35,60,27,282,12,249,164]",2.2663,rectangle
,,,,,,,,,,,,,FF,,,,,,,,1.1166,,,,,,,,,,,,,,,,,,,,,,61034996de4bc91eafb48814,61036a29b33d786f994eba7b,2021-07-29_19h56.48.406,Simcolourproject_2stim_asymm_v5,2020.2.10,Win32,60,61025ae37ef11b136ea224fe,,,,,,,,,3738,41,74,1,0,0,response1disk,,7,20,14,1,0,0,rectangle,20,14,1,0,0,20,14,1,0,0,0,60,60,0,1,,,,,,,,
,,,,,,,,,,,,,FF,,,,,,,,2.2328,,,,,,,,,,,,,,,,,,,,,,61034996de4bc91eafb48814,61036a29b33d786f994eba7b,2021-07-29_19h56.48.406,Simcolourproject_2stim_asymm_v5,2020.2.10,Win32,60,61025ae37ef11b136ea224fe,,,,,,,,,1486,40,64,1,0,0,response1disk,,7,-9,-11,1,0,0,rectangle,-9,-11,1,0,0,-9,-11,1,0,0,0,61,61,33,1,,,,,,,,
,,,,,,,,,,,,,FF,,,,,,,,0.8997,,,,,,,,,,,,,,,,,,,,,,61034996de4bc91eafb48814,61036a29b33d786f994eba7b,2021-07-29_19h56.48.406,Simcolourproject_2stim_asymm_v5,2020.2.10,Win32,60,61025ae37ef11b136ea224fe,,,,,,,,,3,-50,-88,1,0,0,response5disk,,3,-8,3,1,0,0,rectangle,-8,3,1,0,0,-8,3,1,0,0,0,62,62,84,1,,,,,,,,
,,,,,,,,,,,,,FF,,,,,,,,0.7501,,,,,,,,,,,,,,,,,,,,,,61034996de4bc91eafb48814,61036a29b33d786f994eba7b,2021-07-29_19h56.48.406,Simcolourproject_2stim_asymm_v5,2020.2.10,Win32,60,61025ae37ef11b136ea224fe,,,,,,,,,2242,-34,-82,1,0,0,response5disk,,3,-12,-10,1,0,0,rectangle,-12,-10,1,0,0,-12,-10,1,0,0,0,63,63,124,1,,,,,,,,
,,,,,,,,,,,,,FF,,,,,,,,0.9336,,,,,,,,,,,,,,,,,,,,,,61034996de4bc91eafb48814,61036a29b33d786f994eba7b,2021-07-29_19h56.48.406,Simcolourproject_2stim_asymm_v5,2020.2.10,Win32,60,61025ae37ef11b136ea224fe,,,,,,,,,2064,83,-47,1,0,0,response3disk,,5,10,4,1,0,0,rectangle,10,4,1,0,0,10,4,1,0,0,0,64,64,115,1,,,,,,,,
,,,,,,,,,,,,,FF,,,,,,,,1.733,,,,,,,,,,,,,,,,,,,,,,61034996de4bc91eafb48814,61036a29b33d786f994eba7b,2021-07-29_19h56.48.406,Simcolourproject_2stim_asymm_v5,2020.2.10,Win32,60,61025ae37ef11b136ea224fe,,,,,,,,,239,65,36,1,0,0,response1disk,,6,10,-3,1,0,0,rectangle,10,-3,1,0,0,10,-3,1,0,0,0,65,65,28,1,,,,,,,,
,,,,,,,,,,,,,FF,,,,,,,,1.2996,,,,,,,,,,,,,,,,,,,,,,61034996de4bc91eafb48814,61036a29b33d786f994eba7b,2021-07-29_19h56.48.406,Simcolourproject_2stim_asymm_v5,2020.2.10,Win32,60,61025ae37ef11b136ea224fe,,,,,,,,,2788,36,66,1,0,0,response1disk,,7,6,8,1,0,0,rectangle,6,8,1,0,0,6,8,1,0,0,0,66,66,82,1,,,,,,,,
,,,,,,,,,,,,,FF,,,,,,,,2.9993,,,,,,,,,,,,,,,,,,,,,,61034996de4bc91eafb48814,61036a29b33d786f994eba7b,2021-07-29_19h56.48.406,Simcolourproject_2stim_asymm_v5,2020.2.10,Win32,60,61025ae37ef11b136ea224fe,,,,,,,,,1566,69,-31,1,0,0,response3disk,,5,9,8,1,0,0,rectangle,9,8,1,0,0,9,8,1,0,0,0,67,67,90,1,,,,,,,,
,,,,,,,,,,,,,FF,,,,,,,,1.0332,,,,,,,,,,,,,,,,,,,,,,61034996de4bc91eafb48814,61036a29b33d786f994eba7b,2021-07-29_19h56.48.406,Simcolourproject_2stim_asymm_v5,2020.2.10,Win32,60,61025ae37ef11b136ea224fe,,,,,,,,,3201,32,77,1,0,0,response1disk,,7,12,3,1,0,0,rectangle,12,3,1,0,0,12,3,1,0,0,0,68,68,23,1,,,,,,,,
,,,,,,,,,,,,,FF,,,,,,,,1.4657,,,,,,,,,,,,,,,,,,,,,,61034996de4bc91eafb48814,61036a29b33d786f994eba7b,2021-07-29_19h56.48.406,Simcolourproject_2stim_asymm_v5,2020.2.10,Win32,60,61025ae37ef11b136ea224fe,,,,,,,,,4201,-44,91,1,0,0,response7disk,,0,-2,-6,1,0,0,rectangle,-2,-6,1,0,0,-2,-6,1,0,0,0,69,69,27,1,,,,,,,,
,,,,,,,,,,,,,FF,,,,,,,,0.5831,,,,,,,,,,,,,,,,,,,,,,61034996de4bc91eafb48814,61036a29b33d786f994eba7b,2021-07-29_19h56.48.406,Simcolourproject_2stim_asymm_v5,2020.2.10,Win32,60,61025ae37ef11b136ea224fe,,,,,,,,,3908,-29,63,1,0,0,response7disk,,0,-12,-6,1,0,0,rectangle,-12,-6,1,0,0,-12,-6,1,0,0,0,70,70,78,1,,,,,,,,
,,,,,,,,,,,,,FF,,,,,,,,1.3672,,,,,,,,,,,,,,,,,,,,,,61034996de4bc91eafb48814,61036a29b33d786f994eba7b,2021-07-29_19h56.48.406,Simcolourproject_2stim_asymm_v5,2020.2.10,Win32,60,61025ae37ef11b136ea224fe,,,,,,,,,1406,52,-69,1,0,0,response3disk,,4,5,-1,1,0,0,rectangle,5,-1,1,0,0,5,-1,1,0,0,0,71,71,50,1,,,,,,,,
,,,,,,,,,,,,,FF,,,,,,,,1.5666,,,,,,,,,,,,,,,,,,,,,,61034996de4bc91eafb48814,61036a29b33d786f994eba7b,2021-07-29_19h56.48.406,Simcolourproject_2stim_asymm_v5,2020.2.10,Win32,60,61025ae37ef11b136ea224fe,,,,,,,,,640,59,-27,1,0,0,response3disk,,5,6,1,1,0,0,rectangle,6,1,1,0,0,6,1,1,0,0,0,72,72,59,1,,,,,,,,
,,,,,,,,,,,,,FF,,,,,,,,2.6495,,,,,,,,,,,,,,,,,,,,,,61034996de4bc91eafb48814,61036a29b33d786f994eba7b,2021-07-29_19h56.48.406,Simcolourproject_2stim_asymm_v5,2020.2.10,Win32,60,61025ae37ef11b136ea224fe,,,,,,,,,3308,68,46,1,0,0,response1disk,,6,-5,3,1,0,0,rectangle,-5,3,1,0,0,-5,3,1,0,0,0,73,73,106,1,,,,,,,,
,,,,,,,,,,,,,FF,,,,,,,,0.7167,,,,,,,,,,,,,,,,,,,,,,61034996de4bc91eafb48814,61036a29b33d786f994eba7b,2021-07-29_19h56.48.406,Simcolourproject_2stim_asymm_v5,2020.2.10,Win32,60,61025ae37ef11b136ea224fe,,,,,,,,,3362,15,53,1,0,0,response1disk,,7,13,7,1,0,0,rectangle,13,7,1,0,0,13,7,1,0,0,0,74,74,79,1,,,,,,,,
,,,,,,,,,,,,,FF,,,,,,,,1.7005,,,,,,,,,,,,,,,,,,,,,,61034996de4bc91eafb48814,61036a29b33d786f994eba7b,2021-07-29_19h56.48.406,Simcolourproject_2stim_asymm_v5,2020.2.10,Win32,60,61025ae37ef11b136ea224fe,,,,,,,,,1323,54,-37,1,0,0,response3disk,,5,5,8,1,0,0,rectangle,5,8,1,0,0,5,8,1,0,0,0,75,75,12,1,,,,,,,,
,,,,,,,,,,,,,FF,,,,,,,,0.9332,,,,,,,,,,,,,,,,,,,,,,61034996de4bc91eafb48814,61036a29b33d786f994eba7b,2021-07-29_19h56.48.406,Simcolourproject_2stim_asymm_v5,2020.2.10,Win32,60,61025ae37ef11b136ea224fe,,,,,,,,,3786,-32,-64,1,0,0,response5disk,,3,20,2,1,0,0,rectangle,20,2,1,0,0,20,2,1,0,0,0,76,76,64,1,,,,,,,,
,,,,,,,,,,,,,FF,,,,,,,,0.8664,,,,,,,,,,,,,,,,,,,,,,61034996de4bc91eafb48814,61036a29b33d786f994eba7b,2021-07-29_19h56.48.406,Simcolourproject_2stim_asymm_v5,2020.2.10,Win32,60,61025ae37ef11b136ea224fe,,,,,,,,,871,-31,-68,1,0,0,response5disk,,3,16,2,1,0,0,rectangle,16,2,1,0,0,16,2,1,0,0,0,77,77,7,1,,,,,,,,
,,,,,,,,,,,,,FF,,,,,,,,0.7168,,,,,,,,,,,,,,,,,,,,,,61034996de4bc91eafb48814,61036a29b33d786f994eba7b,2021-07-29_19h56.48.406,Simcolourproject_2stim_asymm_v5,2020.2.10,Win32,60,61025ae37ef11b136ea224fe,,,,,,,,,4212,43,76,1,0,0,response1disk,,7,10,11,1,0,0,rectangle,10,11,1,0,0,10,11,1,0,0,0,78,78,68,1,,,,,,,,
,,,,,,,,,,,,,FF,,,,,,,,4.8657,,,,,,,,,,,,,,,,,,,,,,61034996de4bc91eafb48814,61036a29b33d786f994eba7b,2021-07-29_19h56.48.406,Simcolourproject_2stim_asymm_v5,2020.2.10,Win32,60,61025ae37ef11b136ea224fe,,,,,,,,,2134,54,64,1,0,0,response1disk,,7,-1,5,1,0,0,rectangle,-1,5,1,0,0,-1,5,1,0,0,0,79,79,32,1,,,,,,,,
,,,,,,,,,,,,,FF,,,,,,,,2.5992,,,,,,,,,,,,,,,,,,,,,,61034996de4bc91eafb48814,61036a29b33d786f994eba7b,2021-07-29_19h56.48.406,Simcolourproject_2stim_asymm_v5,2020.2.10,Win32,60,61025ae37ef11b136ea224fe,,,,,,,,,2520,68,35,1,0,0,response1disk,,6,-18,2,1,0,0,rectangle,-50,-76,1,0,0,0,0,1,0,0,0,80,80,125,1,,response5disk_3,TRUE,3,3,"[197,241,210,294,225,97,208,104,100,81,26,283,208,35,60,27,282,12,249,164]",2.4327,rectangle
,,,,,,,,,,,,,FF,,,,,,,,0.7998,,,,,,,,,,,,,,,,,,,,,,61034996de4bc91eafb48814,61036a29b33d786f994eba7b,2021-07-29_19h56.48.406,Simcolourproject_2stim_asymm_v5,2020.2.10,Win32,60,61025ae37ef11b136ea224fe,,,,,,,,,4120,-26,78,1,0,0,response7disk,,0,-2,-4,1,0,0,rectangle,-2,-4,1,0,0,-2,-4,1,0,0,0,81,81,9,1,,,,,,,,
,,,,,,,,,,,,,FF,,,,,,,,0.8162,,,,,,,,,,,,,,,,,,,,,,61034996de4bc91eafb48814,61036a29b33d786f994eba7b,2021-07-29_19h56.48.406,Simcolourproject_2stim_asymm_v5,2020.2.10,Win32,60,61025ae37ef11b136ea224fe,,,,,,,,,4214,37,55,1,0,0,response1disk,,7,11,-10,1,0,0,rectangle,11,-10,1,0,0,11,-10,1,0,0,0,82,82,150,1,,,,,,,,
,,,,,,,,,,,,,FF,,,,,,,,0.7004,,,,,,,,,,,,,,,,,,,,,,61034996de4bc91eafb48814,61036a29b33d786f994eba7b,2021-07-29_19h56.48.406,Simcolourproject_2stim_asymm_v5,2020.2.10,Win32,60,61025ae37ef11b136ea224fe,,,,,,,,,621,34,77,1,0,0,response1disk,,7,7,1,1,0,0,rectangle,7,1,1,0,0,7,1,1,0,0,0,83,83,70,1,,,,,,,,
,,,,,,,,,,,,,FF,,,,,,,,0.5002,,,,,,,,,,,,,,,,,,,,,,61034996de4bc91eafb48814,61036a29b33d786f994eba7b,2021-07-29_19h56.48.406,Simcolourproject_2stim_asymm_v5,2020.2.10,Win32,60,61025ae37ef11b136ea224fe,,,,,,,,,2822,29,44,1,0,0,response1disk,,7,7,-9,1,0,0,rectangle,7,-9,1,0,0,7,-9,1,0,0,0,84,84,108,1,,,,,,,,
,,,,,,,,,,,,,FF,,,,,,,,0.9662,,,,,,,,,,,,,,,,,,,,,,61034996de4bc91eafb48814,61036a29b33d786f994eba7b,2021-07-29_19h56.48.406,Simcolourproject_2stim_asymm_v5,2020.2.10,Win32,60,61025ae37ef11b136ea224fe,,,,,,,,,2017,72,41,1,0,0,response1disk,,6,13,8,1,0,0,rectangle,13,8,1,0,0,13,8,1,0,0,0,85,85,51,1,,,,,,,,
,,,,,,,,,,,,,FF,,,,,,,,1.0166,,,,,,,,,,,,,,,,,,,,,,61034996de4bc91eafb48814,61036a29b33d786f994eba7b,2021-07-29_19h56.48.406,Simcolourproject_2stim_asymm_v5,2020.2.10,Win32,60,61025ae37ef11b136ea224fe,,,,,,,,,3601,-28,-83,1,0,0,response5disk,,3,17,1,1,0,0,rectangle,17,1,1,0,0,17,1,1,0,0,0,86,86,145,1,,,,,,,,
,,,,,,,,,,,,,FF,,,,,,,,0.6168,,,,,,,,,,,,,,,,,,,,,,61034996de4bc91eafb48814,61036a29b33d786f994eba7b,2021-07-29_19h56.48.406,Simcolourproject_2stim_asymm_v5,2020.2.10,Win32,60,61025ae37ef11b136ea224fe,,,,,,,,,3527,-44,-88,1,0,0,response5disk,,3,11,8,1,0,0,rectangle,11,8,1,0,0,11,8,1,0,0,0,87,87,48,1,,,,,,,,
,,,,,,,,,,,,,FF,,,,,,,,3.6999,,,,,,,,,,,,,,,,,,,,,,61034996de4bc91eafb48814,61036a29b33d786f994eba7b,2021-07-29_19h56.48.406,Simcolourproject_2stim_asymm_v5,2020.2.10,Win32,60,61025ae37ef11b136ea224fe,,,,,,,,,735,69,-39,1,0,0,response3disk,,5,0,2,1,0,0,rectangle,0,2,1,0,0,0,2,1,0,0,0,88,88,67,1,,,,,,,,
,,,,,,,,,,,,,FF,,,,,,,,0.8502,,,,,,,,,,,,,,,,,,,,,,61034996de4bc91eafb48814,61036a29b33d786f994eba7b,2021-07-29_19h56.48.406,Simcolourproject_2stim_asymm_v5,2020.2.10,Win32,60,61025ae37ef11b136ea224fe,,,,,,,,,1577,63,45,1,0,0,response1disk,,6,6,-8,1,0,0,rectangle,6,-8,1,0,0,6,-8,1,0,0,0,89,89,69,1,,,,,,,,
,,,,,,,,,,,,,FF,,,,,,,,1.2498,,,,,,,,,,,,,,,,,,,,,,61034996de4bc91eafb48814,61036a29b33d786f994eba7b,2021-07-29_19h56.48.406,Simcolourproject_2stim_asymm_v5,2020.2.10,Win32,60,61025ae37ef11b136ea224fe,,,,,,,,,3915,-41,-88,1,0,0,response5disk,,3,2,-8,1,0,0,rectangle,2,-8,1,0,0,2,-8,1,0,0,0,90,90,151,1,,,,,,,,
,,,,,,,,,,,,,FF,,,,,,,,1.8167,,,,,,,,,,,,,,,,,,,,,,61034996de4bc91eafb48814,61036a29b33d786f994eba7b,2021-07-29_19h56.48.406,Simcolourproject_2stim_asymm_v5,2020.2.10,Win32,60,61025ae37ef11b136ea224fe,,,,,,,,,1158,105,-21,1,0,0,response3disk,,5,1,-2,1,0,0,rectangle,1,-2,1,0,0,1,-2,1,0,0,0,91,91,73,1,,,,,,,,
,,,,,,,,,,,,,FF,,,,,,,,0.8836,,,,,,,,,,,,,,,,,,,,,,61034996de4bc91eafb48814,61036a29b33d786f994eba7b,2021-07-29_19h56.48.406,Simcolourproject_2stim_asymm_v5,2020.2.10,Win32,60,61025ae37ef11b136ea224fe,,,,,,,,,1465,-40,-96,1,0,0,response5disk,,3,15,0,1,0,0,rectangle,15,0,1,0,0,15,0,1,0,0,0,92,92,120,1,,,,,,,,
,,,,,,,,,,,,,FF,,,,,,,,5.282,,,,,,,,,,,,,,,,,,,,,,61034996de4bc91eafb48814,61036a29b33d786f994eba7b,2021-07-29_19h56.48.406,Simcolourproject_2stim_asymm_v5,2020.2.10,Win32,60,61025ae37ef11b136ea224fe,,,,,,,,,2015,90,-53,1,0,0,response3disk,,5,-22,3,1,0,0,rectangle,-22,3,1,0,0,-22,3,1,0,0,0,93,93,100,1,,,,,,,,
,,,,,,,,,,,,,FF,,,,,,,,1.4996,,,,,,,,,,,,,,,,,,,,,,61034996de4bc91eafb48814,61036a29b33d786f994eba7b,2021-07-29_19h56.48.406,Simcolourproject_2stim_asymm_v5,2020.2.10,Win32,60,61025ae37ef11b136ea224fe,,,,,,,,,3192,26,-67,1,0,0,response3disk,,4,-15,3,1,0,0,rectangle,-15,3,1,0,0,-15,3,1,0,0,0,94,94,147,1,,,,,,,,
,,,,,,,,,,,,,FF,,,,,,,,2.5491,,,,,,,,,,,,,,,,,,,,,,61034996de4bc91eafb48814,61036a29b33d786f994eba7b,2021-07-29_19h56.48.406,Simcolourproject_2stim_asymm_v5,2020.2.10,Win32,60,61025ae37ef11b136ea224fe,,,,,,,,,2983,91,-35,1,0,0,response3disk,,5,-13,1,1,0,0,rectangle,-13,1,1,0,0,-13,1,1,0,0,0,95,95,158,1,,,,,,,,
,,,,,,,,,,,,,FF,,,,,,,,3.583,,,,,,,,,,,,,,,,,,,,,,61034996de4bc91eafb48814,61036a29b33d786f994eba7b,2021-07-29_19h56.48.406,Simcolourproject_2stim_asymm_v5,2020.2.10,Win32,60,61025ae37ef11b136ea224fe,,,,,,,,,643,92,40,1,0,0,response1disk,,6,10,6,1,0,0,rectangle,-82,-47,1,0,0,12,7,1,0,0,0,96,96,126,1,,response5disk_3,TRUE,2,2,"[197,241,210,294,225,97,208,104,100,81,26,283,208,35,60,27,282,12,249,164]",1.749,rectangle
,,,,,,,,,,,,,FF,,,,,,,,0.8996,,,,,,,,,,,,,,,,,,,,,,61034996de4bc91eafb48814,61036a29b33d786f994eba7b,2021-07-29_19h56.48.406,Simcolourproject_2stim_asymm_v5,2020.2.10,Win32,60,61025ae37ef11b136ea224fe,,,,,,,,,1281,22,47,1,0,0,response1disk,,7,2,-4,1,0,0,rectangle,2,-4,1,0,0,2,-4,1,0,0,0,97,97,8,1,,,,,,,,
,,,,,,,,,,,,,FF,,,,,,,,0.8331,,,,,,,,,,,,,,,,,,,,,,61034996de4bc91eafb48814,61036a29b33d786f994eba7b,2021-07-29_19h56.48.406,Simcolourproject_2stim_asymm_v5,2020.2.10,Win32,60,61025ae37ef11b136ea224fe,,,,,,,,,3205,-39,65,1,0,0,response7disk,,0,-10,-2,1,0,0,rectangle,-10,-2,1,0,0,-10,-2,1,0,0,0,98,98,123,1,,,,,,,,
,,,,,,,,,,,,,FF,,,,,,,,6.4822,,,,,,,,,,,,,,,,,,,,,,61034996de4bc91eafb48814,61036a29b33d786f994eba7b,2021-07-29_19h56.48.406,Simcolourproject_2stim_asymm_v5,2020.2.10,Win32,60,61025ae37ef11b136ea224fe,,,,,,,,,2752,94,29,1,0,0,response1disk,,6,-4,-10,1,0,0,rectangle,31,86,1,0,0,0,1,1,0,0,0,99,99,25,1,,response1disk_3,TRUE,7,7,"[197,241,210,294,225,97,208,104,100,81,26,283,208,35,60,27,282,12,249,164]",1.9994,rectangle
,,,,,,,,,,,,,FF,,,,,,,,1.1163,,,,,,,,,,,,,,,,,,,,,,61034996de4bc91eafb48814,61036a29b33d786f994eba7b,2021-07-29_19h56.48.406,Simcolourproject_2stim_asymm_v5,2020.2.10,Win32,60,61025ae37ef11b136ea224fe,,,,,,,,,365,40,94,1,0,0,response1disk,,7,5,-7,1,0,0,rectangle,5,-7,1,0,0,5,-7,1,0,0,0,100,100,101,1,,,,,,,,
,,,,,,,,,,,,,FF,,,,,,,,0.9505,,,,,,,,,,,,,,,,,,,,,,61034996de4bc91eafb48814,61036a29b33d786f994eba7b,2021-07-29_19h56.48.406,Simcolourproject_2stim_asymm_v5,2020.2.10,Win32,60,61025ae37ef11b136ea224fe,,,,,,,,,1095,44,87,1,0,0,response1disk,,7,-3,8,1,0,0,rectangle,-3,8,1,0,0,-3,8,1,0,0,0,101,101,35,1,,,,,,,,
,,,,,,,,,,,,,FF,,,,,,,,0.9673,,,,,,,,,,,,,,,,,,,,,,61034996de4bc91eafb48814,61036a29b33d786f994eba7b,2021-07-29_19h56.48.406,Simcolourproject_2stim_asymm_v5,2020.2.10,Win32,60,61025ae37ef11b136ea224fe,,,,,,,,,1214,-34,-72,1,0,0,response5disk,,3,-3,-7,1,0,0,rectangle,-3,-7,1,0,0,-3,-7,1,0,0,0,102,102,47,1,,,,,,,,
,,,,,,,,,,,,,FF,,,,,,,,1.7993,,,,,,,,,,,,,,,,,,,,,,61034996de4bc91eafb48814,61036a29b33d786f994eba7b,2021-07-29_19h56.48.406,Simcolourproject_2stim_asymm_v5,2020.2.10,Win32,60,61025ae37ef11b136ea224fe,,,,,,,,,619,41,-73,1,0,0,response3disk,,4,-1,4,1,0,0,rectangle,-40,61,1,0,0,-3,0,1,0,0,0,103,103,22,1,,response7disk_3,TRUE,0,0,"[197,241,210,294,225,97,208,104,100,81,26,283,208,35,60,27,282,12,249,164]",1.9162,rectangle
,,,,,,,,,,,,,FF,,,,,,,,2.5328,,,,,,,,,,,,,,,,,,,,,,61034996de4bc91eafb48814,61036a29b33d786f994eba7b,2021-07-29_19h56.48.406,Simcolourproject_2stim_asymm_v5,2020.2.10,Win32,60,61025ae37ef11b136ea224fe,,,,,,,,,2798,73,37,1,0,0,response1disk,,6,-5,-5,1,0,0,rectangle,-5,-5,1,0,0,-5,-5,1,0,0,0,104,104,157,1,,,,,,,,
,,,,,,,,,,,,,FF,,,,,,,,1.1,,,,,,,,,,,,,,,,,,,,,,61034996de4bc91eafb48814,61036a29b33d786f994eba7b,2021-07-29_19h56.48.406,Simcolourproject_2stim_asymm_v5,2020.2.10,Win32,60,61025ae37ef11b136ea224fe,,,,,,,,,1124,20,77,1,0,0,response1disk,,7,-2,-7,1,0,0,rectangle,-2,-7,1,0,0,-2,-7,1,0,0,0,105,105,129,1,,,,,,,,
,,,,,,,,,,,,,FF,,,,,,,,0.7165,,,,,,,,,,,,,,,,,,,,,,61034996de4bc91eafb48814,61036a29b33d786f994eba7b,2021-07-29_19h56.48.406,Simcolourproject_2stim_asymm_v5,2020.2.10,Win32,60,61025ae37ef11b136ea224fe,,,,,,,,,2591,39,79,1,0,0,response1disk,,7,3,-2,1,0,0,rectangle,3,-2,1,0,0,3,-2,1,0,0,0,106,106,159,1,,,,,,,,
,,,,,,,,,,,,,FF,,,,,,,,1.4167,,,,,,,,,,,,,,,,,,,,,,61034996de4bc91eafb48814,61036a29b33d786f994eba7b,2021-07-29_19h56.48.406,Simcolourproject_2stim_asymm_v5,2020.2.10,Win32,60,61025ae37ef11b136ea224fe,,,,,,,,,3892,110,15,1,0,0,response1disk,,6,-7,-8,1,0,0,rectangle,-7,-8,1,0,0,-7,-8,1,0,0,0,107,107,38,1,,,,,,,,
,,,,,,,,,,,,,FF,,,,,,,,0.9663,,,,,,,,,,,,,,,,,,,,,,61034996de4bc91eafb48814,61036a29b33d786f994eba7b,2021-07-29_19h56.48.406,Simcolourproject_2stim_asymm_v5,2020.2.10,Win32,60,61025ae37ef11b136ea224fe,,,,,,,,,3148,-28,-86,1,0,0,response5disk,,3,3,6,1,0,0,rectangle,3,6,1,0,0,3,6,1,0,0,0,108,108,10,1,,,,,,,,
,,,,,,,,,,,,,FF,,,,,,,,0.7003,,,,,,,,,,,,,,,,,,,,,,61034996de4bc91eafb48814,61036a29b33d786f994eba7b,2021-07-29_19h56.48.406,Simcolourproject_2stim_asymm_v5,2020.2.10,Win32,60,61025ae37ef11b136ea224fe,,,,,,,,,1167,35,90,1,0,0,response1disk,,7,8,2,1,0,0,rectangle,8,2,1,0,0,8,2,1,0,0,0,109,109,36,1,,,,,,,,
,,,,,,,,,,,,,FF,,,,,,,,0.6006,,,,,,,,,,,,,,,,,,,,,,61034996de4bc91eafb48814,61036a29b33d786f994eba7b,2021-07-29_19h56.48.406,Simcolourproject_2stim_asymm_v5,2020.2.10,Win32,60,61025ae37ef11b136ea224fe,,,,,,,,,885,-47,78,1,0,0,response7disk,,0,-3,8,1,0,0,rectangle,-3,8,1,0,0,-3,8,1,0,0,0,110,110,65,1,,,,,,,,
,,,,,,,,,,,,,FF,,,,,,,,1.5163,,,,,,,,,,,,,,,,,,,,,,61034996de4bc91eafb48814,61036a29b33d786f994eba7b,2021-07-29_19h56.48.406,Simcolourproject_2stim_asymm_v5,2020.2.10,Win32,60,61025ae37ef11b136ea224fe,,,,,,,,,3962,39,92,1,0,0,response1disk,,7,-5,-9,1,0,0,rectangle,-5,-9,1,0,0,-5,-9,1,0,0,0,111,111,14,1,,,,,,,,
,,,,,,,,,,,,,FF,,,,,,,,0.8495,,,,,,,,,,,,,,,,,,,,,,61034996de4bc91eafb48814,61036a29b33d786f994eba7b,2021-07-29_19h56.48.406,Simcolourproject_2stim_asymm_v5,2020.2.10,Win32,60,61025ae37ef11b136ea224fe,,,,,,,,,3619,42,79,1,0,0,response1disk,,7,12,-1,1,0,0,rectangle,12,-1,1,0,0,12,-1,1,0,0,0,112,112,17,1,,,,,,,,
,,,,,,,,,,,,,FF,,,,,,,,0.6499,,,,,,,,,,,,,,,,,,,,,,61034996de4bc91eafb48814,61036a29b33d786f994eba7b,2021-07-29_19h56.48.406,Simcolourproject_2stim_asymm_v5,2020.2.10,Win32,60,61025ae37ef11b136ea224fe,,,,,,,,,1132,-37,-72,1,0,0,response5disk,,3,3,6,1,0,0,rectangle,3,6,1,0,0,3,6,1,0,0,0,113,113,56,1,,,,,,,,
,,,,,,,,,,,,,FF,,,,,,,,0.9336,,,,,,,,,,,,,,,,,,,,,,61034996de4bc91eafb48814,61036a29b33d786f994eba7b,2021-07-29_19h56.48.406,Simcolourproject_2stim_asymm_v5,2020.2.10,Win32,60,61025ae37ef11b136ea224fe,,,,,,,,,1833,40,-54,1,0,0,response3disk,,4,13,-6,1,0,0,rectangle,13,-6,1,0,0,13,-6,1,0,0,0,114,114,95,1,,,,,,,,
,,,,,,,,,,,,,FF,,,,,,,,1.3503,,,,,,,,,,,,,,,,,,,,,,61034996de4bc91eafb48814,61036a29b33d786f994eba7b,2021-07-29_19h56.48.406,Simcolourproject_2stim_asymm_v5,2020.2.10,Win32,60,61025ae37ef11b136ea224fe,,,,,,,,,1853,66,44,1,0,0,response1disk,,6,-8,-3,1,0,0,rectangle,-8,-3,1,0,0,-8,-3,1,0,0,0,115,115,31,1,,,,,,,,
,,,,,,,,,,,,,FF,,,,,,,,0.6665,,,,,,,,,,,,,,,,,,,,,,61034996de4bc91eafb48814,61036a29b33d786f994eba7b,2021-07-29_19h56.48.406,Simcolourproject_2stim_asymm_v5,2020.2.10,Win32,60,61025ae37ef11b136ea224fe,,,,,,,,,1819,-47,-85,1,0,0,response5disk,,3,-12,-6,1,0,0,rectangle,-12,-6,1,0,0,-12,-6,1,0,0,0,116,116,81,1,,,,,,,,
,,,,,,,,,,,,,FF,,,,,,,,0.7999,,,,,,,,,,,,,,,,,,,,,,61034996de4bc91eafb48814,61036a29b33d786f994eba7b,2021-07-29_19h56.48.406,Simcolourproject_2stim_asymm_v5,2020.2.10,Win32,60,61025ae37ef11b136ea224fe,,,,,,,,,3842,44,82,1,0,0,response1disk,,7,11,0,1,0,0,rectangle,11,0,1,0,0,11,0,1,0,0,0,117,117,96,1,,,,,,,,
,,,,,,,,,,,,,FF,,,,,,,,0.7999,,,,,,,,,,,,,,,,,,,,,,61034996de4bc91eafb48814,61036a29b33d786f994eba7b,2021-07-29_19h56.48.406,Simcolourproject_2stim_asymm_v5,2020.2.10,Win32,60,61025ae37ef11b136ea224fe,,,,,,,,,2916,107,52,1,0,0,response1disk,,6,-11,-4,1,0,0,rectangle,-11,-4,1,0,0,-11,-4,1,0,0,0,118,118,39,1,,,,,,,,
,,,,,,,,,,,,,FF,,,,,,,,0.8163,,,,,,,,,,,,,,,,,,,,,,61034996de4bc91eafb48814,61036a29b33d786f994eba7b,2021-07-29_19h56.48.406,Simcolourproject_2stim_asymm_v5,2020.2.10,Win32,60,61025ae37ef11b136ea224fe,,,,,,,,,2658,41,88,1,0,0,response1disk,,7,1,4,1,0,0,rectangle,1,4,1,0,0,1,4,1,0,0,0,119,119,155,1,,,,,,,,
,,,,,,,,,,,,,FF,,,,,,,,0.7668,,,,,,,,,,,,,,,,,,,,,,61034996de4bc91eafb48814,61036a29b33d786f994eba7b,2021-07-29_19h56.48.406,Simcolourproject_2stim_asymm_v5,2020.2.10,Win32,60,61025ae37ef11b136ea224fe,,,,,,,,,1306,-20,-56,1,0,0,response5disk,,3,-5,-13,1,0,0,rectangle,-5,-13,1,0,0,-5,-13,1,0,0,0,120,120,26,1,,,,,,,,
,,,,,,,,,,,,,FF,,,,,,,,1.233,,,,,,,,,,,,,,,,,,,,,,61034996de4bc91eafb48814,61036a29b33d786f994eba7b,2021-07-29_19h56.48.406,Simcolourproject_2stim_asymm_v5,2020.2.10,Win32,60,61025ae37ef11b136ea224fe,,,,,,,,,4156,57,63,1,0,0,response1disk,,7,3,-3,1,0,0,rectangle,3,-3,1,0,0,3,-3,1,0,0,0,121,121,83,1,,,,,,,,
,,,,,,,,,,,,,FF,,,,,,,,0.8,,,,,,,,,,,,,,,,,,,,,,61034996de4bc91eafb48814,61036a29b33d786f994eba7b,2021-07-29_19h56.48.406,Simcolourproject_2stim_asymm_v5,2020.2.10,Win32,60,61025ae37ef11b136ea224fe,,,,,,,,,888,-37,-66,1,0,0,response5disk,,3,-4,-4,1,0,0,rectangle,-4,-4,1,0,0,-4,-4,1,0,0,0,122,122,54,1,,,,,,,,
,,,,,,,,,,,,,FF,,,,,,,,1.6836,,,,,,,,,,,,,,,,,,,,,,61034996de4bc91eafb48814,61036a29b33d786f994eba7b,2021-07-29_19h56.48.406,Simcolourproject_2stim_asymm_v5,2020.2.10,Win32,60,61025ae37ef11b136ea224fe,,,,,,,,,4285,31,89,1,0,0,response1disk,,7,1,8,1,0,0,rectangle,1,8,1,0,0,1,8,1,0,0,0,123,123,37,1,,,,,,,,
,,,,,,,,,,,,,FF,,,,,,,,1.2332,,,,,,,,,,,,,,,,,,,,,,61034996de4bc91eafb48814,61036a29b33d786f994eba7b,2021-07-29_19h56.48.406,Simcolourproject_2stim_asymm_v5,2020.2.10,Win32,60,61025ae37ef11b136ea224fe,,,,,,,,,560,76,48,1,0,0,response1disk,,6,16,5,1,0,0,rectangle,16,5,1,0,0,16,5,1,0,0,0,124,124,80,1,,,,,,,,
,,,,,,,,,,,,,FF,,,,,,,,0.9515,,,,,,,,,,,,,,,,,,,,,,61034996de4bc91eafb48814,61036a29b33d786f994eba7b,2021-07-29_19h56.48.406,Simcolourproject_2stim_asymm_v5,2020.2.10,Win32,60,61025ae37ef11b136ea224fe,,,,,,,,,3330,40,72,1,0,0,response1disk,,7,-7,-10,1,0,0,rectangle,-7,-10,1,0,0,-7,-10,1,0,0,0,125,125,53,1,,,,,,,,
,,,,,,,,,,,,,FF,,,,,,,,1.3,,,,,,,,,,,,,,,,,,,,,,61034996de4bc91eafb48814,61036a29b33d786f994eba7b,2021-07-29_19h56.48.406,Simcolourproject_2stim_asymm_v5,2020.2.10,Win32,60,61025ae37ef11b136ea224fe,,,,,,,,,2783,87,-36,1,0,0,response3disk,,5,1,0,1,0,0,rectangle,1,0,1,0,0,1,0,1,0,0,0,126,126,102,1,,,,,,,,
,,,,,,,,,,,,,FF,,,,,,,,1.3163,,,,,,,,,,,,,,,,,,,,,,61034996de4bc91eafb48814,61036a29b33d786f994eba7b,2021-07-29_19h56.48.406,Simcolourproject_2stim_asymm_v5,2020.2.10,Win32,60,61025ae37ef11b136ea224fe,,,,,,,,,1879,71,-34,1,0,0,response3disk,,5,-15,3,1,0,0,rectangle,-15,3,1,0,0,-15,3,1,0,0,0,127,127,113,1,,,,,,,,
,,,,,,,,,,,,,FF,,,,,,,,0.5505,,,,,,,,,,,,,,,,,,,,,,61034996de4bc91eafb48814,61036a29b33d786f994eba7b,2021-07-29_19h56.48.406,Simcolourproject_2stim_asymm_v5,2020.2.10,Win32,60,61025ae37ef11b136ea224fe,,,,,,,,,4152,31,76,1,0,0,response1disk,,7,6,-5,1,0,0,rectangle,6,-5,1,0,0,6,-5,1,0,0,0,128,128,63,1,,,,,,,,
,,,,,,,,,,,,,FF,,,,,,,,1.4169,,,,,,,,,,,,,,,,,,,,,,61034996de4bc91eafb48814,61036a29b33d786f994eba7b,2021-07-29_19h56.48.406,Simcolourproject_2stim_asymm_v5,2020.2.10,Win32,60,61025ae37ef11b136ea224fe,,,,,,,,,121,83,-29,1,0,0,response3disk,,5,-4,11,1,0,0,rectangle,-4,11,1,0,0,-4,11,1,0,0,0,129,129,72,1,,,,,,,,
,,,,,,,,,,,,,FF,,,,,,,,0.667,,,,,,,,,,,,,,,,,,,,,,61034996de4bc91eafb48814,61036a29b33d786f994eba7b,2021-07-29_19h56.48.406,Simcolourproject_2stim_asymm_v5,2020.2.10,Win32,60,61025ae37ef11b136ea224fe,,,,,,,,,1965,-40,-77,1,0,0,response5disk,,3,1,6,1,0,0,rectangle,1,6,1,0,0,1,6,1,0,0,0,130,130,110,1,,,,,,,,
,,,,,,,,,,,,,FF,,,,,,,,1.7658,,,,,,,,,,,,,,,,,,,,,,61034996de4bc91eafb48814,61036a29b33d786f994eba7b,2021-07-29_19h56.48.406,Simcolourproject_2stim_asymm_v5,2020.2.10,Win32,60,61025ae37ef11b136ea224fe,,,,,,,,,584,39,65,1,0,0,response1disk,,7,8,-3,1,0,0,rectangle,8,-3,1,0,0,8,-3,1,0,0,0,131,131,76,1,,,,,,,,
,,,,,,,,,,,,,FF,,,,,,,,12.364,,,,,,,,,,,,,,,,,,,,,,61034996de4bc91eafb48814,61036a29b33d786f994eba7b,2021-07-29_19h56.48.406,Simcolourproject_2stim_asymm_v5,2020.2.10,Win32,60,61025ae37ef11b136ea224fe,,,,,,,,,2806,112,-73,1,0,0,response3disk,,5,-10,2,1,0,0,rectangle,-10,2,1,0,0,-10,2,1,0,0,0,132,132,66,1,,,,,,,,
,,,,,,,,,,,,,FF,,,,,,,,1.3494,,,,,,,,,,,,,,,,,,,,,,61034996de4bc91eafb48814,61036a29b33d786f994eba7b,2021-07-29_19h56.48.406,Simcolourproject_2stim_asymm_v5,2020.2.10,Win32,60,61025ae37ef11b136ea224fe,,,,,,,,,1645,88,47,1,0,0,response1disk,,6,-25,-6,1,0,0,rectangle,-25,-6,1,0,0,-25,-6,1,0,0,0,133,133,40,1,,,,,,,,
,,,,,,,,,,,,,FF,,,,,,,,1.8827,,,,,,,,,,,,,,,,,,,,,,61034996de4bc91eafb48814,61036a29b33d786f994eba7b,2021-07-29_19h56.48.406,Simcolourproject_2stim_asymm_v5,2020.2.10,Win32,60,61025ae37ef11b136ea224fe,,,,,,,,,298,80,-24,1,0,0,response3disk,,5,14,4,1,0,0,rectangle,14,4,1,0,0,14,4,1,0,0,0,134,134,148,1,,,,,,,,
,,,,,,,,,,,,,FF,,,,,,,,1.25,,,,,,,,,,,,,,,,,,,,,,61034996de4bc91eafb48814,61036a29b33d786f994eba7b,2021-07-29_19h56.48.406,Simcolourproject_2stim_asymm_v5,2020.2.10,Win32,60,61025ae37ef11b136ea224fe,,,,,,,,,1240,72,-28,1,0,0,response3disk,,5,4,3,1,0,0,rectangle,4,3,1,0,0,4,3,1,0,0,0,135,135,55,1,,,,,,,,
,,,,,,,,,,,,,FF,,,,,,,,0.9332,,,,,,,,,,,,,,,,,,,,,,61034996de4bc91eafb48814,61036a29b33d786f994eba7b,2021-07-29_19h56.48.406,Simcolourproject_2stim_asymm_v5,2020.2.10,Win32,60,61025ae37ef11b136ea224fe,,,,,,,,,981,65,-25,1,0,0,response3disk,,5,7,4,1,0,0,rectangle,7,4,1,0,0,7,4,1,0,0,0,136,136,104,1,,,,,,,,
,,,,,,,,,,,,,FF,,,,,,,,1.533,,,,,,,,,,,,,,,,,,,,,,61034996de4bc91eafb48814,61036a29b33d786f994eba7b,2021-07-29_19h56.48.406,Simcolourproject_2stim_asymm_v5,2020.2.10,Win32,60,61025ae37ef11b136ea224fe,,,,,,,,,675,38,87,1,0,0,response1disk,,7,-1,1,1,0,0,rectangle,-1,1,1,0,0,-1,1,1,0,0,0,137,137,87,1,,,,,,,,
,,,,,,,,,,,,,FF,,,,,,,,1.0997,,,,,,,,,,,,,,,,,,,,,,61034996de4bc91eafb48814,61036a29b33d786f994eba7b,2021-07-29_19h56.48.406,Simcolourproject_2stim_asymm_v5,2020.2.10,Win32,60,61025ae37ef11b136ea224fe,,,,,,,,,4000,-52,-96,1,0,0,response5disk,,3,4,-10,1,0,0,rectangle,4,-10,1,0,0,4,-10,1,0,0,0,138,138,60,1,,,,,,,,
,,,,,,,,,,,,,FF,,,,,,,,2.183,,,,,,,,,,,,,,,,,,,,,,61034996de4bc91eafb48814,61036a29b33d786f994eba7b,2021-07-29_19h56.48.406,Simcolourproject_2stim_asymm_v5,2020.2.10,Win32,60,61025ae37ef11b136ea224fe,,,,,,,,,951,44,-71,1,0,0,response3disk,,4,-4,5,1,0,0,rectangle,-4,5,1,0,0,-4,5,1,0,0,0,139,139,57,1,,,,,,,,
,,,,,,,,,,,,,FF,,,,,,,,2.1825,,,,,,,,,,,,,,,,,,,,,,61034996de4bc91eafb48814,61036a29b33d786f994eba7b,2021-07-29_19h56.48.406,Simcolourproject_2stim_asymm_v5,2020.2.10,Win32,60,61025ae37ef11b136ea224fe,,,,,,,,,1101,99,-92,1,0,0,response3disk,,5,10,-4,1,0,0,rectangle,10,-4,1,0,0,10,-4,1,0,0,0,140,140,112,1,,,,,,,,
,,,,,,,,,,,,,FF,,,,,,,,1.0004,,,,,,,,,,,,,,,,,,,,,,61034996de4bc91eafb48814,61036a29b33d786f994eba7b,2021-07-29_19h56.48.406,Simcolourproject_2stim_asymm_v5,2020.2.10,Win32,60,61025ae37ef11b136ea224fe,,,,,,,,,2833,-74,-33,1,0,0,response5disk,,2,1,7,1,0,0,rectangle,1,7,1,0,0,1,7,1,0,0,0,141,141,18,1,,,,,,,,
,,,,,,,,,,,,,FF,,,,,,,,1.9165,,,,,,,,,,,,,,,,,,,,,,61034996de4bc91eafb48814,61036a29b33d786f994eba7b,2021-07-29_19h56.48.406,Simcolourproject_2stim_asymm_v5,2020.2.10,Win32,60,61025ae37ef11b136ea224fe,,,,,,,,,4173,36,93,1,0,0,response1disk,,7,10,-12,1,0,0,rectangle,10,-12,1,0,0,10,-12,1,0,0,0,142,142,91,1,,,,,,,,
,,,,,,,,,,,,,FF,,,,,,,,1.0834,,,,,,,,,,,,,,,,,,,,,,61034996de4bc91eafb48814,61036a29b33d786f994eba7b,2021-07-29_19h56.48.406,Simcolourproject_2stim_asymm_v5,2020.2.10,Win32,60,61025ae37ef11b136ea224fe,,,,,,,,,3631,57,-58,1,0,0,response3disk,,4,-2,11,1,0,0,rectangle,-2,11,1,0,0,-2,11,1,0,0,0,143,143,140,1,,,,,,,,
,,,,,,,,,,,,,FF,,,,,,,,1.5499,,,,,,,,,,,,,,,,,,,,,,61034996de4bc91eafb48814,61036a29b33d786f994eba7b,2021-07-29_19h56.48.406,Simcolourproject_2stim_asymm_v5,2020.2.10,Win32,60,61025ae37ef11b136ea224fe,,,,,,,,,2059,48,80,1,0,0,response1disk,,7,5,1,1,0,0,rectangle,5,1,1,0,0,5,1,1,0,0,0,144,144,93,1,,,,,,,,
,,,,,,,,,,,,,FF,,,,,,,,1.2336,,,,,,,,,,,,,,,,,,,,,,61034996de4bc91eafb48814,61036a29b33d786f994eba7b,2021-07-29_19h56.48.406,Simcolourproject_2stim_asymm_v5,2020.2.10,Win32,60,61025ae37ef11b136ea224fe,,,,,,,,,3443,-89,-57,1,0,0,response5disk,,2,-2,1,1,0,0,rectangle,-2,1,1,0,0,-2,1,1,0,0,0,145,145,137,1,,,,,,,,
,,,,,,,,,,,,,FF,,,,,,,,1.9165,,,,,,,,,,,,,,,,,,,,,,61034996de4bc91eafb48814,61036a29b33d786f994eba7b,2021-07-29_19h56.48.406,Simcolourproject_2stim_asymm_v5,2020.2.10,Win32,60,61025ae37ef11b136ea224fe,,,,,,,,,2664,-74,-39,1,0,0,response5disk,,2,-8,10,1,0,0,rectangle,-8,10,1,0,0,-8,10,1,0,0,0,146,146,141,1,,,,,,,,
,,,,,,,,,,,,,FF,,,,,,,,1.816,,,,,,,,,,,,,,,,,,,,,,61034996de4bc91eafb48814,61036a29b33d786f994eba7b,2021-07-29_19h56.48.406,Simcolourproject_2stim_asymm_v5,2020.2.10,Win32,60,61025ae37ef11b136ea224fe,,,,,,,,,2985,-63,-18,1,0,0,response5disk,,2,32,5,1,0,0,rectangle,32,5,1,0,0,32,5,1,0,0,0,147,147,130,1,,,,,,,,
,,,,,,,,,,,,,FF,,,,,,,,5.0323,,,,,,,,,,,,,,,,,,,,,,61034996de4bc91eafb48814,61036a29b33d786f994eba7b,2021-07-29_19h56.48.406,Simcolourproject_2stim_asymm_v5,2020.2.10,Win32,60,61025ae37ef11b136ea224fe,,,,,,,,,2968,85,49,1,0,0,response1disk,,6,9,1,1,0,0,rectangle,9,1,1,0,0,9,1,1,0,0,0,148,148,139,1,,,,,,,,
,,,,,,,,,,,,,FF,,,,,,,,0.7332,,,,,,,,,,,,,,,,,,,,,,61034996de4bc91eafb48814,61036a29b33d786f994eba7b,2021-07-29_19h56.48.406,Simcolourproject_2stim_asymm_v5,2020.2.10,Win32,60,61025ae37ef11b136ea224fe,,,,,,,,,2583,30,82,1,0,0,response1disk,,7,3,4,1,0,0,rectangle,3,4,1,0,0,3,4,1,0,0,0,149,149,2,1,,,,,,,,
,,,,,,,,,,,,,FF,,,,,,,,1.4664,,,,,,,,,,,,,,,,,,,,,,61034996de4bc91eafb48814,61036a29b33d786f994eba7b,2021-07-29_19h56.48.406,Simcolourproject_2stim_asymm_v5,2020.2.10,Win32,60,61025ae37ef11b136ea224fe,,,,,,,,,1586,-47,-86,1,0,0,response5disk,,3,5,13,1,0,0,rectangle,5,13,1,0,0,5,13,1,0,0,0,150,150,34,1,,,,,,,,
,,,,,,,,,,,,,FF,,,,,,,,1.3169,,,,,,,,,,,,,,,,,,,,,,61034996de4bc91eafb48814,61036a29b33d786f994eba7b,2021-07-29_19h56.48.406,Simcolourproject_2stim_asymm_v5,2020.2.10,Win32,60,61025ae37ef11b136ea224fe,,,,,,,,,2527,91,41,1,0,0,response1disk,,6,12,-10,1,0,0,rectangle,12,-10,1,0,0,12,-10,1,0,0,0,151,151,15,1,,,,,,,,
,,,,,,,,,,,,,FF,,,,,,,,11.8644,,,,,,,,,,,,,,,,,,,,,,61034996de4bc91eafb48814,61036a29b33d786f994eba7b,2021-07-29_19h56.48.406,Simcolourproject_2stim_asymm_v5,2020.2.10,Win32,60,61025ae37ef11b136ea224fe,,,,,,,,,211,84,47,1,0,0,response1disk,,6,3,1,1,0,0,rectangle,3,1,1,0,0,3,1,1,0,0,0,152,152,61,1,,,,,,,,
,,,,,,,,,,,,,FF,,,,,,,,1.6164,,,,,,,,,,,,,,,,,,,,,,61034996de4bc91eafb48814,61036a29b33d786f994eba7b,2021-07-29_19h56.48.406,Simcolourproject_2stim_asymm_v5,2020.2.10,Win32,60,61025ae37ef11b136ea224fe,,,,,,,,,52,90,48,1,0,0,response1disk,,6,-1,10,1,0,0,rectangle,-1,10,1,0,0,-1,10,1,0,0,0,153,153,74,1,,,,,,,,
,,,,,,,,,,,,,FF,,,,,,,,0.9827,,,,,,,,,,,,,,,,,,,,,,61034996de4bc91eafb48814,61036a29b33d786f994eba7b,2021-07-29_19h56.48.406,Simcolourproject_2stim_asymm_v5,2020.2.10,Win32,60,61025ae37ef11b136ea224fe,,,,,,,,,3089,42,74,1,0,0,response1disk,,7,-1,-3,1,0,0,rectangle,-1,-3,1,0,0,-1,-3,1,0,0,0,154,154,46,1,,,,,,,,
,,,,,,,,,,,,,FF,,,,,,,,2.1828,,,,,,,,,,,,,,,,,,,,,,61034996de4bc91eafb48814,61036a29b33d786f994eba7b,2021-07-29_19h56.48.406,Simcolourproject_2stim_asymm_v5,2020.2.10,Win32,60,61025ae37ef11b136ea224fe,,,,,,,,,44,98,-49,1,0,0,response3disk,,5,3,13,1,0,0,rectangle,3,13,1,0,0,3,13,1,0,0,0,155,155,42,1,,,,,,,,
,,,,,,,,,,,,,FF,,,,,,,,0.8166,,,,,,,,,,,,,,,,,,,,,,61034996de4bc91eafb48814,61036a29b33d786f994eba7b,2021-07-29_19h56.48.406,Simcolourproject_2stim_asymm_v5,2020.2.10,Win32,60,61025ae37ef11b136ea224fe,,,,,,,,,922,32,72,1,0,0,response1disk,,7,15,10,1,0,0,rectangle,15,10,1,0,0,15,10,1,0,0,0,156,156,119,1,,,,,,,,
,,,,,,,,,,,,,FF,,,,,,,,1.2829,,,,,,,,,,,,,,,,,,,,,,61034996de4bc91eafb48814,61036a29b33d786f994eba7b,2021-07-29_19h56.48.406,Simcolourproject_2stim_asymm_v5,2020.2.10,Win32,60,61025ae37ef11b136ea224fe,,,,,,,,,2487,-45,-94,1,0,0,response5disk,,3,4,-2,1,0,0,rectangle,4,-2,1,0,0,4,-2,1,0,0,0,157,157,136,1,,,,,,,,
,,,,,,,,,,,,,FF,,,,,,,,2.3326,,,,,,,,,,,,,,,,,,,,,,61034996de4bc91eafb48814,61036a29b33d786f994eba7b,2021-07-29_19h56.48.406,Simcolourproject_2stim_asymm_v5,2020.2.10,Win32,60,61025ae37ef11b136ea224fe,,,,,,,,,2073,44,85,1,0,0,response1disk,,7,-1,-6,1,0,0,rectangle,-1,-6,1,0,0,-1,-6,1,0,0,0,158,158,1,1,,,,,,,,
,,,,,,,,,,,,,FF,,,,,,,,1.1334,,,,,,,,,,,,,,,,,,,,,,61034996de4bc91eafb48814,61036a29b33d786f994eba7b,2021-07-29_19h56.48.406,Simcolourproject_2stim_asymm_v5,2020.2.10,Win32,60,61025ae37ef11b136ea224fe,,,,,,,,,1970,-68,40,1,0,0,response7disk,,1,-1,-3,1,0,0,rectangle,-1,-3,1,0,0,-1,-3,1,0,0,0,159,159,43,1,,,,,,,,
,,,,,,,,,,,,,FF,,,,,,,,0.8996,,,,,,,,,,,,,,,,,,,,,,61034996de4bc91eafb48814,61036a29b33d786f994eba7b,2021-07-29_19h56.48.406,Simcolourproject_2stim_asymm_v5,2020.2.10,Win32,60,61025ae37ef11b136ea224fe,,,,,,,,,2691,38,62,1,0,0,response1disk,,7,17,-8,1,0,0,rectangle,17,-8,1,0,0,17,-8,1,0,0,1,0,160,135,1,,,,,,,,
,,,,,,,,,,,,,FF,,,,,,,,0.7996,,,,,,,,,,,,,,,,,,,,,,61034996de4bc91eafb48814,61036a29b33d786f994eba7b,2021-07-29_19h56.48.406,Simcolourproject_2stim_asymm_v5,2020.2.10,Win32,60,61025ae37ef11b136ea224fe,,,,,,,,,1364,-49,-87,1,0,0,response5disk,,3,-1,15,1,0,0,rectangle,-1,15,1,0,0,-1,15,1,0,0,1,1,161,64,1,,,,,,,,
,,,,,,,,,,,,,FF,,,,,,,,2.9659,,,,,,,,,,,,,,,,,,,,,,61034996de4bc91eafb48814,61036a29b33d786f994eba7b,2021-07-29_19h56.48.406,Simcolourproject_2stim_asymm_v5,2020.2.10,Win32,60,61025ae37ef11b136ea224fe,,,,,,,,,3722,39,-83,1,0,0,response3disk,,4,11,-2,1,0,0,rectangle,11,-2,1,0,0,11,-2,1,0,0,1,2,162,144,1,,,,,,,,
,,,,,,,,,,,,,FF,,,,,,,,1.2336,,,,,,,,,,,,,,,,,,,,,,61034996de4bc91eafb48814,61036a29b33d786f994eba7b,2021-07-29_19h56.48.406,Simcolourproject_2stim_asymm_v5,2020.2.10,Win32,60,61025ae37ef11b136ea224fe,,,,,,,,,3679,-91,-29,1,0,0,response5disk,,2,9,11,1,0,0,rectangle,79,48,1,0,0,4,0,1,0,0,1,3,163,98,1,,response1disk_3,TRUE,6,6,"[197,241,210,294,225,97,208,104,100,81,26,283,208,35,60,27,282,12,249,164]",2.3998,rectangle
,,,,,,,,,,,,,FF,,,,,,,,2.166,,,,,,,,,,,,,,,,,,,,,,61034996de4bc91eafb48814,61036a29b33d786f994eba7b,2021-07-29_19h56.48.406,Simcolourproject_2stim_asymm_v5,2020.2.10,Win32,60,61025ae37ef11b136ea224fe,,,,,,,,,2491,97,-50,1,0,0,response3disk,,5,22,-5,1,0,0,rectangle,22,-5,1,0,0,22,-5,1,0,0,1,4,164,155,1,,,,,,,,
,,,,,,,,,,,,,FF,,,,,,,,0.9663,,,,,,,,,,,,,,,,,,,,,,61034996de4bc91eafb48814,61036a29b33d786f994eba7b,2021-07-29_19h56.48.406,Simcolourproject_2stim_asymm_v5,2020.2.10,Win32,60,61025ae37ef11b136ea224fe,,,,,,,,,3980,-42,-63,1,0,0,response5disk,,3,8,1,1,0,0,rectangle,8,1,1,0,0,8,1,1,0,0,1,5,165,63,1,,,,,,,,
,,,,,,,,,,,,,FF,,,,,,,,0.7993,,,,,,,,,,,,,,,,,,,,,,61034996de4bc91eafb48814,61036a29b33d786f994eba7b,2021-07-29_19h56.48.406,Simcolourproject_2stim_asymm_v5,2020.2.10,Win32,60,61025ae37ef11b136ea224fe,,,,,,,,,3182,36,49,1,0,0,response1disk,,7,16,-11,1,0,0,rectangle,16,-11,1,0,0,16,-11,1,0,0,1,6,166,91,1,,,,,,,,
,,,,,,,,,,,,,FF,,,,,,,,1.3838,,,,,,,,,,,,,,,,,,,,,,61034996de4bc91eafb48814,61036a29b33d786f994eba7b,2021-07-29_19h56.48.406,Simcolourproject_2stim_asymm_v5,2020.2.10,Win32,60,61025ae37ef11b136ea224fe,,,,,,,,,1035,85,-47,1,0,0,response3disk,,5,8,-2,1,0,0,rectangle,8,-2,1,0,0,8,-2,1,0,0,1,7,167,156,1,,,,,,,,
,,,,,,,,,,,,,FF,,,,,,,,5.5649,,,,,,,,,,,,,,,,,,,,,,61034996de4bc91eafb48814,61036a29b33d786f994eba7b,2021-07-29_19h56.48.406,Simcolourproject_2stim_asymm_v5,2020.2.10,Win32,60,61025ae37ef11b136ea224fe,,,,,,,,,1568,81,-24,1,0,0,response3disk,,5,-16,-2,1,0,0,rectangle,-16,-2,1,0,0,-16,-2,1,0,0,1,8,168,141,1,,,,,,,,
,,,,,,,,,,,,,FF,,,,,,,,0.8497,,,,,,,,,,,,,,,,,,,,,,61034996de4bc91eafb48814,61036a29b33d786f994eba7b,2021-07-29_19h56.48.406,Simcolourproject_2stim_asymm_v5,2020.2.10,Win32,60,61025ae37ef11b136ea224fe,,,,,,,,,4369,-46,70,1,0,0,response7disk,,0,-32,-1,1,0,0,rectangle,-32,-1,1,0,0,-32,-1,1,0,0,1,9,169,15,1,,,,,,,,
,,,,,,,,,,,,,FF,,,,,,,,1.7834,,,,,,,,,,,,,,,,,,,,,,61034996de4bc91eafb48814,61036a29b33d786f994eba7b,2021-07-29_19h56.48.406,Simcolourproject_2stim_asymm_v5,2020.2.10,Win32,60,61025ae37ef11b136ea224fe,,,,,,,,,3833,39,76,1,0,0,response1disk,,7,-7,-7,1,0,0,rectangle,-7,-7,1,0,0,-7,-7,1,0,0,1,10,170,22,1,,,,,,,,
,,,,,,,,,,,,,FF,,,,,,,,0.8335,,,,,,,,,,,,,,,,,,,,,,61034996de4bc91eafb48814,61036a29b33d786f994eba7b,2021-07-29_19h56.48.406,Simcolourproject_2stim_asymm_v5,2020.2.10,Win32,60,61025ae37ef11b136ea224fe,,,,,,,,,1791,34,80,1,0,0,response1disk,,7,8,0,1,0,0,rectangle,8,0,1,0,0,8,0,1,0,0,1,11,171,119,1,,,,,,,,
,,,,,,,,,,,,,FF,,,,,,,,0.8331,,,,,,,,,,,,,,,,,,,,,,61034996de4bc91eafb48814,61036a29b33d786f994eba7b,2021-07-29_19h56.48.406,Simcolourproject_2stim_asymm_v5,2020.2.10,Win32,60,61025ae37ef11b136ea224fe,,,,,,,,,2578,42,95,1,0,0,response1disk,,7,14,-2,1,0,0,rectangle,14,-2,1,0,0,14,-2,1,0,0,1,12,172,5,1,,,,,,,,
,,,,,,,,,,,,,FF,,,,,,,,0.6497,,,,,,,,,,,,,,,,,,,,,,61034996de4bc91eafb48814,61036a29b33d786f994eba7b,2021-07-29_19h56.48.406,Simcolourproject_2stim_asymm_v5,2020.2.10,Win32,60,61025ae37ef11b136ea224fe,,,,,,,,,4037,42,83,1,0,0,response1disk,,7,7,6,1,0,0,rectangle,7,6,1,0,0,7,6,1,0,0,1,13,173,81,1,,,,,,,,
,,,,,,,,,,,,,FF,,,,,,,,1.183,,,,,,,,,,,,,,,,,,,,,,61034996de4bc91eafb48814,61036a29b33d786f994eba7b,2021-07-29_19h56.48.406,Simcolourproject_2stim_asymm_v5,2020.2.10,Win32,60,61025ae37ef11b136ea224fe,,,,,,,,,463,-37,-80,1,0,0,response5disk,,3,2,1,1,0,0,rectangle,2,1,1,0,0,2,1,1,0,0,1,14,174,76,1,,,,,,,,
,,,,,,,,,,,,,FF,,,,,,,,0.8668,,,,,,,,,,,,,,,,,,,,,,61034996de4bc91eafb48814,61036a29b33d786f994eba7b,2021-07-29_19h56.48.406,Simcolourproject_2stim_asymm_v5,2020.2.10,Win32,60,61025ae37ef11b136ea224fe,,,,,,,,,4178,45,90,1,0,0,response1disk,,7,13,-5,1,0,0,rectangle,13,-5,1,0,0,13,-5,1,0,0,1,15,175,69,1,,,,,,,,
,,,,,,,,,,,,,FF,,,,,,,,2.7495,,,,,,,,,,,,,,,,,,,,,,61034996de4bc91eafb48814,61036a29b33d786f994eba7b,2021-07-29_19h56.48.406,Simcolourproject_2stim_asymm_v5,2020.2.10,Win32,60,61025ae37ef11b136ea224fe,,,,,,,,,2920,54,70,1,0,0,response1disk,,7,1,-9,1,0,0,rectangle,1,-9,1,0,0,1,-9,1,0,0,1,16,176,30,1,,,,,,,,
,,,,,,,,,,,,,FF,,,,,,,,0.9162,,,,,,,,,,,,,,,,,,,,,,61034996de4bc91eafb48814,61036a29b33d786f994eba7b,2021-07-29_19h56.48.406,Simcolourproject_2stim_asymm_v5,2020.2.10,Win32,60,61025ae37ef11b136ea224fe,,,,,,,,,2551,87,43,1,0,0,response1disk,,6,11,-6,1,0,0,rectangle,11,-6,1,0,0,11,-6,1,0,0,1,17,177,32,1,,,,,,,,
,,,,,,,,,,,,,FF,,,,,,,,1.0499,,,,,,,,,,,,,,,,,,,,,,61034996de4bc91eafb48814,61036a29b33d786f994eba7b,2021-07-29_19h56.48.406,Simcolourproject_2stim_asymm_v5,2020.2.10,Win32,60,61025ae37ef11b136ea224fe,,,,,,,,,1679,-44,-68,1,0,0,response5disk,,3,-12,-7,1,0,0,rectangle,-12,-7,1,0,0,-12,-7,1,0,0,1,18,178,14,1,,,,,,,,
,,,,,,,,,,,,,FF,,,,,,,,0.7165,,,,,,,,,,,,,,,,,,,,,,61034996de4bc91eafb48814,61036a29b33d786f994eba7b,2021-07-29_19h56.48.406,Simcolourproject_2stim_asymm_v5,2020.2.10,Win32,60,61025ae37ef11b136ea224fe,,,,,,,,,3046,-74,-33,1,0,0,response5disk,,2,16,4,1,0,0,rectangle,16,4,1,0,0,16,4,1,0,0,1,19,179,158,1,,,,,,,,
,,,,,,,,,,,,,FF,,,,,,,,0.833,,,,,,,,,,,,,,,,,,,,,,61034996de4bc91eafb48814,61036a29b33d786f994eba7b,2021-07-29_19h56.48.406,Simcolourproject_2stim_asymm_v5,2020.2.10,Win32,60,61025ae37ef11b136ea224fe,,,,,,,,,1904,-38,-95,1,0,0,response5disk,,3,14,-7,1,0,0,rectangle,14,-7,1,0,0,14,-7,1,0,0,1,20,180,126,1,,,,,,,,
,,,,,,,,,,,,,FF,,,,,,,,0.7996,,,,,,,,,,,,,,,,,,,,,,61034996de4bc91eafb48814,61036a29b33d786f994eba7b,2021-07-29_19h56.48.406,Simcolourproject_2stim_asymm_v5,2020.2.10,Win32,60,61025ae37ef11b136ea224fe,,,,,,,,,3564,-41,-61,1,0,0,response5disk,,3,5,7,1,0,0,rectangle,5,7,1,0,0,5,7,1,0,0,1,21,181,73,1,,,,,,,,
,,,,,,,,,,,,,FF,,,,,,,,0.8165,,,,,,,,,,,,,,,,,,,,,,61034996de4bc91eafb48814,61036a29b33d786f994eba7b,2021-07-29_19h56.48.406,Simcolourproject_2stim_asymm_v5,2020.2.10,Win32,60,61025ae37ef11b136ea224fe,,,,,,,,,3151,-80,-45,1,0,0,response5disk,,2,-3,8,1,0,0,rectangle,-3,8,1,0,0,-3,8,1,0,0,1,22,182,124,1,,,,,,,,
,,,,,,,,,,,,,FF,,,,,,,,1.8329,,,,,,,,,,,,,,,,,,,,,,61034996de4bc91eafb48814,61036a29b33d786f994eba7b,2021-07-29_19h56.48.406,Simcolourproject_2stim_asymm_v5,2020.2.10,Win32,60,61025ae37ef11b136ea224fe,,,,,,,,,937,84,44,1,0,0,response1disk,,6,16,-4,1,0,0,rectangle,16,-4,1,0,0,16,-4,1,0,0,1,23,183,35,1,,,,,,,,
,,,,,,,,,,,,,FF,,,,,,,,1.8662,,,,,,,,,,,,,,,,,,,,,,61034996de4bc91eafb48814,61036a29b33d786f994eba7b,2021-07-29_19h56.48.406,Simcolourproject_2stim_asymm_v5,2020.2.10,Win32,60,61025ae37ef11b136ea224fe,,,,,,,,,682,55,-35,1,0,0,response3disk,,5,-9,0,1,0,0,rectangle,-9,0,1,0,0,-9,0,1,0,0,1,24,184,41,1,,,,,,,,
,,,,,,,,,,,,,FF,,,,,,,,1.5997,,,,,,,,,,,,,,,,,,,,,,61034996de4bc91eafb48814,61036a29b33d786f994eba7b,2021-07-29_19h56.48.406,Simcolourproject_2stim_asymm_v5,2020.2.10,Win32,60,61025ae37ef11b136ea224fe,,,,,,,,,3901,-29,-67,1,0,0,response5disk,,3,10,5,1,0,0,rectangle,10,5,1,0,0,10,5,1,0,0,1,25,185,53,1,,,,,,,,
,,,,,,,,,,,,,FF,,,,,,,,3.8658,,,,,,,,,,,,,,,,,,,,,,61034996de4bc91eafb48814,61036a29b33d786f994eba7b,2021-07-29_19h56.48.406,Simcolourproject_2stim_asymm_v5,2020.2.10,Win32,60,61025ae37ef11b136ea224fe,,,,,,,,,3013,84,49,1,0,0,response1disk,,6,3,2,1,0,0,rectangle,3,2,1,0,0,3,2,1,0,0,1,26,186,17,1,,,,,,,,
,,,,,,,,,,,,,FF,,,,,,,,1.5164,,,,,,,,,,,,,,,,,,,,,,61034996de4bc91eafb48814,61036a29b33d786f994eba7b,2021-07-29_19h56.48.406,Simcolourproject_2stim_asymm_v5,2020.2.10,Win32,60,61025ae37ef11b136ea224fe,,,,,,,,,3094,-38,-61,1,0,0,response5disk,,3,19,12,1,0,0,rectangle,19,12,1,0,0,19,12,1,0,0,1,27,187,128,1,,,,,,,,
,,,,,,,,,,,,,FF,,,,,,,,2.4997,,,,,,,,,,,,,,,,,,,,,,61034996de4bc91eafb48814,61036a29b33d786f994eba7b,2021-07-29_19h56.48.406,Simcolourproject_2stim_asymm_v5,2020.2.10,Win32,60,61025ae37ef11b136ea224fe,,,,,,,,,2764,98,60,1,0,0,response1disk,,6,16,1,1,0,0,rectangle,16,1,1,0,0,16,1,1,0,0,1,28,188,1,1,,,,,,,,
,,,,,,,,,,,,,FF,,,,,,,,8.2485,,,,,,,,,,,,,,,,,,,,,,61034996de4bc91eafb48814,61036a29b33d786f994eba7b,2021-07-29_19h56.48.406,Simcolourproject_2stim_asymm_v5,2020.2.10,Win32,60,61025ae37ef11b136ea224fe,,,,,,,,,3759,83,44,1,0,0,response1disk,,6,19,7,1,0,0,rectangle,19,7,1,0,0,19,7,1,0,0,1,29,189,134,1,,,,,,,,
,,,,,,,,,,,,,FF,,,,,,,,3.5989,,,,,,,,,,,,,,,,,,,,,,61034996de4bc91eafb48814,61036a29b33d786f994eba7b,2021-07-29_19h56.48.406,Simcolourproject_2stim_asymm_v5,2020.2.10,Win32,60,61025ae37ef11b136ea224fe,,,,,,,,,1259,46,72,1,0,0,response1disk,,7,-7,4.5,1,0,0,rectangle,-7,4.5,1,0,0,-7,4.5,1,0,0,1,30,190,109,1,,,,,,,,
,,,,,,,,,,,,,FF,,,,,,,,2.0176,,,,,,,,,,,,,,,,,,,,,,61034996de4bc91eafb48814,61036a29b33d786f994eba7b,2021-07-29_19h56.48.406,Simcolourproject_2stim_asymm_v5,2020.2.10,Win32,60,61025ae37ef11b136ea224fe,,,,,,,,,2252,74,-51.5,1,0,0,response3disk,,5,3,8.5,1,0,0,rectangle,3,8.5,1,0,0,3,8.5,1,0,0,1,31,191,7,1,,,,,,,,
,,,,,,,,,,,,,FF,,,,,,,,0.9006,,,,,,,,,,,,,,,,,,,,,,61034996de4bc91eafb48814,61036a29b33d786f994eba7b,2021-07-29_19h56.48.406,Simcolourproject_2stim_asymm_v5,2020.2.10,Win32,60,61025ae37ef11b136ea224fe,,,,,,,,,555,-27,-53.5,1,0,0,response5disk,,3,0,-6.5,1,0,0,rectangle,0,-6.5,1,0,0,0,-6.5,1,0,0,1,32,192,11,1,,,,,,,,
,,,,,,,,,,,,,FF,,,,,,,,2.0336,,,,,,,,,,,,,,,,,,,,,,61034996de4bc91eafb48814,61036a29b33d786f994eba7b,2021-07-29_19h56.48.406,Simcolourproject_2stim_asymm_v5,2020.2.10,Win32,60,61025ae37ef11b136ea224fe,,,,,,,,,4299,43,-78.5,1,0,0,response3disk,,4,11,3.5,1,0,0,rectangle,11,3.5,1,0,0,11,3.5,1,0,0,1,33,193,18,1,,,,,,,,
,,,,,,,,,,,,,FF,,,,,,,,0.9337,,,,,,,,,,,,,,,,,,,,,,61034996de4bc91eafb48814,61036a29b33d786f994eba7b,2021-07-29_19h56.48.406,Simcolourproject_2stim_asymm_v5,2020.2.10,Win32,60,61025ae37ef11b136ea224fe,,,,,,,,,3616,113,-48.5,1,0,0,response3disk,,5,10,-6.5,1,0,0,rectangle,10,-6.5,1,0,0,10,-6.5,1,0,0,1,34,194,106,1,,,,,,,,
,,,,,,,,,,,,,FF,,,,,,,,2.0359,,,,,,,,,,,,,,,,,,,,,,61034996de4bc91eafb48814,61036a29b33d786f994eba7b,2021-07-29_19h56.48.406,Simcolourproject_2stim_asymm_v5,2020.2.10,Win32,60,61025ae37ef11b136ea224fe,,,,,,,,,1822,-86,40.5,1,0,0,response7disk,,1,-17,-1.5,1,0,0,rectangle,-17,-1.5,1,0,0,-17,-1.5,1,0,0,1,35,195,152,1,,,,,,,,
,,,,,,,,,,,,,FF,,,,,,,,1.7667,,,,,,,,,,,,,,,,,,,,,,61034996de4bc91eafb48814,61036a29b33d786f994eba7b,2021-07-29_19h56.48.406,Simcolourproject_2stim_asymm_v5,2020.2.10,Win32,60,61025ae37ef11b136ea224fe,,,,,,,,,3126,79,55.5,1,0,0,response1disk,,6,-2,-2.5,1,0,0,rectangle,-31,-87.5,1,0,0,-6,0.5,1,0,0,1,36,196,154,1,,response5disk_3,TRUE,3,3,"[197,241,210,294,225,97,208,104,100,81,26,283,208,35,60,27,282,12,249,164]",2.8665,rectangle
,,,,,,,,,,,,,FF,,,,,,,,1.0493,,,,,,,,,,,,,,,,,,,,,,61034996de4bc91eafb48814,61036a29b33d786f994eba7b,2021-07-29_19h56.48.406,Simcolourproject_2stim_asymm_v5,2020.2.10,Win32,60,61025ae37ef11b136ea224fe,,,,,,,,,644,60,-94.5,1,0,0,response3disk,,4,4,-1.5,1,0,0,rectangle,4,-1.5,1,0,0,4,-1.5,1,0,0,1,37,197,78,1,,,,,,,,
,,,,,,,,,,,,,FF,,,,,,,,1.7159,,,,,,,,,,,,,,,,,,,,,,61034996de4bc91eafb48814,61036a29b33d786f994eba7b,2021-07-29_19h56.48.406,Simcolourproject_2stim_asymm_v5,2020.2.10,Win32,60,61025ae37ef11b136ea224fe,,,,,,,,,1230,-30,-67.5,1,0,0,response5disk,,3,4,6.5,1,0,0,rectangle,4,6.5,1,0,0,4,6.5,1,0,0,1,38,198,115,1,,,,,,,,
,,,,,,,,,,,,,FF,,,,,,,,0.8642,,,,,,,,,,,,,,,,,,,,,,61034996de4bc91eafb48814,61036a29b33d786f994eba7b,2021-07-29_19h56.48.406,Simcolourproject_2stim_asymm_v5,2020.2.10,Win32,60,61025ae37ef11b136ea224fe,,,,,,,,,2743,80,43.5,1,0,0,response1disk,,6,-5,2.5,1,0,0,rectangle,-5,2.5,1,0,0,-5,2.5,1,0,0,1,39,199,40,1,,,,,,,,
,,,,,,,,,,,,,FF,,,,,,,,1.6833,,,,,,,,,,,,,,,,,,,,,,61034996de4bc91eafb48814,61036a29b33d786f994eba7b,2021-07-29_19h56.48.406,Simcolourproject_2stim_asymm_v5,2020.2.10,Win32,60,61025ae37ef11b136ea224fe,,,,,,,,,1864,106,55.5,1,0,0,response1disk,,6,13,-9.5,1,0,0,rectangle,13,-9.5,1,0,0,13,-9.5,1,0,0,1,40,200,71,1,,,,,,,,
,,,,,,,,,,,,,FF,,,,,,,,1.0176,,,,,,,,,,,,,,,,,,,,,,61034996de4bc91eafb48814,61036a29b33d786f994eba7b,2021-07-29_19h56.48.406,Simcolourproject_2stim_asymm_v5,2020.2.10,Win32,60,61025ae37ef11b136ea224fe,,,,,,,,,3612,61,30.5,1,0,0,response1disk,,6,6,-5.5,1,0,0,rectangle,6,-5.5,1,0,0,6,-5.5,1,0,0,1,41,201,90,1,,,,,,,,
,,,,,,,,,,,,,FF,,,,,,,,0.935,,,,,,,,,,,,,,,,,,,,,,61034996de4bc91eafb48814,61036a29b33d786f994eba7b,2021-07-29_19h56.48.406,Simcolourproject_2stim_asymm_v5,2020.2.10,Win32,60,61025ae37ef11b136ea224fe,,,,,,,,,3559,-68,-34.5,1,0,0,response5disk,,2,-2,-3.5,1,0,0,rectangle,-2,-3.5,1,0,0,-2,-3.5,1,0,0,1,42,202,114,1,,,,,,,,
,,,,,,,,,,,,,FF,,,,,,,,1.2507,,,,,,,,,,,,,,,,,,,,,,61034996de4bc91eafb48814,61036a29b33d786f994eba7b,2021-07-29_19h56.48.406,Simcolourproject_2stim_asymm_v5,2020.2.10,Win32,60,61025ae37ef11b136ea224fe,,,,,,,,,2258,91,-48.5,1,0,0,response3disk,,5,16,-3.5,1,0,0,rectangle,16,-3.5,1,0,0,16,-3.5,1,0,0,1,43,203,84,1,,,,,,,,
,,,,,,,,,,,,,FF,,,,,,,,1.8997,,,,,,,,,,,,,,,,,,,,,,61034996de4bc91eafb48814,61036a29b33d786f994eba7b,2021-07-29_19h56.48.406,Simcolourproject_2stim_asymm_v5,2020.2.10,Win32,60,61025ae37ef11b136ea224fe,,,,,,,,,829,98,56.5,1,0,0,response1disk,,6,7,0.5,1,0,0,rectangle,7,0.5,1,0,0,7,0.5,1,0,0,1,44,204,100,1,,,,,,,,
,,,,,,,,,,,,,FF,,,,,,,,0.7506,,,,,,,,,,,,,,,,,,,,,,61034996de4bc91eafb48814,61036a29b33d786f994eba7b,2021-07-29_19h56.48.406,Simcolourproject_2stim_asymm_v5,2020.2.10,Win32,60,61025ae37ef11b136ea224fe,,,,,,,,,842,35,67.5,1,0,0,response1disk,,7,9,-0.5,1,0,0,rectangle,9,-0.5,1,0,0,9,-0.5,1,0,0,1,45,205,96,1,,,,,,,,
,,,,,,,,,,,,,FF,,,,,,,,0.7998,,,,,,,,,,,,,,,,,,,,,,61034996de4bc91eafb48814,61036a29b33d786f994eba7b,2021-07-29_19h56.48.406,Simcolourproject_2stim_asymm_v5,2020.2.10,Win32,60,61025ae37ef11b136ea224fe,,,,,,,,,3764,38,63.5,1,0,0,response1disk,,7,-1,-0.5,1,0,0,rectangle,-1,-0.5,1,0,0,-1,-0.5,1,0,0,1,46,206,118,1,,,,,,,,
,,,,,,,,,,,,,FF,,,,,,,,0.8334,,,,,,,,,,,,,,,,,,,,,,61034996de4bc91eafb48814,61036a29b33d786f994eba7b,2021-07-29_19h56.48.406,Simcolourproject_2stim_asymm_v5,2020.2.10,Win32,60,61025ae37ef11b136ea224fe,,,,,,,,,960,29,95.5,1,0,0,response1disk,,7,-2,-2.5,1,0,0,rectangle,-35,81.5,1,0,0,-7,4.5,1,0,0,1,47,207,120,1,,response7disk_3,TRUE,0,0,"[197,241,210,294,225,97,208,104,100,81,26,283,208,35,60,27,282,12,249,164]",1.732,rectangle
,,,,,,,,,,,,,FF,,,,,,,,1.9688,,,,,,,,,,,,,,,,,,,,,,61034996de4bc91eafb48814,61036a29b33d786f994eba7b,2021-07-29_19h56.48.406,Simcolourproject_2stim_asymm_v5,2020.2.10,Win32,60,61025ae37ef11b136ea224fe,,,,,,,,,361,37,78.5,1,0,0,response1disk,,7,5,-9.5,1,0,0,rectangle,5,-9.5,1,0,0,5,-9.5,1,0,0,1,48,208,31,1,,,,,,,,
,,,,,,,,,,,,,FF,,,,,,,,0.8669,,,,,,,,,,,,,,,,,,,,,,61034996de4bc91eafb48814,61036a29b33d786f994eba7b,2021-07-29_19h56.48.406,Simcolourproject_2stim_asymm_v5,2020.2.10,Win32,60,61025ae37ef11b136ea224fe,,,,,,,,,2541,-46,58.5,1,0,0,response7disk,,0,-10,-8.5,1,0,0,rectangle,-25,54.5,1,0,0,6,2.5,1,0,0,1,49,209,105,1,,response7disk_3,TRUE,0,0,"[197,241,210,294,225,97,208,104,100,81,26,283,208,35,60,27,282,12,249,164]",1.5996,rectangle
,,,,,,,,,,,,,FF,,,,,,,,1.2831,,,,,,,,,,,,,,,,,,,,,,61034996de4bc91eafb48814,61036a29b33d786f994eba7b,2021-07-29_19h56.48.406,Simcolourproject_2stim_asymm_v5,2020.2.10,Win32,60,61025ae37ef11b136ea224fe,,,,,,,,,86,51,-70.5,1,0,0,response3disk,,4,19,2.5,1,0,0,rectangle,19,2.5,1,0,0,19,2.5,1,0,0,1,50,210,51,1,,,,,,,,
,,,,,,,,,,,,,FF,,,,,,,,0.8478,,,,,,,,,,,,,,,,,,,,,,61034996de4bc91eafb48814,61036a29b33d786f994eba7b,2021-07-29_19h56.48.406,Simcolourproject_2stim_asymm_v5,2020.2.10,Win32,60,61025ae37ef11b136ea224fe,,,,,,,,,270,34,-67.5,1,0,0,response3disk,,4,5,-3.5,1,0,0,rectangle,5,-3.5,1,0,0,5,-3.5,1,0,0,1,51,211,86,1,,,,,,,,
,,,,,,,,,,,,,FF,,,,,,,,1.217,,,,,,,,,,,,,,,,,,,,,,61034996de4bc91eafb48814,61036a29b33d786f994eba7b,2021-07-29_19h56.48.406,Simcolourproject_2stim_asymm_v5,2020.2.10,Win32,60,61025ae37ef11b136ea224fe,,,,,,,,,3165,-34,-62.5,1,0,0,response5disk,,3,2,8.5,1,0,0,rectangle,2,8.5,1,0,0,2,8.5,1,0,0,1,52,212,149,1,,,,,,,,
,,,,,,,,,,,,,FF,,,,,,,,1.7828,,,,,,,,,,,,,,,,,,,,,,61034996de4bc91eafb48814,61036a29b33d786f994eba7b,2021-07-29_19h56.48.406,Simcolourproject_2stim_asymm_v5,2020.2.10,Win32,60,61025ae37ef11b136ea224fe,,,,,,,,,3447,97,-26.5,1,0,0,response3disk,,5,2,8.5,1,0,0,rectangle,2,8.5,1,0,0,2,8.5,1,0,0,1,53,213,3,1,,,,,,,,
,,,,,,,,,,,,,FF,,,,,,,,0.951,,,,,,,,,,,,,,,,,,,,,,61034996de4bc91eafb48814,61036a29b33d786f994eba7b,2021-07-29_19h56.48.406,Simcolourproject_2stim_asymm_v5,2020.2.10,Win32,60,61025ae37ef11b136ea224fe,,,,,,,,,545,-31,-68.5,1,0,0,response5disk,,3,-5,-3.5,1,0,0,rectangle,-5,-3.5,1,0,0,-5,-3.5,1,0,0,1,54,214,50,1,,,,,,,,
,,,,,,,,,,,,,FF,,,,,,,,0.9331,,,,,,,,,,,,,,,,,,,,,,61034996de4bc91eafb48814,61036a29b33d786f994eba7b,2021-07-29_19h56.48.406,Simcolourproject_2stim_asymm_v5,2020.2.10,Win32,60,61025ae37ef11b136ea224fe,,,,,,,,,3832,50,86.5,1,0,0,response1disk,,7,18,4.5,1,0,0,rectangle,18,4.5,1,0,0,18,4.5,1,0,0,1,55,215,8,1,,,,,,,,
,,,,,,,,,,,,,FF,,,,,,,,1.6009,,,,,,,,,,,,,,,,,,,,,,61034996de4bc91eafb48814,61036a29b33d786f994eba7b,2021-07-29_19h56.48.406,Simcolourproject_2stim_asymm_v5,2020.2.10,Win32,60,61025ae37ef11b136ea224fe,,,,,,,,,3064,70,-45.5,1,0,0,response3disk,,5,1,7.5,1,0,0,rectangle,1,7.5,1,0,0,1,7.5,1,0,0,1,56,216,61,1,,,,,,,,
,,,,,,,,,,,,,FF,,,,,,,,1.4505,,,,,,,,,,,,,,,,,,,,,,61034996de4bc91eafb48814,61036a29b33d786f994eba7b,2021-07-29_19h56.48.406,Simcolourproject_2stim_asymm_v5,2020.2.10,Win32,60,61025ae37ef11b136ea224fe,,,,,,,,,375,-62,-24.5,1,0,0,response5disk,,2,-4,1.5,1,0,0,rectangle,-4,1.5,1,0,0,-4,1.5,1,0,0,1,57,217,95,1,,,,,,,,
,,,,,,,,,,,,,FF,,,,,,,,1.1834,,,,,,,,,,,,,,,,,,,,,,61034996de4bc91eafb48814,61036a29b33d786f994eba7b,2021-07-29_19h56.48.406,Simcolourproject_2stim_asymm_v5,2020.2.10,Win32,60,61025ae37ef11b136ea224fe,,,,,,,,,557,65,-33.5,1,0,0,response3disk,,5,12,-5.5,1,0,0,rectangle,12,-5.5,1,0,0,12,-5.5,1,0,0,1,58,218,75,1,,,,,,,,
,,,,,,,,,,,,,FF,,,,,,,,0.7667,,,,,,,,,,,,,,,,,,,,,,61034996de4bc91eafb48814,61036a29b33d786f994eba7b,2021-07-29_19h56.48.406,Simcolourproject_2stim_asymm_v5,2020.2.10,Win32,60,61025ae37ef11b136ea224fe,,,,,,,,,554,53,-29.5,1,0,0,response3disk,,5,22,2.5,1,0,0,rectangle,22,2.5,1,0,0,22,2.5,1,0,0,1,59,219,147,1,,,,,,,,
,,,,,,,,,,,,,FF,,,,,,,,1.1332,,,,,,,,,,,,,,,,,,,,,,61034996de4bc91eafb48814,61036a29b33d786f994eba7b,2021-07-29_19h56.48.406,Simcolourproject_2stim_asymm_v5,2020.2.10,Win32,60,61025ae37ef11b136ea224fe,,,,,,,,,3738,40,85.5,1,0,0,response1disk,,7,9,3.5,1,0,0,rectangle,9,3.5,1,0,0,9,3.5,1,0,0,1,60,220,130,1,,,,,,,,
,,,,,,,,,,,,,FF,,,,,,,,0.9485,,,,,,,,,,,,,,,,,,,,,,61034996de4bc91eafb48814,61036a29b33d786f994eba7b,2021-07-29_19h56.48.406,Simcolourproject_2stim_asymm_v5,2020.2.10,Win32,60,61025ae37ef11b136ea224fe,,,,,,,,,1486,35,73.5,1,0,0,response1disk,,7,15,-7.5,1,0,0,rectangle,15,-7.5,1,0,0,15,-7.5,1,0,0,1,61,221,57,1,,,,,,,,
,,,,,,,,,,,,,FF,,,,,,,,2.415,,,,,,,,,,,,,,,,,,,,,,61034996de4bc91eafb48814,61036a29b33d786f994eba7b,2021-07-29_19h56.48.406,Simcolourproject_2stim_asymm_v5,2020.2.10,Win32,60,61025ae37ef11b136ea224fe,,,,,,,,,3,-45,-98.5,1,0,0,response5disk,,3,-2,2.5,1,0,0,rectangle,-2,2.5,1,0,0,-2,2.5,1,0,0,1,62,222,4,1,,,,,,,,
,,,,,,,,,,,,,FF,,,,,,,,1.2667,,,,,,,,,,,,,,,,,,,,,,61034996de4bc91eafb48814,61036a29b33d786f994eba7b,2021-07-29_19h56.48.406,Simcolourproject_2stim_asymm_v5,2020.2.10,Win32,60,61025ae37ef11b136ea224fe,,,,,,,,,2242,-28,-81.5,1,0,0,response5disk,,3,17,5.5,1,0,0,rectangle,17,5.5,1,0,0,17,5.5,1,0,0,1,63,223,94,1,,,,,,,,
,,,,,,,,,,,,,FF,,,,,,,,1.919,,,,,,,,,,,,,,,,,,,,,,61034996de4bc91eafb48814,61036a29b33d786f994eba7b,2021-07-29_19h56.48.406,Simcolourproject_2stim_asymm_v5,2020.2.10,Win32,60,61025ae37ef11b136ea224fe,,,,,,,,,2064,61,58.5,1,0,0,response1disk,,6,8,10.5,1,0,0,rectangle,65,-42.5,1,0,0,1,-0.5,1,0,0,1,64,224,9,1,,response3disk_3,TRUE,5,5,"[197,241,210,294,225,97,208,104,100,81,26,283,208,35,60,27,282,12,249,164]",2.0337,rectangle
,,,,,,,,,,,,,FF,,,,,,,,2.6165,,,,,,,,,,,,,,,,,,,,,,61034996de4bc91eafb48814,61036a29b33d786f994eba7b,2021-07-29_19h56.48.406,Simcolourproject_2stim_asymm_v5,2020.2.10,Win32,60,61025ae37ef11b136ea224fe,,,,,,,,,239,37,-60.5,1,0,0,response3disk,,4,2,2.5,1,0,0,rectangle,2,2.5,1,0,0,2,2.5,1,0,0,1,65,225,137,1,,,,,,,,
,,,,,,,,,,,,,FF,,,,,,,,5.6494,,,,,,,,,,,,,,,,,,,,,,61034996de4bc91eafb48814,61036a29b33d786f994eba7b,2021-07-29_19h56.48.406,Simcolourproject_2stim_asymm_v5,2020.2.10,Win32,60,61025ae37ef11b136ea224fe,,,,,,,,,2788,49,-91.5,1,0,0,response3disk,,4,13,-3.5,1,0,0,rectangle,13,-3.5,1,0,0,13,-3.5,1,0,0,1,66,226,65,1,,,,,,,,
,,,,,,,,,,,,,FF,,,,,,,,6.9985,,,,,,,,,,,,,,,,,,,,,,61034996de4bc91eafb48814,61036a29b33d786f994eba7b,2021-07-29_19h56.48.406,Simcolourproject_2stim_asymm_v5,2020.2.10,Win32,60,61025ae37ef11b136ea224fe,,,,,,,,,1566,78,45.5,1,0,0,response1disk,,6,8,0.5,1,0,0,rectangle,8,0.5,1,0,0,8,0.5,1,0,0,1,67,227,36,1,,,,,,,,
,,,,,,,,,,,,,FF,,,,,,,,1.1026,,,,,,,,,,,,,,,,,,,,,,61034996de4bc91eafb48814,61036a29b33d786f994eba7b,2021-07-29_19h56.48.406,Simcolourproject_2stim_asymm_v5,2020.2.10,Win32,60,61025ae37ef11b136ea224fe,,,,,,,,,3201,-36,-65.5,1,0,0,response5disk,,3,3,1.5,1,0,0,rectangle,3,1.5,1,0,0,3,1.5,1,0,0,1,68,228,68,1,,,,,,,,
,,,,,,,,,,,,,FF,,,,,,,,1.2501,,,,,,,,,,,,,,,,,,,,,,61034996de4bc91eafb48814,61036a29b33d786f994eba7b,2021-07-29_19h56.48.406,Simcolourproject_2stim_asymm_v5,2020.2.10,Win32,60,61025ae37ef11b136ea224fe,,,,,,,,,4201,-73,32.5,1,0,0,response7disk,,1,-8,2.5,1,0,0,rectangle,-8,2.5,1,0,0,-8,2.5,1,0,0,1,69,229,52,1,,,,,,,,
,,,,,,,,,,,,,FF,,,,,,,,4.7828,,,,,,,,,,,,,,,,,,,,,,61034996de4bc91eafb48814,61036a29b33d786f994eba7b,2021-07-29_19h56.48.406,Simcolourproject_2stim_asymm_v5,2020.2.10,Win32,60,61025ae37ef11b136ea224fe,,,,,,,,,3908,-78,44.5,1,0,0,response7disk,,1,9,2.5,1,0,0,rectangle,9,2.5,1,0,0,9,2.5,1,0,0,1,70,230,146,1,,,,,,,,
,,,,,,,,,,,,,FF,,,,,,,,1.0185,,,,,,,,,,,,,,,,,,,,,,61034996de4bc91eafb48814,61036a29b33d786f994eba7b,2021-07-29_19h56.48.406,Simcolourproject_2stim_asymm_v5,2020.2.10,Win32,60,61025ae37ef11b136ea224fe,,,,,,,,,1406,68,-39.5,1,0,0,response3disk,,5,5,-4.5,1,0,0,rectangle,5,-4.5,1,0,0,5,-4.5,1,0,0,1,71,231,47,1,,,,,,,,
,,,,,,,,,,,,,FF,,,,,,,,1.9498,,,,,,,,,,,,,,,,,,,,,,61034996de4bc91eafb48814,61036a29b33d786f994eba7b,2021-07-29_19h56.48.406,Simcolourproject_2stim_asymm_v5,2020.2.10,Win32,60,61025ae37ef11b136ea224fe,,,,,,,,,640,56,-85.5,1,0,0,response3disk,,4,15,3.5,1,0,0,rectangle,15,3.5,1,0,0,15,3.5,1,0,0,1,72,232,12,1,,,,,,,,
,,,,,,,,,,,,,FF,,,,,,,,0.8335,,,,,,,,,,,,,,,,,,,,,,61034996de4bc91eafb48814,61036a29b33d786f994eba7b,2021-07-29_19h56.48.406,Simcolourproject_2stim_asymm_v5,2020.2.10,Win32,60,61025ae37ef11b136ea224fe,,,,,,,,,3308,37,107.5,1,0,0,response1disk,,7,-10,-0.5,1,0,0,rectangle,-10,-0.5,1,0,0,-10,-0.5,1,0,0,1,73,233,10,1,,,,,,,,
,,,,,,,,,,,,,FF,,,,,,,,2.2993,,,,,,,,,,,,,,,,,,,,,,61034996de4bc91eafb48814,61036a29b33d786f994eba7b,2021-07-29_19h56.48.406,Simcolourproject_2stim_asymm_v5,2020.2.10,Win32,60,61025ae37ef11b136ea224fe,,,,,,,,,3362,87,55.5,1,0,0,response1disk,,6,-2,-4.5,1,0,0,rectangle,-2,-4.5,1,0,0,-2,-4.5,1,0,0,1,74,234,151,1,,,,,,,,
,,,,,,,,,,,,,FF,,,,,,,,1.5833,,,,,,,,,,,,,,,,,,,,,,61034996de4bc91eafb48814,61036a29b33d786f994eba7b,2021-07-29_19h56.48.406,Simcolourproject_2stim_asymm_v5,2020.2.10,Win32,60,61025ae37ef11b136ea224fe,,,,,,,,,1323,72,-42.5,1,0,0,response3disk,,5,2,-8.5,1,0,0,rectangle,2,-8.5,1,0,0,2,-8.5,1,0,0,1,75,235,129,1,,,,,,,,
,,,,,,,,,,,,,FF,,,,,,,,1.4998,,,,,,,,,,,,,,,,,,,,,,61034996de4bc91eafb48814,61036a29b33d786f994eba7b,2021-07-29_19h56.48.406,Simcolourproject_2stim_asymm_v5,2020.2.10,Win32,60,61025ae37ef11b136ea224fe,,,,,,,,,3786,-32,-85.5,1,0,0,response5disk,,3,-1,-5.5,1,0,0,rectangle,-1,-5.5,1,0,0,-1,-5.5,1,0,0,1,76,236,80,1,,,,,,,,
,,,,,,,,,,,,,FF,,,,,,,,1.0496,,,,,,,,,,,,,,,,,,,,,,61034996de4bc91eafb48814,61036a29b33d786f994eba7b,2021-07-29_19h56.48.406,Simcolourproject_2stim_asymm_v5,2020.2.10,Win32,60,61025ae37ef11b136ea224fe,,,,,,,,,871,-38,-75.5,1,0,0,response5disk,,3,4,7.5,1,0,0,rectangle,4,7.5,1,0,0,4,7.5,1,0,0,1,77,237,66,1,,,,,,,,
,,,,,,,,,,,,,FF,,,,,,,,0.9169,,,,,,,,,,,,,,,,,,,,,,61034996de4bc91eafb48814,61036a29b33d786f994eba7b,2021-07-29_19h56.48.406,Simcolourproject_2stim_asymm_v5,2020.2.10,Win32,60,61025ae37ef11b136ea224fe,,,,,,,,,4212,17,94.5,1,0,0,response1disk,,7,-6,-5.5,1,0,0,rectangle,-6,-5.5,1,0,0,-6,-5.5,1,0,0,1,78,238,6,1,,,,,,,,
,,,,,,,,,,,,,FF,,,,,,,,0.9822,,,,,,,,,,,,,,,,,,,,,,61034996de4bc91eafb48814,61036a29b33d786f994eba7b,2021-07-29_19h56.48.406,Simcolourproject_2stim_asymm_v5,2020.2.10,Win32,60,61025ae37ef11b136ea224fe,,,,,,,,,2134,38,63.5,1,0,0,response1disk,,7,-7,4.5,1,0,0,rectangle,-7,4.5,1,0,0,-7,4.5,1,0,0,1,79,239,107,1,,,,,,,,
,,,,,,,,,,,,,FF,,,,,,,,1.2311,,,,,,,,,,,,,,,,,,,,,,61034996de4bc91eafb48814,61036a29b33d786f994eba7b,2021-07-29_19h56.48.406,Simcolourproject_2stim_asymm_v5,2020.2.10,Win32,60,61025ae37ef11b136ea224fe,,,,,,,,,2520,81,-43.5,1,0,0,response3disk,,5,3,-1.5,1,0,0,rectangle,-81,-32.5,1,0,0,-5,1.5,1,0,0,1,80,240,148,1,,response5disk_3,TRUE,2,2,"[197,241,210,294,225,97,208,104,100,81,26,283,208,35,60,27,282,12,249,164]",1.7857,rectangle
,,,,,,,,,,,,,FF,,,,,,,,1.0319,,,,,,,,,,,,,,,,,,,,,,61034996de4bc91eafb48814,61036a29b33d786f994eba7b,2021-07-29_19h56.48.406,Simcolourproject_2stim_asymm_v5,2020.2.10,Win32,60,61025ae37ef11b136ea224fe,,,,,,,,,4120,-32,-65.5,1,0,0,response5disk,,3,6,2.5,1,0,0,rectangle,6,2.5,1,0,0,6,2.5,1,0,0,1,81,241,13,1,,,,,,,,
,,,,,,,,,,,,,FF,,,,,,,,0.6832,,,,,,,,,,,,,,,,,,,,,,61034996de4bc91eafb48814,61036a29b33d786f994eba7b,2021-07-29_19h56.48.406,Simcolourproject_2stim_asymm_v5,2020.2.10,Win32,60,61025ae37ef11b136ea224fe,,,,,,,,,4214,44,71.5,1,0,0,response1disk,,7,8,-0.5,1,0,0,rectangle,8,-0.5,1,0,0,8,-0.5,1,0,0,1,82,242,43,1,,,,,,,,
,,,,,,,,,,,,,FF,,,,,,,,0.7498,,,,,,,,,,,,,,,,,,,,,,61034996de4bc91eafb48814,61036a29b33d786f994eba7b,2021-07-29_19h56.48.406,Simcolourproject_2stim_asymm_v5,2020.2.10,Win32,60,61025ae37ef11b136ea224fe,,,,,,,,,621,36,57.5,1,0,0,response1disk,,7,2,-1.5,1,0,0,rectangle,2,-1.5,1,0,0,2,-1.5,1,0,0,1,83,243,143,1,,,,,,,,
,,,,,,,,,,,,,FF,,,,,,,,0.7691,,,,,,,,,,,,,,,,,,,,,,61034996de4bc91eafb48814,61036a29b33d786f994eba7b,2021-07-29_19h56.48.406,Simcolourproject_2stim_asymm_v5,2020.2.10,Win32,60,61025ae37ef11b136ea224fe,,,,,,,,,2822,42,70.5,1,0,0,response1disk,,7,2,4.5,1,0,0,rectangle,2,4.5,1,0,0,2,4.5,1,0,0,1,84,244,111,1,,,,,,,,
,,,,,,,,,,,,,FF,,,,,,,,1.9831,,,,,,,,,,,,,,,,,,,,,,61034996de4bc91eafb48814,61036a29b33d786f994eba7b,2021-07-29_19h56.48.406,Simcolourproject_2stim_asymm_v5,2020.2.10,Win32,60,61025ae37ef11b136ea224fe,,,,,,,,,2017,32,-70.5,1,0,0,response3disk,,4,10,6.5,1,0,0,rectangle,10,6.5,1,0,0,10,6.5,1,0,0,1,85,245,113,1,,,,,,,,
,,,,,,,,,,,,,FF,,,,,,,,0.9842,,,,,,,,,,,,,,,,,,,,,,61034996de4bc91eafb48814,61036a29b33d786f994eba7b,2021-07-29_19h56.48.406,Simcolourproject_2stim_asymm_v5,2020.2.10,Win32,60,61025ae37ef11b136ea224fe,,,,,,,,,3601,-35,-68.5,1,0,0,response5disk,,3,1,-7.5,1,0,0,rectangle,1,-7.5,1,0,0,1,-7.5,1,0,0,1,86,246,123,1,,,,,,,,
,,,,,,,,,,,,,FF,,,,,,,,0.7643,,,,,,,,,,,,,,,,,,,,,,61034996de4bc91eafb48814,61036a29b33d786f994eba7b,2021-07-29_19h56.48.406,Simcolourproject_2stim_asymm_v5,2020.2.10,Win32,60,61025ae37ef11b136ea224fe,,,,,,,,,3527,-45,-69.5,1,0,0,response5disk,,3,2,9.5,1,0,0,rectangle,2,9.5,1,0,0,2,9.5,1,0,0,1,87,247,127,1,,,,,,,,
,,,,,,,,,,,,,FF,,,,,,,,1.2996,,,,,,,,,,,,,,,,,,,,,,61034996de4bc91eafb48814,61036a29b33d786f994eba7b,2021-07-29_19h56.48.406,Simcolourproject_2stim_asymm_v5,2020.2.10,Win32,60,61025ae37ef11b136ea224fe,,,,,,,,,735,41,-59.5,1,0,0,response3disk,,4,10,2.5,1,0,0,rectangle,43,85.5,1,0,0,6,-0.5,1,0,0,1,88,248,21,1,,response1disk_3,TRUE,7,7,"[197,241,210,294,225,97,208,104,100,81,26,283,208,35,60,27,282,12,249,164]",1.4999,rectangle
,,,,,,,,,,,,,FF,,,,,,,,2.7822,,,,,,,,,,,,,,,,,,,,,,61034996de4bc91eafb48814,61036a29b33d786f994eba7b,2021-07-29_19h56.48.406,Simcolourproject_2stim_asymm_v5,2020.2.10,Win32,60,61025ae37ef11b136ea224fe,,,,,,,,,1577,90,33.5,1,0,0,response1disk,,6,3,4.5,1,0,0,rectangle,3,4.5,1,0,0,3,4.5,1,0,0,1,89,249,42,1,,,,,,,,
,,,,,,,,,,,,,FF,,,,,,,,1.1163,,,,,,,,,,,,,,,,,,,,,,61034996de4bc91eafb48814,61036a29b33d786f994eba7b,2021-07-29_19h56.48.406,Simcolourproject_2stim_asymm_v5,2020.2.10,Win32,60,61025ae37ef11b136ea224fe,,,,,,,,,3915,-54,-75.5,1,0,0,response5disk,,3,-12,-4.5,1,0,0,rectangle,-12,-4.5,1,0,0,-12,-4.5,1,0,0,1,90,250,153,1,,,,,,,,
,,,,,,,,,,,,,FF,,,,,,,,1.2502,,,,,,,,,,,,,,,,,,,,,,61034996de4bc91eafb48814,61036a29b33d786f994eba7b,2021-07-29_19h56.48.406,Simcolourproject_2stim_asymm_v5,2020.2.10,Win32,60,61025ae37ef11b136ea224fe,,,,,,,,,1158,85,34.5,1,0,0,response1disk,,6,-3,-10.5,1,0,0,rectangle,-3,-10.5,1,0,0,-3,-10.5,1,0,0,1,91,251,132,1,,,,,,,,
,,,,,,,,,,,,,FF,,,,,,,,2.6492,,,,,,,,,,,,,,,,,,,,,,61034996de4bc91eafb48814,61036a29b33d786f994eba7b,2021-07-29_19h56.48.406,Simcolourproject_2stim_asymm_v5,2020.2.10,Win32,60,61025ae37ef11b136ea224fe,,,,,,,,,1465,32,-70.5,1,0,0,response3disk,,4,11,1.5,1,0,0,rectangle,11,1.5,1,0,0,11,1.5,1,0,0,1,92,252,83,1,,,,,,,,
,,,,,,,,,,,,,FF,,,,,,,,4.5965,,,,,,,,,,,,,,,,,,,,,,61034996de4bc91eafb48814,61036a29b33d786f994eba7b,2021-07-29_19h56.48.406,Simcolourproject_2stim_asymm_v5,2020.2.10,Win32,60,61025ae37ef11b136ea224fe,,,,,,,,,2015,74,52.5,1,0,0,response1disk,,6,14,1.5,1,0,0,rectangle,14,1.5,1,0,0,14,1.5,1,0,0,1,93,253,48,1,,,,,,,,
,,,,,,,,,,,,,FF,,,,,,,,1.9497,,,,,,,,,,,,,,,,,,,,,,61034996de4bc91eafb48814,61036a29b33d786f994eba7b,2021-07-29_19h56.48.406,Simcolourproject_2stim_asymm_v5,2020.2.10,Win32,60,61025ae37ef11b136ea224fe,,,,,,,,,3192,37,-81.5,1,0,0,response3disk,,4,8,-6.5,1,0,0,rectangle,8,-6.5,1,0,0,8,-6.5,1,0,0,1,94,254,89,1,,,,,,,,
,,,,,,,,,,,,,FF,,,,,,,,1.6175,,,,,,,,,,,,,,,,,,,,,,61034996de4bc91eafb48814,61036a29b33d786f994eba7b,2021-07-29_19h56.48.406,Simcolourproject_2stim_asymm_v5,2020.2.10,Win32,60,61025ae37ef11b136ea224fe,,,,,,,,,2983,46,56.5,1,0,0,response1disk,,7,7,-5.5,1,0,0,rectangle,7,-5.5,1,0,0,7,-5.5,1,0,0,1,95,255,112,1,,,,,,,,
,,,,,,,,,,,,,FF,,,,,,,,1.6506,,,,,,,,,,,,,,,,,,,,,,61034996de4bc91eafb48814,61036a29b33d786f994eba7b,2021-07-29_19h56.48.406,Simcolourproject_2stim_asymm_v5,2020.2.10,Win32,60,61025ae37ef11b136ea224fe,,,,,,,,,643,66,44.5,1,0,0,response1disk,,6,2,0.5,1,0,0,rectangle,2,0.5,1,0,0,2,0.5,1,0,0,1,96,256,117,1,,,,,,,,
,,,,,,,,,,,,,FF,,,,,,,,0.7498,,,,,,,,,,,,,,,,,,,,,,61034996de4bc91eafb48814,61036a29b33d786f994eba7b,2021-07-29_19h56.48.406,Simcolourproject_2stim_asymm_v5,2020.2.10,Win32,60,61025ae37ef11b136ea224fe,,,,,,,,,1281,42,84.5,1,0,0,response1disk,,7,-10,-2.5,1,0,0,rectangle,-10,-2.5,1,0,0,-10,-2.5,1,0,0,1,97,257,133,1,,,,,,,,
,,,,,,,,,,,,,FF,,,,,,,,1.2827,,,,,,,,,,,,,,,,,,,,,,61034996de4bc91eafb48814,61036a29b33d786f994eba7b,2021-07-29_19h56.48.406,Simcolourproject_2stim_asymm_v5,2020.2.10,Win32,60,61025ae37ef11b136ea224fe,,,,,,,,,3205,-54,-88.5,1,0,0,response5disk,,3,-1,-0.5,1,0,0,rectangle,-1,-0.5,1,0,0,-1,-0.5,1,0,0,1,98,258,104,1,,,,,,,,
,,,,,,,,,,,,,FF,,,,,,,,1.1328,,,,,,,,,,,,,,,,,,,,,,61034996de4bc91eafb48814,61036a29b33d786f994eba7b,2021-07-29_19h56.48.406,Simcolourproject_2stim_asymm_v5,2020.2.10,Win32,60,61025ae37ef11b136ea224fe,,,,,,,,,2752,79,-33.5,1,0,0,response3disk,,5,5,-0.5,1,0,0,rectangle,5,-0.5,1,0,0,5,-0.5,1,0,0,1,99,259,101,1,,,,,,,,
,,,,,,,,,,,,,FF,,,,,,,,1.2331,,,,,,,,,,,,,,,,,,,,,,61034996de4bc91eafb48814,61036a29b33d786f994eba7b,2021-07-29_19h56.48.406,Simcolourproject_2stim_asymm_v5,2020.2.10,Win32,60,61025ae37ef11b136ea224fe,,,,,,,,,365,36,72.5,1,0,0,response1disk,,7,-3,-9.5,1,0,0,rectangle,-3,-9.5,1,0,0,-3,-9.5,1,0,0,1,100,260,19,1,,,,,,,,
,,,,,,,,,,,,,FF,,,,,,,,1.2833,,,,,,,,,,,,,,,,,,,,,,61034996de4bc91eafb48814,61036a29b33d786f994eba7b,2021-07-29_19h56.48.406,Simcolourproject_2stim_asymm_v5,2020.2.10,Win32,60,61025ae37ef11b136ea224fe,,,,,,,,,1095,26,96.5,1,0,0,response1disk,,7,-8,-11.5,1,0,0,rectangle,-8,-11.5,1,0,0,-8,-11.5,1,0,0,1,101,261,23,1,,,,,,,,
,,,,,,,,,,,,,FF,,,,,,,,0.8999,,,,,,,,,,,,,,,,,,,,,,61034996de4bc91eafb48814,61036a29b33d786f994eba7b,2021-07-29_19h56.48.406,Simcolourproject_2stim_asymm_v5,2020.2.10,Win32,60,61025ae37ef11b136ea224fe,,,,,,,,,1214,-37,-94.5,1,0,0,response5disk,,3,-2,0.5,1,0,0,rectangle,-2,0.5,1,0,0,-2,0.5,1,0,0,1,102,262,102,1,,,,,,,,
,,,,,,,,,,,,,FF,,,,,,,,1.2161,,,,,,,,,,,,,,,,,,,,,,61034996de4bc91eafb48814,61036a29b33d786f994eba7b,2021-07-29_19h56.48.406,Simcolourproject_2stim_asymm_v5,2020.2.10,Win32,60,61025ae37ef11b136ea224fe,,,,,,,,,619,78,-37.5,1,0,0,response3disk,,5,-8,-3.5,1,0,0,rectangle,-8,-3.5,1,0,0,-8,-3.5,1,0,0,1,103,263,159,1,,,,,,,,
,,,,,,,,,,,,,FF,,,,,,,,1.3666,,,,,,,,,,,,,,,,,,,,,,61034996de4bc91eafb48814,61036a29b33d786f994eba7b,2021-07-29_19h56.48.406,Simcolourproject_2stim_asymm_v5,2020.2.10,Win32,60,61025ae37ef11b136ea224fe,,,,,,,,,2798,100,-35.5,1,0,0,response3disk,,5,-9,2.5,1,0,0,rectangle,-9,2.5,1,0,0,-9,2.5,1,0,0,1,104,264,20,1,,,,,,,,
,,,,,,,,,,,,,FF,,,,,,,,1.3496,,,,,,,,,,,,,,,,,,,,,,61034996de4bc91eafb48814,61036a29b33d786f994eba7b,2021-07-29_19h56.48.406,Simcolourproject_2stim_asymm_v5,2020.2.10,Win32,60,61025ae37ef11b136ea224fe,,,,,,,,,1124,66,88.5,1,0,0,response1disk,,7,7,-5.5,1,0,0,rectangle,7,-5.5,1,0,0,7,-5.5,1,0,0,1,105,265,55,1,,,,,,,,
,,,,,,,,,,,,,FF,,,,,,,,2.2,,,,,,,,,,,,,,,,,,,,,,61034996de4bc91eafb48814,61036a29b33d786f994eba7b,2021-07-29_19h56.48.406,Simcolourproject_2stim_asymm_v5,2020.2.10,Win32,60,61025ae37ef11b136ea224fe,,,,,,,,,2591,51,-66.5,1,0,0,response3disk,,4,1,-2.5,1,0,0,rectangle,1,-2.5,1,0,0,1,-2.5,1,0,0,1,106,266,72,1,,,,,,,,
,,,,,,,,,,,,,FF,,,,,,,,1.7499,,,,,,,,,,,,,,,,,,,,,,61034996de4bc91eafb48814,61036a29b33d786f994eba7b,2021-07-29_19h56.48.406,Simcolourproject_2stim_asymm_v5,2020.2.10,Win32,60,61025ae37ef11b136ea224fe,,,,,,,,,3892,39,-95.5,1,0,0,response3disk,,4,4,6.5,1,0,0,rectangle,4,6.5,1,0,0,4,6.5,1,0,0,1,107,267,142,1,,,,,,,,
,,,,,,,,,,,,,FF,,,,,,,,0.8331,,,,,,,,,,,,,,,,,,,,,,61034996de4bc91eafb48814,61036a29b33d786f994eba7b,2021-07-29_19h56.48.406,Simcolourproject_2stim_asymm_v5,2020.2.10,Win32,60,61025ae37ef11b136ea224fe,,,,,,,,,3148,-44,-78.5,1,0,0,response5disk,,3,-4,8.5,1,0,0,rectangle,-4,8.5,1,0,0,-4,8.5,1,0,0,1,108,268,88,1,,,,,,,,
,,,,,,,,,,,,,FF,,,,,,,,1.0337,,,,,,,,,,,,,,,,,,,,,,61034996de4bc91eafb48814,61036a29b33d786f994eba7b,2021-07-29_19h56.48.406,Simcolourproject_2stim_asymm_v5,2020.2.10,Win32,60,61025ae37ef11b136ea224fe,,,,,,,,,1167,36,64.5,1,0,0,response1disk,,7,11,5.5,1,0,0,rectangle,11,5.5,1,0,0,11,5.5,1,0,0,1,109,269,39,1,,,,,,,,
,,,,,,,,,,,,,FF,,,,,,,,0.7666,,,,,,,,,,,,,,,,,,,,,,61034996de4bc91eafb48814,61036a29b33d786f994eba7b,2021-07-29_19h56.48.406,Simcolourproject_2stim_asymm_v5,2020.2.10,Win32,60,61025ae37ef11b136ea224fe,,,,,,,,,885,-57,79.5,1,0,0,response7disk,,0,-16,-9.5,1,0,0,rectangle,-16,-9.5,1,0,0,-16,-9.5,1,0,0,1,110,270,25,1,,,,,,,,
,,,,,,,,,,,,,FF,,,,,,,,1.7659,,,,,,,,,,,,,,,,,,,,,,61034996de4bc91eafb48814,61036a29b33d786f994eba7b,2021-07-29_19h56.48.406,Simcolourproject_2stim_asymm_v5,2020.2.10,Win32,60,61025ae37ef11b136ea224fe,,,,,,,,,3962,51,76.5,1,0,0,response1disk,,7,7,-3.5,1,0,0,rectangle,7,-3.5,1,0,0,7,-3.5,1,0,0,1,111,271,93,1,,,,,,,,
,,,,,,,,,,,,,FF,,,,,,,,2.6492,,,,,,,,,,,,,,,,,,,,,,61034996de4bc91eafb48814,61036a29b33d786f994eba7b,2021-07-29_19h56.48.406,Simcolourproject_2stim_asymm_v5,2020.2.10,Win32,60,61025ae37ef11b136ea224fe,,,,,,,,,3619,79,-48.5,1,0,0,response3disk,,5,16,3.5,1,0,0,rectangle,16,3.5,1,0,0,16,3.5,1,0,0,1,112,272,157,1,,,,,,,,
,,,,,,,,,,,,,FF,,,,,,,,1.3165,,,,,,,,,,,,,,,,,,,,,,61034996de4bc91eafb48814,61036a29b33d786f994eba7b,2021-07-29_19h56.48.406,Simcolourproject_2stim_asymm_v5,2020.2.10,Win32,60,61025ae37ef11b136ea224fe,,,,,,,,,1132,-42,-81.5,1,0,0,response5disk,,3,-11,0.5,1,0,0,rectangle,-11,0.5,1,0,0,-11,0.5,1,0,0,1,113,273,85,1,,,,,,,,
,,,,,,,,,,,,,FF,,,,,,,,1.8662,,,,,,,,,,,,,,,,,,,,,,61034996de4bc91eafb48814,61036a29b33d786f994eba7b,2021-07-29_19h56.48.406,Simcolourproject_2stim_asymm_v5,2020.2.10,Win32,60,61025ae37ef11b136ea224fe,,,,,,,,,1833,-74,-59.5,1,0,0,response5disk,,2,-1,1.5,1,0,0,rectangle,-1,1.5,1,0,0,-1,1.5,1,0,0,1,114,274,82,1,,,,,,,,
,,,,,,,,,,,,,FF,,,,,,,,1.3669,,,,,,,,,,,,,,,,,,,,,,61034996de4bc91eafb48814,61036a29b33d786f994eba7b,2021-07-29_19h56.48.406,Simcolourproject_2stim_asymm_v5,2020.2.10,Win32,60,61025ae37ef11b136ea224fe,,,,,,,,,1853,90,-42.5,1,0,0,response3disk,,5,-4,5.5,1,0,0,rectangle,-4,5.5,1,0,0,-4,5.5,1,0,0,1,115,275,79,1,,,,,,,,
,,,,,,,,,,,,,FF,,,,,,,,0.7002,,,,,,,,,,,,,,,,,,,,,,61034996de4bc91eafb48814,61036a29b33d786f994eba7b,2021-07-29_19h56.48.406,Simcolourproject_2stim_asymm_v5,2020.2.10,Win32,60,61025ae37ef11b136ea224fe,,,,,,,,,1819,-77,-24.5,1,0,0,response5disk,,2,-10,-2.5,1,0,0,rectangle,-10,-2.5,1,0,0,-10,-2.5,1,0,0,1,116,276,103,1,,,,,,,,
,,,,,,,,,,,,,FF,,,,,,,,0.7164,,,,,,,,,,,,,,,,,,,,,,61034996de4bc91eafb48814,61036a29b33d786f994eba7b,2021-07-29_19h56.48.406,Simcolourproject_2stim_asymm_v5,2020.2.10,Win32,60,61025ae37ef11b136ea224fe,,,,,,,,,3842,27,74.5,1,0,0,response1disk,,7,-1,5.5,1,0,0,rectangle,-1,5.5,1,0,0,-1,5.5,1,0,0,1,117,277,62,1,,,,,,,,
,,,,,,,,,,,,,FF,,,,,,,,0.8337,,,,,,,,,,,,,,,,,,,,,,61034996de4bc91eafb48814,61036a29b33d786f994eba7b,2021-07-29_19h56.48.406,Simcolourproject_2stim_asymm_v5,2020.2.10,Win32,60,61025ae37ef11b136ea224fe,,,,,,,,,2916,37,61.5,1,0,0,response1disk,,7,19,-2.5,1,0,0,rectangle,19,-2.5,1,0,0,19,-2.5,1,0,0,1,118,278,125,1,,,,,,,,
,,,,,,,,,,,,,FF,,,,,,,,3.3826,,,,,,,,,,,,,,,,,,,,,,61034996de4bc91eafb48814,61036a29b33d786f994eba7b,2021-07-29_19h56.48.406,Simcolourproject_2stim_asymm_v5,2020.2.10,Win32,60,61025ae37ef11b136ea224fe,,,,,,,,,2658,85,37.5,1,0,0,response1disk,,6,10,-2.5,1,0,0,rectangle,10,-2.5,1,0,0,10,-2.5,1,0,0,1,119,279,49,1,,,,,,,,
,,,,,,,,,,,,,FF,,,,,,,,1.9663,,,,,,,,,,,,,,,,,,,,,,61034996de4bc91eafb48814,61036a29b33d786f994eba7b,2021-07-29_19h56.48.406,Simcolourproject_2stim_asymm_v5,2020.2.10,Win32,60,61025ae37ef11b136ea224fe,,,,,,,,,1306,-72,-82.5,1,0,0,response5disk,,3,-34,-10.5,1,0,0,rectangle,-34,-10.5,1,0,0,-34,-10.5,1,0,0,1,120,280,37,1,,,,,,,,
,,,,,,,,,,,,,FF,,,,,,,,3.5825,,,,,,,,,,,,,,,,,,,,,,61034996de4bc91eafb48814,61036a29b33d786f994eba7b,2021-07-29_19h56.48.406,Simcolourproject_2stim_asymm_v5,2020.2.10,Win32,60,61025ae37ef11b136ea224fe,,,,,,,,,4156,30,67.5,1,0,0,response1disk,,7,8,8.5,1,0,0,rectangle,-95,50.5,1,0,0,4,-5.5,1,0,0,1,121,281,54,1,,response7disk_3,TRUE,1,1,"[197,241,210,294,225,97,208,104,100,81,26,283,208,35,60,27,282,12,249,164]",1.4171,rectangle
,,,,,,,,,,,,,FF,,,,,,,,5.7656,,,,,,,,,,,,,,,,,,,,,,61034996de4bc91eafb48814,61036a29b33d786f994eba7b,2021-07-29_19h56.48.406,Simcolourproject_2stim_asymm_v5,2020.2.10,Win32,60,61025ae37ef11b136ea224fe,,,,,,,,,888,-92,25.5,1,0,0,response7disk,,1,7,-4.5,1,0,0,rectangle,-46,-78.5,1,0,0,-3,1.5,1,0,0,1,122,282,29,1,,response5disk_3,TRUE,3,3,"[197,241,210,294,225,97,208,104,100,81,26,283,208,35,60,27,282,12,249,164]",2.116,rectangle
,,,,,,,,,,,,,FF,,,,,,,,1.133,,,,,,,,,,,,,,,,,,,,,,61034996de4bc91eafb48814,61036a29b33d786f994eba7b,2021-07-29_19h56.48.406,Simcolourproject_2stim_asymm_v5,2020.2.10,Win32,60,61025ae37ef11b136ea224fe,,,,,,,,,4285,34,65.5,1,0,0,response1disk,,7,7,-2.5,1,0,0,rectangle,7,-2.5,1,0,0,7,-2.5,1,0,0,1,123,283,139,1,,,,,,,,
,,,,,,,,,,,,,FF,,,,,,,,1.2669,,,,,,,,,,,,,,,,,,,,,,61034996de4bc91eafb48814,61036a29b33d786f994eba7b,2021-07-29_19h56.48.406,Simcolourproject_2stim_asymm_v5,2020.2.10,Win32,60,61025ae37ef11b136ea224fe,,,,,,,,,560,72,39.5,1,0,0,response1disk,,6,9,-1.5,1,0,0,rectangle,9,-1.5,1,0,0,9,-1.5,1,0,0,1,124,284,145,1,,,,,,,,
,,,,,,,,,,,,,FF,,,,,,,,2.0998,,,,,,,,,,,,,,,,,,,,,,61034996de4bc91eafb48814,61036a29b33d786f994eba7b,2021-07-29_19h56.48.406,Simcolourproject_2stim_asymm_v5,2020.2.10,Win32,60,61025ae37ef11b136ea224fe,,,,,,,,,3330,30,-73.5,1,0,0,response3disk,,4,5,1.5,1,0,0,rectangle,5,1.5,1,0,0,5,1.5,1,0,0,1,125,285,67,1,,,,,,,,
,,,,,,,,,,,,,FF,,,,,,,,1.0166,,,,,,,,,,,,,,,,,,,,,,61034996de4bc91eafb48814,61036a29b33d786f994eba7b,2021-07-29_19h56.48.406,Simcolourproject_2stim_asymm_v5,2020.2.10,Win32,60,61025ae37ef11b136ea224fe,,,,,,,,,2783,47,-68.5,1,0,0,response3disk,,4,2,0.5,1,0,0,rectangle,2,0.5,1,0,0,2,0.5,1,0,0,1,126,286,16,1,,,,,,,,
,,,,,,,,,,,,,FF,,,,,,,,2.0823,,,,,,,,,,,,,,,,,,,,,,61034996de4bc91eafb48814,61036a29b33d786f994eba7b,2021-07-29_19h56.48.406,Simcolourproject_2stim_asymm_v5,2020.2.10,Win32,60,61025ae37ef11b136ea224fe,,,,,,,,,1879,91,-46.5,1,0,0,response3disk,,5,-10,-1.5,1,0,0,rectangle,-10,-1.5,1,0,0,-10,-1.5,1,0,0,1,127,287,97,1,,,,,,,,
,,,,,,,,,,,,,FF,,,,,,,,0.6998,,,,,,,,,,,,,,,,,,,,,,61034996de4bc91eafb48814,61036a29b33d786f994eba7b,2021-07-29_19h56.48.406,Simcolourproject_2stim_asymm_v5,2020.2.10,Win32,60,61025ae37ef11b136ea224fe,,,,,,,,,4152,41,69.5,1,0,0,response1disk,,7,0,0.5,1,0,0,rectangle,0,0.5,1,0,0,0,0.5,1,0,0,1,128,288,138,1,,,,,,,,
,,,,,,,,,,,,,FF,,,,,,,,2.9162,,,,,,,,,,,,,,,,,,,,,,61034996de4bc91eafb48814,61036a29b33d786f994eba7b,2021-07-29_19h56.48.406,Simcolourproject_2stim_asymm_v5,2020.2.10,Win32,60,61025ae37ef11b136ea224fe,,,,,,,,,121,78,-39.5,1,0,0,response3disk,,5,-12,5.5,1,0,0,rectangle,-12,5.5,1,0,0,-12,5.5,1,0,0,1,129,289,108,1,,,,,,,,
,,,,,,,,,,,,,FF,,,,,,,,0.7667,,,,,,,,,,,,,,,,,,,,,,61034996de4bc91eafb48814,61036a29b33d786f994eba7b,2021-07-29_19h56.48.406,Simcolourproject_2stim_asymm_v5,2020.2.10,Win32,60,61025ae37ef11b136ea224fe,,,,,,,,,1965,-53,82.5,1,0,0,response7disk,,0,-3,-0.5,1,0,0,rectangle,-3,-0.5,1,0,0,-3,-0.5,1,0,0,1,130,290,58,1,,,,,,,,
,,,,,,,,,,,,,FF,,,,,,,,1.2162,,,,,,,,,,,,,,,,,,,,,,61034996de4bc91eafb48814,61036a29b33d786f994eba7b,2021-07-29_19h56.48.406,Simcolourproject_2stim_asymm_v5,2020.2.10,Win32,60,61025ae37ef11b136ea224fe,,,,,,,,,584,49,78.5,1,0,0,response1disk,,7,5,-4.5,1,0,0,rectangle,5,-4.5,1,0,0,5,-4.5,1,0,0,1,131,291,122,1,,,,,,,,
,,,,,,,,,,,,,FF,,,,,,,,1.9666,,,,,,,,,,,,,,,,,,,,,,61034996de4bc91eafb48814,61036a29b33d786f994eba7b,2021-07-29_19h56.48.406,Simcolourproject_2stim_asymm_v5,2020.2.10,Win32,60,61025ae37ef11b136ea224fe,,,,,,,,,2806,44,77.5,1,0,0,response1disk,,7,2,2.5,1,0,0,rectangle,2,2.5,1,0,0,2,2.5,1,0,0,1,132,292,38,1,,,,,,,,
,,,,,,,,,,,,,FF,,,,,,,,0.6663,,,,,,,,,,,,,,,,,,,,,,61034996de4bc91eafb48814,61036a29b33d786f994eba7b,2021-07-29_19h56.48.406,Simcolourproject_2stim_asymm_v5,2020.2.10,Win32,60,61025ae37ef11b136ea224fe,,,,,,,,,1645,31,63.5,1,0,0,response1disk,,7,3,-2.5,1,0,0,rectangle,103,-42.5,1,0,0,8,3.5,1,0,0,1,133,293,136,1,,response3disk_3,TRUE,5,5,"[197,241,210,294,225,97,208,104,100,81,26,283,208,35,60,27,282,12,249,164]",2.0825,rectangle
,,,,,,,,,,,,,FF,,,,,,,,0.9832,,,,,,,,,,,,,,,,,,,,,,61034996de4bc91eafb48814,61036a29b33d786f994eba7b,2021-07-29_19h56.48.406,Simcolourproject_2stim_asymm_v5,2020.2.10,Win32,60,61025ae37ef11b136ea224fe,,,,,,,,,298,32,-91.5,1,0,0,response3disk,,4,0,3.5,1,0,0,rectangle,0,3.5,1,0,0,0,3.5,1,0,0,1,134,294,24,1,,,,,,,,
,,,,,,,,,,,,,FF,,,,,,,,1.2824,,,,,,,,,,,,,,,,,,,,,,61034996de4bc91eafb48814,61036a29b33d786f994eba7b,2021-07-29_19h56.48.406,Simcolourproject_2stim_asymm_v5,2020.2.10,Win32,60,61025ae37ef11b136ea224fe,,,,,,,,,1240,33,-91.5,1,0,0,response3disk,,4,-10,-3.5,1,0,0,rectangle,-10,-3.5,1,0,0,-10,-3.5,1,0,0,1,135,295,87,1,,,,,,,,
,,,,,,,,,,,,,FF,,,,,,,,1.883,,,,,,,,,,,,,,,,,,,,,,61034996de4bc91eafb48814,61036a29b33d786f994eba7b,2021-07-29_19h56.48.406,Simcolourproject_2stim_asymm_v5,2020.2.10,Win32,60,61025ae37ef11b136ea224fe,,,,,,,,,981,52,-76.5,1,0,0,response3disk,,4,-4,-0.5,1,0,0,rectangle,-4,-0.5,1,0,0,-4,-0.5,1,0,0,1,136,296,46,1,,,,,,,,
,,,,,,,,,,,,,FF,,,,,,,,1.5,,,,,,,,,,,,,,,,,,,,,,61034996de4bc91eafb48814,61036a29b33d786f994eba7b,2021-07-29_19h56.48.406,Simcolourproject_2stim_asymm_v5,2020.2.10,Win32,60,61025ae37ef11b136ea224fe,,,,,,,,,675,90,-53.5,1,0,0,response3disk,,5,-7,0.5,1,0,0,rectangle,-7,0.5,1,0,0,-7,0.5,1,0,0,1,137,297,26,1,,,,,,,,
,,,,,,,,,,,,,FF,,,,,,,,1.5501,,,,,,,,,,,,,,,,,,,,,,61034996de4bc91eafb48814,61036a29b33d786f994eba7b,2021-07-29_19h56.48.406,Simcolourproject_2stim_asymm_v5,2020.2.10,Win32,60,61025ae37ef11b136ea224fe,,,,,,,,,4000,-33,-85.5,1,0,0,response5disk,,3,0,-2.5,1,0,0,rectangle,0,-2.5,1,0,0,0,-2.5,1,0,0,1,138,298,44,1,,,,,,,,
,,,,,,,,,,,,,FF,,,,,,,,0.8835,,,,,,,,,,,,,,,,,,,,,,61034996de4bc91eafb48814,61036a29b33d786f994eba7b,2021-07-29_19h56.48.406,Simcolourproject_2stim_asymm_v5,2020.2.10,Win32,60,61025ae37ef11b136ea224fe,,,,,,,,,951,44,-50.5,1,0,0,response3disk,,4,2,0.5,1,0,0,rectangle,2,0.5,1,0,0,2,0.5,1,0,0,1,139,299,59,1,,,,,,,,
,,,,,,,,,,,,,FF,,,,,,,,0.8837,,,,,,,,,,,,,,,,,,,,,,61034996de4bc91eafb48814,61036a29b33d786f994eba7b,2021-07-29_19h56.48.406,Simcolourproject_2stim_asymm_v5,2020.2.10,Win32,60,61025ae37ef11b136ea224fe,,,,,,,,,1101,28,-58.5,1,0,0,response3disk,,4,-5,4.5,1,0,0,rectangle,-5,4.5,1,0,0,-5,4.5,1,0,0,1,140,300,110,1,,,,,,,,
