key_resp.keys,key_resp.rt,key_resp_14.keys,key_resp_14.rt,key_resp_15.keys,key_resp_15.rt,key_resp_17.keys,key_resp_17.rt,key_resp_9.keys,key_resp_9.rt,key_resp_10.keys,key_resp_10.rt,practice_comparison,Ecc,mouse_5.x,mouse_5.y,mouse_5.leftButton,mouse_5.midButton,mouse_5.rightButton,mouse_5.clicked_name,pracsimilarity,response_time,mouse_10.x,mouse_10.y,mouse_10.leftButton,mouse_10.midButton,mouse_10.rightButton,mouse_10.clicked_name,mouse_7.x,mouse_7.y,mouse_7.leftButton,mouse_7.midButton,mouse_7.rightButton,mouse_6.x,mouse_6.y,mouse_6.leftButton,mouse_6.midButton,mouse_6.rightButton,duringprac.thisRepN,duringprac.thisTrialN,duringprac.thisN,duringprac.thisIndex,duringprac.ran,participant,session,date,expName,psychopyVersion,OS,frameRate,study_id,mouse_7.clicked_name,catchpracsimilarity,catch_response_time,catchnumberprac,catchtrialorderprac,mouse_6.clicked_name,key_resp_22.keys,key_resp_22.rt,realcomparison,mouse.x,mouse.y,mouse.leftButton,mouse.midButton,mouse.rightButton,mouse.clicked_name,Colour2,similarity,mouse_2.x,mouse_2.y,mouse_2.leftButton,mouse_2.midButton,mouse_2.rightButton,mouse_2.clicked_name,mouse_3.x,mouse_3.y,mouse_3.leftButton,mouse_3.midButton,mouse_3.rightButton,mouse_11.x,mouse_11.y,mouse_11.leftButton,mouse_11.midButton,mouse_11.rightButton,trials_2.thisRepN,trials_2.thisTrialN,trials_2.thisN,trials_2.thisIndex,trials_2.ran,Colour1,mouse_3.clicked_name,catchornah,catchsimilarity,catchnumber,catchtrialorder,catchRT,mouse_11.clicked_name
space,0.6473,space,10.6475,space,25.9471,space,4.2327,space,2.1334,space,4.2999,142,PF,112.6254272,-60.43927002,1,0,0,response3disk_5,5,8.4343,36.0612793,-9.068847656,1,0,0,rectangle_8,36.0612793,-9.068847656,1,0,0,36.0612793,-9.068847656,1,0,0,0,0,0,4,1,61031e3bc2b8928823a87c43,61036e5f0998bbc6b7932c03,2021-07-29_23h14.27.772,Simcolourproject_2stim_asymm_v5,2020.2.10,MacIntel,60,61025ae37ef11b136ea224fe,,,,,,,,,,,,,,,,,,,,,,,,,,,,,,,,,,,,,,,,,,,,,,
,,,,,,,,,,,,138,PF,117.0675659,-71.71972656,1,0,0,response3disk_5,5,5.3167,13.03747559,-0.582763672,1,0,0,rectangle_8,-83.50964355,-51.27941895,1,0,0,-5.653747559,-5.566955566,1,0,0,0,1,1,2,1,61031e3bc2b8928823a87c43,61036e5f0998bbc6b7932c03,2021-07-29_23h14.27.772,Simcolourproject_2stim_asymm_v5,2020.2.10,MacIntel,60,61025ae37ef11b136ea224fe,response5disk_7,2,5.2002,2,"[2,5]",rectangle_4,,,,,,,,,,,,,,,,,,,,,,,,,,,,,,,,,,,,,,,,
,,,,,,,,,,,,81,FF,-106.4978027,-65.52679443,1,0,0,response5disk_5,2,2.849,-0.577819824,-8.155212402,1,0,0,rectangle_8,-0.577819824,-8.155212402,1,0,0,-0.577819824,-8.155212402,1,0,0,0,2,2,0,1,61031e3bc2b8928823a87c43,61036e5f0998bbc6b7932c03,2021-07-29_23h14.27.772,Simcolourproject_2stim_asymm_v5,2020.2.10,MacIntel,60,61025ae37ef11b136ea224fe,,,,,,,,,,,,,,,,,,,,,,,,,,,,,,,,,,,,,,,,,,,,,,
,,,,,,,,,,,,153,FF,37.68695068,61.83743286,1,0,0,response1disk_5,7,2.8002,5.042114258,-4.742980957,1,0,0,rectangle_8,5.042114258,-4.742980957,1,0,0,5.042114258,-4.742980957,1,0,0,0,3,3,3,1,61031e3bc2b8928823a87c43,61036e5f0998bbc6b7932c03,2021-07-29_23h14.27.772,Simcolourproject_2stim_asymm_v5,2020.2.10,MacIntel,60,61025ae37ef11b136ea224fe,,,,,,,,,,,,,,,,,,,,,,,,,,,,,,,,,,,,,,,,,,,,,,
,,,,,,,,,,,,89,FF,108.5391235,-41.11407471,1,0,0,response3disk_5,5,3.3672,-13.36340332,7.7109375,1,0,0,rectangle_8,-96.03668213,-61.61968994,1,0,0,0.985351563,-7.662536621,1,0,0,0,4,4,5,1,61031e3bc2b8928823a87c43,61036e5f0998bbc6b7932c03,2021-07-29_23h14.27.772,Simcolourproject_2stim_asymm_v5,2020.2.10,MacIntel,60,61025ae37ef11b136ea224fe,response5disk_7,2,3.5496,2,"[2,5]",rectangle_4,,,,,,,,,,,,,,,,,,,,,,,,,,,,,,,,,,,,,,,,
,,,,,,,,,,,,5,PF,-49.97149658,120.2653503,1,0,0,response7disk_5,0,6.8666,-5.640136719,-9.982849121,1,0,0,rectangle_8,-5.640136719,-9.982849121,1,0,0,-5.640136719,-9.982849121,1,0,0,0,5,5,6,1,61031e3bc2b8928823a87c43,61036e5f0998bbc6b7932c03,2021-07-29_23h14.27.772,Simcolourproject_2stim_asymm_v5,2020.2.10,MacIntel,60,61025ae37ef11b136ea224fe,,,,,,,,,,,,,,,,,,,,,,,,,,,,,,,,,,,,,,,,,,,,,,
,,,,,,,,,,,,114,PF,27.6942749,-62.9239502,1,0,0,response3disk_5,4,11.5994,15.4006958,-3.808166504,1,0,0,rectangle_8,15.4006958,-3.808166504,1,0,0,15.4006958,-3.808166504,1,0,0,0,6,6,1,1,61031e3bc2b8928823a87c43,61036e5f0998bbc6b7932c03,2021-07-29_23h14.27.772,Simcolourproject_2stim_asymm_v5,2020.2.10,MacIntel,60,61025ae37ef11b136ea224fe,,,,,,,,,,,,,,,,,,,,,,,,,,,,,,,,,,,,,,,,,,,,,,
,,,,,,,,,,,,,FF,,,,,,,,8.901,,,,,,,,,,,,,,,,,,,,,,61031e3bc2b8928823a87c43,61036e5f0998bbc6b7932c03,2021-07-29_23h14.27.772,Simcolourproject_2stim_asymm_v5,2020.2.10,MacIntel,60,61025ae37ef11b136ea224fe,,,,,,,space,2.0986,1208,60.98760986,-24.97583008,1,0,0,response3disk,,5,4.280151367,0.249450684,1,0,0,rectangle,4.280151367,0.249450684,1,0,0,4.280151367,0.249450684,1,0,0,0,0,0,154,1,,,,,,,,
,,,,,,,,,,,,,FF,,,,,,,,7.4832,,,,,,,,,,,,,,,,,,,,,,61031e3bc2b8928823a87c43,61036e5f0998bbc6b7932c03,2021-07-29_23h14.27.772,Simcolourproject_2stim_asymm_v5,2020.2.10,MacIntel,60,61025ae37ef11b136ea224fe,,,,,,,,,1486,123.2713623,-41.1585083,1,0,0,response3disk,,5,19.98248291,-3.733520508,1,0,0,rectangle,19.98248291,-3.733520508,1,0,0,19.98248291,-3.733520508,1,0,0,0,1,1,10,1,,,,,,,,
,,,,,,,,,,,,,FF,,,,,,,,3.2997,,,,,,,,,,,,,,,,,,,,,,61031e3bc2b8928823a87c43,61036e5f0998bbc6b7932c03,2021-07-29_23h14.27.772,Simcolourproject_2stim_asymm_v5,2020.2.10,MacIntel,60,61025ae37ef11b136ea224fe,,,,,,,,,1193,58.73242188,99.06060791,1,0,0,response1disk,,7,16.91796875,1.535339355,1,0,0,rectangle,16.91796875,1.535339355,1,0,0,16.91796875,1.535339355,1,0,0,0,2,2,34,1,,,,,,,,
,,,,,,,,,,,,,FF,,,,,,,,5.2337,,,,,,,,,,,,,,,,,,,,,,61031e3bc2b8928823a87c43,61036e5f0998bbc6b7932c03,2021-07-29_23h14.27.772,Simcolourproject_2stim_asymm_v5,2020.2.10,MacIntel,60,61025ae37ef11b136ea224fe,,,,,,,,,2911,98.9598999,-34.28302002,1,0,0,response3disk,,5,20.87872314,8.718139648,1,0,0,rectangle,20.87872314,8.718139648,1,0,0,20.87872314,8.718139648,1,0,0,0,3,3,73,1,,,,,,,,
,,,,,,,,,,,,,FF,,,,,,,,2.1997,,,,,,,,,,,,,,,,,,,,,,61031e3bc2b8928823a87c43,61036e5f0998bbc6b7932c03,2021-07-29_23h14.27.772,Simcolourproject_2stim_asymm_v5,2020.2.10,MacIntel,60,61025ae37ef11b136ea224fe,,,,,,,,,163,-43.28063965,-85.61242676,1,0,0,response5disk,,3,-16.88500977,1.28729248,1,0,0,rectangle,-16.88500977,1.28729248,1,0,0,-16.88500977,1.28729248,1,0,0,0,4,4,43,1,,,,,,,,
,,,,,,,,,,,,,FF,,,,,,,,1.0173,,,,,,,,,,,,,,,,,,,,,,61031e3bc2b8928823a87c43,61036e5f0998bbc6b7932c03,2021-07-29_23h14.27.772,Simcolourproject_2stim_asymm_v5,2020.2.10,MacIntel,60,61025ae37ef11b136ea224fe,,,,,,,,,2886,-30.140625,55.00531006,1,0,0,response7disk,,0,-21.36218262,18.03561401,1,0,0,rectangle,-21.36218262,18.03561401,1,0,0,-21.36218262,18.03561401,1,0,0,0,5,5,39,1,,,,,,,,
,,,,,,,,,,,,,FF,,,,,,,,7.9999,,,,,,,,,,,,,,,,,,,,,,61031e3bc2b8928823a87c43,61036e5f0998bbc6b7932c03,2021-07-29_23h14.27.772,Simcolourproject_2stim_asymm_v5,2020.2.10,MacIntel,60,61025ae37ef11b136ea224fe,,,,,,,,,2145,83.93377686,-28.67541504,1,0,0,response3disk,,5,39.3460083,-8.419616699,1,0,0,rectangle,39.3460083,-8.419616699,1,0,0,39.3460083,-8.419616699,1,0,0,0,6,6,58,1,,,,,,,,
,,,,,,,,,,,,,FF,,,,,,,,2.8667,,,,,,,,,,,,,,,,,,,,,,61031e3bc2b8928823a87c43,61036e5f0998bbc6b7932c03,2021-07-29_23h14.27.772,Simcolourproject_2stim_asymm_v5,2020.2.10,MacIntel,60,61025ae37ef11b136ea224fe,,,,,,,,,1083,36.63104248,-83.54949951,1,0,0,response3disk,,4,10.45214844,-5.390930176,1,0,0,rectangle,10.45214844,-5.390930176,1,0,0,10.45214844,-5.390930176,1,0,0,0,7,7,37,1,,,,,,,,
,,,,,,,,,,,,,FF,,,,,,,,2.1327,,,,,,,,,,,,,,,,,,,,,,61031e3bc2b8928823a87c43,61036e5f0998bbc6b7932c03,2021-07-29_23h14.27.772,Simcolourproject_2stim_asymm_v5,2020.2.10,MacIntel,60,61025ae37ef11b136ea224fe,,,,,,,,,204,75.97113037,-59.38562012,1,0,0,response3disk,,5,6.209106445,-9.465698242,1,0,0,rectangle,6.209106445,-9.465698242,1,0,0,6.209106445,-9.465698242,1,0,0,0,8,8,113,1,,,,,,,,
,,,,,,,,,,,,,FF,,,,,,,,1.8991,,,,,,,,,,,,,,,,,,,,,,61031e3bc2b8928823a87c43,61036e5f0998bbc6b7932c03,2021-07-29_23h14.27.772,Simcolourproject_2stim_asymm_v5,2020.2.10,MacIntel,60,61025ae37ef11b136ea224fe,,,,,,,,,3269,72.64105225,33.18252563,1,0,0,response1disk,,6,17.48651123,-1.478088379,1,0,0,rectangle,17.48651123,-1.478088379,1,0,0,17.48651123,-1.478088379,1,0,0,0,9,9,69,1,,,,,,,,
,,,,,,,,,,,,,FF,,,,,,,,2.8674,,,,,,,,,,,,,,,,,,,,,,61031e3bc2b8928823a87c43,61036e5f0998bbc6b7932c03,2021-07-29_23h14.27.772,Simcolourproject_2stim_asymm_v5,2020.2.10,MacIntel,60,61025ae37ef11b136ea224fe,,,,,,,,,706,-84.99902344,-51.16912842,1,0,0,response5disk,,2,-9.525390625,6.426269531,1,0,0,rectangle,-9.525390625,6.426269531,1,0,0,-9.525390625,6.426269531,1,0,0,0,10,10,17,1,,,,,,,,
,,,,,,,,,,,,,FF,,,,,,,,2.5333,,,,,,,,,,,,,,,,,,,,,,61031e3bc2b8928823a87c43,61036e5f0998bbc6b7932c03,2021-07-29_23h14.27.772,Simcolourproject_2stim_asymm_v5,2020.2.10,MacIntel,60,61025ae37ef11b136ea224fe,,,,,,,,,1302,-51.65917969,-82.49835205,1,0,0,response5disk,,3,-30.00140381,-6.376831055,1,0,0,rectangle,-30.00140381,-6.376831055,1,0,0,-30.00140381,-6.376831055,1,0,0,0,11,11,80,1,,,,,,,,
,,,,,,,,,,,,,FF,,,,,,,,2.4165,,,,,,,,,,,,,,,,,,,,,,61031e3bc2b8928823a87c43,61036e5f0998bbc6b7932c03,2021-07-29_23h14.27.772,Simcolourproject_2stim_asymm_v5,2020.2.10,MacIntel,60,61025ae37ef11b136ea224fe,,,,,,,,,1555,73.81195068,-59.91894531,1,0,0,response3disk,,5,23.79022217,-3.683654785,1,0,0,rectangle,23.79022217,-3.683654785,1,0,0,23.79022217,-3.683654785,1,0,0,0,12,12,14,1,,,,,,,,
,,,,,,,,,,,,,FF,,,,,,,,1.1168,,,,,,,,,,,,,,,,,,,,,,61031e3bc2b8928823a87c43,61036e5f0998bbc6b7932c03,2021-07-29_23h14.27.772,Simcolourproject_2stim_asymm_v5,2020.2.10,MacIntel,60,61025ae37ef11b136ea224fe,,,,,,,,,3308,77.62670898,35.64056396,1,0,0,response1disk,,6,7.135803223,-4.61706543,1,0,0,rectangle,7.135803223,-4.61706543,1,0,0,7.135803223,-4.61706543,1,0,0,0,13,13,141,1,,,,,,,,
,,,,,,,,,,,,,FF,,,,,,,,1.2835,,,,,,,,,,,,,,,,,,,,,,61031e3bc2b8928823a87c43,61036e5f0998bbc6b7932c03,2021-07-29_23h14.27.772,Simcolourproject_2stim_asymm_v5,2020.2.10,MacIntel,60,61025ae37ef11b136ea224fe,,,,,,,,,2673,-59.49047852,-109.1831665,1,0,0,response5disk,,3,10.69329834,-7.461242676,1,0,0,rectangle,10.69329834,-7.461242676,1,0,0,10.69329834,-7.461242676,1,0,0,0,14,14,22,1,,,,,,,,
,,,,,,,,,,,,,FF,,,,,,,,1.8164,,,,,,,,,,,,,,,,,,,,,,61031e3bc2b8928823a87c43,61036e5f0998bbc6b7932c03,2021-07-29_23h14.27.772,Simcolourproject_2stim_asymm_v5,2020.2.10,MacIntel,60,61025ae37ef11b136ea224fe,,,,,,,,,1889,-76.05322266,-35.57183838,1,0,0,response5disk,,2,3.241333008,-0.938110352,1,0,0,rectangle,-43.98205566,-81.5378418,1,0,0,-0.778259277,2.327758789,1,0,0,0,15,15,122,1,,response5disk_3,TRUE,3,3,"[72,134,159,147,16,245,103,34,43,173,96,197,232,137,220,166,96,321,193,186]",3.1841,rectangle
,,,,,,,,,,,,,FF,,,,,,,,3.2159,,,,,,,,,,,,,,,,,,,,,,61031e3bc2b8928823a87c43,61036e5f0998bbc6b7932c03,2021-07-29_23h14.27.772,Simcolourproject_2stim_asymm_v5,2020.2.10,MacIntel,60,61025ae37ef11b136ea224fe,,,,,,,,,414,46.76239014,29.41516113,1,0,0,response1disk,,6,12.9196167,4.056945801,1,0,0,rectangle,12.9196167,4.056945801,1,0,0,12.9196167,4.056945801,1,0,0,0,16,16,152,1,,,,,,,,
,,,,,,,,,,,,,FF,,,,,,,,3.0835,,,,,,,,,,,,,,,,,,,,,,61031e3bc2b8928823a87c43,61036e5f0998bbc6b7932c03,2021-07-29_23h14.27.772,Simcolourproject_2stim_asymm_v5,2020.2.10,MacIntel,60,61025ae37ef11b136ea224fe,,,,,,,,,3796,28.04956055,-79.47338867,1,0,0,response3disk,,4,16.07696533,-13.41040039,1,0,0,rectangle,16.07696533,-13.41040039,1,0,0,16.07696533,-13.41040039,1,0,0,0,17,17,135,1,,,,,,,,
,,,,,,,,,,,,,FF,,,,,,,,2.3997,,,,,,,,,,,,,,,,,,,,,,61031e3bc2b8928823a87c43,61036e5f0998bbc6b7932c03,2021-07-29_23h14.27.772,Simcolourproject_2stim_asymm_v5,2020.2.10,MacIntel,60,61025ae37ef11b136ea224fe,,,,,,,,,2066,72.12609863,-43.01275635,1,0,0,response3disk,,5,18.79730225,7.017578125,1,0,0,rectangle,18.79730225,7.017578125,1,0,0,18.79730225,7.017578125,1,0,0,0,18,18,48,1,,,,,,,,
,,,,,,,,,,,,,FF,,,,,,,,1.6495,,,,,,,,,,,,,,,,,,,,,,61031e3bc2b8928823a87c43,61036e5f0998bbc6b7932c03,2021-07-29_23h14.27.772,Simcolourproject_2stim_asymm_v5,2020.2.10,MacIntel,60,61025ae37ef11b136ea224fe,,,,,,,,,1735,-32.62335205,-81.18914795,1,0,0,response5disk,,3,-16.92321777,3.43963623,1,0,0,rectangle,-16.92321777,3.43963623,1,0,0,-16.92321777,3.43963623,1,0,0,0,19,19,63,1,,,,,,,,
,,,,,,,,,,,,,FF,,,,,,,,1.0509,,,,,,,,,,,,,,,,,,,,,,61031e3bc2b8928823a87c43,61036e5f0998bbc6b7932c03,2021-07-29_23h14.27.772,Simcolourproject_2stim_asymm_v5,2020.2.10,MacIntel,60,61025ae37ef11b136ea224fe,,,,,,,,,744,-25.42871094,-74.99987793,1,0,0,response5disk,,3,-1.963012695,-7.463867188,1,0,0,rectangle,-1.963012695,-7.463867188,1,0,0,-1.963012695,-7.463867188,1,0,0,0,20,20,98,1,,,,,,,,
,,,,,,,,,,,,,FF,,,,,,,,1.6004,,,,,,,,,,,,,,,,,,,,,,61031e3bc2b8928823a87c43,61036e5f0998bbc6b7932c03,2021-07-29_23h14.27.772,Simcolourproject_2stim_asymm_v5,2020.2.10,MacIntel,60,61025ae37ef11b136ea224fe,,,,,,,,,3489,38.67663574,-81.97320557,1,0,0,response3disk,,4,21.17523193,1.031860352,1,0,0,rectangle,21.17523193,1.031860352,1,0,0,21.17523193,1.031860352,1,0,0,0,21,21,118,1,,,,,,,,
,,,,,,,,,,,,,FF,,,,,,,,1.4488,,,,,,,,,,,,,,,,,,,,,,61031e3bc2b8928823a87c43,61036e5f0998bbc6b7932c03,2021-07-29_23h14.27.772,Simcolourproject_2stim_asymm_v5,2020.2.10,MacIntel,60,61025ae37ef11b136ea224fe,,,,,,,,,1532,-49.21551514,-81.81506348,1,0,0,response5disk,,3,-9.407104492,8.347839355,1,0,0,rectangle,-9.407104492,8.347839355,1,0,0,-9.407104492,8.347839355,1,0,0,0,22,22,112,1,,,,,,,,
,,,,,,,,,,,,,FF,,,,,,,,0.9507,,,,,,,,,,,,,,,,,,,,,,61031e3bc2b8928823a87c43,61036e5f0998bbc6b7932c03,2021-07-29_23h14.27.772,Simcolourproject_2stim_asymm_v5,2020.2.10,MacIntel,60,61025ae37ef11b136ea224fe,,,,,,,,,1691,-70.19219971,-31.18133545,1,0,0,response5disk,,2,-0.544128418,-15.88690186,1,0,0,rectangle,-0.544128418,-15.88690186,1,0,0,-0.544128418,-15.88690186,1,0,0,0,23,23,85,1,,,,,,,,
,,,,,,,,,,,,,FF,,,,,,,,1.534,,,,,,,,,,,,,,,,,,,,,,61031e3bc2b8928823a87c43,61036e5f0998bbc6b7932c03,2021-07-29_23h14.27.772,Simcolourproject_2stim_asymm_v5,2020.2.10,MacIntel,60,61025ae37ef11b136ea224fe,,,,,,,,,1263,72.33087158,-54.512146,1,0,0,response3disk,,5,20.57147217,-17.00012207,1,0,0,rectangle,20.57147217,-17.00012207,1,0,0,20.57147217,-17.00012207,1,0,0,0,24,24,25,1,,,,,,,,
,,,,,,,,,,,,,FF,,,,,,,,1.3662,,,,,,,,,,,,,,,,,,,,,,61031e3bc2b8928823a87c43,61036e5f0998bbc6b7932c03,2021-07-29_23h14.27.772,Simcolourproject_2stim_asymm_v5,2020.2.10,MacIntel,60,61025ae37ef11b136ea224fe,,,,,,,,,3749,-84.63409424,-41.87615967,1,0,0,response5disk,,2,20.73748779,-2.11505127,1,0,0,rectangle,20.73748779,-2.11505127,1,0,0,20.73748779,-2.11505127,1,0,0,0,25,25,114,1,,,,,,,,
,,,,,,,,,,,,,FF,,,,,,,,1.5168,,,,,,,,,,,,,,,,,,,,,,61031e3bc2b8928823a87c43,61036e5f0998bbc6b7932c03,2021-07-29_23h14.27.772,Simcolourproject_2stim_asymm_v5,2020.2.10,MacIntel,60,61025ae37ef11b136ea224fe,,,,,,,,,2222,49.8381958,-77.54870605,1,0,0,response3disk,,4,14.22320557,-11.72589111,1,0,0,rectangle,14.22320557,-11.72589111,1,0,0,14.22320557,-11.72589111,1,0,0,0,26,26,66,1,,,,,,,,
,,,,,,,,,,,,,FF,,,,,,,,2.1502,,,,,,,,,,,,,,,,,,,,,,61031e3bc2b8928823a87c43,61036e5f0998bbc6b7932c03,2021-07-29_23h14.27.772,Simcolourproject_2stim_asymm_v5,2020.2.10,MacIntel,60,61025ae37ef11b136ea224fe,,,,,,,,,3756,54.78082275,-64.99725342,1,0,0,response3disk,,4,13.07910156,-6.262084961,1,0,0,rectangle,13.07910156,-6.262084961,1,0,0,13.07910156,-6.262084961,1,0,0,0,27,27,125,1,,,,,,,,
,,,,,,,,,,,,,FF,,,,,,,,1.0332,,,,,,,,,,,,,,,,,,,,,,61031e3bc2b8928823a87c43,61036e5f0998bbc6b7932c03,2021-07-29_23h14.27.772,Simcolourproject_2stim_asymm_v5,2020.2.10,MacIntel,60,61025ae37ef11b136ea224fe,,,,,,,,,622,-34.39819336,-74.29937744,1,0,0,response5disk,,3,-34.32232666,-5.04888916,1,0,0,rectangle,-34.32232666,-5.04888916,1,0,0,-34.32232666,-5.04888916,1,0,0,0,28,28,121,1,,,,,,,,
,,,,,,,,,,,,,FF,,,,,,,,1.5504,,,,,,,,,,,,,,,,,,,,,,61031e3bc2b8928823a87c43,61036e5f0998bbc6b7932c03,2021-07-29_23h14.27.772,Simcolourproject_2stim_asymm_v5,2020.2.10,MacIntel,60,61025ae37ef11b136ea224fe,,,,,,,,,1276,-32.56365967,-62.43206787,1,0,0,response5disk,,3,2.926330566,7.096313477,1,0,0,rectangle,2.926330566,7.096313477,1,0,0,2.926330566,7.096313477,1,0,0,0,29,29,134,1,,,,,,,,
,,,,,,,,,,,,,FF,,,,,,,,1.3165,,,,,,,,,,,,,,,,,,,,,,61031e3bc2b8928823a87c43,61036e5f0998bbc6b7932c03,2021-07-29_23h14.27.772,Simcolourproject_2stim_asymm_v5,2020.2.10,MacIntel,60,61025ae37ef11b136ea224fe,,,,,,,,,4348,-61.33172607,-36.78991699,1,0,0,response5disk,,2,3.973876953,-1.605957031,1,0,0,rectangle,3.973876953,-1.605957031,1,0,0,3.973876953,-1.605957031,1,0,0,0,30,30,1,1,,,,,,,,
,,,,,,,,,,,,,FF,,,,,,,,0.9992,,,,,,,,,,,,,,,,,,,,,,61031e3bc2b8928823a87c43,61036e5f0998bbc6b7932c03,2021-07-29_23h14.27.772,Simcolourproject_2stim_asymm_v5,2020.2.10,MacIntel,60,61025ae37ef11b136ea224fe,,,,,,,,,2042,-28.82739258,-76.57165527,1,0,0,response5disk,,3,7.470092773,-16.54779053,1,0,0,rectangle,7.470092773,-16.54779053,1,0,0,7.470092773,-16.54779053,1,0,0,0,31,31,4,1,,,,,,,,
,,,,,,,,,,,,,FF,,,,,,,,4.2164,,,,,,,,,,,,,,,,,,,,,,61031e3bc2b8928823a87c43,61036e5f0998bbc6b7932c03,2021-07-29_23h14.27.772,Simcolourproject_2stim_asymm_v5,2020.2.10,MacIntel,60,61025ae37ef11b136ea224fe,,,,,,,,,1943,82.387146,-59.24761963,1,0,0,response3disk,,5,22.61993408,-6.388427734,1,0,0,rectangle,22.61993408,-6.388427734,1,0,0,22.61993408,-6.388427734,1,0,0,0,32,32,151,1,,,,,,,,
,,,,,,,,,,,,,FF,,,,,,,,1.183,,,,,,,,,,,,,,,,,,,,,,61031e3bc2b8928823a87c43,61036e5f0998bbc6b7932c03,2021-07-29_23h14.27.772,Simcolourproject_2stim_asymm_v5,2020.2.10,MacIntel,60,61025ae37ef11b136ea224fe,,,,,,,,,1754,-82.02459717,-42.04425049,1,0,0,response5disk,,2,-11.34204102,-2.654968262,1,0,0,rectangle,-88.34442139,-49.13543701,1,0,0,-7.781005859,-3.239196777,1,0,0,0,33,33,96,1,,response5disk_3,TRUE,2,2,"[72,134,159,147,16,245,103,34,43,173,96,197,232,137,220,166,96,321,193,186]",2.8161,rectangle
,,,,,,,,,,,,,FF,,,,,,,,3.432,,,,,,,,,,,,,,,,,,,,,,61031e3bc2b8928823a87c43,61036e5f0998bbc6b7932c03,2021-07-29_23h14.27.772,Simcolourproject_2stim_asymm_v5,2020.2.10,MacIntel,60,61025ae37ef11b136ea224fe,,,,,,,,,2758,64.9395752,-39.26116943,1,0,0,response3disk,,5,20.28271484,1.148254395,1,0,0,rectangle,20.28271484,1.148254395,1,0,0,20.28271484,1.148254395,1,0,0,0,34,34,35,1,,,,,,,,
,,,,,,,,,,,,,FF,,,,,,,,1.0667,,,,,,,,,,,,,,,,,,,,,,61031e3bc2b8928823a87c43,61036e5f0998bbc6b7932c03,2021-07-29_23h14.27.772,Simcolourproject_2stim_asymm_v5,2020.2.10,MacIntel,60,61025ae37ef11b136ea224fe,,,,,,,,,2720,-59.66424561,-37.5980835,1,0,0,response5disk,,2,0.468078613,-10.16082764,1,0,0,rectangle,0.468078613,-10.16082764,1,0,0,0.468078613,-10.16082764,1,0,0,0,35,35,95,1,,,,,,,,
,,,,,,,,,,,,,FF,,,,,,,,1.0838,,,,,,,,,,,,,,,,,,,,,,61031e3bc2b8928823a87c43,61036e5f0998bbc6b7932c03,2021-07-29_23h14.27.772,Simcolourproject_2stim_asymm_v5,2020.2.10,MacIntel,60,61025ae37ef11b136ea224fe,,,,,,,,,885,-31.12615967,64.07608032,1,0,0,response7disk,,0,-2.508544922,-1.219116211,1,0,0,rectangle,-2.508544922,-1.219116211,1,0,0,-2.508544922,-1.219116211,1,0,0,0,36,36,74,1,,,,,,,,
,,,,,,,,,,,,,FF,,,,,,,,1.7512,,,,,,,,,,,,,,,,,,,,,,61031e3bc2b8928823a87c43,61036e5f0998bbc6b7932c03,2021-07-29_23h14.27.772,Simcolourproject_2stim_asymm_v5,2020.2.10,MacIntel,60,61025ae37ef11b136ea224fe,,,,,,,,,1960,-82.98834229,-32.77294922,1,0,0,response5disk,,2,1.499694824,0.764221191,1,0,0,rectangle,1.499694824,0.764221191,1,0,0,1.499694824,0.764221191,1,0,0,0,37,37,119,1,,,,,,,,
,,,,,,,,,,,,,FF,,,,,,,,0.9828,,,,,,,,,,,,,,,,,,,,,,61031e3bc2b8928823a87c43,61036e5f0998bbc6b7932c03,2021-07-29_23h14.27.772,Simcolourproject_2stim_asymm_v5,2020.2.10,MacIntel,60,61025ae37ef11b136ea224fe,,,,,,,,,1424,-34.62573242,-59.27209473,1,0,0,response5disk,,3,3.368591309,-3.853759766,1,0,0,rectangle,3.368591309,-3.853759766,1,0,0,3.368591309,-3.853759766,1,0,0,0,38,38,156,1,,,,,,,,
,,,,,,,,,,,,,FF,,,,,,,,0.8659,,,,,,,,,,,,,,,,,,,,,,61031e3bc2b8928823a87c43,61036e5f0998bbc6b7932c03,2021-07-29_23h14.27.772,Simcolourproject_2stim_asymm_v5,2020.2.10,MacIntel,60,61025ae37ef11b136ea224fe,,,,,,,,,1697,-35.8548584,-73.31970215,1,0,0,response5disk,,3,14.19226074,-14.04589844,1,0,0,rectangle,14.19226074,-14.04589844,1,0,0,14.19226074,-14.04589844,1,0,0,0,39,39,131,1,,,,,,,,
,,,,,,,,,,,,,FF,,,,,,,,1.2668,,,,,,,,,,,,,,,,,,,,,,61031e3bc2b8928823a87c43,61036e5f0998bbc6b7932c03,2021-07-29_23h14.27.772,Simcolourproject_2stim_asymm_v5,2020.2.10,MacIntel,60,61025ae37ef11b136ea224fe,,,,,,,,,2835,-66.10571289,-45.76324463,1,0,0,response5disk,,2,-1.256103516,-15.81036377,1,0,0,rectangle,-1.256103516,-15.81036377,1,0,0,-1.256103516,-15.81036377,1,0,0,0,40,40,60,1,,,,,,,,
,,,,,,,,,,,,,FF,,,,,,,,1.6333,,,,,,,,,,,,,,,,,,,,,,61031e3bc2b8928823a87c43,61036e5f0998bbc6b7932c03,2021-07-29_23h14.27.772,Simcolourproject_2stim_asymm_v5,2020.2.10,MacIntel,60,61025ae37ef11b136ea224fe,,,,,,,,,1714,105.4956055,-49.44744873,1,0,0,response3disk,,5,22.87512207,0.382202148,1,0,0,rectangle,22.87512207,0.382202148,1,0,0,22.87512207,0.382202148,1,0,0,0,41,41,61,1,,,,,,,,
,,,,,,,,,,,,,FF,,,,,,,,1.0831,,,,,,,,,,,,,,,,,,,,,,61031e3bc2b8928823a87c43,61036e5f0998bbc6b7932c03,2021-07-29_23h14.27.772,Simcolourproject_2stim_asymm_v5,2020.2.10,MacIntel,60,61025ae37ef11b136ea224fe,,,,,,,,,3393,-80.07421875,-36.03112793,1,0,0,response5disk,,2,20.72674561,-2.906555176,1,0,0,rectangle,-93.09838867,-50.77111816,1,0,0,11.88085938,-5.317016602,1,0,0,0,42,42,13,1,,response5disk_3,TRUE,2,2,"[72,134,159,147,16,245,103,34,43,173,96,197,232,137,220,166,96,321,193,186]",2.4325,rectangle
,,,,,,,,,,,,,FF,,,,,,,,1.7328,,,,,,,,,,,,,,,,,,,,,,61031e3bc2b8928823a87c43,61036e5f0998bbc6b7932c03,2021-07-29_23h14.27.772,Simcolourproject_2stim_asymm_v5,2020.2.10,MacIntel,60,61025ae37ef11b136ea224fe,,,,,,,,,1460,-70.37683105,33.33157349,1,0,0,response7disk,,1,-21.58502197,3.162109375,1,0,0,rectangle,-21.58502197,3.162109375,1,0,0,-21.58502197,3.162109375,1,0,0,0,43,43,50,1,,,,,,,,
,,,,,,,,,,,,,FF,,,,,,,,3.0338,,,,,,,,,,,,,,,,,,,,,,61031e3bc2b8928823a87c43,61036e5f0998bbc6b7932c03,2021-07-29_23h14.27.772,Simcolourproject_2stim_asymm_v5,2020.2.10,MacIntel,60,61025ae37ef11b136ea224fe,,,,,,,,,3184,111.5530396,25.75778198,1,0,0,response1disk,,6,10.77209473,-1.672302246,1,0,0,rectangle,10.77209473,-1.672302246,1,0,0,10.77209473,-1.672302246,1,0,0,0,44,44,31,1,,,,,,,,
,,,,,,,,,,,,,FF,,,,,,,,4.0335,,,,,,,,,,,,,,,,,,,,,,61031e3bc2b8928823a87c43,61036e5f0998bbc6b7932c03,2021-07-29_23h14.27.772,Simcolourproject_2stim_asymm_v5,2020.2.10,MacIntel,60,61025ae37ef11b136ea224fe,,,,,,,,,4157,29.64233398,-102.4358521,1,0,0,response3disk,,4,-2.324584961,-15.36126709,1,0,0,rectangle,-2.324584961,-15.36126709,1,0,0,-2.324584961,-15.36126709,1,0,0,0,45,45,70,1,,,,,,,,
,,,,,,,,,,,,,FF,,,,,,,,2.883,,,,,,,,,,,,,,,,,,,,,,61031e3bc2b8928823a87c43,61036e5f0998bbc6b7932c03,2021-07-29_23h14.27.772,Simcolourproject_2stim_asymm_v5,2020.2.10,MacIntel,60,61025ae37ef11b136ea224fe,,,,,,,,,1349,70.60919189,22.46670532,1,0,0,response1disk,,6,4.104003906,-4.794250488,1,0,0,rectangle,4.104003906,-4.794250488,1,0,0,4.104003906,-4.794250488,1,0,0,0,46,46,106,1,,,,,,,,
,,,,,,,,,,,,,FF,,,,,,,,2.7661,,,,,,,,,,,,,,,,,,,,,,61031e3bc2b8928823a87c43,61036e5f0998bbc6b7932c03,2021-07-29_23h14.27.772,Simcolourproject_2stim_asymm_v5,2020.2.10,MacIntel,60,61025ae37ef11b136ea224fe,,,,,,,,,1742,55.94500732,62.90682983,1,0,0,response1disk,,7,31.98828125,4.570129395,1,0,0,rectangle,31.98828125,4.570129395,1,0,0,31.98828125,4.570129395,1,0,0,0,47,47,40,1,,,,,,,,
,,,,,,,,,,,,,FF,,,,,,,,2.6836,,,,,,,,,,,,,,,,,,,,,,61031e3bc2b8928823a87c43,61036e5f0998bbc6b7932c03,2021-07-29_23h14.27.772,Simcolourproject_2stim_asymm_v5,2020.2.10,MacIntel,60,61025ae37ef11b136ea224fe,,,,,,,,,3208,63.60455322,37.28262329,1,0,0,response1disk,,6,13.5201416,1.65411377,1,0,0,rectangle,13.5201416,1.65411377,1,0,0,13.5201416,1.65411377,1,0,0,0,48,48,79,1,,,,,,,,
,,,,,,,,,,,,,FF,,,,,,,,3.1669,,,,,,,,,,,,,,,,,,,,,,61031e3bc2b8928823a87c43,61036e5f0998bbc6b7932c03,2021-07-29_23h14.27.772,Simcolourproject_2stim_asymm_v5,2020.2.10,MacIntel,60,61025ae37ef11b136ea224fe,,,,,,,,,1877,35.159729,62.69335938,1,0,0,response1disk,,7,5.792724609,6.127075195,1,0,0,rectangle,5.792724609,6.127075195,1,0,0,5.792724609,6.127075195,1,0,0,0,49,49,126,1,,,,,,,,
,,,,,,,,,,,,,FF,,,,,,,,1.3336,,,,,,,,,,,,,,,,,,,,,,61031e3bc2b8928823a87c43,61036e5f0998bbc6b7932c03,2021-07-29_23h14.27.772,Simcolourproject_2stim_asymm_v5,2020.2.10,MacIntel,60,61025ae37ef11b136ea224fe,,,,,,,,,1605,-38.05737305,-75.41699219,1,0,0,response5disk,,3,-8.307250977,-0.825195313,1,0,0,rectangle,-8.307250977,-0.825195313,1,0,0,-8.307250977,-0.825195313,1,0,0,0,50,50,32,1,,,,,,,,
,,,,,,,,,,,,,FF,,,,,,,,1.8664,,,,,,,,,,,,,,,,,,,,,,61031e3bc2b8928823a87c43,61036e5f0998bbc6b7932c03,2021-07-29_23h14.27.772,Simcolourproject_2stim_asymm_v5,2020.2.10,MacIntel,60,61025ae37ef11b136ea224fe,,,,,,,,,3792,43.02624512,-77.09234619,1,0,0,response3disk,,4,14.90441895,-14.88165283,1,0,0,rectangle,14.90441895,-14.88165283,1,0,0,14.90441895,-14.88165283,1,0,0,0,51,51,71,1,,,,,,,,
,,,,,,,,,,,,,FF,,,,,,,,0.9999,,,,,,,,,,,,,,,,,,,,,,61031e3bc2b8928823a87c43,61036e5f0998bbc6b7932c03,2021-07-29_23h14.27.772,Simcolourproject_2stim_asymm_v5,2020.2.10,MacIntel,60,61025ae37ef11b136ea224fe,,,,,,,,,3189,-49.38977051,-32.99310303,1,0,0,response5disk,,2,-2.597900391,-13.50976563,1,0,0,rectangle,-2.597900391,-13.50976563,1,0,0,-2.597900391,-13.50976563,1,0,0,0,52,52,26,1,,,,,,,,
,,,,,,,,,,,,,FF,,,,,,,,1.7003,,,,,,,,,,,,,,,,,,,,,,61031e3bc2b8928823a87c43,61036e5f0998bbc6b7932c03,2021-07-29_23h14.27.772,Simcolourproject_2stim_asymm_v5,2020.2.10,MacIntel,60,61025ae37ef11b136ea224fe,,,,,,,,,764,71.45635986,-50.20489502,1,0,0,response3disk,,5,15.72729492,-16.50250244,1,0,0,rectangle,15.72729492,-16.50250244,1,0,0,15.72729492,-16.50250244,1,0,0,0,53,53,149,1,,,,,,,,
,,,,,,,,,,,,,FF,,,,,,,,1.9001,,,,,,,,,,,,,,,,,,,,,,61031e3bc2b8928823a87c43,61036e5f0998bbc6b7932c03,2021-07-29_23h14.27.772,Simcolourproject_2stim_asymm_v5,2020.2.10,MacIntel,60,61025ae37ef11b136ea224fe,,,,,,,,,584,33.55737305,-47.41345215,1,0,0,response3disk,,4,6.612243652,-4.966430664,1,0,0,rectangle,6.612243652,-4.966430664,1,0,0,6.612243652,-4.966430664,1,0,0,0,54,54,107,1,,,,,,,,
,,,,,,,,,,,,,FF,,,,,,,,1.617,,,,,,,,,,,,,,,,,,,,,,61031e3bc2b8928823a87c43,61036e5f0998bbc6b7932c03,2021-07-29_23h14.27.772,Simcolourproject_2stim_asymm_v5,2020.2.10,MacIntel,60,61025ae37ef11b136ea224fe,,,,,,,,,2574,78.70654297,-39.9810791,1,0,0,response3disk,,5,10.89147949,-16.91162109,1,0,0,rectangle,10.89147949,-16.91162109,1,0,0,10.89147949,-16.91162109,1,0,0,0,55,55,100,1,,,,,,,,
,,,,,,,,,,,,,FF,,,,,,,,1.4833,,,,,,,,,,,,,,,,,,,,,,61031e3bc2b8928823a87c43,61036e5f0998bbc6b7932c03,2021-07-29_23h14.27.772,Simcolourproject_2stim_asymm_v5,2020.2.10,MacIntel,60,61025ae37ef11b136ea224fe,,,,,,,,,1468,-22.76959229,-59.71850586,1,0,0,response5disk,,3,-4.159057617,3.301879883,1,0,0,rectangle,-4.159057617,3.301879883,1,0,0,-4.159057617,3.301879883,1,0,0,0,56,56,136,1,,,,,,,,
,,,,,,,,,,,,,FF,,,,,,,,1.4997,,,,,,,,,,,,,,,,,,,,,,61031e3bc2b8928823a87c43,61036e5f0998bbc6b7932c03,2021-07-29_23h14.27.772,Simcolourproject_2stim_asymm_v5,2020.2.10,MacIntel,60,61025ae37ef11b136ea224fe,,,,,,,,,4285,70.19464111,37.67437744,1,0,0,response1disk,,6,-21.73242188,10.03167725,1,0,0,rectangle,-21.73242188,10.03167725,1,0,0,-21.73242188,10.03167725,1,0,0,0,57,57,36,1,,,,,,,,
,,,,,,,,,,,,,FF,,,,,,,,1.5342,,,,,,,,,,,,,,,,,,,,,,61031e3bc2b8928823a87c43,61036e5f0998bbc6b7932c03,2021-07-29_23h14.27.772,Simcolourproject_2stim_asymm_v5,2020.2.10,MacIntel,60,61025ae37ef11b136ea224fe,,,,,,,,,3741,-74.62884521,-36.30895996,1,0,0,response5disk,,2,-30.91571045,-9.854614258,1,0,0,rectangle,-30.91571045,-9.854614258,1,0,0,-30.91571045,-9.854614258,1,0,0,0,58,58,150,1,,,,,,,,
,,,,,,,,,,,,,FF,,,,,,,,1.9333,,,,,,,,,,,,,,,,,,,,,,61031e3bc2b8928823a87c43,61036e5f0998bbc6b7932c03,2021-07-29_23h14.27.772,Simcolourproject_2stim_asymm_v5,2020.2.10,MacIntel,60,61025ae37ef11b136ea224fe,,,,,,,,,3905,78.28283691,29.70095825,1,0,0,response1disk,,6,-1.148254395,-20.94378662,1,0,0,rectangle,-1.148254395,-20.94378662,1,0,0,-1.148254395,-20.94378662,1,0,0,0,59,59,54,1,,,,,,,,
,,,,,,,,,,,,,FF,,,,,,,,1.4498,,,,,,,,,,,,,,,,,,,,,,61031e3bc2b8928823a87c43,61036e5f0998bbc6b7932c03,2021-07-29_23h14.27.772,Simcolourproject_2stim_asymm_v5,2020.2.10,MacIntel,60,61025ae37ef11b136ea224fe,,,,,,,,,3807,40.36462402,-73.1607666,1,0,0,response3disk,,4,18.40869141,-9.515075684,1,0,0,rectangle,18.40869141,-9.515075684,1,0,0,18.40869141,-9.515075684,1,0,0,0,60,60,153,1,,,,,,,,
,,,,,,,,,,,,,FF,,,,,,,,3.2165,,,,,,,,,,,,,,,,,,,,,,61031e3bc2b8928823a87c43,61036e5f0998bbc6b7932c03,2021-07-29_23h14.27.772,Simcolourproject_2stim_asymm_v5,2020.2.10,MacIntel,60,61025ae37ef11b136ea224fe,,,,,,,,,770,81.37658691,-48.64880371,1,0,0,response3disk,,5,5.267150879,7.205322266,1,0,0,rectangle,5.267150879,7.205322266,1,0,0,5.267150879,7.205322266,1,0,0,0,61,61,97,1,,,,,,,,
,,,,,,,,,,,,,FF,,,,,,,,3.1332,,,,,,,,,,,,,,,,,,,,,,61031e3bc2b8928823a87c43,61036e5f0998bbc6b7932c03,2021-07-29_23h14.27.772,Simcolourproject_2stim_asymm_v5,2020.2.10,MacIntel,60,61025ae37ef11b136ea224fe,,,,,,,,,31,75.83746338,35.90631104,1,0,0,response1disk,,6,8.01361084,4.569152832,1,0,0,rectangle,8.01361084,4.569152832,1,0,0,8.01361084,4.569152832,1,0,0,0,62,62,159,1,,,,,,,,
,,,,,,,,,,,,,FF,,,,,,,,2.4832,,,,,,,,,,,,,,,,,,,,,,61031e3bc2b8928823a87c43,61036e5f0998bbc6b7932c03,2021-07-29_23h14.27.772,Simcolourproject_2stim_asymm_v5,2020.2.10,MacIntel,60,61025ae37ef11b136ea224fe,,,,,,,,,1177,65.41967773,25.09301758,1,0,0,response1disk,,6,-11.72460938,6.314941406,1,0,0,rectangle,-11.72460938,6.314941406,1,0,0,-11.72460938,6.314941406,1,0,0,0,63,63,53,1,,,,,,,,
,,,,,,,,,,,,,FF,,,,,,,,2.1665,,,,,,,,,,,,,,,,,,,,,,61031e3bc2b8928823a87c43,61036e5f0998bbc6b7932c03,2021-07-29_23h14.27.772,Simcolourproject_2stim_asymm_v5,2020.2.10,MacIntel,60,61025ae37ef11b136ea224fe,,,,,,,,,3367,80.11383057,-39.7911377,1,0,0,response3disk,,5,16.23565674,8.996887207,1,0,0,rectangle,16.23565674,8.996887207,1,0,0,16.23565674,8.996887207,1,0,0,0,64,64,116,1,,,,,,,,
,,,,,,,,,,,,,FF,,,,,,,,2.2659,,,,,,,,,,,,,,,,,,,,,,61031e3bc2b8928823a87c43,61036e5f0998bbc6b7932c03,2021-07-29_23h14.27.772,Simcolourproject_2stim_asymm_v5,2020.2.10,MacIntel,60,61025ae37ef11b136ea224fe,,,,,,,,,410,62.89086914,-42.0894165,1,0,0,response3disk,,5,-15.33660889,-17.29223633,1,0,0,rectangle,-15.33660889,-17.29223633,1,0,0,-15.33660889,-17.29223633,1,0,0,0,65,65,65,1,,,,,,,,
,,,,,,,,,,,,,FF,,,,,,,,2.8999,,,,,,,,,,,,,,,,,,,,,,61031e3bc2b8928823a87c43,61036e5f0998bbc6b7932c03,2021-07-29_23h14.27.772,Simcolourproject_2stim_asymm_v5,2020.2.10,MacIntel,60,61025ae37ef11b136ea224fe,,,,,,,,,2640,62.70031738,40.01879883,1,0,0,response1disk,,6,-17.17724609,1.381896973,1,0,0,rectangle,-17.17724609,1.381896973,1,0,0,-17.17724609,1.381896973,1,0,0,0,66,66,78,1,,,,,,,,
,,,,,,,,,,,,,FF,,,,,,,,0.8673,,,,,,,,,,,,,,,,,,,,,,61031e3bc2b8928823a87c43,61036e5f0998bbc6b7932c03,2021-07-29_23h14.27.772,Simcolourproject_2stim_asymm_v5,2020.2.10,MacIntel,60,61025ae37ef11b136ea224fe,,,,,,,,,4362,-34.93347168,78.47387695,1,0,0,response7disk,,0,-19.7098999,13.59957886,1,0,0,rectangle,-19.7098999,13.59957886,1,0,0,-19.7098999,13.59957886,1,0,0,0,67,67,15,1,,,,,,,,
,,,,,,,,,,,,,FF,,,,,,,,2.6498,,,,,,,,,,,,,,,,,,,,,,61031e3bc2b8928823a87c43,61036e5f0998bbc6b7932c03,2021-07-29_23h14.27.772,Simcolourproject_2stim_asymm_v5,2020.2.10,MacIntel,60,61025ae37ef11b136ea224fe,,,,,,,,,2760,75.96679688,-52.97558594,1,0,0,response3disk,,5,20.08093262,-11.18359375,1,0,0,rectangle,20.08093262,-11.18359375,1,0,0,20.08093262,-11.18359375,1,0,0,0,68,68,86,1,,,,,,,,
,,,,,,,,,,,,,FF,,,,,,,,4.3496,,,,,,,,,,,,,,,,,,,,,,61031e3bc2b8928823a87c43,61036e5f0998bbc6b7932c03,2021-07-29_23h14.27.772,Simcolourproject_2stim_asymm_v5,2020.2.10,MacIntel,60,61025ae37ef11b136ea224fe,,,,,,,,,3941,109.4003906,-30.00646973,1,0,0,response3disk,,5,10.63018799,-1.480712891,1,0,0,rectangle,10.63018799,-1.480712891,1,0,0,10.63018799,-1.480712891,1,0,0,0,69,69,90,1,,,,,,,,
,,,,,,,,,,,,,FF,,,,,,,,1.1327,,,,,,,,,,,,,,,,,,,,,,61031e3bc2b8928823a87c43,61036e5f0998bbc6b7932c03,2021-07-29_23h14.27.772,Simcolourproject_2stim_asymm_v5,2020.2.10,MacIntel,60,61025ae37ef11b136ea224fe,,,,,,,,,1606,-44.62628174,-75.23876953,1,0,0,response5disk,,3,1.778564453,5.429931641,1,0,0,rectangle,1.778564453,5.429931641,1,0,0,1.778564453,5.429931641,1,0,0,0,70,70,20,1,,,,,,,,
,,,,,,,,,,,,,FF,,,,,,,,1.4999,,,,,,,,,,,,,,,,,,,,,,61031e3bc2b8928823a87c43,61036e5f0998bbc6b7932c03,2021-07-29_23h14.27.772,Simcolourproject_2stim_asymm_v5,2020.2.10,MacIntel,60,61025ae37ef11b136ea224fe,,,,,,,,,3571,72.50152588,37.46594238,1,0,0,response1disk,,6,2.342407227,0.637084961,1,0,0,rectangle,58.64733887,-104.9789429,1,0,0,3.241882324,-11.86273193,1,0,0,0,71,71,45,1,,response3disk_3,TRUE,4,4,"[72,134,159,147,16,245,103,34,43,173,96,197,232,137,220,166,96,321,193,186]",3.5165,rectangle
,,,,,,,,,,,,,FF,,,,,,,,4.666,,,,,,,,,,,,,,,,,,,,,,61031e3bc2b8928823a87c43,61036e5f0998bbc6b7932c03,2021-07-29_23h14.27.772,Simcolourproject_2stim_asymm_v5,2020.2.10,MacIntel,60,61025ae37ef11b136ea224fe,,,,,,,,,4304,42.480896,-72.10748291,1,0,0,response3disk,,4,8.117004395,-7.299072266,1,0,0,rectangle,8.117004395,-7.299072266,1,0,0,8.117004395,-7.299072266,1,0,0,0,72,72,105,1,,,,,,,,
,,,,,,,,,,,,,FF,,,,,,,,2.5994,,,,,,,,,,,,,,,,,,,,,,61031e3bc2b8928823a87c43,61036e5f0998bbc6b7932c03,2021-07-29_23h14.27.772,Simcolourproject_2stim_asymm_v5,2020.2.10,MacIntel,60,61025ae37ef11b136ea224fe,,,,,,,,,2079,112.0669556,-42.96862793,1,0,0,response3disk,,5,9.156494141,-17.7432251,1,0,0,rectangle,9.156494141,-17.7432251,1,0,0,9.156494141,-17.7432251,1,0,0,0,73,73,41,1,,,,,,,,
,,,,,,,,,,,,,FF,,,,,,,,1.2173,,,,,,,,,,,,,,,,,,,,,,61031e3bc2b8928823a87c43,61036e5f0998bbc6b7932c03,2021-07-29_23h14.27.772,Simcolourproject_2stim_asymm_v5,2020.2.10,MacIntel,60,61025ae37ef11b136ea224fe,,,,,,,,,1802,66.83740234,31.69091797,1,0,0,response1disk,,6,18.97125244,5.528930664,1,0,0,rectangle,18.97125244,5.528930664,1,0,0,18.97125244,5.528930664,1,0,0,0,74,74,51,1,,,,,,,,
,,,,,,,,,,,,,FF,,,,,,,,1.1496,,,,,,,,,,,,,,,,,,,,,,61031e3bc2b8928823a87c43,61036e5f0998bbc6b7932c03,2021-07-29_23h14.27.772,Simcolourproject_2stim_asymm_v5,2020.2.10,MacIntel,60,61025ae37ef11b136ea224fe,,,,,,,,,3445,37.10040283,-66.51739502,1,0,0,response3disk,,4,8.429321289,-0.562561035,1,0,0,rectangle,8.429321289,-0.562561035,1,0,0,8.429321289,-0.562561035,1,0,0,0,75,75,142,1,,,,,,,,
,,,,,,,,,,,,,FF,,,,,,,,1.3493,,,,,,,,,,,,,,,,,,,,,,61031e3bc2b8928823a87c43,61036e5f0998bbc6b7932c03,2021-07-29_23h14.27.772,Simcolourproject_2stim_asymm_v5,2020.2.10,MacIntel,60,61025ae37ef11b136ea224fe,,,,,,,,,4269,-49.87823486,-65.26464844,1,0,0,response5disk,,3,-8.732116699,-10.8381958,1,0,0,rectangle,-8.732116699,-10.8381958,1,0,0,-8.732116699,-10.8381958,1,0,0,0,76,76,0,1,,,,,,,,
,,,,,,,,,,,,,FF,,,,,,,,1.1831,,,,,,,,,,,,,,,,,,,,,,61031e3bc2b8928823a87c43,61036e5f0998bbc6b7932c03,2021-07-29_23h14.27.772,Simcolourproject_2stim_asymm_v5,2020.2.10,MacIntel,60,61025ae37ef11b136ea224fe,,,,,,,,,2115,-33.7142334,-63.24224854,1,0,0,response5disk,,3,-9.094055176,-18.00036621,1,0,0,rectangle,-9.094055176,-18.00036621,1,0,0,-9.094055176,-18.00036621,1,0,0,0,77,77,23,1,,,,,,,,
,,,,,,,,,,,,,FF,,,,,,,,0.9001,,,,,,,,,,,,,,,,,,,,,,61031e3bc2b8928823a87c43,61036e5f0998bbc6b7932c03,2021-07-29_23h14.27.772,Simcolourproject_2stim_asymm_v5,2020.2.10,MacIntel,60,61025ae37ef11b136ea224fe,,,,,,,,,442,-59.65563965,-34.5682373,1,0,0,response5disk,,2,-14.74761963,-16.55358887,1,0,0,rectangle,-14.74761963,-16.55358887,1,0,0,-14.74761963,-16.55358887,1,0,0,0,78,78,67,1,,,,,,,,
,,,,,,,,,,,,,FF,,,,,,,,1.2667,,,,,,,,,,,,,,,,,,,,,,61031e3bc2b8928823a87c43,61036e5f0998bbc6b7932c03,2021-07-29_23h14.27.772,Simcolourproject_2stim_asymm_v5,2020.2.10,MacIntel,60,61025ae37ef11b136ea224fe,,,,,,,,,935,88.26312256,27.64926147,1,0,0,response1disk,,6,20.2364502,0.257507324,1,0,0,rectangle,20.2364502,0.257507324,1,0,0,20.2364502,0.257507324,1,0,0,0,79,79,59,1,,,,,,,,
,,,,,,,,,,,,,FF,,,,,,,,1.1339,,,,,,,,,,,,,,,,,,,,,,61031e3bc2b8928823a87c43,61036e5f0998bbc6b7932c03,2021-07-29_23h14.27.772,Simcolourproject_2stim_asymm_v5,2020.2.10,MacIntel,60,61025ae37ef11b136ea224fe,,,,,,,,,2733,-59.67364502,-76.86907959,1,0,0,response5disk,,3,-12.74688721,-11.35894775,1,0,0,rectangle,-12.74688721,-11.35894775,1,0,0,-12.74688721,-11.35894775,1,0,0,0,80,80,83,1,,,,,,,,
,,,,,,,,,,,,,FF,,,,,,,,1.4164,,,,,,,,,,,,,,,,,,,,,,61031e3bc2b8928823a87c43,61036e5f0998bbc6b7932c03,2021-07-29_23h14.27.772,Simcolourproject_2stim_asymm_v5,2020.2.10,MacIntel,60,61025ae37ef11b136ea224fe,,,,,,,,,1141,-31.13677979,-67.94689941,1,0,0,response5disk,,3,5.878723145,-5.28314209,1,0,0,rectangle,5.878723145,-5.28314209,1,0,0,5.878723145,-5.28314209,1,0,0,0,81,81,57,1,,,,,,,,
,,,,,,,,,,,,,FF,,,,,,,,1.6996,,,,,,,,,,,,,,,,,,,,,,61031e3bc2b8928823a87c43,61036e5f0998bbc6b7932c03,2021-07-29_23h14.27.772,Simcolourproject_2stim_asymm_v5,2020.2.10,MacIntel,60,61025ae37ef11b136ea224fe,,,,,,,,,1945,71.98797607,-33.74029541,1,0,0,response3disk,,5,19.10046387,-5.46295166,1,0,0,rectangle,19.10046387,-5.46295166,1,0,0,19.10046387,-5.46295166,1,0,0,0,82,82,99,1,,,,,,,,
,,,,,,,,,,,,,FF,,,,,,,,2.583,,,,,,,,,,,,,,,,,,,,,,61031e3bc2b8928823a87c43,61036e5f0998bbc6b7932c03,2021-07-29_23h14.27.772,Simcolourproject_2stim_asymm_v5,2020.2.10,MacIntel,60,61025ae37ef11b136ea224fe,,,,,,,,,3117,98.50427246,-39.70281982,1,0,0,response3disk,,5,37.62731934,-19.52990723,1,0,0,rectangle,37.62731934,-19.52990723,1,0,0,37.62731934,-19.52990723,1,0,0,0,83,83,12,1,,,,,,,,
,,,,,,,,,,,,,FF,,,,,,,,2.1002,,,,,,,,,,,,,,,,,,,,,,61031e3bc2b8928823a87c43,61036e5f0998bbc6b7932c03,2021-07-29_23h14.27.772,Simcolourproject_2stim_asymm_v5,2020.2.10,MacIntel,60,61025ae37ef11b136ea224fe,,,,,,,,,3288,33.01934814,-95.92523193,1,0,0,response3disk,,4,17.52758789,-9.789672852,1,0,0,rectangle,17.52758789,-9.789672852,1,0,0,17.52758789,-9.789672852,1,0,0,0,84,84,111,1,,,,,,,,
,,,,,,,,,,,,,FF,,,,,,,,0.7167,,,,,,,,,,,,,,,,,,,,,,61031e3bc2b8928823a87c43,61036e5f0998bbc6b7932c03,2021-07-29_23h14.27.772,Simcolourproject_2stim_asymm_v5,2020.2.10,MacIntel,60,61025ae37ef11b136ea224fe,,,,,,,,,2093,-27.54949951,62.5227356,1,0,0,response7disk,,0,-11.47943115,8.399353027,1,0,0,rectangle,-11.47943115,8.399353027,1,0,0,-11.47943115,8.399353027,1,0,0,0,85,85,115,1,,,,,,,,
,,,,,,,,,,,,,FF,,,,,,,,0.9996,,,,,,,,,,,,,,,,,,,,,,61031e3bc2b8928823a87c43,61036e5f0998bbc6b7932c03,2021-07-29_23h14.27.772,Simcolourproject_2stim_asymm_v5,2020.2.10,MacIntel,60,61025ae37ef11b136ea224fe,,,,,,,,,2852,83.03125,38.25369263,1,0,0,response1disk,,6,2.654418945,-16.92907715,1,0,0,rectangle,2.654418945,-16.92907715,1,0,0,2.654418945,-16.92907715,1,0,0,0,86,86,72,1,,,,,,,,
,,,,,,,,,,,,,FF,,,,,,,,1.234,,,,,,,,,,,,,,,,,,,,,,61031e3bc2b8928823a87c43,61036e5f0998bbc6b7932c03,2021-07-29_23h14.27.772,Simcolourproject_2stim_asymm_v5,2020.2.10,MacIntel,60,61025ae37ef11b136ea224fe,,,,,,,,,1991,102.258606,52.462677,1,0,0,response1disk,,6,21.21606445,6.07244873,1,0,0,rectangle,21.21606445,6.07244873,1,0,0,21.21606445,6.07244873,1,0,0,0,87,87,62,1,,,,,,,,
,,,,,,,,,,,,,FF,,,,,,,,0.8333,,,,,,,,,,,,,,,,,,,,,,61031e3bc2b8928823a87c43,61036e5f0998bbc6b7932c03,2021-07-29_23h14.27.772,Simcolourproject_2stim_asymm_v5,2020.2.10,MacIntel,60,61025ae37ef11b136ea224fe,,,,,,,,,795,66.12298584,-29.94848633,1,0,0,response3disk,,5,16.38409424,-12.57220459,1,0,0,rectangle,16.38409424,-12.57220459,1,0,0,16.38409424,-12.57220459,1,0,0,0,88,88,11,1,,,,,,,,
,,,,,,,,,,,,,FF,,,,,,,,1.0331,,,,,,,,,,,,,,,,,,,,,,61031e3bc2b8928823a87c43,61036e5f0998bbc6b7932c03,2021-07-29_23h14.27.772,Simcolourproject_2stim_asymm_v5,2020.2.10,MacIntel,60,61025ae37ef11b136ea224fe,,,,,,,,,3103,-30.81262207,-74.11999512,1,0,0,response5disk,,3,7.860778809,-5.053894043,1,0,0,rectangle,7.860778809,-5.053894043,1,0,0,7.860778809,-5.053894043,1,0,0,0,89,89,133,1,,,,,,,,
,,,,,,,,,,,,,FF,,,,,,,,1.5002,,,,,,,,,,,,,,,,,,,,,,61031e3bc2b8928823a87c43,61036e5f0998bbc6b7932c03,2021-07-29_23h14.27.772,Simcolourproject_2stim_asymm_v5,2020.2.10,MacIntel,60,61025ae37ef11b136ea224fe,,,,,,,,,617,-40.5826416,-83.43988037,1,0,0,response5disk,,3,-6.681518555,-13.05859375,1,0,0,rectangle,-6.681518555,-13.05859375,1,0,0,-6.681518555,-13.05859375,1,0,0,0,90,90,104,1,,,,,,,,
,,,,,,,,,,,,,FF,,,,,,,,1.5659,,,,,,,,,,,,,,,,,,,,,,61031e3bc2b8928823a87c43,61036e5f0998bbc6b7932c03,2021-07-29_23h14.27.772,Simcolourproject_2stim_asymm_v5,2020.2.10,MacIntel,60,61025ae37ef11b136ea224fe,,,,,,,,,3621,64.02001953,28.82046509,1,0,0,response1disk,,6,-6.192138672,0.496765137,1,0,0,rectangle,-6.192138672,0.496765137,1,0,0,-6.192138672,0.496765137,1,0,0,0,91,91,120,1,,,,,,,,
,,,,,,,,,,,,,FF,,,,,,,,3.6328,,,,,,,,,,,,,,,,,,,,,,61031e3bc2b8928823a87c43,61036e5f0998bbc6b7932c03,2021-07-29_23h14.27.772,Simcolourproject_2stim_asymm_v5,2020.2.10,MacIntel,60,61025ae37ef11b136ea224fe,,,,,,,,,921,83.87786865,-50.11419678,1,0,0,response3disk,,5,10.80975342,-2.685180664,1,0,0,rectangle,10.80975342,-2.685180664,1,0,0,10.80975342,-2.685180664,1,0,0,0,92,92,103,1,,,,,,,,
,,,,,,,,,,,,,FF,,,,,,,,1.8666,,,,,,,,,,,,,,,,,,,,,,61031e3bc2b8928823a87c43,61036e5f0998bbc6b7932c03,2021-07-29_23h14.27.772,Simcolourproject_2stim_asymm_v5,2020.2.10,MacIntel,60,61025ae37ef11b136ea224fe,,,,,,,,,1513,36.46929932,-109.4931641,1,0,0,response3disk,,4,5.651733398,-8.015136719,1,0,0,rectangle,5.651733398,-8.015136719,1,0,0,5.651733398,-8.015136719,1,0,0,0,93,93,21,1,,,,,,,,
,,,,,,,,,,,,,FF,,,,,,,,1.5172,,,,,,,,,,,,,,,,,,,,,,61031e3bc2b8928823a87c43,61036e5f0998bbc6b7932c03,2021-07-29_23h14.27.772,Simcolourproject_2stim_asymm_v5,2020.2.10,MacIntel,60,61025ae37ef11b136ea224fe,,,,,,,,,428,86.1338501,-34.32312012,1,0,0,response3disk,,5,14.88989258,-10.85717773,1,0,0,rectangle,14.88989258,-10.85717773,1,0,0,14.88989258,-10.85717773,1,0,0,0,94,94,157,1,,,,,,,,
,,,,,,,,,,,,,FF,,,,,,,,3.1165,,,,,,,,,,,,,,,,,,,,,,61031e3bc2b8928823a87c43,61036e5f0998bbc6b7932c03,2021-07-29_23h14.27.772,Simcolourproject_2stim_asymm_v5,2020.2.10,MacIntel,60,61025ae37ef11b136ea224fe,,,,,,,,,1517,99.45928955,-47.57745361,1,0,0,response3disk,,5,-8.317077637,-19.29449463,1,0,0,rectangle,-73.23840332,37.37649536,1,0,0,-6.25201416,8.785888672,1,0,0,0,95,95,155,1,,response7disk_3,TRUE,1,1,"[72,134,159,147,16,245,103,34,43,173,96,197,232,137,220,166,96,321,193,186]",1.3831,rectangle
,,,,,,,,,,,,,FF,,,,,,,,0.9328,,,,,,,,,,,,,,,,,,,,,,61031e3bc2b8928823a87c43,61036e5f0998bbc6b7932c03,2021-07-29_23h14.27.772,Simcolourproject_2stim_asymm_v5,2020.2.10,MacIntel,60,61025ae37ef11b136ea224fe,,,,,,,,,2106,-33.06140137,-79.8581543,1,0,0,response5disk,,3,-2.957641602,1.627563477,1,0,0,rectangle,-2.957641602,1.627563477,1,0,0,-2.957641602,1.627563477,1,0,0,0,96,96,91,1,,,,,,,,
,,,,,,,,,,,,,FF,,,,,,,,4.3836,,,,,,,,,,,,,,,,,,,,,,61031e3bc2b8928823a87c43,61036e5f0998bbc6b7932c03,2021-07-29_23h14.27.772,Simcolourproject_2stim_asymm_v5,2020.2.10,MacIntel,60,61025ae37ef11b136ea224fe,,,,,,,,,61,85.4208374,-44.95367432,1,0,0,response3disk,,5,6.635620117,-14.65142822,1,0,0,rectangle,6.635620117,-14.65142822,1,0,0,6.635620117,-14.65142822,1,0,0,0,97,97,132,1,,,,,,,,
,,,,,,,,,,,,,FF,,,,,,,,0.8173,,,,,,,,,,,,,,,,,,,,,,61031e3bc2b8928823a87c43,61036e5f0998bbc6b7932c03,2021-07-29_23h14.27.772,Simcolourproject_2stim_asymm_v5,2020.2.10,MacIntel,60,61025ae37ef11b136ea224fe,,,,,,,,,3338,-29.81109619,-82.31713867,1,0,0,response5disk,,3,3.219604492,3.045654297,1,0,0,rectangle,3.219604492,3.045654297,1,0,0,3.219604492,3.045654297,1,0,0,0,98,98,76,1,,,,,,,,
,,,,,,,,,,,,,FF,,,,,,,,0.9494,,,,,,,,,,,,,,,,,,,,,,61031e3bc2b8928823a87c43,61036e5f0998bbc6b7932c03,2021-07-29_23h14.27.772,Simcolourproject_2stim_asymm_v5,2020.2.10,MacIntel,60,61025ae37ef11b136ea224fe,,,,,,,,,2887,-76.29107666,-36.41601563,1,0,0,response5disk,,2,-3.68963623,-7.026611328,1,0,0,rectangle,-3.68963623,-7.026611328,1,0,0,-3.68963623,-7.026611328,1,0,0,0,99,99,144,1,,,,,,,,
,,,,,,,,,,,,,FF,,,,,,,,1.2506,,,,,,,,,,,,,,,,,,,,,,61031e3bc2b8928823a87c43,61036e5f0998bbc6b7932c03,2021-07-29_23h14.27.772,Simcolourproject_2stim_asymm_v5,2020.2.10,MacIntel,60,61025ae37ef11b136ea224fe,,,,,,,,,4115,76.84979248,-57.06121826,1,0,0,response3disk,,5,-4.301025391,-4.63684082,1,0,0,rectangle,-4.301025391,-4.63684082,1,0,0,-4.301025391,-4.63684082,1,0,0,0,100,100,29,1,,,,,,,,
,,,,,,,,,,,,,FF,,,,,,,,1.1825,,,,,,,,,,,,,,,,,,,,,,61031e3bc2b8928823a87c43,61036e5f0998bbc6b7932c03,2021-07-29_23h14.27.772,Simcolourproject_2stim_asymm_v5,2020.2.10,MacIntel,60,61025ae37ef11b136ea224fe,,,,,,,,,1695,76.4644165,-36.2411499,1,0,0,response3disk,,5,1.04699707,-13.60400391,1,0,0,rectangle,1.04699707,-13.60400391,1,0,0,1.04699707,-13.60400391,1,0,0,0,101,101,77,1,,,,,,,,
,,,,,,,,,,,,,FF,,,,,,,,0.9499,,,,,,,,,,,,,,,,,,,,,,61031e3bc2b8928823a87c43,61036e5f0998bbc6b7932c03,2021-07-29_23h14.27.772,Simcolourproject_2stim_asymm_v5,2020.2.10,MacIntel,60,61025ae37ef11b136ea224fe,,,,,,,,,2933,-48.17407227,-82.77044678,1,0,0,response5disk,,3,-7.829650879,-6.756347656,1,0,0,rectangle,48.18377686,132.8411865,1,0,0,4.489562988,-5.825195313,1,0,0,0,102,102,3,1,,response1disk_3,TRUE,7,7,"[72,134,159,147,16,245,103,34,43,173,96,197,232,137,220,166,96,321,193,186]",1.5996,rectangle
,,,,,,,,,,,,,FF,,,,,,,,3.3495,,,,,,,,,,,,,,,,,,,,,,61031e3bc2b8928823a87c43,61036e5f0998bbc6b7932c03,2021-07-29_23h14.27.772,Simcolourproject_2stim_asymm_v5,2020.2.10,MacIntel,60,61025ae37ef11b136ea224fe,,,,,,,,,615,102.6369019,-71.46356201,1,0,0,response3disk,,5,24.17901611,-6.425720215,1,0,0,rectangle,24.17901611,-6.425720215,1,0,0,24.17901611,-6.425720215,1,0,0,0,103,103,140,1,,,,,,,,
,,,,,,,,,,,,,FF,,,,,,,,1.7499,,,,,,,,,,,,,,,,,,,,,,61031e3bc2b8928823a87c43,61036e5f0998bbc6b7932c03,2021-07-29_23h14.27.772,Simcolourproject_2stim_asymm_v5,2020.2.10,MacIntel,60,61025ae37ef11b136ea224fe,,,,,,,,,2646,66.7288208,45.1413269,1,0,0,response1disk,,6,-3.348266602,7.969543457,1,0,0,rectangle,-3.348266602,7.969543457,1,0,0,-3.348266602,7.969543457,1,0,0,0,104,104,16,1,,,,,,,,
,,,,,,,,,,,,,FF,,,,,,,,1.1995,,,,,,,,,,,,,,,,,,,,,,61031e3bc2b8928823a87c43,61036e5f0998bbc6b7932c03,2021-07-29_23h14.27.772,Simcolourproject_2stim_asymm_v5,2020.2.10,MacIntel,60,61025ae37ef11b136ea224fe,,,,,,,,,96,-28.64105225,-76.96533203,1,0,0,response5disk,,3,8.777954102,4.841003418,1,0,0,rectangle,8.777954102,4.841003418,1,0,0,8.777954102,4.841003418,1,0,0,0,105,105,44,1,,,,,,,,
,,,,,,,,,,,,,FF,,,,,,,,1.5997,,,,,,,,,,,,,,,,,,,,,,61031e3bc2b8928823a87c43,61036e5f0998bbc6b7932c03,2021-07-29_23h14.27.772,Simcolourproject_2stim_asymm_v5,2020.2.10,MacIntel,60,61025ae37ef11b136ea224fe,,,,,,,,,3810,-68.03033447,39.17538452,1,0,0,response7disk,,1,-10.05114746,-13.37207031,1,0,0,rectangle,-10.05114746,-13.37207031,1,0,0,-10.05114746,-13.37207031,1,0,0,0,106,106,124,1,,,,,,,,
,,,,,,,,,,,,,FF,,,,,,,,2.2832,,,,,,,,,,,,,,,,,,,,,,61031e3bc2b8928823a87c43,61036e5f0998bbc6b7932c03,2021-07-29_23h14.27.772,Simcolourproject_2stim_asymm_v5,2020.2.10,MacIntel,60,61025ae37ef11b136ea224fe,,,,,,,,,2204,99.74542236,37.97976685,1,0,0,response1disk,,6,-0.486450195,-4.928405762,1,0,0,rectangle,-0.486450195,-4.928405762,1,0,0,-0.486450195,-4.928405762,1,0,0,0,107,107,139,1,,,,,,,,
,,,,,,,,,,,,,FF,,,,,,,,1.767,,,,,,,,,,,,,,,,,,,,,,61031e3bc2b8928823a87c43,61036e5f0998bbc6b7932c03,2021-07-29_23h14.27.772,Simcolourproject_2stim_asymm_v5,2020.2.10,MacIntel,60,61025ae37ef11b136ea224fe,,,,,,,,,1347,102.7112427,-67.86676025,1,0,0,response3disk,,5,13.76409912,-0.53894043,1,0,0,rectangle,13.76409912,-0.53894043,1,0,0,13.76409912,-0.53894043,1,0,0,0,108,108,87,1,,,,,,,,
,,,,,,,,,,,,,FF,,,,,,,,1.7505,,,,,,,,,,,,,,,,,,,,,,61031e3bc2b8928823a87c43,61036e5f0998bbc6b7932c03,2021-07-29_23h14.27.772,Simcolourproject_2stim_asymm_v5,2020.2.10,MacIntel,60,61025ae37ef11b136ea224fe,,,,,,,,,3816,-42.2678833,-72.30517578,1,0,0,response5disk,,3,-13.78192139,4.081298828,1,0,0,rectangle,-13.78192139,4.081298828,1,0,0,-13.78192139,4.081298828,1,0,0,0,109,109,64,1,,,,,,,,
,,,,,,,,,,,,,FF,,,,,,,,1.5833,,,,,,,,,,,,,,,,,,,,,,61031e3bc2b8928823a87c43,61036e5f0998bbc6b7932c03,2021-07-29_23h14.27.772,Simcolourproject_2stim_asymm_v5,2020.2.10,MacIntel,60,61025ae37ef11b136ea224fe,,,,,,,,,2679,50.30908203,-75.4675293,1,0,0,response3disk,,4,2.396240234,-17.41870117,1,0,0,rectangle,2.396240234,-17.41870117,1,0,0,2.396240234,-17.41870117,1,0,0,0,110,110,2,1,,,,,,,,
,,,,,,,,,,,,,FF,,,,,,,,2.1506,,,,,,,,,,,,,,,,,,,,,,61031e3bc2b8928823a87c43,61036e5f0998bbc6b7932c03,2021-07-29_23h14.27.772,Simcolourproject_2stim_asymm_v5,2020.2.10,MacIntel,60,61025ae37ef11b136ea224fe,,,,,,,,,2568,48.15179443,58.34457397,1,0,0,response1disk,,7,25.50164795,9.164916992,1,0,0,rectangle,25.50164795,9.164916992,1,0,0,25.50164795,9.164916992,1,0,0,0,111,111,143,1,,,,,,,,
,,,,,,,,,,,,,FF,,,,,,,,2.6339,,,,,,,,,,,,,,,,,,,,,,61031e3bc2b8928823a87c43,61036e5f0998bbc6b7932c03,2021-07-29_23h14.27.772,Simcolourproject_2stim_asymm_v5,2020.2.10,MacIntel,60,61025ae37ef11b136ea224fe,,,,,,,,,3569,67.69995117,27.75494385,1,0,0,response1disk,,6,-10.80065918,-19.23809814,1,0,0,rectangle,-10.80065918,-19.23809814,1,0,0,-10.80065918,-19.23809814,1,0,0,0,112,112,24,1,,,,,,,,
,,,,,,,,,,,,,FF,,,,,,,,1.9168,,,,,,,,,,,,,,,,,,,,,,61031e3bc2b8928823a87c43,61036e5f0998bbc6b7932c03,2021-07-29_23h14.27.772,Simcolourproject_2stim_asymm_v5,2020.2.10,MacIntel,60,61025ae37ef11b136ea224fe,,,,,,,,,203,31.66064453,59.05664063,1,0,0,response1disk,,7,2.48638916,-1.319458008,1,0,0,rectangle,2.48638916,-1.319458008,1,0,0,2.48638916,-1.319458008,1,0,0,0,113,113,7,1,,,,,,,,
,,,,,,,,,,,,,FF,,,,,,,,3.4831,,,,,,,,,,,,,,,,,,,,,,61031e3bc2b8928823a87c43,61036e5f0998bbc6b7932c03,2021-07-29_23h14.27.772,Simcolourproject_2stim_asymm_v5,2020.2.10,MacIntel,60,61025ae37ef11b136ea224fe,,,,,,,,,2289,77.72741699,-60.19329834,1,0,0,response3disk,,5,8.69543457,-9.553161621,1,0,0,rectangle,8.69543457,-9.553161621,1,0,0,8.69543457,-9.553161621,1,0,0,0,114,114,117,1,,,,,,,,
,,,,,,,,,,,,,FF,,,,,,,,1.3659,,,,,,,,,,,,,,,,,,,,,,61031e3bc2b8928823a87c43,61036e5f0998bbc6b7932c03,2021-07-29_23h14.27.772,Simcolourproject_2stim_asymm_v5,2020.2.10,MacIntel,60,61025ae37ef11b136ea224fe,,,,,,,,,1874,64.45947266,-37.84887695,1,0,0,response3disk,,5,14.88049316,-11.21386719,1,0,0,rectangle,14.88049316,-11.21386719,1,0,0,14.88049316,-11.21386719,1,0,0,0,115,115,130,1,,,,,,,,
,,,,,,,,,,,,,FF,,,,,,,,1.3512,,,,,,,,,,,,,,,,,,,,,,61031e3bc2b8928823a87c43,61036e5f0998bbc6b7932c03,2021-07-29_23h14.27.772,Simcolourproject_2stim_asymm_v5,2020.2.10,MacIntel,60,61025ae37ef11b136ea224fe,,,,,,,,,355,-34.63684082,-73.23248291,1,0,0,response5disk,,3,-15.78204346,-7.374206543,1,0,0,rectangle,-15.78204346,-7.374206543,1,0,0,-15.78204346,-7.374206543,1,0,0,0,116,116,137,1,,,,,,,,
,,,,,,,,,,,,,FF,,,,,,,,1.4834,,,,,,,,,,,,,,,,,,,,,,61031e3bc2b8928823a87c43,61036e5f0998bbc6b7932c03,2021-07-29_23h14.27.772,Simcolourproject_2stim_asymm_v5,2020.2.10,MacIntel,60,61025ae37ef11b136ea224fe,,,,,,,,,1855,90.15075684,29.79058838,1,0,0,response1disk,,6,1.733398438,2.509887695,1,0,0,rectangle,1.733398438,2.509887695,1,0,0,1.733398438,2.509887695,1,0,0,0,117,117,42,1,,,,,,,,
,,,,,,,,,,,,,FF,,,,,,,,1.1837,,,,,,,,,,,,,,,,,,,,,,61031e3bc2b8928823a87c43,61036e5f0998bbc6b7932c03,2021-07-29_23h14.27.772,Simcolourproject_2stim_asymm_v5,2020.2.10,MacIntel,60,61025ae37ef11b136ea224fe,,,,,,,,,1668,34.35949707,88.01660156,1,0,0,response1disk,,7,9.945495605,15.67062378,1,0,0,rectangle,9.945495605,15.67062378,1,0,0,9.945495605,15.67062378,1,0,0,0,118,118,19,1,,,,,,,,
,,,,,,,,,,,,,FF,,,,,,,,2.7173,,,,,,,,,,,,,,,,,,,,,,61031e3bc2b8928823a87c43,61036e5f0998bbc6b7932c03,2021-07-29_23h14.27.772,Simcolourproject_2stim_asymm_v5,2020.2.10,MacIntel,60,61025ae37ef11b136ea224fe,,,,,,,,,2819,85.1897583,-36.97833252,1,0,0,response3disk,,5,22.37683105,-18.53106689,1,0,0,rectangle,22.37683105,-18.53106689,1,0,0,22.37683105,-18.53106689,1,0,0,0,119,119,33,1,,,,,,,,
,,,,,,,,,,,,,FF,,,,,,,,2.7504,,,,,,,,,,,,,,,,,,,,,,61031e3bc2b8928823a87c43,61036e5f0998bbc6b7932c03,2021-07-29_23h14.27.772,Simcolourproject_2stim_asymm_v5,2020.2.10,MacIntel,60,61025ae37ef11b136ea224fe,,,,,,,,,2334,47.51928711,66.78387451,1,0,0,response1disk,,7,14.60058594,1.846679688,1,0,0,rectangle,14.60058594,1.846679688,1,0,0,14.60058594,1.846679688,1,0,0,0,120,120,88,1,,,,,,,,
,,,,,,,,,,,,,FF,,,,,,,,1.5832,,,,,,,,,,,,,,,,,,,,,,61031e3bc2b8928823a87c43,61036e5f0998bbc6b7932c03,2021-07-29_23h14.27.772,Simcolourproject_2stim_asymm_v5,2020.2.10,MacIntel,60,61025ae37ef11b136ea224fe,,,,,,,,,745,42.62487793,-97.06011963,1,0,0,response3disk,,4,-5.069641113,-10.81079102,1,0,0,rectangle,-5.069641113,-10.81079102,1,0,0,-5.069641113,-10.81079102,1,0,0,0,121,121,27,1,,,,,,,,
,,,,,,,,,,,,,FF,,,,,,,,1.1004,,,,,,,,,,,,,,,,,,,,,,61031e3bc2b8928823a87c43,61036e5f0998bbc6b7932c03,2021-07-29_23h14.27.772,Simcolourproject_2stim_asymm_v5,2020.2.10,MacIntel,60,61025ae37ef11b136ea224fe,,,,,,,,,2301,77.51531982,-124.2547607,1,0,0,response3disk,,4,8.800964355,-12.6496582,1,0,0,rectangle,8.800964355,-12.6496582,1,0,0,8.800964355,-12.6496582,1,0,0,0,122,122,6,1,,,,,,,,
,,,,,,,,,,,,,FF,,,,,,,,1.2171,,,,,,,,,,,,,,,,,,,,,,61031e3bc2b8928823a87c43,61036e5f0998bbc6b7932c03,2021-07-29_23h14.27.772,Simcolourproject_2stim_asymm_v5,2020.2.10,MacIntel,60,61025ae37ef11b136ea224fe,,,,,,,,,2523,99.29608154,-50.76031494,1,0,0,response3disk,,5,5.627502441,0.91192627,1,0,0,rectangle,5.627502441,0.91192627,1,0,0,5.627502441,0.91192627,1,0,0,0,123,123,158,1,,,,,,,,
,,,,,,,,,,,,,FF,,,,,,,,1.684,,,,,,,,,,,,,,,,,,,,,,61031e3bc2b8928823a87c43,61036e5f0998bbc6b7932c03,2021-07-29_23h14.27.772,Simcolourproject_2stim_asymm_v5,2020.2.10,MacIntel,60,61025ae37ef11b136ea224fe,,,,,,,,,408,58.35931396,-31.60180664,1,0,0,response3disk,,5,6.804199219,-8.204284668,1,0,0,rectangle,6.804199219,-8.204284668,1,0,0,6.804199219,-8.204284668,1,0,0,0,124,124,138,1,,,,,,,,
,,,,,,,,,,,,,FF,,,,,,,,3.0155,,,,,,,,,,,,,,,,,,,,,,61031e3bc2b8928823a87c43,61036e5f0998bbc6b7932c03,2021-07-29_23h14.27.772,Simcolourproject_2stim_asymm_v5,2020.2.10,MacIntel,60,61025ae37ef11b136ea224fe,,,,,,,,,2560,46.68701172,-96.15039063,1,0,0,response3disk,,4,1.952880859,-20.72644043,1,0,0,rectangle,1.952880859,-20.72644043,1,0,0,1.952880859,-20.72644043,1,0,0,0,125,125,101,1,,,,,,,,
,,,,,,,,,,,,,FF,,,,,,,,1.6005,,,,,,,,,,,,,,,,,,,,,,61031e3bc2b8928823a87c43,61036e5f0998bbc6b7932c03,2021-07-29_23h14.27.772,Simcolourproject_2stim_asymm_v5,2020.2.10,MacIntel,60,61025ae37ef11b136ea224fe,,,,,,,,,3890,81.55847168,36.1774292,1,0,0,response1disk,,6,2.408447266,8.637817383,1,0,0,rectangle,2.408447266,8.637817383,1,0,0,2.408447266,8.637817383,1,0,0,0,126,126,5,1,,,,,,,,
,,,,,,,,,,,,,FF,,,,,,,,1.0841,,,,,,,,,,,,,,,,,,,,,,61031e3bc2b8928823a87c43,61036e5f0998bbc6b7932c03,2021-07-29_23h14.27.772,Simcolourproject_2stim_asymm_v5,2020.2.10,MacIntel,60,61025ae37ef11b136ea224fe,,,,,,,,,3968,-27.58026123,-71.03570557,1,0,0,response5disk,,3,5.813415527,0.847167969,1,0,0,rectangle,5.813415527,0.847167969,1,0,0,5.813415527,0.847167969,1,0,0,0,127,127,92,1,,,,,,,,
,,,,,,,,,,,,,FF,,,,,,,,1.7332,,,,,,,,,,,,,,,,,,,,,,61031e3bc2b8928823a87c43,61036e5f0998bbc6b7932c03,2021-07-29_23h14.27.772,Simcolourproject_2stim_asymm_v5,2020.2.10,MacIntel,60,61025ae37ef11b136ea224fe,,,,,,,,,4345,-70.73840332,-30.12634277,1,0,0,response5disk,,2,9.009399414,-10.65252686,1,0,0,rectangle,9.009399414,-10.65252686,1,0,0,9.009399414,-10.65252686,1,0,0,0,128,128,109,1,,,,,,,,
,,,,,,,,,,,,,FF,,,,,,,,1.4662,,,,,,,,,,,,,,,,,,,,,,61031e3bc2b8928823a87c43,61036e5f0998bbc6b7932c03,2021-07-29_23h14.27.772,Simcolourproject_2stim_asymm_v5,2020.2.10,MacIntel,60,61025ae37ef11b136ea224fe,,,,,,,,,3324,78.44702148,-37.03405762,1,0,0,response3disk,,5,18.19390869,1.135986328,1,0,0,rectangle,18.19390869,1.135986328,1,0,0,18.19390869,1.135986328,1,0,0,0,129,129,110,1,,,,,,,,
,,,,,,,,,,,,,FF,,,,,,,,2.9666,,,,,,,,,,,,,,,,,,,,,,61031e3bc2b8928823a87c43,61036e5f0998bbc6b7932c03,2021-07-29_23h14.27.772,Simcolourproject_2stim_asymm_v5,2020.2.10,MacIntel,60,61025ae37ef11b136ea224fe,,,,,,,,,1089,68.80224609,48.45620728,1,0,0,response1disk,,6,1.118896484,-2.381530762,1,0,0,rectangle,1.118896484,-2.381530762,1,0,0,1.118896484,-2.381530762,1,0,0,0,130,130,52,1,,,,,,,,
,,,,,,,,,,,,,FF,,,,,,,,2.4166,,,,,,,,,,,,,,,,,,,,,,61031e3bc2b8928823a87c43,61036e5f0998bbc6b7932c03,2021-07-29_23h14.27.772,Simcolourproject_2stim_asymm_v5,2020.2.10,MacIntel,60,61025ae37ef11b136ea224fe,,,,,,,,,3694,79.16912842,-60.85449219,1,0,0,response3disk,,5,17.25714111,17.51330566,1,0,0,rectangle,17.25714111,17.51330566,1,0,0,17.25714111,17.51330566,1,0,0,0,131,131,49,1,,,,,,,,
,,,,,,,,,,,,,FF,,,,,,,,1.5004,,,,,,,,,,,,,,,,,,,,,,61031e3bc2b8928823a87c43,61036e5f0998bbc6b7932c03,2021-07-29_23h14.27.772,Simcolourproject_2stim_asymm_v5,2020.2.10,MacIntel,60,61025ae37ef11b136ea224fe,,,,,,,,,4097,-75.91082764,-58.62255859,1,0,0,response5disk,,2,5.656616211,-9.921936035,1,0,0,rectangle,5.656616211,-9.921936035,1,0,0,5.656616211,-9.921936035,1,0,0,0,132,132,127,1,,,,,,,,
,,,,,,,,,,,,,FF,,,,,,,,2.3339,,,,,,,,,,,,,,,,,,,,,,61031e3bc2b8928823a87c43,61036e5f0998bbc6b7932c03,2021-07-29_23h14.27.772,Simcolourproject_2stim_asymm_v5,2020.2.10,MacIntel,60,61025ae37ef11b136ea224fe,,,,,,,,,1833,-36.30993652,-88.41033936,1,0,0,response5disk,,3,-4.30267334,1.649169922,1,0,0,rectangle,-100.3280029,-56.3269043,1,0,0,-9.008789063,4.742614746,1,0,0,0,133,133,93,1,,response5disk_3,TRUE,2,2,"[72,134,159,147,16,245,103,34,43,173,96,197,232,137,220,166,96,321,193,186]",1.866,rectangle
,,,,,,,,,,,,,FF,,,,,,,,1.7827,,,,,,,,,,,,,,,,,,,,,,61031e3bc2b8928823a87c43,61036e5f0998bbc6b7932c03,2021-07-29_23h14.27.772,Simcolourproject_2stim_asymm_v5,2020.2.10,MacIntel,60,61025ae37ef11b136ea224fe,,,,,,,,,310,59.41314697,-96.85467529,1,0,0,response3disk,,4,20.48474121,-15.17797852,1,0,0,rectangle,20.48474121,-15.17797852,1,0,0,20.48474121,-15.17797852,1,0,0,0,134,134,47,1,,,,,,,,
,,,,,,,,,,,,,FF,,,,,,,,1.7664,,,,,,,,,,,,,,,,,,,,,,61031e3bc2b8928823a87c43,61036e5f0998bbc6b7932c03,2021-07-29_23h14.27.772,Simcolourproject_2stim_asymm_v5,2020.2.10,MacIntel,60,61025ae37ef11b136ea224fe,,,,,,,,,360,72.68981934,-50.55462646,1,0,0,response3disk,,5,-15.22180176,-1.188903809,1,0,0,rectangle,-15.22180176,-1.188903809,1,0,0,-15.22180176,-1.188903809,1,0,0,0,135,135,108,1,,,,,,,,
,,,,,,,,,,,,,FF,,,,,,,,1.0824,,,,,,,,,,,,,,,,,,,,,,61031e3bc2b8928823a87c43,61036e5f0998bbc6b7932c03,2021-07-29_23h14.27.772,Simcolourproject_2stim_asymm_v5,2020.2.10,MacIntel,60,61025ae37ef11b136ea224fe,,,,,,,,,3129,84.06610107,40.3180542,1,0,0,response1disk,,6,-7.274108887,13.36553955,1,0,0,rectangle,-75.81213379,37.35546875,1,0,0,10.31890869,-8.897705078,1,0,0,0,136,136,18,1,,response7disk_3,TRUE,1,1,"[72,134,159,147,16,245,103,34,43,173,96,197,232,137,220,166,96,321,193,186]",1.5833,rectangle
,,,,,,,,,,,,,FF,,,,,,,,1.7673,,,,,,,,,,,,,,,,,,,,,,61031e3bc2b8928823a87c43,61036e5f0998bbc6b7932c03,2021-07-29_23h14.27.772,Simcolourproject_2stim_asymm_v5,2020.2.10,MacIntel,60,61025ae37ef11b136ea224fe,,,,,,,,,1329,51.53741455,-81.86694336,1,0,0,response3disk,,4,-4.60736084,-0.734863281,1,0,0,rectangle,-4.60736084,-0.734863281,1,0,0,-4.60736084,-0.734863281,1,0,0,0,137,137,46,1,,,,,,,,
,,,,,,,,,,,,,FF,,,,,,,,2.0512,,,,,,,,,,,,,,,,,,,,,,61031e3bc2b8928823a87c43,61036e5f0998bbc6b7932c03,2021-07-29_23h14.27.772,Simcolourproject_2stim_asymm_v5,2020.2.10,MacIntel,60,61025ae37ef11b136ea224fe,,,,,,,,,794,54.56182861,-30.480896,1,0,0,response3disk,,5,17.56604004,-11.58673096,1,0,0,rectangle,17.56604004,-11.58673096,1,0,0,17.56604004,-11.58673096,1,0,0,0,138,138,8,1,,,,,,,,
,,,,,,,,,,,,,FF,,,,,,,,1.7339,,,,,,,,,,,,,,,,,,,,,,61031e3bc2b8928823a87c43,61036e5f0998bbc6b7932c03,2021-07-29_23h14.27.772,Simcolourproject_2stim_asymm_v5,2020.2.10,MacIntel,60,61025ae37ef11b136ea224fe,,,,,,,,,2907,100.928894,-50.29937744,1,0,0,response3disk,,5,0.870910645,1.298950195,1,0,0,rectangle,0.870910645,1.298950195,1,0,0,0.870910645,1.298950195,1,0,0,0,139,139,128,1,,,,,,,,
,,,,,,,,,,,,,FF,,,,,,,,1.2,,,,,,,,,,,,,,,,,,,,,,61031e3bc2b8928823a87c43,61036e5f0998bbc6b7932c03,2021-07-29_23h14.27.772,Simcolourproject_2stim_asymm_v5,2020.2.10,MacIntel,60,61025ae37ef11b136ea224fe,,,,,,,,,1215,-83.56317139,-53.89929199,1,0,0,response5disk,,2,6.061828613,-8.717834473,1,0,0,rectangle,6.061828613,-8.717834473,1,0,0,6.061828613,-8.717834473,1,0,0,0,140,140,147,1,,,,,,,,
,,,,,,,,,,,,,FF,,,,,,,,1.5338,,,,,,,,,,,,,,,,,,,,,,61031e3bc2b8928823a87c43,61036e5f0998bbc6b7932c03,2021-07-29_23h14.27.772,Simcolourproject_2stim_asymm_v5,2020.2.10,MacIntel,60,61025ae37ef11b136ea224fe,,,,,,,,,3232,100.2061157,-56.89178467,1,0,0,response3disk,,5,1.965393066,9.793395996,1,0,0,rectangle,1.965393066,9.793395996,1,0,0,1.965393066,9.793395996,1,0,0,0,141,141,129,1,,,,,,,,
,,,,,,,,,,,,,FF,,,,,,,,1.6328,,,,,,,,,,,,,,,,,,,,,,61031e3bc2b8928823a87c43,61036e5f0998bbc6b7932c03,2021-07-29_23h14.27.772,Simcolourproject_2stim_asymm_v5,2020.2.10,MacIntel,60,61025ae37ef11b136ea224fe,,,,,,,,,1234,45.18994141,-82.99493408,1,0,0,response3disk,,4,2.197692871,-12.32641602,1,0,0,rectangle,2.197692871,-12.32641602,1,0,0,2.197692871,-12.32641602,1,0,0,0,142,142,68,1,,,,,,,,
,,,,,,,,,,,,,FF,,,,,,,,1.3495,,,,,,,,,,,,,,,,,,,,,,61031e3bc2b8928823a87c43,61036e5f0998bbc6b7932c03,2021-07-29_23h14.27.772,Simcolourproject_2stim_asymm_v5,2020.2.10,MacIntel,60,61025ae37ef11b136ea224fe,,,,,,,,,3412,76.8717041,-41.87365723,1,0,0,response3disk,,5,-0.979492188,-2.105529785,1,0,0,rectangle,-0.979492188,-2.105529785,1,0,0,-0.979492188,-2.105529785,1,0,0,0,143,143,102,1,,,,,,,,
,,,,,,,,,,,,,FF,,,,,,,,3.0502,,,,,,,,,,,,,,,,,,,,,,61031e3bc2b8928823a87c43,61036e5f0998bbc6b7932c03,2021-07-29_23h14.27.772,Simcolourproject_2stim_asymm_v5,2020.2.10,MacIntel,60,61025ae37ef11b136ea224fe,,,,,,,,,244,29.35656738,-84.42657471,1,0,0,response3disk,,4,13.14038086,-4.082275391,1,0,0,rectangle,13.14038086,-4.082275391,1,0,0,13.14038086,-4.082275391,1,0,0,0,144,144,123,1,,,,,,,,
,,,,,,,,,,,,,FF,,,,,,,,1.5169,,,,,,,,,,,,,,,,,,,,,,61031e3bc2b8928823a87c43,61036e5f0998bbc6b7932c03,2021-07-29_23h14.27.772,Simcolourproject_2stim_asymm_v5,2020.2.10,MacIntel,60,61025ae37ef11b136ea224fe,,,,,,,,,2559,75.04333496,38.55630493,1,0,0,response1disk,,6,-23.50531006,-1.980224609,1,0,0,rectangle,-23.50531006,-1.980224609,1,0,0,-23.50531006,-1.980224609,1,0,0,0,145,145,56,1,,,,,,,,
,,,,,,,,,,,,,FF,,,,,,,,1.2503,,,,,,,,,,,,,,,,,,,,,,61031e3bc2b8928823a87c43,61036e5f0998bbc6b7932c03,2021-07-29_23h14.27.772,Simcolourproject_2stim_asymm_v5,2020.2.10,MacIntel,60,61025ae37ef11b136ea224fe,,,,,,,,,274,43.18432617,-91.14086914,1,0,0,response3disk,,4,7.250610352,0.913635254,1,0,0,rectangle,52.87493896,-113.2636108,1,0,0,20.34643555,-6.436645508,1,0,0,0,146,146,94,1,,response3disk_3,TRUE,4,4,"[72,134,159,147,16,245,103,34,43,173,96,197,232,137,220,166,96,321,193,186]",1.5332,rectangle
,,,,,,,,,,,,,FF,,,,,,,,1.0834,,,,,,,,,,,,,,,,,,,,,,61031e3bc2b8928823a87c43,61036e5f0998bbc6b7932c03,2021-07-29_23h14.27.772,Simcolourproject_2stim_asymm_v5,2020.2.10,MacIntel,60,61025ae37ef11b136ea224fe,,,,,,,,,701,38.62762451,-71.5625,1,0,0,response3disk,,4,13.37347412,-14.28747559,1,0,0,rectangle,13.37347412,-14.28747559,1,0,0,13.37347412,-14.28747559,1,0,0,0,147,147,9,1,,,,,,,,
,,,,,,,,,,,,,FF,,,,,,,,2.3832,,,,,,,,,,,,,,,,,,,,,,61031e3bc2b8928823a87c43,61036e5f0998bbc6b7932c03,2021-07-29_23h14.27.772,Simcolourproject_2stim_asymm_v5,2020.2.10,MacIntel,60,61025ae37ef11b136ea224fe,,,,,,,,,1281,94.47442627,18.57989502,1,0,0,response1disk,,6,21.25079346,-8.73248291,1,0,0,rectangle,21.25079346,-8.73248291,1,0,0,21.25079346,-8.73248291,1,0,0,0,148,148,148,1,,,,,,,,
,,,,,,,,,,,,,FF,,,,,,,,1.3998,,,,,,,,,,,,,,,,,,,,,,61031e3bc2b8928823a87c43,61036e5f0998bbc6b7932c03,2021-07-29_23h14.27.772,Simcolourproject_2stim_asymm_v5,2020.2.10,MacIntel,60,61025ae37ef11b136ea224fe,,,,,,,,,2846,65.88262939,-45.47912598,1,0,0,response3disk,,5,26.31951904,-10.20770264,1,0,0,rectangle,26.31951904,-10.20770264,1,0,0,26.31951904,-10.20770264,1,0,0,0,149,149,28,1,,,,,,,,
,,,,,,,,,,,,,FF,,,,,,,,2.0167,,,,,,,,,,,,,,,,,,,,,,61031e3bc2b8928823a87c43,61036e5f0998bbc6b7932c03,2021-07-29_23h14.27.772,Simcolourproject_2stim_asymm_v5,2020.2.10,MacIntel,60,61025ae37ef11b136ea224fe,,,,,,,,,2936,-37.12329102,-63.09881592,1,0,0,response5disk,,3,-2.292175293,-2.341125488,1,0,0,rectangle,-2.292175293,-2.341125488,1,0,0,-2.292175293,-2.341125488,1,0,0,0,150,150,75,1,,,,,,,,
,,,,,,,,,,,,,FF,,,,,,,,1.2157,,,,,,,,,,,,,,,,,,,,,,61031e3bc2b8928823a87c43,61036e5f0998bbc6b7932c03,2021-07-29_23h14.27.772,Simcolourproject_2stim_asymm_v5,2020.2.10,MacIntel,60,61025ae37ef11b136ea224fe,,,,,,,,,1459,-72.45819092,35.10159302,1,0,0,response7disk,,1,6.88458252,-4.58605957,1,0,0,rectangle,6.88458252,-4.58605957,1,0,0,6.88458252,-4.58605957,1,0,0,0,151,151,38,1,,,,,,,,
,,,,,,,,,,,,,FF,,,,,,,,2.0824,,,,,,,,,,,,,,,,,,,,,,61031e3bc2b8928823a87c43,61036e5f0998bbc6b7932c03,2021-07-29_23h14.27.772,Simcolourproject_2stim_asymm_v5,2020.2.10,MacIntel,60,61025ae37ef11b136ea224fe,,,,,,,,,3788,-41.40270996,-87.87316895,1,0,0,response5disk,,3,3.30657959,-3.073486328,1,0,0,rectangle,3.30657959,-3.073486328,1,0,0,3.30657959,-3.073486328,1,0,0,0,152,152,55,1,,,,,,,,
,,,,,,,,,,,,,FF,,,,,,,,1.5503,,,,,,,,,,,,,,,,,,,,,,61031e3bc2b8928823a87c43,61036e5f0998bbc6b7932c03,2021-07-29_23h14.27.772,Simcolourproject_2stim_asymm_v5,2020.2.10,MacIntel,60,61025ae37ef11b136ea224fe,,,,,,,,,1268,53.62976074,-77.08721924,1,0,0,response3disk,,4,31.56097412,-13.49237061,1,0,0,rectangle,31.56097412,-13.49237061,1,0,0,31.56097412,-13.49237061,1,0,0,0,153,153,146,1,,,,,,,,
,,,,,,,,,,,,,FF,,,,,,,,1.6838,,,,,,,,,,,,,,,,,,,,,,61031e3bc2b8928823a87c43,61036e5f0998bbc6b7932c03,2021-07-29_23h14.27.772,Simcolourproject_2stim_asymm_v5,2020.2.10,MacIntel,60,61025ae37ef11b136ea224fe,,,,,,,,,1821,-57.08752441,-81.22161865,1,0,0,response5disk,,3,-12.42816162,7.478881836,1,0,0,rectangle,-12.42816162,7.478881836,1,0,0,-12.42816162,7.478881836,1,0,0,0,154,154,82,1,,,,,,,,
,,,,,,,,,,,,,FF,,,,,,,,2.1834,,,,,,,,,,,,,,,,,,,,,,61031e3bc2b8928823a87c43,61036e5f0998bbc6b7932c03,2021-07-29_23h14.27.772,Simcolourproject_2stim_asymm_v5,2020.2.10,MacIntel,60,61025ae37ef11b136ea224fe,,,,,,,,,2012,79.88952637,-29.56793213,1,0,0,response3disk,,5,3.866638184,-6.008361816,1,0,0,rectangle,3.866638184,-6.008361816,1,0,0,3.866638184,-6.008361816,1,0,0,0,155,155,84,1,,,,,,,,
,,,,,,,,,,,,,FF,,,,,,,,1.9337,,,,,,,,,,,,,,,,,,,,,,61031e3bc2b8928823a87c43,61036e5f0998bbc6b7932c03,2021-07-29_23h14.27.772,Simcolourproject_2stim_asymm_v5,2020.2.10,MacIntel,60,61025ae37ef11b136ea224fe,,,,,,,,,553,53.72460938,-109.6553345,1,0,0,response3disk,,4,31.49603271,-16.5958252,1,0,0,rectangle,31.49603271,-16.5958252,1,0,0,31.49603271,-16.5958252,1,0,0,0,156,156,30,1,,,,,,,,
,,,,,,,,,,,,,FF,,,,,,,,0.8329,,,,,,,,,,,,,,,,,,,,,,61031e3bc2b8928823a87c43,61036e5f0998bbc6b7932c03,2021-07-29_23h14.27.772,Simcolourproject_2stim_asymm_v5,2020.2.10,MacIntel,60,61025ae37ef11b136ea224fe,,,,,,,,,1783,94.87420654,29.21426392,1,0,0,response1disk,,6,14.67706299,4.045043945,1,0,0,rectangle,14.67706299,4.045043945,1,0,0,14.67706299,4.045043945,1,0,0,0,157,157,145,1,,,,,,,,
,,,,,,,,,,,,,FF,,,,,,,,1.3671,,,,,,,,,,,,,,,,,,,,,,61031e3bc2b8928823a87c43,61036e5f0998bbc6b7932c03,2021-07-29_23h14.27.772,Simcolourproject_2stim_asymm_v5,2020.2.10,MacIntel,60,61025ae37ef11b136ea224fe,,,,,,,,,1197,78.75231934,-51.37719727,1,0,0,response3disk,,5,-12.77642822,-4.950744629,1,0,0,rectangle,94.11517334,-65.85693359,1,0,0,4.777832031,-0.380615234,1,0,0,0,158,158,81,1,,response3disk_3,TRUE,5,5,"[72,134,159,147,16,245,103,34,43,173,96,197,232,137,220,166,96,321,193,186]",1.3339,rectangle
,,,,,,,,,,,,,FF,,,,,,,,1.4824,,,,,,,,,,,,,,,,,,,,,,61031e3bc2b8928823a87c43,61036e5f0998bbc6b7932c03,2021-07-29_23h14.27.772,Simcolourproject_2stim_asymm_v5,2020.2.10,MacIntel,60,61025ae37ef11b136ea224fe,,,,,,,,,979,65.534729,-36.5604248,1,0,0,response3disk,,5,7.372436523,0.852905273,1,0,0,rectangle,7.372436523,0.852905273,1,0,0,7.372436523,0.852905273,1,0,0,0,159,159,89,1,,,,,,,,
,,,,,,,,,,,,,FF,,,,,,,,1.6997,,,,,,,,,,,,,,,,,,,,,,61031e3bc2b8928823a87c43,61036e5f0998bbc6b7932c03,2021-07-29_23h14.27.772,Simcolourproject_2stim_asymm_v5,2020.2.10,MacIntel,60,61025ae37ef11b136ea224fe,,,,,,,,,1208,94.1350708,33.17590332,1,0,0,response1disk,,6,19.10675049,11.36395264,1,0,0,rectangle,19.10675049,11.36395264,1,0,0,19.10675049,11.36395264,1,0,0,1,0,160,24,1,,,,,,,,
,,,,,,,,,,,,,FF,,,,,,,,0.8,,,,,,,,,,,,,,,,,,,,,,61031e3bc2b8928823a87c43,61036e5f0998bbc6b7932c03,2021-07-29_23h14.27.772,Simcolourproject_2stim_asymm_v5,2020.2.10,MacIntel,60,61025ae37ef11b136ea224fe,,,,,,,,,1486,27.65222168,71.90740967,1,0,0,response1disk,,7,10.67474365,8.007385254,1,0,0,rectangle,10.67474365,8.007385254,1,0,0,10.67474365,8.007385254,1,0,0,1,1,161,131,1,,,,,,,,
,,,,,,,,,,,,,FF,,,,,,,,0.7999,,,,,,,,,,,,,,,,,,,,,,61031e3bc2b8928823a87c43,61036e5f0998bbc6b7932c03,2021-07-29_23h14.27.772,Simcolourproject_2stim_asymm_v5,2020.2.10,MacIntel,60,61025ae37ef11b136ea224fe,,,,,,,,,1193,87.10626221,-26.98168945,1,0,0,response3disk,,5,11.92224121,-12.29675293,1,0,0,rectangle,11.92224121,-12.29675293,1,0,0,11.92224121,-12.29675293,1,0,0,1,2,162,101,1,,,,,,,,
,,,,,,,,,,,,,FF,,,,,,,,1.4157,,,,,,,,,,,,,,,,,,,,,,61031e3bc2b8928823a87c43,61036e5f0998bbc6b7932c03,2021-07-29_23h14.27.772,Simcolourproject_2stim_asymm_v5,2020.2.10,MacIntel,60,61025ae37ef11b136ea224fe,,,,,,,,,2911,43.10284424,74.87521362,1,0,0,response1disk,,7,-9.113769531,5.18963623,1,0,0,rectangle,-9.113769531,5.18963623,1,0,0,-9.113769531,5.18963623,1,0,0,1,3,163,4,1,,,,,,,,
,,,,,,,,,,,,,FF,,,,,,,,1.3003,,,,,,,,,,,,,,,,,,,,,,61031e3bc2b8928823a87c43,61036e5f0998bbc6b7932c03,2021-07-29_23h14.27.772,Simcolourproject_2stim_asymm_v5,2020.2.10,MacIntel,60,61025ae37ef11b136ea224fe,,,,,,,,,163,41.10925293,-85.40606689,1,0,0,response3disk,,4,8.80255127,-3.433959961,1,0,0,rectangle,8.80255127,-3.433959961,1,0,0,8.80255127,-3.433959961,1,0,0,1,4,164,83,1,,,,,,,,
,,,,,,,,,,,,,FF,,,,,,,,0.8323,,,,,,,,,,,,,,,,,,,,,,61031e3bc2b8928823a87c43,61036e5f0998bbc6b7932c03,2021-07-29_23h14.27.772,Simcolourproject_2stim_asymm_v5,2020.2.10,MacIntel,60,61025ae37ef11b136ea224fe,,,,,,,,,2886,-37.77105713,91.32144165,1,0,0,response7disk,,0,-25.45465088,-9.753173828,1,0,0,rectangle,35.6605835,-95.7298584,1,0,0,1.107849121,-2.055419922,1,0,0,1,5,165,13,1,,response3disk_3,TRUE,4,4,"[72,134,159,147,16,245,103,34,43,173,96,197,232,137,220,166,96,321,193,186]",2.6658,rectangle
,,,,,,,,,,,,,FF,,,,,,,,1.6329,,,,,,,,,,,,,,,,,,,,,,61031e3bc2b8928823a87c43,61036e5f0998bbc6b7932c03,2021-07-29_23h14.27.772,Simcolourproject_2stim_asymm_v5,2020.2.10,MacIntel,60,61025ae37ef11b136ea224fe,,,,,,,,,2145,63.15631104,-26.20318604,1,0,0,response3disk,,5,13.83233643,-18.45178223,1,0,0,rectangle,13.83233643,-18.45178223,1,0,0,13.83233643,-18.45178223,1,0,0,1,6,166,136,1,,,,,,,,
,,,,,,,,,,,,,FF,,,,,,,,1.3347,,,,,,,,,,,,,,,,,,,,,,61031e3bc2b8928823a87c43,61036e5f0998bbc6b7932c03,2021-07-29_23h14.27.772,Simcolourproject_2stim_asymm_v5,2020.2.10,MacIntel,60,61025ae37ef11b136ea224fe,,,,,,,,,1083,105.0516357,44.29867554,1,0,0,response1disk,,6,16.36901855,12.61712646,1,0,0,rectangle,16.36901855,12.61712646,1,0,0,16.36901855,12.61712646,1,0,0,1,7,167,147,1,,,,,,,,
,,,,,,,,,,,,,FF,,,,,,,,1.166,,,,,,,,,,,,,,,,,,,,,,61031e3bc2b8928823a87c43,61036e5f0998bbc6b7932c03,2021-07-29_23h14.27.772,Simcolourproject_2stim_asymm_v5,2020.2.10,MacIntel,60,61025ae37ef11b136ea224fe,,,,,,,,,204,90.32110596,-72.00592041,1,0,0,response3disk,,5,7.159790039,-2.846374512,1,0,0,rectangle,7.159790039,-2.846374512,1,0,0,7.159790039,-2.846374512,1,0,0,1,8,168,18,1,,,,,,,,
,,,,,,,,,,,,,FF,,,,,,,,1.417,,,,,,,,,,,,,,,,,,,,,,61031e3bc2b8928823a87c43,61036e5f0998bbc6b7932c03,2021-07-29_23h14.27.772,Simcolourproject_2stim_asymm_v5,2020.2.10,MacIntel,60,61025ae37ef11b136ea224fe,,,,,,,,,3269,69.21563721,-38.41503906,1,0,0,response3disk,,5,-10.90570068,11.34442139,1,0,0,rectangle,-10.90570068,11.34442139,1,0,0,-10.90570068,11.34442139,1,0,0,1,9,169,117,1,,,,,,,,
,,,,,,,,,,,,,FF,,,,,,,,1.3326,,,,,,,,,,,,,,,,,,,,,,61031e3bc2b8928823a87c43,61036e5f0998bbc6b7932c03,2021-07-29_23h14.27.772,Simcolourproject_2stim_asymm_v5,2020.2.10,MacIntel,60,61025ae37ef11b136ea224fe,,,,,,,,,706,40.02288818,-83.34802246,1,0,0,response3disk,,4,0.599060059,-1.08972168,1,0,0,rectangle,0.599060059,-1.08972168,1,0,0,0.599060059,-1.08972168,1,0,0,1,10,170,127,1,,,,,,,,
,,,,,,,,,,,,,FF,,,,,,,,0.8663,,,,,,,,,,,,,,,,,,,,,,61031e3bc2b8928823a87c43,61036e5f0998bbc6b7932c03,2021-07-29_23h14.27.772,Simcolourproject_2stim_asymm_v5,2020.2.10,MacIntel,60,61025ae37ef11b136ea224fe,,,,,,,,,1302,-38.75683594,-79.66790771,1,0,0,response5disk,,3,-11.40716553,-1.453918457,1,0,0,rectangle,-11.40716553,-1.453918457,1,0,0,-11.40716553,-1.453918457,1,0,0,1,11,171,14,1,,,,,,,,
,,,,,,,,,,,,,FF,,,,,,,,0.9172,,,,,,,,,,,,,,,,,,,,,,61031e3bc2b8928823a87c43,61036e5f0998bbc6b7932c03,2021-07-29_23h14.27.772,Simcolourproject_2stim_asymm_v5,2020.2.10,MacIntel,60,61025ae37ef11b136ea224fe,,,,,,,,,1555,109.0557861,40.41757202,1,0,0,response1disk,,6,-2.633850098,-3.804382324,1,0,0,rectangle,42.43817139,100.0781555,1,0,0,12.4286499,-12.112854,1,0,0,1,12,172,114,1,,response1disk_3,TRUE,7,7,"[72,134,159,147,16,245,103,34,43,173,96,197,232,137,220,166,96,321,193,186]",1.2674,rectangle
,,,,,,,,,,,,,FF,,,,,,,,1.5164,,,,,,,,,,,,,,,,,,,,,,61031e3bc2b8928823a87c43,61036e5f0998bbc6b7932c03,2021-07-29_23h14.27.772,Simcolourproject_2stim_asymm_v5,2020.2.10,MacIntel,60,61025ae37ef11b136ea224fe,,,,,,,,,3308,72.80499268,36.33627319,1,0,0,response1disk,,6,13.51000977,-0.123779297,1,0,0,rectangle,13.51000977,-0.123779297,1,0,0,13.51000977,-0.123779297,1,0,0,1,13,173,99,1,,,,,,,,
,,,,,,,,,,,,,FF,,,,,,,,1.3005,,,,,,,,,,,,,,,,,,,,,,61031e3bc2b8928823a87c43,61036e5f0998bbc6b7932c03,2021-07-29_23h14.27.772,Simcolourproject_2stim_asymm_v5,2020.2.10,MacIntel,60,61025ae37ef11b136ea224fe,,,,,,,,,2673,35.1050415,-84.48382568,1,0,0,response3disk,,4,7.621154785,-11.42150879,1,0,0,rectangle,7.621154785,-11.42150879,1,0,0,7.621154785,-11.42150879,1,0,0,1,14,174,112,1,,,,,,,,
,,,,,,,,,,,,,FF,,,,,,,,0.9663,,,,,,,,,,,,,,,,,,,,,,61031e3bc2b8928823a87c43,61036e5f0998bbc6b7932c03,2021-07-29_23h14.27.772,Simcolourproject_2stim_asymm_v5,2020.2.10,MacIntel,60,61025ae37ef11b136ea224fe,,,,,,,,,1889,-31.89758301,-87.21228027,1,0,0,response5disk,,3,-1.788391113,-12.23504639,1,0,0,rectangle,-1.788391113,-12.23504639,1,0,0,-1.788391113,-12.23504639,1,0,0,1,15,175,98,1,,,,,,,,
,,,,,,,,,,,,,FF,,,,,,,,0.8336,,,,,,,,,,,,,,,,,,,,,,61031e3bc2b8928823a87c43,61036e5f0998bbc6b7932c03,2021-07-29_23h14.27.772,Simcolourproject_2stim_asymm_v5,2020.2.10,MacIntel,60,61025ae37ef11b136ea224fe,,,,,,,,,414,99.6184082,42.87145996,1,0,0,response1disk,,6,14.79315186,-2.025878906,1,0,0,rectangle,14.79315186,-2.025878906,1,0,0,14.79315186,-2.025878906,1,0,0,1,16,176,140,1,,,,,,,,
,,,,,,,,,,,,,FF,,,,,,,,0.9001,,,,,,,,,,,,,,,,,,,,,,61031e3bc2b8928823a87c43,61036e5f0998bbc6b7932c03,2021-07-29_23h14.27.772,Simcolourproject_2stim_asymm_v5,2020.2.10,MacIntel,60,61025ae37ef11b136ea224fe,,,,,,,,,3796,90.82568359,-48.81640625,1,0,0,response3disk,,5,17.41363525,1.088378906,1,0,0,rectangle,17.41363525,1.088378906,1,0,0,17.41363525,1.088378906,1,0,0,1,17,177,92,1,,,,,,,,
,,,,,,,,,,,,,FF,,,,,,,,1.0163,,,,,,,,,,,,,,,,,,,,,,61031e3bc2b8928823a87c43,61036e5f0998bbc6b7932c03,2021-07-29_23h14.27.772,Simcolourproject_2stim_asymm_v5,2020.2.10,MacIntel,60,61025ae37ef11b136ea224fe,,,,,,,,,2066,74.03448486,-33.89251709,1,0,0,response3disk,,5,2.9296875,5.768737793,1,0,0,rectangle,2.9296875,5.768737793,1,0,0,2.9296875,5.768737793,1,0,0,1,18,178,46,1,,,,,,,,
,,,,,,,,,,,,,FF,,,,,,,,1.317,,,,,,,,,,,,,,,,,,,,,,61031e3bc2b8928823a87c43,61036e5f0998bbc6b7932c03,2021-07-29_23h14.27.772,Simcolourproject_2stim_asymm_v5,2020.2.10,MacIntel,60,61025ae37ef11b136ea224fe,,,,,,,,,1735,-59.98876953,-44.58709717,1,0,0,response5disk,,2,-16.88092041,-18.85205078,1,0,0,rectangle,-16.88092041,-18.85205078,1,0,0,-16.88092041,-18.85205078,1,0,0,1,19,179,64,1,,,,,,,,
,,,,,,,,,,,,,FF,,,,,,,,1.3683,,,,,,,,,,,,,,,,,,,,,,61031e3bc2b8928823a87c43,61036e5f0998bbc6b7932c03,2021-07-29_23h14.27.772,Simcolourproject_2stim_asymm_v5,2020.2.10,MacIntel,60,61025ae37ef11b136ea224fe,,,,,,,,,744,45.55316162,-87.61346436,1,0,0,response3disk,,4,25.40783691,-6.437438965,1,0,0,rectangle,25.40783691,-6.437438965,1,0,0,25.40783691,-6.437438965,1,0,0,1,20,180,34,1,,,,,,,,
,,,,,,,,,,,,,FF,,,,,,,,0.9513,,,,,,,,,,,,,,,,,,,,,,61031e3bc2b8928823a87c43,61036e5f0998bbc6b7932c03,2021-07-29_23h14.27.772,Simcolourproject_2stim_asymm_v5,2020.2.10,MacIntel,60,61025ae37ef11b136ea224fe,,,,,,,,,3489,35.67352295,-88.15167236,1,0,0,response3disk,,4,24.44329834,-13.44384766,1,0,0,rectangle,24.44329834,-13.44384766,1,0,0,24.44329834,-13.44384766,1,0,0,1,21,181,17,1,,,,,,,,
,,,,,,,,,,,,,FF,,,,,,,,0.8835,,,,,,,,,,,,,,,,,,,,,,61031e3bc2b8928823a87c43,61036e5f0998bbc6b7932c03,2021-07-29_23h14.27.772,Simcolourproject_2stim_asymm_v5,2020.2.10,MacIntel,60,61025ae37ef11b136ea224fe,,,,,,,,,1532,42.81164551,-89.99603271,1,0,0,response3disk,,4,28.73590088,-1.981628418,1,0,0,rectangle,28.73590088,-1.981628418,1,0,0,28.73590088,-1.981628418,1,0,0,1,22,182,51,1,,,,,,,,
,,,,,,,,,,,,,FF,,,,,,,,1.0332,,,,,,,,,,,,,,,,,,,,,,61031e3bc2b8928823a87c43,61036e5f0998bbc6b7932c03,2021-07-29_23h14.27.772,Simcolourproject_2stim_asymm_v5,2020.2.10,MacIntel,60,61025ae37ef11b136ea224fe,,,,,,,,,1691,-92.02154541,-57.1663208,1,0,0,response5disk,,2,-10.73114014,-9.961730957,1,0,0,rectangle,-10.73114014,-9.961730957,1,0,0,-10.73114014,-9.961730957,1,0,0,1,23,183,159,1,,,,,,,,
,,,,,,,,,,,,,FF,,,,,,,,0.7836,,,,,,,,,,,,,,,,,,,,,,61031e3bc2b8928823a87c43,61036e5f0998bbc6b7932c03,2021-07-29_23h14.27.772,Simcolourproject_2stim_asymm_v5,2020.2.10,MacIntel,60,61025ae37ef11b136ea224fe,,,,,,,,,1263,85.32830811,-59.97375488,1,0,0,response3disk,,5,-0.50402832,-5.382324219,1,0,0,rectangle,-0.50402832,-5.382324219,1,0,0,-0.50402832,-5.382324219,1,0,0,1,24,184,150,1,,,,,,,,
,,,,,,,,,,,,,FF,,,,,,,,1.4675,,,,,,,,,,,,,,,,,,,,,,61031e3bc2b8928823a87c43,61036e5f0998bbc6b7932c03,2021-07-29_23h14.27.772,Simcolourproject_2stim_asymm_v5,2020.2.10,MacIntel,60,61025ae37ef11b136ea224fe,,,,,,,,,3749,-65.73822021,-123.2965698,1,0,0,response5disk,,3,6.104614258,-3.614562988,1,0,0,rectangle,-45.68457031,115.7366333,1,0,0,1.027526855,-1.857910156,1,0,0,1,25,185,86,1,,response7disk_3,TRUE,0,0,"[72,134,159,147,16,245,103,34,43,173,96,197,232,137,220,166,96,321,193,186]",1.5497,rectangle
,,,,,,,,,,,,,FF,,,,,,,,1.1998,,,,,,,,,,,,,,,,,,,,,,61031e3bc2b8928823a87c43,61036e5f0998bbc6b7932c03,2021-07-29_23h14.27.772,Simcolourproject_2stim_asymm_v5,2020.2.10,MacIntel,60,61025ae37ef11b136ea224fe,,,,,,,,,2222,79.70526123,40.80212402,1,0,0,response1disk,,6,13.85308838,-6.553771973,1,0,0,rectangle,13.85308838,-6.553771973,1,0,0,13.85308838,-6.553771973,1,0,0,1,26,186,66,1,,,,,,,,
,,,,,,,,,,,,,FF,,,,,,,,1.1009,,,,,,,,,,,,,,,,,,,,,,61031e3bc2b8928823a87c43,61036e5f0998bbc6b7932c03,2021-07-29_23h14.27.772,Simcolourproject_2stim_asymm_v5,2020.2.10,MacIntel,60,61025ae37ef11b136ea224fe,,,,,,,,,3756,39.95477295,-80.71838379,1,0,0,response3disk,,4,4.74822998,-15.5848999,1,0,0,rectangle,4.74822998,-15.5848999,1,0,0,4.74822998,-15.5848999,1,0,0,1,27,187,59,1,,,,,,,,
,,,,,,,,,,,,,FF,,,,,,,,3.017,,,,,,,,,,,,,,,,,,,,,,61031e3bc2b8928823a87c43,61036e5f0998bbc6b7932c03,2021-07-29_23h14.27.772,Simcolourproject_2stim_asymm_v5,2020.2.10,MacIntel,60,61025ae37ef11b136ea224fe,,,,,,,,,622,46.97467041,-93.24755859,1,0,0,response3disk,,4,8.902282715,-10.51739502,1,0,0,rectangle,8.902282715,-10.51739502,1,0,0,8.902282715,-10.51739502,1,0,0,1,28,188,157,1,,,,,,,,
,,,,,,,,,,,,,FF,,,,,,,,1.1998,,,,,,,,,,,,,,,,,,,,,,61031e3bc2b8928823a87c43,61036e5f0998bbc6b7932c03,2021-07-29_23h14.27.772,Simcolourproject_2stim_asymm_v5,2020.2.10,MacIntel,60,61025ae37ef11b136ea224fe,,,,,,,,,1276,60.08288574,-39.68231201,1,0,0,response3disk,,5,1.7109375,13.75912476,1,0,0,rectangle,1.7109375,13.75912476,1,0,0,1.7109375,13.75912476,1,0,0,1,29,189,10,1,,,,,,,,
,,,,,,,,,,,,,FF,,,,,,,,2.6333,,,,,,,,,,,,,,,,,,,,,,61031e3bc2b8928823a87c43,61036e5f0998bbc6b7932c03,2021-07-29_23h14.27.772,Simcolourproject_2stim_asymm_v5,2020.2.10,MacIntel,60,61025ae37ef11b136ea224fe,,,,,,,,,4348,27.62609863,-94.96520996,1,0,0,response3disk,,4,-2.410766602,-5.387390137,1,0,0,rectangle,-2.410766602,-5.387390137,1,0,0,-2.410766602,-5.387390137,1,0,0,1,30,190,0,1,,,,,,,,
,,,,,,,,,,,,,FF,,,,,,,,1.9838,,,,,,,,,,,,,,,,,,,,,,61031e3bc2b8928823a87c43,61036e5f0998bbc6b7932c03,2021-07-29_23h14.27.772,Simcolourproject_2stim_asymm_v5,2020.2.10,MacIntel,60,61025ae37ef11b136ea224fe,,,,,,,,,2042,45.4163208,-74.50469971,1,0,0,response3disk,,4,15.90411377,8.481933594,1,0,0,rectangle,15.90411377,8.481933594,1,0,0,15.90411377,8.481933594,1,0,0,1,31,191,88,1,,,,,,,,
,,,,,,,,,,,,,FF,,,,,,,,0.9508,,,,,,,,,,,,,,,,,,,,,,61031e3bc2b8928823a87c43,61036e5f0998bbc6b7932c03,2021-07-29_23h14.27.772,Simcolourproject_2stim_asymm_v5,2020.2.10,MacIntel,60,61025ae37ef11b136ea224fe,,,,,,,,,1943,81.28302002,41.51315308,1,0,0,response1disk,,6,8.461608887,-5.854003906,1,0,0,rectangle,-32.33227539,99.88110352,1,0,0,1.598327637,-8.014343262,1,0,0,1,32,192,56,1,,response7disk_3,TRUE,0,0,"[72,134,159,147,16,245,103,34,43,173,96,197,232,137,220,166,96,321,193,186]",1.5331,rectangle
,,,,,,,,,,,,,FF,,,,,,,,1.3667,,,,,,,,,,,,,,,,,,,,,,61031e3bc2b8928823a87c43,61036e5f0998bbc6b7932c03,2021-07-29_23h14.27.772,Simcolourproject_2stim_asymm_v5,2020.2.10,MacIntel,60,61025ae37ef11b136ea224fe,,,,,,,,,1754,32.66046143,-97.92938232,1,0,0,response3disk,,4,-11.16320801,-12.71582031,1,0,0,rectangle,-11.16320801,-12.71582031,1,0,0,-11.16320801,-12.71582031,1,0,0,1,33,193,130,1,,,,,,,,
,,,,,,,,,,,,,FF,,,,,,,,1.4497,,,,,,,,,,,,,,,,,,,,,,61031e3bc2b8928823a87c43,61036e5f0998bbc6b7932c03,2021-07-29_23h14.27.772,Simcolourproject_2stim_asymm_v5,2020.2.10,MacIntel,60,61025ae37ef11b136ea224fe,,,,,,,,,2758,64.95233154,-34.66821289,1,0,0,response3disk,,5,-6.618835449,-6.169067383,1,0,0,rectangle,-6.618835449,-6.169067383,1,0,0,-6.618835449,-6.169067383,1,0,0,1,34,194,61,1,,,,,,,,
,,,,,,,,,,,,,FF,,,,,,,,0.9169,,,,,,,,,,,,,,,,,,,,,,61031e3bc2b8928823a87c43,61036e5f0998bbc6b7932c03,2021-07-29_23h14.27.772,Simcolourproject_2stim_asymm_v5,2020.2.10,MacIntel,60,61025ae37ef11b136ea224fe,,,,,,,,,2720,-36.60437012,-91.41455078,1,0,0,response5disk,,3,-3.492858887,-12.09283447,1,0,0,rectangle,-3.492858887,-12.09283447,1,0,0,-3.492858887,-12.09283447,1,0,0,1,35,195,85,1,,,,,,,,
,,,,,,,,,,,,,FF,,,,,,,,0.7324,,,,,,,,,,,,,,,,,,,,,,61031e3bc2b8928823a87c43,61036e5f0998bbc6b7932c03,2021-07-29_23h14.27.772,Simcolourproject_2stim_asymm_v5,2020.2.10,MacIntel,60,61025ae37ef11b136ea224fe,,,,,,,,,885,-37.37646484,68.07141113,1,0,0,response7disk,,0,-9.286743164,-2.598876953,1,0,0,rectangle,96.12200928,32.6914978,1,0,0,-7.535400391,-15.65368652,1,0,0,1,36,196,73,1,,response1disk_3,TRUE,6,6,"[72,134,159,147,16,245,103,34,43,173,96,197,232,137,220,166,96,321,193,186]",1.2502,rectangle
,,,,,,,,,,,,,FF,,,,,,,,1.8835,,,,,,,,,,,,,,,,,,,,,,61031e3bc2b8928823a87c43,61036e5f0998bbc6b7932c03,2021-07-29_23h14.27.772,Simcolourproject_2stim_asymm_v5,2020.2.10,MacIntel,60,61025ae37ef11b136ea224fe,,,,,,,,,1960,-33.80462646,-89.06341553,1,0,0,response5disk,,3,-4.2578125,-4.579162598,1,0,0,rectangle,-4.2578125,-4.579162598,1,0,0,-4.2578125,-4.579162598,1,0,0,1,37,197,149,1,,,,,,,,
,,,,,,,,,,,,,FF,,,,,,,,1.3171,,,,,,,,,,,,,,,,,,,,,,61031e3bc2b8928823a87c43,61036e5f0998bbc6b7932c03,2021-07-29_23h14.27.772,Simcolourproject_2stim_asymm_v5,2020.2.10,MacIntel,60,61025ae37ef11b136ea224fe,,,,,,,,,1424,54.0012207,-79.90948486,1,0,0,response3disk,,4,12.18859863,-16.51483154,1,0,0,rectangle,12.18859863,-16.51483154,1,0,0,12.18859863,-16.51483154,1,0,0,1,38,198,62,1,,,,,,,,
,,,,,,,,,,,,,FF,,,,,,,,1.0175,,,,,,,,,,,,,,,,,,,,,,61031e3bc2b8928823a87c43,61036e5f0998bbc6b7932c03,2021-07-29_23h14.27.772,Simcolourproject_2stim_asymm_v5,2020.2.10,MacIntel,60,61025ae37ef11b136ea224fe,,,,,,,,,1697,53.40393066,-99.31341553,1,0,0,response3disk,,4,14.34466553,-7.327026367,1,0,0,rectangle,14.34466553,-7.327026367,1,0,0,14.34466553,-7.327026367,1,0,0,1,39,199,155,1,,,,,,,,
,,,,,,,,,,,,,FF,,,,,,,,1.1664,,,,,,,,,,,,,,,,,,,,,,61031e3bc2b8928823a87c43,61036e5f0998bbc6b7932c03,2021-07-29_23h14.27.772,Simcolourproject_2stim_asymm_v5,2020.2.10,MacIntel,60,61025ae37ef11b136ea224fe,,,,,,,,,2835,106.8337402,-68.83099365,1,0,0,response3disk,,5,9.158203125,-15.99310303,1,0,0,rectangle,9.158203125,-15.99310303,1,0,0,9.158203125,-15.99310303,1,0,0,1,40,200,65,1,,,,,,,,
,,,,,,,,,,,,,FF,,,,,,,,1.4993,,,,,,,,,,,,,,,,,,,,,,61031e3bc2b8928823a87c43,61036e5f0998bbc6b7932c03,2021-07-29_23h14.27.772,Simcolourproject_2stim_asymm_v5,2020.2.10,MacIntel,60,61025ae37ef11b136ea224fe,,,,,,,,,1714,125.0415039,53.12921143,1,0,0,response1disk,,6,24.64990234,-7.395996094,1,0,0,rectangle,24.64990234,-7.395996094,1,0,0,24.64990234,-7.395996094,1,0,0,1,41,201,63,1,,,,,,,,
,,,,,,,,,,,,,FF,,,,,,,,1.7344,,,,,,,,,,,,,,,,,,,,,,61031e3bc2b8928823a87c43,61036e5f0998bbc6b7932c03,2021-07-29_23h14.27.772,Simcolourproject_2stim_asymm_v5,2020.2.10,MacIntel,60,61025ae37ef11b136ea224fe,,,,,,,,,3393,-31.01092529,-94.46008301,1,0,0,response5disk,,3,-4.828491211,-7.458374023,1,0,0,rectangle,-4.828491211,-7.458374023,1,0,0,-4.828491211,-7.458374023,1,0,0,1,42,202,84,1,,,,,,,,
,,,,,,,,,,,,,FF,,,,,,,,0.9337,,,,,,,,,,,,,,,,,,,,,,61031e3bc2b8928823a87c43,61036e5f0998bbc6b7932c03,2021-07-29_23h14.27.772,Simcolourproject_2stim_asymm_v5,2020.2.10,MacIntel,60,61025ae37ef11b136ea224fe,,,,,,,,,1460,-74.57391357,-34.25390625,1,0,0,response5disk,,2,-5.658813477,-9.726745605,1,0,0,rectangle,-5.658813477,-9.726745605,1,0,0,-5.658813477,-9.726745605,1,0,0,1,43,203,43,1,,,,,,,,
,,,,,,,,,,,,,FF,,,,,,,,1.35,,,,,,,,,,,,,,,,,,,,,,61031e3bc2b8928823a87c43,61036e5f0998bbc6b7932c03,2021-07-29_23h14.27.772,Simcolourproject_2stim_asymm_v5,2020.2.10,MacIntel,60,61025ae37ef11b136ea224fe,,,,,,,,,3184,126.9296265,32.33535767,1,0,0,response1disk,,6,5.522399902,7.137329102,1,0,0,rectangle,5.522399902,7.137329102,1,0,0,5.522399902,7.137329102,1,0,0,1,44,204,53,1,,,,,,,,
,,,,,,,,,,,,,FF,,,,,,,,1.6825,,,,,,,,,,,,,,,,,,,,,,61031e3bc2b8928823a87c43,61036e5f0998bbc6b7932c03,2021-07-29_23h14.27.772,Simcolourproject_2stim_asymm_v5,2020.2.10,MacIntel,60,61025ae37ef11b136ea224fe,,,,,,,,,4157,93.97131348,-37.86578369,1,0,0,response3disk,,5,21.98327637,-5.632141113,1,0,0,rectangle,21.98327637,-5.632141113,1,0,0,21.98327637,-5.632141113,1,0,0,1,45,205,138,1,,,,,,,,
,,,,,,,,,,,,,FF,,,,,,,,1.4329,,,,,,,,,,,,,,,,,,,,,,61031e3bc2b8928823a87c43,61036e5f0998bbc6b7932c03,2021-07-29_23h14.27.772,Simcolourproject_2stim_asymm_v5,2020.2.10,MacIntel,60,61025ae37ef11b136ea224fe,,,,,,,,,1349,122.9677734,-66.72808838,1,0,0,response3disk,,5,7.233337402,-3.782409668,1,0,0,rectangle,7.233337402,-3.782409668,1,0,0,7.233337402,-3.782409668,1,0,0,1,46,206,102,1,,,,,,,,
,,,,,,,,,,,,,FF,,,,,,,,1.9341,,,,,,,,,,,,,,,,,,,,,,61031e3bc2b8928823a87c43,61036e5f0998bbc6b7932c03,2021-07-29_23h14.27.772,Simcolourproject_2stim_asymm_v5,2020.2.10,MacIntel,60,61025ae37ef11b136ea224fe,,,,,,,,,1742,78.65588379,47.85494995,1,0,0,response1disk,,6,-3.47442627,-16.38708496,1,0,0,rectangle,-3.47442627,-16.38708496,1,0,0,-3.47442627,-16.38708496,1,0,0,1,47,207,6,1,,,,,,,,
,,,,,,,,,,,,,FF,,,,,,,,5.1833,,,,,,,,,,,,,,,,,,,,,,61031e3bc2b8928823a87c43,61036e5f0998bbc6b7932c03,2021-07-29_23h14.27.772,Simcolourproject_2stim_asymm_v5,2020.2.10,MacIntel,60,61025ae37ef11b136ea224fe,,,,,,,,,3208,90.61297607,-34.90618896,1,0,0,response3disk,,5,-7.96472168,15.32290649,1,0,0,rectangle,-7.96472168,15.32290649,1,0,0,-7.96472168,15.32290649,1,0,0,1,48,208,121,1,,,,,,,,
,,,,,,,,,,,,,FF,,,,,,,,0.8839,,,,,,,,,,,,,,,,,,,,,,61031e3bc2b8928823a87c43,61036e5f0998bbc6b7932c03,2021-07-29_23h14.27.772,Simcolourproject_2stim_asymm_v5,2020.2.10,MacIntel,60,61025ae37ef11b136ea224fe,,,,,,,,,1877,87.2666626,36.00299072,1,0,0,response1disk,,6,4.550048828,-0.053222656,1,0,0,rectangle,4.550048828,-0.053222656,1,0,0,4.550048828,-0.053222656,1,0,0,1,49,209,120,1,,,,,,,,
,,,,,,,,,,,,,FF,,,,,,,,1.1663,,,,,,,,,,,,,,,,,,,,,,61031e3bc2b8928823a87c43,61036e5f0998bbc6b7932c03,2021-07-29_23h14.27.772,Simcolourproject_2stim_asymm_v5,2020.2.10,MacIntel,60,61025ae37ef11b136ea224fe,,,,,,,,,1605,45.55944824,-107.9476318,1,0,0,response3disk,,4,13.09606934,-17.76818848,1,0,0,rectangle,13.09606934,-17.76818848,1,0,0,13.09606934,-17.76818848,1,0,0,1,50,210,97,1,,,,,,,,
,,,,,,,,,,,,,FF,,,,,,,,2.6994,,,,,,,,,,,,,,,,,,,,,,61031e3bc2b8928823a87c43,61036e5f0998bbc6b7932c03,2021-07-29_23h14.27.772,Simcolourproject_2stim_asymm_v5,2020.2.10,MacIntel,60,61025ae37ef11b136ea224fe,,,,,,,,,3792,97.48895264,-71.30187988,1,0,0,response3disk,,5,19.92315674,1.172180176,1,0,0,rectangle,19.92315674,1.172180176,1,0,0,19.92315674,1.172180176,1,0,0,1,51,211,3,1,,,,,,,,
,,,,,,,,,,,,,FF,,,,,,,,0.8835,,,,,,,,,,,,,,,,,,,,,,61031e3bc2b8928823a87c43,61036e5f0998bbc6b7932c03,2021-07-29_23h14.27.772,Simcolourproject_2stim_asymm_v5,2020.2.10,MacIntel,60,61025ae37ef11b136ea224fe,,,,,,,,,3189,-54.01525879,-114.0484009,1,0,0,response5disk,,3,-0.343322754,-2.919189453,1,0,0,rectangle,-0.343322754,-2.919189453,1,0,0,-0.343322754,-2.919189453,1,0,0,1,52,212,72,1,,,,,,,,
,,,,,,,,,,,,,FF,,,,,,,,1.933,,,,,,,,,,,,,,,,,,,,,,61031e3bc2b8928823a87c43,61036e5f0998bbc6b7932c03,2021-07-29_23h14.27.772,Simcolourproject_2stim_asymm_v5,2020.2.10,MacIntel,60,61025ae37ef11b136ea224fe,,,,,,,,,764,119.3563843,-46.1194458,1,0,0,response3disk,,5,-4.054199219,-0.860229492,1,0,0,rectangle,-4.054199219,-0.860229492,1,0,0,-4.054199219,-0.860229492,1,0,0,1,53,213,47,1,,,,,,,,
,,,,,,,,,,,,,FF,,,,,,,,1.6171,,,,,,,,,,,,,,,,,,,,,,61031e3bc2b8928823a87c43,61036e5f0998bbc6b7932c03,2021-07-29_23h14.27.772,Simcolourproject_2stim_asymm_v5,2020.2.10,MacIntel,60,61025ae37ef11b136ea224fe,,,,,,,,,584,120.6282959,-50.68859863,1,0,0,response3disk,,5,17.25964355,-15.28918457,1,0,0,rectangle,17.25964355,-15.28918457,1,0,0,17.25964355,-15.28918457,1,0,0,1,54,214,16,1,,,,,,,,
,,,,,,,,,,,,,FF,,,,,,,,0.8667,,,,,,,,,,,,,,,,,,,,,,61031e3bc2b8928823a87c43,61036e5f0998bbc6b7932c03,2021-07-29_23h14.27.772,Simcolourproject_2stim_asymm_v5,2020.2.10,MacIntel,60,61025ae37ef11b136ea224fe,,,,,,,,,2574,112.9621582,48.6192627,1,0,0,response1disk,,6,-6.213867188,-0.244140625,1,0,0,rectangle,-6.213867188,-0.244140625,1,0,0,-6.213867188,-0.244140625,1,0,0,1,55,215,36,1,,,,,,,,
,,,,,,,,,,,,,FF,,,,,,,,1.0331,,,,,,,,,,,,,,,,,,,,,,61031e3bc2b8928823a87c43,61036e5f0998bbc6b7932c03,2021-07-29_23h14.27.772,Simcolourproject_2stim_asymm_v5,2020.2.10,MacIntel,60,61025ae37ef11b136ea224fe,,,,,,,,,1468,36.6362915,-90.54760742,1,0,0,response3disk,,4,6.716674805,-7.981933594,1,0,0,rectangle,6.716674805,-7.981933594,1,0,0,6.716674805,-7.981933594,1,0,0,1,56,216,48,1,,,,,,,,
,,,,,,,,,,,,,FF,,,,,,,,1.5662,,,,,,,,,,,,,,,,,,,,,,61031e3bc2b8928823a87c43,61036e5f0998bbc6b7932c03,2021-07-29_23h14.27.772,Simcolourproject_2stim_asymm_v5,2020.2.10,MacIntel,60,61025ae37ef11b136ea224fe,,,,,,,,,4285,39.04510498,90.87145996,1,0,0,response1disk,,7,25.45227051,-15.82458496,1,0,0,rectangle,25.45227051,-15.82458496,1,0,0,25.45227051,-15.82458496,1,0,0,1,57,217,100,1,,,,,,,,
,,,,,,,,,,,,,FF,,,,,,,,1.5164,,,,,,,,,,,,,,,,,,,,,,61031e3bc2b8928823a87c43,61036e5f0998bbc6b7932c03,2021-07-29_23h14.27.772,Simcolourproject_2stim_asymm_v5,2020.2.10,MacIntel,60,61025ae37ef11b136ea224fe,,,,,,,,,3741,-89.92926025,41.80895996,1,0,0,response7disk,,1,-4.18737793,3.217712402,1,0,0,rectangle,-4.18737793,3.217712402,1,0,0,-4.18737793,3.217712402,1,0,0,1,58,218,15,1,,,,,,,,
,,,,,,,,,,,,,FF,,,,,,,,2.4163,,,,,,,,,,,,,,,,,,,,,,61031e3bc2b8928823a87c43,61036e5f0998bbc6b7932c03,2021-07-29_23h14.27.772,Simcolourproject_2stim_asymm_v5,2020.2.10,MacIntel,60,61025ae37ef11b136ea224fe,,,,,,,,,3905,86.63549805,-31.23620605,1,0,0,response3disk,,5,-1.796020508,3.648254395,1,0,0,rectangle,-39.4206543,86.06402588,1,0,0,-7.675170898,-4.035400391,1,0,0,1,59,219,44,1,,response7disk_3,TRUE,0,0,"[72,134,159,147,16,245,103,34,43,173,96,197,232,137,220,166,96,321,193,186]",1.5497,rectangle
,,,,,,,,,,,,,FF,,,,,,,,2.6997,,,,,,,,,,,,,,,,,,,,,,61031e3bc2b8928823a87c43,61036e5f0998bbc6b7932c03,2021-07-29_23h14.27.772,Simcolourproject_2stim_asymm_v5,2020.2.10,MacIntel,60,61025ae37ef11b136ea224fe,,,,,,,,,3807,92.26715088,-45.36895752,1,0,0,response3disk,,5,-3.187072754,-7.2265625,1,0,0,rectangle,-3.187072754,-7.2265625,1,0,0,-3.187072754,-7.2265625,1,0,0,1,60,220,141,1,,,,,,,,
,,,,,,,,,,,,,FF,,,,,,,,0.9842,,,,,,,,,,,,,,,,,,,,,,61031e3bc2b8928823a87c43,61036e5f0998bbc6b7932c03,2021-07-29_23h14.27.772,Simcolourproject_2stim_asymm_v5,2020.2.10,MacIntel,60,61025ae37ef11b136ea224fe,,,,,,,,,770,84.79467773,-40.76916504,1,0,0,response3disk,,5,0.284912109,-11.05664063,1,0,0,rectangle,0.284912109,-11.05664063,1,0,0,0.284912109,-11.05664063,1,0,0,1,61,221,104,1,,,,,,,,
,,,,,,,,,,,,,FF,,,,,,,,0.9166,,,,,,,,,,,,,,,,,,,,,,61031e3bc2b8928823a87c43,61036e5f0998bbc6b7932c03,2021-07-29_23h14.27.772,Simcolourproject_2stim_asymm_v5,2020.2.10,MacIntel,60,61025ae37ef11b136ea224fe,,,,,,,,,31,79.30938721,25.5954895,1,0,0,response1disk,,6,4.416687012,-4.670593262,1,0,0,rectangle,4.416687012,-4.670593262,1,0,0,4.416687012,-4.670593262,1,0,0,1,62,222,134,1,,,,,,,,
,,,,,,,,,,,,,FF,,,,,,,,2.7342,,,,,,,,,,,,,,,,,,,,,,61031e3bc2b8928823a87c43,61036e5f0998bbc6b7932c03,2021-07-29_23h14.27.772,Simcolourproject_2stim_asymm_v5,2020.2.10,MacIntel,60,61025ae37ef11b136ea224fe,,,,,,,,,1177,102.1582642,-56.1973877,1,0,0,response3disk,,5,3.121948242,-10.29846191,1,0,0,rectangle,3.121948242,-10.29846191,1,0,0,3.121948242,-10.29846191,1,0,0,1,63,223,89,1,,,,,,,,
,,,,,,,,,,,,,FF,,,,,,,,1.4833,,,,,,,,,,,,,,,,,,,,,,61031e3bc2b8928823a87c43,61036e5f0998bbc6b7932c03,2021-07-29_23h14.27.772,Simcolourproject_2stim_asymm_v5,2020.2.10,MacIntel,60,61025ae37ef11b136ea224fe,,,,,,,,,3367,115.8776855,-55.23974609,1,0,0,response3disk,,5,-0.010070801,-10.17651367,1,0,0,rectangle,-0.010070801,-10.17651367,1,0,0,-0.010070801,-10.17651367,1,0,0,1,64,224,22,1,,,,,,,,
,,,,,,,,,,,,,FF,,,,,,,,2.3506,,,,,,,,,,,,,,,,,,,,,,61031e3bc2b8928823a87c43,61036e5f0998bbc6b7932c03,2021-07-29_23h14.27.772,Simcolourproject_2stim_asymm_v5,2020.2.10,MacIntel,60,61025ae37ef11b136ea224fe,,,,,,,,,410,90.51574707,-70.68511963,1,0,0,response3disk,,5,-1.39074707,13.75991821,1,0,0,rectangle,-1.39074707,13.75991821,1,0,0,-1.39074707,13.75991821,1,0,0,1,65,225,42,1,,,,,,,,
,,,,,,,,,,,,,FF,,,,,,,,1.9335,,,,,,,,,,,,,,,,,,,,,,61031e3bc2b8928823a87c43,61036e5f0998bbc6b7932c03,2021-07-29_23h14.27.772,Simcolourproject_2stim_asymm_v5,2020.2.10,MacIntel,60,61025ae37ef11b136ea224fe,,,,,,,,,2640,126.1276855,-29.17108154,1,0,0,response3disk,,5,-7.773254395,-20.08544922,1,0,0,rectangle,-7.773254395,-20.08544922,1,0,0,-7.773254395,-20.08544922,1,0,0,1,66,226,156,1,,,,,,,,
,,,,,,,,,,,,,FF,,,,,,,,1.0333,,,,,,,,,,,,,,,,,,,,,,61031e3bc2b8928823a87c43,61036e5f0998bbc6b7932c03,2021-07-29_23h14.27.772,Simcolourproject_2stim_asymm_v5,2020.2.10,MacIntel,60,61025ae37ef11b136ea224fe,,,,,,,,,4362,-49.753479,27.02508545,1,0,0,response7disk,,1,4.726867676,5.49029541,1,0,0,rectangle,4.726867676,5.49029541,1,0,0,4.726867676,5.49029541,1,0,0,1,67,227,152,1,,,,,,,,
,,,,,,,,,,,,,FF,,,,,,,,2.1007,,,,,,,,,,,,,,,,,,,,,,61031e3bc2b8928823a87c43,61036e5f0998bbc6b7932c03,2021-07-29_23h14.27.772,Simcolourproject_2stim_asymm_v5,2020.2.10,MacIntel,60,61025ae37ef11b136ea224fe,,,,,,,,,2760,40.43743896,-91.09844971,1,0,0,response3disk,,4,-1.484008789,-13.3427124,1,0,0,rectangle,-1.484008789,-13.3427124,1,0,0,-1.484008789,-13.3427124,1,0,0,1,68,228,45,1,,,,,,,,
,,,,,,,,,,,,,FF,,,,,,,,1.5497,,,,,,,,,,,,,,,,,,,,,,61031e3bc2b8928823a87c43,61036e5f0998bbc6b7932c03,2021-07-29_23h14.27.772,Simcolourproject_2stim_asymm_v5,2020.2.10,MacIntel,60,61025ae37ef11b136ea224fe,,,,,,,,,3941,-27.00195313,-102.7555542,1,0,0,response5disk,,3,-11.26568604,-8.413085938,1,0,0,rectangle,-11.26568604,-8.413085938,1,0,0,-11.26568604,-8.413085938,1,0,0,1,69,229,96,1,,,,,,,,
,,,,,,,,,,,,,FF,,,,,,,,0.9501,,,,,,,,,,,,,,,,,,,,,,61031e3bc2b8928823a87c43,61036e5f0998bbc6b7932c03,2021-07-29_23h14.27.772,Simcolourproject_2stim_asymm_v5,2020.2.10,MacIntel,60,61025ae37ef11b136ea224fe,,,,,,,,,1606,-36.24047852,-56.08319092,1,0,0,response5disk,,3,1.685974121,4.164916992,1,0,0,rectangle,1.685974121,4.164916992,1,0,0,1.685974121,4.164916992,1,0,0,1,70,230,145,1,,,,,,,,
,,,,,,,,,,,,,FF,,,,,,,,0.9497,,,,,,,,,,,,,,,,,,,,,,61031e3bc2b8928823a87c43,61036e5f0998bbc6b7932c03,2021-07-29_23h14.27.772,Simcolourproject_2stim_asymm_v5,2020.2.10,MacIntel,60,61025ae37ef11b136ea224fe,,,,,,,,,3571,97.65270996,-51.02539063,1,0,0,response3disk,,5,11.93475342,-6.214538574,1,0,0,rectangle,-54.84240723,-102.6332397,1,0,0,7.180419922,-7.374572754,1,0,0,1,71,231,75,1,,response5disk_3,TRUE,3,3,"[72,134,159,147,16,245,103,34,43,173,96,197,232,137,220,166,96,321,193,186]",2.1825,rectangle
,,,,,,,,,,,,,FF,,,,,,,,1.4998,,,,,,,,,,,,,,,,,,,,,,61031e3bc2b8928823a87c43,61036e5f0998bbc6b7932c03,2021-07-29_23h14.27.772,Simcolourproject_2stim_asymm_v5,2020.2.10,MacIntel,60,61025ae37ef11b136ea224fe,,,,,,,,,4304,70.63574219,27.93359375,1,0,0,response1disk,,6,6.2265625,-8.087158203,1,0,0,rectangle,6.2265625,-8.087158203,1,0,0,6.2265625,-8.087158203,1,0,0,1,72,232,110,1,,,,,,,,
,,,,,,,,,,,,,FF,,,,,,,,2.0838,,,,,,,,,,,,,,,,,,,,,,61031e3bc2b8928823a87c43,61036e5f0998bbc6b7932c03,2021-07-29_23h14.27.772,Simcolourproject_2stim_asymm_v5,2020.2.10,MacIntel,60,61025ae37ef11b136ea224fe,,,,,,,,,2079,53.98803711,-33.46722412,1,0,0,response3disk,,5,5.319152832,-15.05352783,1,0,0,rectangle,5.319152832,-15.05352783,1,0,0,5.319152832,-15.05352783,1,0,0,1,73,233,153,1,,,,,,,,
,,,,,,,,,,,,,FF,,,,,,,,0.8992,,,,,,,,,,,,,,,,,,,,,,61031e3bc2b8928823a87c43,61036e5f0998bbc6b7932c03,2021-07-29_23h14.27.772,Simcolourproject_2stim_asymm_v5,2020.2.10,MacIntel,60,61025ae37ef11b136ea224fe,,,,,,,,,1802,43.26446533,72.59194946,1,0,0,response1disk,,7,29.32049561,5.1171875,1,0,0,rectangle,29.32049561,5.1171875,1,0,0,29.32049561,5.1171875,1,0,0,1,74,234,76,1,,,,,,,,
,,,,,,,,,,,,,FF,,,,,,,,2.1345,,,,,,,,,,,,,,,,,,,,,,61031e3bc2b8928823a87c43,61036e5f0998bbc6b7932c03,2021-07-29_23h14.27.772,Simcolourproject_2stim_asymm_v5,2020.2.10,MacIntel,60,61025ae37ef11b136ea224fe,,,,,,,,,3445,81.0166626,31.18826294,1,0,0,response1disk,,6,17.55755615,16.39505005,1,0,0,rectangle,17.55755615,16.39505005,1,0,0,17.55755615,16.39505005,1,0,0,1,75,235,8,1,,,,,,,,
,,,,,,,,,,,,,FF,,,,,,,,1.2014,,,,,,,,,,,,,,,,,,,,,,61031e3bc2b8928823a87c43,61036e5f0998bbc6b7932c03,2021-07-29_23h14.27.772,Simcolourproject_2stim_asymm_v5,2020.2.10,MacIntel,60,61025ae37ef11b136ea224fe,,,,,,,,,4269,38.52978516,-93.83081055,1,0,0,response3disk,,4,3.317565918,-7.183166504,1,0,0,rectangle,3.317565918,-7.183166504,1,0,0,3.317565918,-7.183166504,1,0,0,1,76,236,27,1,,,,,,,,
,,,,,,,,,,,,,FF,,,,,,,,2.0169,,,,,,,,,,,,,,,,,,,,,,61031e3bc2b8928823a87c43,61036e5f0998bbc6b7932c03,2021-07-29_23h14.27.772,Simcolourproject_2stim_asymm_v5,2020.2.10,MacIntel,60,61025ae37ef11b136ea224fe,,,,,,,,,2115,44.58496094,-96.20349121,1,0,0,response3disk,,4,5.579589844,-15.98510742,1,0,0,rectangle,5.579589844,-15.98510742,1,0,0,5.579589844,-15.98510742,1,0,0,1,77,237,57,1,,,,,,,,
,,,,,,,,,,,,,FF,,,,,,,,0.9835,,,,,,,,,,,,,,,,,,,,,,61031e3bc2b8928823a87c43,61036e5f0998bbc6b7932c03,2021-07-29_23h14.27.772,Simcolourproject_2stim_asymm_v5,2020.2.10,MacIntel,60,61025ae37ef11b136ea224fe,,,,,,,,,442,-37.35437012,-85.70507813,1,0,0,response5disk,,3,6.559753418,-4.727416992,1,0,0,rectangle,6.559753418,-4.727416992,1,0,0,6.559753418,-4.727416992,1,0,0,1,78,238,133,1,,,,,,,,
,,,,,,,,,,,,,FF,,,,,,,,2.2666,,,,,,,,,,,,,,,,,,,,,,61031e3bc2b8928823a87c43,61036e5f0998bbc6b7932c03,2021-07-29_23h14.27.772,Simcolourproject_2stim_asymm_v5,2020.2.10,MacIntel,60,61025ae37ef11b136ea224fe,,,,,,,,,935,96.75939941,-35.94824219,1,0,0,response3disk,,5,20.97137451,-9.764343262,1,0,0,rectangle,20.97137451,-9.764343262,1,0,0,20.97137451,-9.764343262,1,0,0,1,79,239,105,1,,,,,,,,
,,,,,,,,,,,,,FF,,,,,,,,0.9136,,,,,,,,,,,,,,,,,,,,,,61031e3bc2b8928823a87c43,61036e5f0998bbc6b7932c03,2021-07-29_23h14.27.772,Simcolourproject_2stim_asymm_v5,2020.2.10,MacIntel,60,61025ae37ef11b136ea224fe,,,,,,,,,2733,-46.32702637,-92.00390625,1,0,0,response5disk,,3,-7.911254883,-15.58056641,1,0,0,rectangle,-7.911254883,-15.58056641,1,0,0,-7.911254883,-15.58056641,1,0,0,1,80,240,38,1,,,,,,,,
