key_resp.keys,key_resp.rt,key_resp_14.keys,key_resp_14.rt,key_resp_15.keys,key_resp_15.rt,key_resp_17.keys,key_resp_17.rt,key_resp_9.keys,key_resp_9.rt,key_resp_10.keys,key_resp_10.rt,practice_comparison,Ecc,mouse_5.x,mouse_5.y,mouse_5.leftButton,mouse_5.midButton,mouse_5.rightButton,mouse_5.clicked_name,pracsimilarity,response_time,mouse_10.x,mouse_10.y,mouse_10.leftButton,mouse_10.midButton,mouse_10.rightButton,mouse_10.clicked_name,mouse_7.x,mouse_7.y,mouse_7.leftButton,mouse_7.midButton,mouse_7.rightButton,mouse_6.x,mouse_6.y,mouse_6.leftButton,mouse_6.midButton,mouse_6.rightButton,duringprac.thisRepN,duringprac.thisTrialN,duringprac.thisN,duringprac.thisIndex,duringprac.ran,participant,session,date,expName,psychopyVersion,OS,frameRate,study_id,mouse_7.clicked_name,catchpracsimilarity,catch_response_time,catchnumberprac,catchtrialorderprac,mouse_6.clicked_name,key_resp_22.keys,key_resp_22.rt,realcomparison,mouse.x,mouse.y,mouse.leftButton,mouse.midButton,mouse.rightButton,mouse.clicked_name,Colour2,similarity,mouse_2.x,mouse_2.y,mouse_2.leftButton,mouse_2.midButton,mouse_2.rightButton,mouse_2.clicked_name,mouse_3.x,mouse_3.y,mouse_3.leftButton,mouse_3.midButton,mouse_3.rightButton,mouse_11.x,mouse_11.y,mouse_11.leftButton,mouse_11.midButton,mouse_11.rightButton,trials_2.thisRepN,trials_2.thisTrialN,trials_2.thisN,trials_2.thisIndex,trials_2.ran,Colour1,mouse_3.clicked_name,catchornah,catchsimilarity,catchnumber,catchtrialorder,catchRT,mouse_11.clicked_name
space,1.69,space,9.963,space,21.95,space,14.112,space,1.488,space,5.29,109,FF,-86,-47,1,0,0,response5disk_5,2,8.302,1,1,1,0,0,rectangle_8,1,1,1,0,0,1,1,1,0,0,0,0,0,0,1,610309cb6693b9f1ae07b5f6,61036e14a0280fce27023e7f,2021-07-29_23h14.35.829,Simcolourproject_2stim_asymm_v5,2020.2.10,MacIntel,60,61025ae37ef11b136ea224fe,,,,,,,,,,,,,,,,,,,,,,,,,,,,,,,,,,,,,,,,,,,,,,
,,,,,,,,,,,,11,PF,92,-41,1,0,0,response3disk_5,5,5.318,6,3,1,0,0,rectangle_8,48,90,1,0,0,-4,-3,1,0,0,0,1,1,4,1,610309cb6693b9f1ae07b5f6,61036e14a0280fce27023e7f,2021-07-29_23h14.35.829,Simcolourproject_2stim_asymm_v5,2020.2.10,MacIntel,60,61025ae37ef11b136ea224fe,response1disk_7,7,2.984,7,"[2,5]",rectangle_4,,,,,,,,,,,,,,,,,,,,,,,,,,,,,,,,,,,,,,,,
,,,,,,,,,,,,77,PF,-91,39,1,0,0,response7disk_5,1,4.966,4,-1,1,0,0,rectangle_8,4,-1,1,0,0,4,-1,1,0,0,0,2,2,1,1,610309cb6693b9f1ae07b5f6,61036e14a0280fce27023e7f,2021-07-29_23h14.35.829,Simcolourproject_2stim_asymm_v5,2020.2.10,MacIntel,60,61025ae37ef11b136ea224fe,,,,,,,,,,,,,,,,,,,,,,,,,,,,,,,,,,,,,,,,,,,,,,
,,,,,,,,,,,,24,PF,32,96,1,0,0,response1disk_5,7,2.866,-4,-1,1,0,0,rectangle_8,-4,-1,1,0,0,-4,-1,1,0,0,0,3,3,2,1,610309cb6693b9f1ae07b5f6,61036e14a0280fce27023e7f,2021-07-29_23h14.35.829,Simcolourproject_2stim_asymm_v5,2020.2.10,MacIntel,60,61025ae37ef11b136ea224fe,,,,,,,,,,,,,,,,,,,,,,,,,,,,,,,,,,,,,,,,,,,,,,
,,,,,,,,,,,,59,FF,39,99,1,0,0,response1disk_5,7,2.198,-4,-3,1,0,0,rectangle_8,39,93,1,0,0,6,2,1,0,0,0,4,4,5,1,610309cb6693b9f1ae07b5f6,61036e14a0280fce27023e7f,2021-07-29_23h14.35.829,Simcolourproject_2stim_asymm_v5,2020.2.10,MacIntel,60,61025ae37ef11b136ea224fe,response1disk_7,7,2.562,7,"[2,5]",rectangle_4,,,,,,,,,,,,,,,,,,,,,,,,,,,,,,,,,,,,,,,,
,,,,,,,,,,,,85,PF,39,90,1,0,0,response1disk_5,7,1.55,-6,-3,1,0,0,rectangle_8,-6,-3,1,0,0,-6,-3,1,0,0,0,5,5,6,1,610309cb6693b9f1ae07b5f6,61036e14a0280fce27023e7f,2021-07-29_23h14.35.829,Simcolourproject_2stim_asymm_v5,2020.2.10,MacIntel,60,61025ae37ef11b136ea224fe,,,,,,,,,,,,,,,,,,,,,,,,,,,,,,,,,,,,,,,,,,,,,,
,,,,,,,,,,,,119,FF,99,46,1,0,0,response1disk_5,6,1.833,-4,1,1,0,0,rectangle_8,-4,1,1,0,0,-4,1,1,0,0,0,6,6,3,1,610309cb6693b9f1ae07b5f6,61036e14a0280fce27023e7f,2021-07-29_23h14.35.829,Simcolourproject_2stim_asymm_v5,2020.2.10,MacIntel,60,61025ae37ef11b136ea224fe,,,,,,,,,,,,,,,,,,,,,,,,,,,,,,,,,,,,,,,,,,,,,,
,,,,,,,,,,,,,FF,,,,,,,,1.983,,,,,,,,,,,,,,,,,,,,,,610309cb6693b9f1ae07b5f6,61036e14a0280fce27023e7f,2021-07-29_23h14.35.829,Simcolourproject_2stim_asymm_v5,2020.2.10,MacIntel,60,61025ae37ef11b136ea224fe,,,,,,,space,57.217,383,51,92,1,0,0,response1disk,,7,-7,6,1,0,0,rectangle,-7,6,1,0,0,-7,6,1,0,0,0,0,0,136,1,,,,,,,,
,,,,,,,,,,,,,FF,,,,,,,,1.083,,,,,,,,,,,,,,,,,,,,,,610309cb6693b9f1ae07b5f6,61036e14a0280fce27023e7f,2021-07-29_23h14.35.829,Simcolourproject_2stim_asymm_v5,2020.2.10,MacIntel,60,61025ae37ef11b136ea224fe,,,,,,,,,2372,96,47,1,0,0,response1disk,,6,-1,-6,1,0,0,rectangle,-1,-6,1,0,0,-1,-6,1,0,0,0,1,1,104,1,,,,,,,,
,,,,,,,,,,,,,FF,,,,,,,,1.884,,,,,,,,,,,,,,,,,,,,,,610309cb6693b9f1ae07b5f6,61036e14a0280fce27023e7f,2021-07-29_23h14.35.829,Simcolourproject_2stim_asymm_v5,2020.2.10,MacIntel,60,61025ae37ef11b136ea224fe,,,,,,,,,3607,51,90,1,0,0,response1disk,,7,14,3,1,0,0,rectangle,14,3,1,0,0,14,3,1,0,0,0,2,2,26,1,,,,,,,,
,,,,,,,,,,,,,FF,,,,,,,,2.633,,,,,,,,,,,,,,,,,,,,,,610309cb6693b9f1ae07b5f6,61036e14a0280fce27023e7f,2021-07-29_23h14.35.829,Simcolourproject_2stim_asymm_v5,2020.2.10,MacIntel,60,61025ae37ef11b136ea224fe,,,,,,,,,2193,84,32,1,0,0,response1disk,,6,-3,7,1,0,0,rectangle,-3,7,1,0,0,-3,7,1,0,0,0,3,3,33,1,,,,,,,,
,,,,,,,,,,,,,FF,,,,,,,,2.833,,,,,,,,,,,,,,,,,,,,,,610309cb6693b9f1ae07b5f6,61036e14a0280fce27023e7f,2021-07-29_23h14.35.829,Simcolourproject_2stim_asymm_v5,2020.2.10,MacIntel,60,61025ae37ef11b136ea224fe,,,,,,,,,2944,-47,-100,1,0,0,response5disk,,3,6,6,1,0,0,rectangle,99,-48,1,0,0,0,1,1,0,0,0,4,4,95,1,,response3disk_3,TRUE,5,5,"[185,91,64,46,129,5,113,68,28,56,177,217,36,195,11,210,103,255,293,179]",16.5,rectangle
,,,,,,,,,,,,,FF,,,,,,,,3.167,,,,,,,,,,,,,,,,,,,,,,610309cb6693b9f1ae07b5f6,61036e14a0280fce27023e7f,2021-07-29_23h14.35.829,Simcolourproject_2stim_asymm_v5,2020.2.10,MacIntel,60,61025ae37ef11b136ea224fe,,,,,,,,,4346,-81,-40,1,0,0,response5disk,,2,2,-6,1,0,0,rectangle,2,-6,1,0,0,2,-6,1,0,0,0,5,5,43,1,,,,,,,,
,,,,,,,,,,,,,FF,,,,,,,,2.418,,,,,,,,,,,,,,,,,,,,,,610309cb6693b9f1ae07b5f6,61036e14a0280fce27023e7f,2021-07-29_23h14.35.829,Simcolourproject_2stim_asymm_v5,2020.2.10,MacIntel,60,61025ae37ef11b136ea224fe,,,,,,,,,3372,108,-46,1,0,0,response3disk,,5,23,-10,1,0,0,rectangle,23,-10,1,0,0,23,-10,1,0,0,0,6,6,131,1,,,,,,,,
,,,,,,,,,,,,,FF,,,,,,,,3.266,,,,,,,,,,,,,,,,,,,,,,610309cb6693b9f1ae07b5f6,61036e14a0280fce27023e7f,2021-07-29_23h14.35.829,Simcolourproject_2stim_asymm_v5,2020.2.10,MacIntel,60,61025ae37ef11b136ea224fe,,,,,,,,,3113,93,-47,1,0,0,response3disk,,5,-8,-9,1,0,0,rectangle,-8,-9,1,0,0,-8,-9,1,0,0,0,7,7,9,1,,,,,,,,
,,,,,,,,,,,,,FF,,,,,,,,2.3,,,,,,,,,,,,,,,,,,,,,,610309cb6693b9f1ae07b5f6,61036e14a0280fce27023e7f,2021-07-29_23h14.35.829,Simcolourproject_2stim_asymm_v5,2020.2.10,MacIntel,60,61025ae37ef11b136ea224fe,,,,,,,,,2437,41,-99,1,0,0,response3disk,,4,6,-2,1,0,0,rectangle,6,-2,1,0,0,6,-2,1,0,0,0,8,8,133,1,,,,,,,,
,,,,,,,,,,,,,FF,,,,,,,,2.05,,,,,,,,,,,,,,,,,,,,,,610309cb6693b9f1ae07b5f6,61036e14a0280fce27023e7f,2021-07-29_23h14.35.829,Simcolourproject_2stim_asymm_v5,2020.2.10,MacIntel,60,61025ae37ef11b136ea224fe,,,,,,,,,3228,108,37,1,0,0,response1disk,,6,8,1,1,0,0,rectangle,8,1,1,0,0,8,1,1,0,0,0,9,9,39,1,,,,,,,,
,,,,,,,,,,,,,FF,,,,,,,,1.416,,,,,,,,,,,,,,,,,,,,,,610309cb6693b9f1ae07b5f6,61036e14a0280fce27023e7f,2021-07-29_23h14.35.829,Simcolourproject_2stim_asymm_v5,2020.2.10,MacIntel,60,61025ae37ef11b136ea224fe,,,,,,,,,3497,104,54,1,0,0,response1disk,,6,-5,8,1,0,0,rectangle,-71,34,1,0,0,2,-2,1,0,0,0,10,10,13,1,,response7disk_3,TRUE,1,1,"[185,91,64,46,129,5,113,68,28,56,177,217,36,195,11,210,103,255,293,179]",1.967,rectangle
,,,,,,,,,,,,,FF,,,,,,,,3.851,,,,,,,,,,,,,,,,,,,,,,610309cb6693b9f1ae07b5f6,61036e14a0280fce27023e7f,2021-07-29_23h14.35.829,Simcolourproject_2stim_asymm_v5,2020.2.10,MacIntel,60,61025ae37ef11b136ea224fe,,,,,,,,,3675,-84,-42,1,0,0,response5disk,,2,0,-8,1,0,0,rectangle,0,-8,1,0,0,0,-8,1,0,0,0,11,11,55,1,,,,,,,,
,,,,,,,,,,,,,FF,,,,,,,,1.534,,,,,,,,,,,,,,,,,,,,,,610309cb6693b9f1ae07b5f6,61036e14a0280fce27023e7f,2021-07-29_23h14.35.829,Simcolourproject_2stim_asymm_v5,2020.2.10,MacIntel,60,61025ae37ef11b136ea224fe,,,,,,,,,402,90,-39,1,0,0,response3disk,,5,-11,-1,1,0,0,rectangle,-11,-1,1,0,0,-11,-1,1,0,0,0,12,12,116,1,,,,,,,,
,,,,,,,,,,,,,FF,,,,,,,,5.9,,,,,,,,,,,,,,,,,,,,,,610309cb6693b9f1ae07b5f6,61036e14a0280fce27023e7f,2021-07-29_23h14.35.829,Simcolourproject_2stim_asymm_v5,2020.2.10,MacIntel,60,61025ae37ef11b136ea224fe,,,,,,,,,1035,87,-50,1,0,0,response3disk,,5,4,-4,1,0,0,rectangle,4,-4,1,0,0,4,-4,1,0,0,0,13,13,105,1,,,,,,,,
,,,,,,,,,,,,,FF,,,,,,,,2.116,,,,,,,,,,,,,,,,,,,,,,610309cb6693b9f1ae07b5f6,61036e14a0280fce27023e7f,2021-07-29_23h14.35.829,Simcolourproject_2stim_asymm_v5,2020.2.10,MacIntel,60,61025ae37ef11b136ea224fe,,,,,,,,,2168,-48,-89,1,0,0,response5disk,,3,6,4,1,0,0,rectangle,6,4,1,0,0,6,4,1,0,0,0,14,14,40,1,,,,,,,,
,,,,,,,,,,,,,FF,,,,,,,,1.185,,,,,,,,,,,,,,,,,,,,,,610309cb6693b9f1ae07b5f6,61036e14a0280fce27023e7f,2021-07-29_23h14.35.829,Simcolourproject_2stim_asymm_v5,2020.2.10,MacIntel,60,61025ae37ef11b136ea224fe,,,,,,,,,3411,82,-41,1,0,0,response3disk,,5,4,-5,1,0,0,rectangle,4,-5,1,0,0,4,-5,1,0,0,0,15,15,147,1,,,,,,,,
,,,,,,,,,,,,,FF,,,,,,,,2.799,,,,,,,,,,,,,,,,,,,,,,610309cb6693b9f1ae07b5f6,61036e14a0280fce27023e7f,2021-07-29_23h14.35.829,Simcolourproject_2stim_asymm_v5,2020.2.10,MacIntel,60,61025ae37ef11b136ea224fe,,,,,,,,,2348,111,48,1,0,0,response1disk,,6,-5,-7,1,0,0,rectangle,-5,-7,1,0,0,-5,-7,1,0,0,0,16,16,107,1,,,,,,,,
,,,,,,,,,,,,,FF,,,,,,,,1.599,,,,,,,,,,,,,,,,,,,,,,610309cb6693b9f1ae07b5f6,61036e14a0280fce27023e7f,2021-07-29_23h14.35.829,Simcolourproject_2stim_asymm_v5,2020.2.10,MacIntel,60,61025ae37ef11b136ea224fe,,,,,,,,,2673,50,-91,1,0,0,response3disk,,4,10,3,1,0,0,rectangle,10,3,1,0,0,10,3,1,0,0,0,17,17,77,1,,,,,,,,
,,,,,,,,,,,,,FF,,,,,,,,2.999,,,,,,,,,,,,,,,,,,,,,,610309cb6693b9f1ae07b5f6,61036e14a0280fce27023e7f,2021-07-29_23h14.35.829,Simcolourproject_2stim_asymm_v5,2020.2.10,MacIntel,60,61025ae37ef11b136ea224fe,,,,,,,,,3652,83,34,1,0,0,response1disk,,6,-3,-3,1,0,0,rectangle,-3,-3,1,0,0,-3,-3,1,0,0,0,18,18,78,1,,,,,,,,
,,,,,,,,,,,,,FF,,,,,,,,3.234,,,,,,,,,,,,,,,,,,,,,,610309cb6693b9f1ae07b5f6,61036e14a0280fce27023e7f,2021-07-29_23h14.35.829,Simcolourproject_2stim_asymm_v5,2020.2.10,MacIntel,60,61025ae37ef11b136ea224fe,,,,,,,,,3379,98,-40,1,0,0,response3disk,,5,0,-3,1,0,0,rectangle,0,-3,1,0,0,0,-3,1,0,0,0,19,19,129,1,,,,,,,,
,,,,,,,,,,,,,FF,,,,,,,,1.601,,,,,,,,,,,,,,,,,,,,,,610309cb6693b9f1ae07b5f6,61036e14a0280fce27023e7f,2021-07-29_23h14.35.829,Simcolourproject_2stim_asymm_v5,2020.2.10,MacIntel,60,61025ae37ef11b136ea224fe,,,,,,,,,55,54,73,1,0,0,response1disk,,7,-3,0,1,0,0,rectangle,-3,0,1,0,0,-3,0,1,0,0,0,20,20,97,1,,,,,,,,
,,,,,,,,,,,,,FF,,,,,,,,1.567,,,,,,,,,,,,,,,,,,,,,,610309cb6693b9f1ae07b5f6,61036e14a0280fce27023e7f,2021-07-29_23h14.35.829,Simcolourproject_2stim_asymm_v5,2020.2.10,MacIntel,60,61025ae37ef11b136ea224fe,,,,,,,,,4065,30,-90,1,0,0,response3disk,,4,1,-3,1,0,0,rectangle,1,-3,1,0,0,1,-3,1,0,0,0,21,21,144,1,,,,,,,,
,,,,,,,,,,,,,FF,,,,,,,,1.783,,,,,,,,,,,,,,,,,,,,,,610309cb6693b9f1ae07b5f6,61036e14a0280fce27023e7f,2021-07-29_23h14.35.829,Simcolourproject_2stim_asymm_v5,2020.2.10,MacIntel,60,61025ae37ef11b136ea224fe,,,,,,,,,164,-92,-50,1,0,0,response5disk,,2,5,5,1,0,0,rectangle,5,5,1,0,0,5,5,1,0,0,0,22,22,31,1,,,,,,,,
,,,,,,,,,,,,,FF,,,,,,,,1.284,,,,,,,,,,,,,,,,,,,,,,610309cb6693b9f1ae07b5f6,61036e14a0280fce27023e7f,2021-07-29_23h14.35.829,Simcolourproject_2stim_asymm_v5,2020.2.10,MacIntel,60,61025ae37ef11b136ea224fe,,,,,,,,,1382,45,-83,1,0,0,response3disk,,4,8,6,1,0,0,rectangle,8,6,1,0,0,8,6,1,0,0,0,23,23,87,1,,,,,,,,
,,,,,,,,,,,,,FF,,,,,,,,1.417,,,,,,,,,,,,,,,,,,,,,,610309cb6693b9f1ae07b5f6,61036e14a0280fce27023e7f,2021-07-29_23h14.35.829,Simcolourproject_2stim_asymm_v5,2020.2.10,MacIntel,60,61025ae37ef11b136ea224fe,,,,,,,,,3620,85,45,1,0,0,response1disk,,6,2,9,1,0,0,rectangle,2,9,1,0,0,2,9,1,0,0,0,24,24,154,1,,,,,,,,
,,,,,,,,,,,,,FF,,,,,,,,1.351,,,,,,,,,,,,,,,,,,,,,,610309cb6693b9f1ae07b5f6,61036e14a0280fce27023e7f,2021-07-29_23h14.35.829,Simcolourproject_2stim_asymm_v5,2020.2.10,MacIntel,60,61025ae37ef11b136ea224fe,,,,,,,,,2623,96,38,1,0,0,response1disk,,6,1,7,1,0,0,rectangle,1,7,1,0,0,1,7,1,0,0,0,25,25,84,1,,,,,,,,
,,,,,,,,,,,,,FF,,,,,,,,1.617,,,,,,,,,,,,,,,,,,,,,,610309cb6693b9f1ae07b5f6,61036e14a0280fce27023e7f,2021-07-29_23h14.35.829,Simcolourproject_2stim_asymm_v5,2020.2.10,MacIntel,60,61025ae37ef11b136ea224fe,,,,,,,,,3115,-65,-84,1,0,0,response5disk,,3,11,9,1,0,0,rectangle,11,9,1,0,0,11,9,1,0,0,0,26,26,109,1,,,,,,,,
,,,,,,,,,,,,,FF,,,,,,,,1.117,,,,,,,,,,,,,,,,,,,,,,610309cb6693b9f1ae07b5f6,61036e14a0280fce27023e7f,2021-07-29_23h14.35.829,Simcolourproject_2stim_asymm_v5,2020.2.10,MacIntel,60,61025ae37ef11b136ea224fe,,,,,,,,,3419,-60,-88,1,0,0,response5disk,,3,-11,-9,1,0,0,rectangle,-45,-76,1,0,0,-4,-2,1,0,0,0,27,27,141,1,,response5disk_3,TRUE,3,3,"[185,91,64,46,129,5,113,68,28,56,177,217,36,195,11,210,103,255,293,179]",1.784,rectangle
,,,,,,,,,,,,,FF,,,,,,,,2,,,,,,,,,,,,,,,,,,,,,,610309cb6693b9f1ae07b5f6,61036e14a0280fce27023e7f,2021-07-29_23h14.35.829,Simcolourproject_2stim_asymm_v5,2020.2.10,MacIntel,60,61025ae37ef11b136ea224fe,,,,,,,,,72,-49,-85,1,0,0,response5disk,,3,-10,-6,1,0,0,rectangle,-10,-6,1,0,0,-10,-6,1,0,0,0,28,28,94,1,,,,,,,,
,,,,,,,,,,,,,FF,,,,,,,,1.218,,,,,,,,,,,,,,,,,,,,,,610309cb6693b9f1ae07b5f6,61036e14a0280fce27023e7f,2021-07-29_23h14.35.829,Simcolourproject_2stim_asymm_v5,2020.2.10,MacIntel,60,61025ae37ef11b136ea224fe,,,,,,,,,2020,80,106,1,0,0,response1disk,,7,-3,-3,1,0,0,rectangle,-3,-3,1,0,0,-3,-3,1,0,0,0,29,29,69,1,,,,,,,,
,,,,,,,,,,,,,FF,,,,,,,,1.199,,,,,,,,,,,,,,,,,,,,,,610309cb6693b9f1ae07b5f6,61036e14a0280fce27023e7f,2021-07-29_23h14.35.829,Simcolourproject_2stim_asymm_v5,2020.2.10,MacIntel,60,61025ae37ef11b136ea224fe,,,,,,,,,3513,-117,-62,1,0,0,response5disk,,2,0,-2,1,0,0,rectangle,0,-2,1,0,0,0,-2,1,0,0,0,30,30,0,1,,,,,,,,
,,,,,,,,,,,,,FF,,,,,,,,1.383,,,,,,,,,,,,,,,,,,,,,,610309cb6693b9f1ae07b5f6,61036e14a0280fce27023e7f,2021-07-29_23h14.35.829,Simcolourproject_2stim_asymm_v5,2020.2.10,MacIntel,60,61025ae37ef11b136ea224fe,,,,,,,,,1887,-94,27,1,0,0,response7disk,,1,-6,2,1,0,0,rectangle,-6,2,1,0,0,-6,2,1,0,0,0,31,31,62,1,,,,,,,,
,,,,,,,,,,,,,FF,,,,,,,,1.135,,,,,,,,,,,,,,,,,,,,,,610309cb6693b9f1ae07b5f6,61036e14a0280fce27023e7f,2021-07-29_23h14.35.829,Simcolourproject_2stim_asymm_v5,2020.2.10,MacIntel,60,61025ae37ef11b136ea224fe,,,,,,,,,3880,-57,-87,1,0,0,response5disk,,3,-6,0,1,0,0,rectangle,-6,0,1,0,0,-6,0,1,0,0,0,32,32,82,1,,,,,,,,
,,,,,,,,,,,,,FF,,,,,,,,1.668,,,,,,,,,,,,,,,,,,,,,,610309cb6693b9f1ae07b5f6,61036e14a0280fce27023e7f,2021-07-29_23h14.35.829,Simcolourproject_2stim_asymm_v5,2020.2.10,MacIntel,60,61025ae37ef11b136ea224fe,,,,,,,,,3388,-50,80,1,0,0,response7disk,,0,23,-8,1,0,0,rectangle,23,-8,1,0,0,23,-8,1,0,0,0,33,33,36,1,,,,,,,,
,,,,,,,,,,,,,FF,,,,,,,,2.517,,,,,,,,,,,,,,,,,,,,,,610309cb6693b9f1ae07b5f6,61036e14a0280fce27023e7f,2021-07-29_23h14.35.829,Simcolourproject_2stim_asymm_v5,2020.2.10,MacIntel,60,61025ae37ef11b136ea224fe,,,,,,,,,3285,-49,-87,1,0,0,response5disk,,3,5,2,1,0,0,rectangle,5,2,1,0,0,5,2,1,0,0,0,34,34,38,1,,,,,,,,
,,,,,,,,,,,,,FF,,,,,,,,1.033,,,,,,,,,,,,,,,,,,,,,,610309cb6693b9f1ae07b5f6,61036e14a0280fce27023e7f,2021-07-29_23h14.35.829,Simcolourproject_2stim_asymm_v5,2020.2.10,MacIntel,60,61025ae37ef11b136ea224fe,,,,,,,,,1987,58,22,1,0,0,response1disk,,6,6,-4,1,0,0,rectangle,62,103,1,0,0,13,13,1,0,0,0,35,35,65,1,,response1disk_3,TRUE,7,7,"[185,91,64,46,129,5,113,68,28,56,177,217,36,195,11,210,103,255,293,179]",2.067,rectangle
,,,,,,,,,,,,,FF,,,,,,,,1.582,,,,,,,,,,,,,,,,,,,,,,610309cb6693b9f1ae07b5f6,61036e14a0280fce27023e7f,2021-07-29_23h14.35.829,Simcolourproject_2stim_asymm_v5,2020.2.10,MacIntel,60,61025ae37ef11b136ea224fe,,,,,,,,,2246,37,-89,1,0,0,response3disk,,4,3,11,1,0,0,rectangle,3,11,1,0,0,3,11,1,0,0,0,36,36,156,1,,,,,,,,
,,,,,,,,,,,,,FF,,,,,,,,0.9,,,,,,,,,,,,,,,,,,,,,,610309cb6693b9f1ae07b5f6,61036e14a0280fce27023e7f,2021-07-29_23h14.35.829,Simcolourproject_2stim_asymm_v5,2020.2.10,MacIntel,60,61025ae37ef11b136ea224fe,,,,,,,,,2442,60,-119,1,0,0,response3disk,,4,19,-1,1,0,0,rectangle,19,-1,1,0,0,19,-1,1,0,0,0,37,37,42,1,,,,,,,,
,,,,,,,,,,,,,FF,,,,,,,,2.916,,,,,,,,,,,,,,,,,,,,,,610309cb6693b9f1ae07b5f6,61036e14a0280fce27023e7f,2021-07-29_23h14.35.829,Simcolourproject_2stim_asymm_v5,2020.2.10,MacIntel,60,61025ae37ef11b136ea224fe,,,,,,,,,460,-53,-90,1,0,0,response5disk,,3,-3,0,1,0,0,rectangle,-3,0,1,0,0,-3,0,1,0,0,0,38,38,67,1,,,,,,,,
,,,,,,,,,,,,,FF,,,,,,,,1.3,,,,,,,,,,,,,,,,,,,,,,610309cb6693b9f1ae07b5f6,61036e14a0280fce27023e7f,2021-07-29_23h14.35.829,Simcolourproject_2stim_asymm_v5,2020.2.10,MacIntel,60,61025ae37ef11b136ea224fe,,,,,,,,,2946,-80,46,1,0,0,response7disk,,1,5,6,1,0,0,rectangle,5,6,1,0,0,5,6,1,0,0,0,39,39,46,1,,,,,,,,
,,,,,,,,,,,,,FF,,,,,,,,1.365,,,,,,,,,,,,,,,,,,,,,,610309cb6693b9f1ae07b5f6,61036e14a0280fce27023e7f,2021-07-29_23h14.35.829,Simcolourproject_2stim_asymm_v5,2020.2.10,MacIntel,60,61025ae37ef11b136ea224fe,,,,,,,,,2366,39,-98,1,0,0,response3disk,,4,9,10,1,0,0,rectangle,9,10,1,0,0,9,10,1,0,0,0,40,40,59,1,,,,,,,,
,,,,,,,,,,,,,FF,,,,,,,,1.084,,,,,,,,,,,,,,,,,,,,,,610309cb6693b9f1ae07b5f6,61036e14a0280fce27023e7f,2021-07-29_23h14.35.829,Simcolourproject_2stim_asymm_v5,2020.2.10,MacIntel,60,61025ae37ef11b136ea224fe,,,,,,,,,4343,-45,89,1,0,0,response7disk,,0,7,2,1,0,0,rectangle,7,2,1,0,0,7,2,1,0,0,0,41,41,8,1,,,,,,,,
,,,,,,,,,,,,,FF,,,,,,,,1.884,,,,,,,,,,,,,,,,,,,,,,610309cb6693b9f1ae07b5f6,61036e14a0280fce27023e7f,2021-07-29_23h14.35.829,Simcolourproject_2stim_asymm_v5,2020.2.10,MacIntel,60,61025ae37ef11b136ea224fe,,,,,,,,,2640,55,82,1,0,0,response1disk,,7,-1,-4,1,0,0,rectangle,-1,-4,1,0,0,-1,-4,1,0,0,0,42,42,123,1,,,,,,,,
,,,,,,,,,,,,,FF,,,,,,,,3.05,,,,,,,,,,,,,,,,,,,,,,610309cb6693b9f1ae07b5f6,61036e14a0280fce27023e7f,2021-07-29_23h14.35.829,Simcolourproject_2stim_asymm_v5,2020.2.10,MacIntel,60,61025ae37ef11b136ea224fe,,,,,,,,,3635,68,-102,1,0,0,response3disk,,4,13,1,1,0,0,rectangle,13,1,1,0,0,13,1,1,0,0,0,43,43,79,1,,,,,,,,
,,,,,,,,,,,,,FF,,,,,,,,1.251,,,,,,,,,,,,,,,,,,,,,,610309cb6693b9f1ae07b5f6,61036e14a0280fce27023e7f,2021-07-29_23h14.35.829,Simcolourproject_2stim_asymm_v5,2020.2.10,MacIntel,60,61025ae37ef11b136ea224fe,,,,,,,,,2508,99,-51,1,0,0,response3disk,,5,-2,2,1,0,0,rectangle,-2,2,1,0,0,-2,2,1,0,0,0,44,44,98,1,,,,,,,,
,,,,,,,,,,,,,FF,,,,,,,,1.75,,,,,,,,,,,,,,,,,,,,,,610309cb6693b9f1ae07b5f6,61036e14a0280fce27023e7f,2021-07-29_23h14.35.829,Simcolourproject_2stim_asymm_v5,2020.2.10,MacIntel,60,61025ae37ef11b136ea224fe,,,,,,,,,3956,41,84,1,0,0,response1disk,,7,4,5,1,0,0,rectangle,-33,99,1,0,0,4,1,1,0,0,0,45,45,49,1,,response7disk_3,TRUE,0,0,"[185,91,64,46,129,5,113,68,28,56,177,217,36,195,11,210,103,255,293,179]",1.868,rectangle
,,,,,,,,,,,,,FF,,,,,,,,2.134,,,,,,,,,,,,,,,,,,,,,,610309cb6693b9f1ae07b5f6,61036e14a0280fce27023e7f,2021-07-29_23h14.35.829,Simcolourproject_2stim_asymm_v5,2020.2.10,MacIntel,60,61025ae37ef11b136ea224fe,,,,,,,,,808,-88,-60,1,0,0,response5disk,,2,3,-5,1,0,0,rectangle,3,-5,1,0,0,3,-5,1,0,0,0,46,46,1,1,,,,,,,,
,,,,,,,,,,,,,FF,,,,,,,,1.366,,,,,,,,,,,,,,,,,,,,,,610309cb6693b9f1ae07b5f6,61036e14a0280fce27023e7f,2021-07-29_23h14.35.829,Simcolourproject_2stim_asymm_v5,2020.2.10,MacIntel,60,61025ae37ef11b136ea224fe,,,,,,,,,3406,92,-53,1,0,0,response3disk,,5,-4,-5,1,0,0,rectangle,-4,-5,1,0,0,-4,-5,1,0,0,0,47,47,28,1,,,,,,,,
,,,,,,,,,,,,,FF,,,,,,,,1.266,,,,,,,,,,,,,,,,,,,,,,610309cb6693b9f1ae07b5f6,61036e14a0280fce27023e7f,2021-07-29_23h14.35.829,Simcolourproject_2stim_asymm_v5,2020.2.10,MacIntel,60,61025ae37ef11b136ea224fe,,,,,,,,,232,96,-39,1,0,0,response3disk,,5,3,-1,1,0,0,rectangle,3,-1,1,0,0,3,-1,1,0,0,0,48,48,10,1,,,,,,,,
,,,,,,,,,,,,,FF,,,,,,,,1.116,,,,,,,,,,,,,,,,,,,,,,610309cb6693b9f1ae07b5f6,61036e14a0280fce27023e7f,2021-07-29_23h14.35.829,Simcolourproject_2stim_asymm_v5,2020.2.10,MacIntel,60,61025ae37ef11b136ea224fe,,,,,,,,,3380,42,73,1,0,0,response1disk,,7,5,0,1,0,0,rectangle,5,0,1,0,0,5,0,1,0,0,0,49,49,73,1,,,,,,,,
,,,,,,,,,,,,,FF,,,,,,,,2.017,,,,,,,,,,,,,,,,,,,,,,610309cb6693b9f1ae07b5f6,61036e14a0280fce27023e7f,2021-07-29_23h14.35.829,Simcolourproject_2stim_asymm_v5,2020.2.10,MacIntel,60,61025ae37ef11b136ea224fe,,,,,,,,,2252,115,66,1,0,0,response1disk,,6,-17,5,1,0,0,rectangle,-17,5,1,0,0,-17,5,1,0,0,0,50,50,126,1,,,,,,,,
,,,,,,,,,,,,,FF,,,,,,,,1.432,,,,,,,,,,,,,,,,,,,,,,610309cb6693b9f1ae07b5f6,61036e14a0280fce27023e7f,2021-07-29_23h14.35.829,Simcolourproject_2stim_asymm_v5,2020.2.10,MacIntel,60,61025ae37ef11b136ea224fe,,,,,,,,,3588,-31,-92,1,0,0,response5disk,,3,8,14,1,0,0,rectangle,8,14,1,0,0,8,14,1,0,0,0,51,51,137,1,,,,,,,,
,,,,,,,,,,,,,FF,,,,,,,,1.3,,,,,,,,,,,,,,,,,,,,,,610309cb6693b9f1ae07b5f6,61036e14a0280fce27023e7f,2021-07-29_23h14.35.829,Simcolourproject_2stim_asymm_v5,2020.2.10,MacIntel,60,61025ae37ef11b136ea224fe,,,,,,,,,4012,90,66,1,0,0,response1disk,,6,-5,4,1,0,0,rectangle,-5,4,1,0,0,-5,4,1,0,0,0,52,52,35,1,,,,,,,,
,,,,,,,,,,,,,FF,,,,,,,,1,,,,,,,,,,,,,,,,,,,,,,610309cb6693b9f1ae07b5f6,61036e14a0280fce27023e7f,2021-07-29_23h14.35.829,Simcolourproject_2stim_asymm_v5,2020.2.10,MacIntel,60,61025ae37ef11b136ea224fe,,,,,,,,,2863,116,46,1,0,0,response1disk,,6,-9,14,1,0,0,rectangle,-9,14,1,0,0,-9,14,1,0,0,0,53,53,85,1,,,,,,,,
,,,,,,,,,,,,,FF,,,,,,,,1.167,,,,,,,,,,,,,,,,,,,,,,610309cb6693b9f1ae07b5f6,61036e14a0280fce27023e7f,2021-07-29_23h14.35.829,Simcolourproject_2stim_asymm_v5,2020.2.10,MacIntel,60,61025ae37ef11b136ea224fe,,,,,,,,,1992,103,-41,1,0,0,response3disk,,5,-3,0,1,0,0,rectangle,-3,0,1,0,0,-3,0,1,0,0,0,54,54,124,1,,,,,,,,
,,,,,,,,,,,,,FF,,,,,,,,3.084,,,,,,,,,,,,,,,,,,,,,,610309cb6693b9f1ae07b5f6,61036e14a0280fce27023e7f,2021-07-29_23h14.35.829,Simcolourproject_2stim_asymm_v5,2020.2.10,MacIntel,60,61025ae37ef11b136ea224fe,,,,,,,,,2556,39,-98,1,0,0,response3disk,,4,0,-7,1,0,0,rectangle,100,38,1,0,0,0,-4,1,0,0,0,55,55,47,1,,response1disk_3,TRUE,6,6,"[185,91,64,46,129,5,113,68,28,56,177,217,36,195,11,210,103,255,293,179]",2.049,rectangle
,,,,,,,,,,,,,FF,,,,,,,,3.216,,,,,,,,,,,,,,,,,,,,,,610309cb6693b9f1ae07b5f6,61036e14a0280fce27023e7f,2021-07-29_23h14.35.829,Simcolourproject_2stim_asymm_v5,2020.2.10,MacIntel,60,61025ae37ef11b136ea224fe,,,,,,,,,2878,107,-33,1,0,0,response3disk,,5,-5,2,1,0,0,rectangle,-5,2,1,0,0,-5,2,1,0,0,0,56,56,143,1,,,,,,,,
,,,,,,,,,,,,,FF,,,,,,,,1.8,,,,,,,,,,,,,,,,,,,,,,610309cb6693b9f1ae07b5f6,61036e14a0280fce27023e7f,2021-07-29_23h14.35.829,Simcolourproject_2stim_asymm_v5,2020.2.10,MacIntel,60,61025ae37ef11b136ea224fe,,,,,,,,,3023,89,47,1,0,0,response1disk,,6,-9,0,1,0,0,rectangle,-9,0,1,0,0,-9,0,1,0,0,0,57,57,103,1,,,,,,,,
,,,,,,,,,,,,,FF,,,,,,,,1.751,,,,,,,,,,,,,,,,,,,,,,610309cb6693b9f1ae07b5f6,61036e14a0280fce27023e7f,2021-07-29_23h14.35.829,Simcolourproject_2stim_asymm_v5,2020.2.10,MacIntel,60,61025ae37ef11b136ea224fe,,,,,,,,,3253,-42,-94,1,0,0,response5disk,,3,-6,-6,1,0,0,rectangle,-6,-6,1,0,0,-6,-6,1,0,0,0,58,58,52,1,,,,,,,,
,,,,,,,,,,,,,FF,,,,,,,,3.699,,,,,,,,,,,,,,,,,,,,,,610309cb6693b9f1ae07b5f6,61036e14a0280fce27023e7f,2021-07-29_23h14.35.829,Simcolourproject_2stim_asymm_v5,2020.2.10,MacIntel,60,61025ae37ef11b136ea224fe,,,,,,,,,3073,81,-98,1,0,0,response3disk,,4,-5,5,1,0,0,rectangle,-5,5,1,0,0,-5,5,1,0,0,0,59,59,86,1,,,,,,,,
,,,,,,,,,,,,,FF,,,,,,,,1.833,,,,,,,,,,,,,,,,,,,,,,610309cb6693b9f1ae07b5f6,61036e14a0280fce27023e7f,2021-07-29_23h14.35.829,Simcolourproject_2stim_asymm_v5,2020.2.10,MacIntel,60,61025ae37ef11b136ea224fe,,,,,,,,,1795,78,28,1,0,0,response1disk,,6,-4,-12,1,0,0,rectangle,-4,-12,1,0,0,-4,-12,1,0,0,0,60,60,57,1,,,,,,,,
,,,,,,,,,,,,,FF,,,,,,,,1.417,,,,,,,,,,,,,,,,,,,,,,610309cb6693b9f1ae07b5f6,61036e14a0280fce27023e7f,2021-07-29_23h14.35.829,Simcolourproject_2stim_asymm_v5,2020.2.10,MacIntel,60,61025ae37ef11b136ea224fe,,,,,,,,,3703,-55,-111,1,0,0,response5disk,,3,1,3,1,0,0,rectangle,1,3,1,0,0,1,3,1,0,0,0,61,61,96,1,,,,,,,,
,,,,,,,,,,,,,FF,,,,,,,,1.317,,,,,,,,,,,,,,,,,,,,,,610309cb6693b9f1ae07b5f6,61036e14a0280fce27023e7f,2021-07-29_23h14.35.829,Simcolourproject_2stim_asymm_v5,2020.2.10,MacIntel,60,61025ae37ef11b136ea224fe,,,,,,,,,1204,98,-50,1,0,0,response3disk,,5,-3,-4,1,0,0,rectangle,-3,-4,1,0,0,-3,-4,1,0,0,0,62,62,113,1,,,,,,,,
,,,,,,,,,,,,,FF,,,,,,,,1.001,,,,,,,,,,,,,,,,,,,,,,610309cb6693b9f1ae07b5f6,61036e14a0280fce27023e7f,2021-07-29_23h14.35.829,Simcolourproject_2stim_asymm_v5,2020.2.10,MacIntel,60,61025ae37ef11b136ea224fe,,,,,,,,,1073,96,36,1,0,0,response1disk,,6,-4,10,1,0,0,rectangle,91,-49,1,0,0,-17,10,1,0,0,0,63,63,153,1,,response3disk_3,TRUE,5,5,"[185,91,64,46,129,5,113,68,28,56,177,217,36,195,11,210,103,255,293,179]",1.784,rectangle
,,,,,,,,,,,,,FF,,,,,,,,1.15,,,,,,,,,,,,,,,,,,,,,,610309cb6693b9f1ae07b5f6,61036e14a0280fce27023e7f,2021-07-29_23h14.35.829,Simcolourproject_2stim_asymm_v5,2020.2.10,MacIntel,60,61025ae37ef11b136ea224fe,,,,,,,,,1715,98,36,1,0,0,response1disk,,6,11,3,1,0,0,rectangle,11,3,1,0,0,11,3,1,0,0,0,64,64,2,1,,,,,,,,
,,,,,,,,,,,,,FF,,,,,,,,2.367,,,,,,,,,,,,,,,,,,,,,,610309cb6693b9f1ae07b5f6,61036e14a0280fce27023e7f,2021-07-29_23h14.35.829,Simcolourproject_2stim_asymm_v5,2020.2.10,MacIntel,60,61025ae37ef11b136ea224fe,,,,,,,,,4223,-84,45,1,0,0,response7disk,,1,-6,-6,1,0,0,rectangle,-6,-6,1,0,0,-6,-6,1,0,0,0,65,65,122,1,,,,,,,,
,,,,,,,,,,,,,FF,,,,,,,,1.034,,,,,,,,,,,,,,,,,,,,,,610309cb6693b9f1ae07b5f6,61036e14a0280fce27023e7f,2021-07-29_23h14.35.829,Simcolourproject_2stim_asymm_v5,2020.2.10,MacIntel,60,61025ae37ef11b136ea224fe,,,,,,,,,2967,41,-89,1,0,0,response3disk,,4,-6,-4,1,0,0,rectangle,-6,-4,1,0,0,-6,-4,1,0,0,0,66,66,24,1,,,,,,,,
,,,,,,,,,,,,,FF,,,,,,,,1.483,,,,,,,,,,,,,,,,,,,,,,610309cb6693b9f1ae07b5f6,61036e14a0280fce27023e7f,2021-07-29_23h14.35.829,Simcolourproject_2stim_asymm_v5,2020.2.10,MacIntel,60,61025ae37ef11b136ea224fe,,,,,,,,,1766,49,-98,1,0,0,response3disk,,4,0,-8,1,0,0,rectangle,42,-94,1,0,0,2,-2,1,0,0,0,67,67,158,1,,response3disk_3,TRUE,4,4,"[185,91,64,46,129,5,113,68,28,56,177,217,36,195,11,210,103,255,293,179]",1.617,rectangle
,,,,,,,,,,,,,FF,,,,,,,,1.85,,,,,,,,,,,,,,,,,,,,,,610309cb6693b9f1ae07b5f6,61036e14a0280fce27023e7f,2021-07-29_23h14.35.829,Simcolourproject_2stim_asymm_v5,2020.2.10,MacIntel,60,61025ae37ef11b136ea224fe,,,,,,,,,2792,-34,-103,1,0,0,response5disk,,3,-10,8,1,0,0,rectangle,-10,8,1,0,0,-10,8,1,0,0,0,68,68,138,1,,,,,,,,
,,,,,,,,,,,,,FF,,,,,,,,1.335,,,,,,,,,,,,,,,,,,,,,,610309cb6693b9f1ae07b5f6,61036e14a0280fce27023e7f,2021-07-29_23h14.35.829,Simcolourproject_2stim_asymm_v5,2020.2.10,MacIntel,60,61025ae37ef11b136ea224fe,,,,,,,,,3685,41,-82,1,0,0,response3disk,,4,-3,9,1,0,0,rectangle,-3,9,1,0,0,-3,9,1,0,0,0,69,69,5,1,,,,,,,,
,,,,,,,,,,,,,FF,,,,,,,,1.25,,,,,,,,,,,,,,,,,,,,,,610309cb6693b9f1ae07b5f6,61036e14a0280fce27023e7f,2021-07-29_23h14.35.829,Simcolourproject_2stim_asymm_v5,2020.2.10,MacIntel,60,61025ae37ef11b136ea224fe,,,,,,,,,2845,-49,-94,1,0,0,response5disk,,3,17,5,1,0,0,rectangle,17,5,1,0,0,17,5,1,0,0,0,70,70,71,1,,,,,,,,
,,,,,,,,,,,,,FF,,,,,,,,1.418,,,,,,,,,,,,,,,,,,,,,,610309cb6693b9f1ae07b5f6,61036e14a0280fce27023e7f,2021-07-29_23h14.35.829,Simcolourproject_2stim_asymm_v5,2020.2.10,MacIntel,60,61025ae37ef11b136ea224fe,,,,,,,,,175,-60,-94,1,0,0,response5disk,,3,4,-6,1,0,0,rectangle,4,-6,1,0,0,4,-6,1,0,0,0,71,71,159,1,,,,,,,,
,,,,,,,,,,,,,FF,,,,,,,,2.082,,,,,,,,,,,,,,,,,,,,,,610309cb6693b9f1ae07b5f6,61036e14a0280fce27023e7f,2021-07-29_23h14.35.829,Simcolourproject_2stim_asymm_v5,2020.2.10,MacIntel,60,61025ae37ef11b136ea224fe,,,,,,,,,2847,44,-99,1,0,0,response3disk,,4,-15,4,1,0,0,rectangle,-15,4,1,0,0,-15,4,1,0,0,0,72,72,27,1,,,,,,,,
,,,,,,,,,,,,,FF,,,,,,,,1.117,,,,,,,,,,,,,,,,,,,,,,610309cb6693b9f1ae07b5f6,61036e14a0280fce27023e7f,2021-07-29_23h14.35.829,Simcolourproject_2stim_asymm_v5,2020.2.10,MacIntel,60,61025ae37ef11b136ea224fe,,,,,,,,,1347,84,-41,1,0,0,response3disk,,5,4,1,1,0,0,rectangle,4,1,1,0,0,4,1,1,0,0,0,73,73,88,1,,,,,,,,
,,,,,,,,,,,,,FF,,,,,,,,1.184,,,,,,,,,,,,,,,,,,,,,,610309cb6693b9f1ae07b5f6,61036e14a0280fce27023e7f,2021-07-29_23h14.35.829,Simcolourproject_2stim_asymm_v5,2020.2.10,MacIntel,60,61025ae37ef11b136ea224fe,,,,,,,,,1612,-35,-82,1,0,0,response5disk,,3,6,1,1,0,0,rectangle,6,1,1,0,0,6,1,1,0,0,0,74,74,81,1,,,,,,,,
,,,,,,,,,,,,,FF,,,,,,,,1.866,,,,,,,,,,,,,,,,,,,,,,610309cb6693b9f1ae07b5f6,61036e14a0280fce27023e7f,2021-07-29_23h14.35.829,Simcolourproject_2stim_asymm_v5,2020.2.10,MacIntel,60,61025ae37ef11b136ea224fe,,,,,,,,,4302,-24,-85,1,0,0,response5disk,,3,12,5,1,0,0,rectangle,12,5,1,0,0,12,5,1,0,0,0,75,75,115,1,,,,,,,,
,,,,,,,,,,,,,FF,,,,,,,,1.434,,,,,,,,,,,,,,,,,,,,,,610309cb6693b9f1ae07b5f6,61036e14a0280fce27023e7f,2021-07-29_23h14.35.829,Simcolourproject_2stim_asymm_v5,2020.2.10,MacIntel,60,61025ae37ef11b136ea224fe,,,,,,,,,2309,48,-80,1,0,0,response3disk,,4,-2,-4,1,0,0,rectangle,-2,-4,1,0,0,-2,-4,1,0,0,0,76,76,50,1,,,,,,,,
,,,,,,,,,,,,,FF,,,,,,,,1.049,,,,,,,,,,,,,,,,,,,,,,610309cb6693b9f1ae07b5f6,61036e14a0280fce27023e7f,2021-07-29_23h14.35.829,Simcolourproject_2stim_asymm_v5,2020.2.10,MacIntel,60,61025ae37ef11b136ea224fe,,,,,,,,,3670,-102,44,1,0,0,response7disk,,1,0,-12,1,0,0,rectangle,0,-12,1,0,0,0,-12,1,0,0,0,77,77,142,1,,,,,,,,
,,,,,,,,,,,,,FF,,,,,,,,1.199,,,,,,,,,,,,,,,,,,,,,,610309cb6693b9f1ae07b5f6,61036e14a0280fce27023e7f,2021-07-29_23h14.35.829,Simcolourproject_2stim_asymm_v5,2020.2.10,MacIntel,60,61025ae37ef11b136ea224fe,,,,,,,,,148,93,-54,1,0,0,response3disk,,5,4,-5,1,0,0,rectangle,4,-5,1,0,0,4,-5,1,0,0,0,78,78,61,1,,,,,,,,
,,,,,,,,,,,,,FF,,,,,,,,1.316,,,,,,,,,,,,,,,,,,,,,,610309cb6693b9f1ae07b5f6,61036e14a0280fce27023e7f,2021-07-29_23h14.35.829,Simcolourproject_2stim_asymm_v5,2020.2.10,MacIntel,60,61025ae37ef11b136ea224fe,,,,,,,,,3751,43,-86,1,0,0,response3disk,,4,-5,-2,1,0,0,rectangle,-5,-2,1,0,0,-5,-2,1,0,0,0,79,79,53,1,,,,,,,,
,,,,,,,,,,,,,FF,,,,,,,,1.366,,,,,,,,,,,,,,,,,,,,,,610309cb6693b9f1ae07b5f6,61036e14a0280fce27023e7f,2021-07-29_23h14.35.829,Simcolourproject_2stim_asymm_v5,2020.2.10,MacIntel,60,61025ae37ef11b136ea224fe,,,,,,,,,1622,42,-86,1,0,0,response3disk,,4,-5,7,1,0,0,rectangle,-5,7,1,0,0,-5,7,1,0,0,0,80,80,150,1,,,,,,,,
,,,,,,,,,,,,,FF,,,,,,,,1.501,,,,,,,,,,,,,,,,,,,,,,610309cb6693b9f1ae07b5f6,61036e14a0280fce27023e7f,2021-07-29_23h14.35.829,Simcolourproject_2stim_asymm_v5,2020.2.10,MacIntel,60,61025ae37ef11b136ea224fe,,,,,,,,,1847,72,-56,1,0,0,response3disk,,5,8,-4,1,0,0,rectangle,8,-4,1,0,0,8,-4,1,0,0,0,81,81,54,1,,,,,,,,
,,,,,,,,,,,,,FF,,,,,,,,1.2,,,,,,,,,,,,,,,,,,,,,,610309cb6693b9f1ae07b5f6,61036e14a0280fce27023e7f,2021-07-29_23h14.35.829,Simcolourproject_2stim_asymm_v5,2020.2.10,MacIntel,60,61025ae37ef11b136ea224fe,,,,,,,,,2677,-27,-83,1,0,0,response5disk,,3,-3,-4,1,0,0,rectangle,-3,-4,1,0,0,-3,-4,1,0,0,0,82,82,18,1,,,,,,,,
,,,,,,,,,,,,,FF,,,,,,,,0.966,,,,,,,,,,,,,,,,,,,,,,610309cb6693b9f1ae07b5f6,61036e14a0280fce27023e7f,2021-07-29_23h14.35.829,Simcolourproject_2stim_asymm_v5,2020.2.10,MacIntel,60,61025ae37ef11b136ea224fe,,,,,,,,,2087,-48,-89,1,0,0,response5disk,,3,-9,-7,1,0,0,rectangle,-9,-7,1,0,0,-9,-7,1,0,0,0,83,83,149,1,,,,,,,,
,,,,,,,,,,,,,FF,,,,,,,,1.767,,,,,,,,,,,,,,,,,,,,,,610309cb6693b9f1ae07b5f6,61036e14a0280fce27023e7f,2021-07-29_23h14.35.829,Simcolourproject_2stim_asymm_v5,2020.2.10,MacIntel,60,61025ae37ef11b136ea224fe,,,,,,,,,908,61,-111,1,0,0,response3disk,,4,9,-6,1,0,0,rectangle,9,-6,1,0,0,9,-6,1,0,0,0,84,84,91,1,,,,,,,,
,,,,,,,,,,,,,FF,,,,,,,,1.065,,,,,,,,,,,,,,,,,,,,,,610309cb6693b9f1ae07b5f6,61036e14a0280fce27023e7f,2021-07-29_23h14.35.829,Simcolourproject_2stim_asymm_v5,2020.2.10,MacIntel,60,61025ae37ef11b136ea224fe,,,,,,,,,2015,99,49,1,0,0,response1disk,,6,-12,-2,1,0,0,rectangle,-12,-2,1,0,0,-12,-2,1,0,0,0,85,85,64,1,,,,,,,,
,,,,,,,,,,,,,FF,,,,,,,,1.534,,,,,,,,,,,,,,,,,,,,,,610309cb6693b9f1ae07b5f6,61036e14a0280fce27023e7f,2021-07-29_23h14.35.829,Simcolourproject_2stim_asymm_v5,2020.2.10,MacIntel,60,61025ae37ef11b136ea224fe,,,,,,,,,1478,60,79,1,0,0,response1disk,,7,3,9,1,0,0,rectangle,3,9,1,0,0,3,9,1,0,0,0,86,86,101,1,,,,,,,,
,,,,,,,,,,,,,FF,,,,,,,,1.067,,,,,,,,,,,,,,,,,,,,,,610309cb6693b9f1ae07b5f6,61036e14a0280fce27023e7f,2021-07-29_23h14.35.829,Simcolourproject_2stim_asymm_v5,2020.2.10,MacIntel,60,61025ae37ef11b136ea224fe,,,,,,,,,3197,-72,-44,1,0,0,response5disk,,2,17,1,1,0,0,rectangle,17,1,1,0,0,17,1,1,0,0,0,87,87,16,1,,,,,,,,
,,,,,,,,,,,,,FF,,,,,,,,1.001,,,,,,,,,,,,,,,,,,,,,,610309cb6693b9f1ae07b5f6,61036e14a0280fce27023e7f,2021-07-29_23h14.35.829,Simcolourproject_2stim_asymm_v5,2020.2.10,MacIntel,60,61025ae37ef11b136ea224fe,,,,,,,,,2990,51,-77,1,0,0,response3disk,,4,9,-10,1,0,0,rectangle,9,-10,1,0,0,9,-10,1,0,0,0,88,88,58,1,,,,,,,,
,,,,,,,,,,,,,FF,,,,,,,,0.95,,,,,,,,,,,,,,,,,,,,,,610309cb6693b9f1ae07b5f6,61036e14a0280fce27023e7f,2021-07-29_23h14.35.829,Simcolourproject_2stim_asymm_v5,2020.2.10,MacIntel,60,61025ae37ef11b136ea224fe,,,,,,,,,1351,81,35,1,0,0,response1disk,,6,0,-6,1,0,0,rectangle,0,-6,1,0,0,0,-6,1,0,0,0,89,89,20,1,,,,,,,,
,,,,,,,,,,,,,FF,,,,,,,,2.067,,,,,,,,,,,,,,,,,,,,,,610309cb6693b9f1ae07b5f6,61036e14a0280fce27023e7f,2021-07-29_23h14.35.829,Simcolourproject_2stim_asymm_v5,2020.2.10,MacIntel,60,61025ae37ef11b136ea224fe,,,,,,,,,4195,45,-79,1,0,0,response3disk,,4,14,-8,1,0,0,rectangle,-84,37,1,0,0,-5,-3,1,0,0,0,90,90,7,1,,response7disk_3,TRUE,1,1,"[185,91,64,46,129,5,113,68,28,56,177,217,36,195,11,210,103,255,293,179]",1.55,rectangle
,,,,,,,,,,,,,FF,,,,,,,,1.266,,,,,,,,,,,,,,,,,,,,,,610309cb6693b9f1ae07b5f6,61036e14a0280fce27023e7f,2021-07-29_23h14.35.829,Simcolourproject_2stim_asymm_v5,2020.2.10,MacIntel,60,61025ae37ef11b136ea224fe,,,,,,,,,2213,100,-33,1,0,0,response3disk,,5,-33,2,1,0,0,rectangle,-33,2,1,0,0,-33,2,1,0,0,0,91,91,119,1,,,,,,,,
,,,,,,,,,,,,,FF,,,,,,,,1.167,,,,,,,,,,,,,,,,,,,,,,610309cb6693b9f1ae07b5f6,61036e14a0280fce27023e7f,2021-07-29_23h14.35.829,Simcolourproject_2stim_asymm_v5,2020.2.10,MacIntel,60,61025ae37ef11b136ea224fe,,,,,,,,,2789,-34,-105,1,0,0,response5disk,,3,6,-2,1,0,0,rectangle,6,-2,1,0,0,6,-2,1,0,0,0,92,92,125,1,,,,,,,,
,,,,,,,,,,,,,FF,,,,,,,,1.001,,,,,,,,,,,,,,,,,,,,,,610309cb6693b9f1ae07b5f6,61036e14a0280fce27023e7f,2021-07-29_23h14.35.829,Simcolourproject_2stim_asymm_v5,2020.2.10,MacIntel,60,61025ae37ef11b136ea224fe,,,,,,,,,651,62,-105,1,0,0,response3disk,,4,-16,7,1,0,0,rectangle,-16,7,1,0,0,-16,7,1,0,0,0,93,93,34,1,,,,,,,,
,,,,,,,,,,,,,FF,,,,,,,,2.565,,,,,,,,,,,,,,,,,,,,,,610309cb6693b9f1ae07b5f6,61036e14a0280fce27023e7f,2021-07-29_23h14.35.829,Simcolourproject_2stim_asymm_v5,2020.2.10,MacIntel,60,61025ae37ef11b136ea224fe,,,,,,,,,1036,-36,-64,1,0,0,response5disk,,3,6,-8,1,0,0,rectangle,6,-8,1,0,0,6,-8,1,0,0,0,94,94,120,1,,,,,,,,
,,,,,,,,,,,,,FF,,,,,,,,1.933,,,,,,,,,,,,,,,,,,,,,,610309cb6693b9f1ae07b5f6,61036e14a0280fce27023e7f,2021-07-29_23h14.35.829,Simcolourproject_2stim_asymm_v5,2020.2.10,MacIntel,60,61025ae37ef11b136ea224fe,,,,,,,,,2861,82,-29,1,0,0,response3disk,,5,-4,5,1,0,0,rectangle,-4,5,1,0,0,-4,5,1,0,0,0,95,95,134,1,,,,,,,,
,,,,,,,,,,,,,FF,,,,,,,,1.35,,,,,,,,,,,,,,,,,,,,,,610309cb6693b9f1ae07b5f6,61036e14a0280fce27023e7f,2021-07-29_23h14.35.829,Simcolourproject_2stim_asymm_v5,2020.2.10,MacIntel,60,61025ae37ef11b136ea224fe,,,,,,,,,98,-39,-85,1,0,0,response5disk,,3,1,-8,1,0,0,rectangle,1,-8,1,0,0,1,-8,1,0,0,0,96,96,56,1,,,,,,,,
,,,,,,,,,,,,,FF,,,,,,,,1.567,,,,,,,,,,,,,,,,,,,,,,610309cb6693b9f1ae07b5f6,61036e14a0280fce27023e7f,2021-07-29_23h14.35.829,Simcolourproject_2stim_asymm_v5,2020.2.10,MacIntel,60,61025ae37ef11b136ea224fe,,,,,,,,,1310,43,-107,1,0,0,response3disk,,4,-5,-11,1,0,0,rectangle,-5,-11,1,0,0,-5,-11,1,0,0,0,97,97,76,1,,,,,,,,
,,,,,,,,,,,,,FF,,,,,,,,2.317,,,,,,,,,,,,,,,,,,,,,,610309cb6693b9f1ae07b5f6,61036e14a0280fce27023e7f,2021-07-29_23h14.35.829,Simcolourproject_2stim_asymm_v5,2020.2.10,MacIntel,60,61025ae37ef11b136ea224fe,,,,,,,,,1665,83,35,1,0,0,response1disk,,6,-2,-6,1,0,0,rectangle,-2,-6,1,0,0,-2,-6,1,0,0,0,98,98,128,1,,,,,,,,
,,,,,,,,,,,,,FF,,,,,,,,1.617,,,,,,,,,,,,,,,,,,,,,,610309cb6693b9f1ae07b5f6,61036e14a0280fce27023e7f,2021-07-29_23h14.35.829,Simcolourproject_2stim_asymm_v5,2020.2.10,MacIntel,60,61025ae37ef11b136ea224fe,,,,,,,,,1924,70,-32,1,0,0,response3disk,,5,-15,9,1,0,0,rectangle,-15,9,1,0,0,-15,9,1,0,0,0,99,99,17,1,,,,,,,,
,,,,,,,,,,,,,FF,,,,,,,,1.479,,,,,,,,,,,,,,,,,,,,,,610309cb6693b9f1ae07b5f6,61036e14a0280fce27023e7f,2021-07-29_23h14.35.829,Simcolourproject_2stim_asymm_v5,2020.2.10,MacIntel,60,61025ae37ef11b136ea224fe,,,,,,,,,497,75,27,1,0,0,response1disk,,6,17,-2,1,0,0,rectangle,17,-2,1,0,0,17,-2,1,0,0,0,100,100,106,1,,,,,,,,
,,,,,,,,,,,,,FF,,,,,,,,1.067,,,,,,,,,,,,,,,,,,,,,,610309cb6693b9f1ae07b5f6,61036e14a0280fce27023e7f,2021-07-29_23h14.35.829,Simcolourproject_2stim_asymm_v5,2020.2.10,MacIntel,60,61025ae37ef11b136ea224fe,,,,,,,,,4089,-42,-96,1,0,0,response5disk,,3,0,-5,1,0,0,rectangle,0,-5,1,0,0,0,-5,1,0,0,0,101,101,112,1,,,,,,,,
,,,,,,,,,,,,,FF,,,,,,,,1.15,,,,,,,,,,,,,,,,,,,,,,610309cb6693b9f1ae07b5f6,61036e14a0280fce27023e7f,2021-07-29_23h14.35.829,Simcolourproject_2stim_asymm_v5,2020.2.10,MacIntel,60,61025ae37ef11b136ea224fe,,,,,,,,,2011,97,-29,1,0,0,response3disk,,5,-6,-14,1,0,0,rectangle,-33,81,1,0,0,2,-10,1,0,0,0,102,102,41,1,,response7disk_3,TRUE,0,0,"[185,91,64,46,129,5,113,68,28,56,177,217,36,195,11,210,103,255,293,179]",1.966,rectangle
,,,,,,,,,,,,,FF,,,,,,,,1.133,,,,,,,,,,,,,,,,,,,,,,610309cb6693b9f1ae07b5f6,61036e14a0280fce27023e7f,2021-07-29_23h14.35.829,Simcolourproject_2stim_asymm_v5,2020.2.10,MacIntel,60,61025ae37ef11b136ea224fe,,,,,,,,,860,-29,-87,1,0,0,response5disk,,3,3,-4,1,0,0,rectangle,3,-4,1,0,0,3,-4,1,0,0,0,103,103,93,1,,,,,,,,
,,,,,,,,,,,,,FF,,,,,,,,1.917,,,,,,,,,,,,,,,,,,,,,,610309cb6693b9f1ae07b5f6,61036e14a0280fce27023e7f,2021-07-29_23h14.35.829,Simcolourproject_2stim_asymm_v5,2020.2.10,MacIntel,60,61025ae37ef11b136ea224fe,,,,,,,,,1611,-94,-40,1,0,0,response5disk,,2,8,11,1,0,0,rectangle,8,11,1,0,0,8,11,1,0,0,0,104,104,108,1,,,,,,,,
,,,,,,,,,,,,,FF,,,,,,,,2.017,,,,,,,,,,,,,,,,,,,,,,610309cb6693b9f1ae07b5f6,61036e14a0280fce27023e7f,2021-07-29_23h14.35.829,Simcolourproject_2stim_asymm_v5,2020.2.10,MacIntel,60,61025ae37ef11b136ea224fe,,,,,,,,,499,49,74,1,0,0,response1disk,,7,19,0,1,0,0,rectangle,19,0,1,0,0,19,0,1,0,0,0,105,105,14,1,,,,,,,,
,,,,,,,,,,,,,FF,,,,,,,,1.033,,,,,,,,,,,,,,,,,,,,,,610309cb6693b9f1ae07b5f6,61036e14a0280fce27023e7f,2021-07-29_23h14.35.829,Simcolourproject_2stim_asymm_v5,2020.2.10,MacIntel,60,61025ae37ef11b136ea224fe,,,,,,,,,3544,42,-79,1,0,0,response3disk,,4,10,0,1,0,0,rectangle,10,0,1,0,0,10,0,1,0,0,0,106,106,12,1,,,,,,,,
,,,,,,,,,,,,,FF,,,,,,,,2.366,,,,,,,,,,,,,,,,,,,,,,610309cb6693b9f1ae07b5f6,61036e14a0280fce27023e7f,2021-07-29_23h14.35.829,Simcolourproject_2stim_asymm_v5,2020.2.10,MacIntel,60,61025ae37ef11b136ea224fe,,,,,,,,,223,-40,-73,1,0,0,response5disk,,3,8,-3,1,0,0,rectangle,8,-3,1,0,0,8,-3,1,0,0,0,107,107,127,1,,,,,,,,
,,,,,,,,,,,,,FF,,,,,,,,1.766,,,,,,,,,,,,,,,,,,,,,,610309cb6693b9f1ae07b5f6,61036e14a0280fce27023e7f,2021-07-29_23h14.35.829,Simcolourproject_2stim_asymm_v5,2020.2.10,MacIntel,60,61025ae37ef11b136ea224fe,,,,,,,,,1947,92,30,1,0,0,response1disk,,6,4,-2,1,0,0,rectangle,4,-2,1,0,0,4,-2,1,0,0,0,108,108,63,1,,,,,,,,
,,,,,,,,,,,,,FF,,,,,,,,1.85,,,,,,,,,,,,,,,,,,,,,,610309cb6693b9f1ae07b5f6,61036e14a0280fce27023e7f,2021-07-29_23h14.35.829,Simcolourproject_2stim_asymm_v5,2020.2.10,MacIntel,60,61025ae37ef11b136ea224fe,,,,,,,,,94,-94,-52,1,0,0,response5disk,,2,-15,-4,1,0,0,rectangle,-15,-4,1,0,0,-15,-4,1,0,0,0,109,109,117,1,,,,,,,,
,,,,,,,,,,,,,FF,,,,,,,,0.933,,,,,,,,,,,,,,,,,,,,,,610309cb6693b9f1ae07b5f6,61036e14a0280fce27023e7f,2021-07-29_23h14.35.829,Simcolourproject_2stim_asymm_v5,2020.2.10,MacIntel,60,61025ae37ef11b136ea224fe,,,,,,,,,2628,77,50,1,0,0,response1disk,,6,2,11,1,0,0,rectangle,2,11,1,0,0,2,11,1,0,0,0,110,110,139,1,,,,,,,,
,,,,,,,,,,,,,FF,,,,,,,,2.333,,,,,,,,,,,,,,,,,,,,,,610309cb6693b9f1ae07b5f6,61036e14a0280fce27023e7f,2021-07-29_23h14.35.829,Simcolourproject_2stim_asymm_v5,2020.2.10,MacIntel,60,61025ae37ef11b136ea224fe,,,,,,,,,1648,37,89,1,0,0,response1disk,,7,8,1,1,0,0,rectangle,8,1,1,0,0,8,1,1,0,0,0,111,111,140,1,,,,,,,,
,,,,,,,,,,,,,FF,,,,,,,,0.984,,,,,,,,,,,,,,,,,,,,,,610309cb6693b9f1ae07b5f6,61036e14a0280fce27023e7f,2021-07-29_23h14.35.829,Simcolourproject_2stim_asymm_v5,2020.2.10,MacIntel,60,61025ae37ef11b136ea224fe,,,,,,,,,1918,76,-32,1,0,0,response3disk,,5,2,-5,1,0,0,rectangle,57,102,1,0,0,-10,-3,1,0,0,0,112,112,11,1,,response1disk_3,TRUE,7,7,"[185,91,64,46,129,5,113,68,28,56,177,217,36,195,11,210,103,255,293,179]",1.599,rectangle
,,,,,,,,,,,,,FF,,,,,,,,2.465,,,,,,,,,,,,,,,,,,,,,,610309cb6693b9f1ae07b5f6,61036e14a0280fce27023e7f,2021-07-29_23h14.35.829,Simcolourproject_2stim_asymm_v5,2020.2.10,MacIntel,60,61025ae37ef11b136ea224fe,,,,,,,,,2397,95,-49,1,0,0,response3disk,,5,4,-8,1,0,0,rectangle,4,-8,1,0,0,4,-8,1,0,0,0,113,113,102,1,,,,,,,,
,,,,,,,,,,,,,FF,,,,,,,,1.985,,,,,,,,,,,,,,,,,,,,,,610309cb6693b9f1ae07b5f6,61036e14a0280fce27023e7f,2021-07-29_23h14.35.829,Simcolourproject_2stim_asymm_v5,2020.2.10,MacIntel,60,61025ae37ef11b136ea224fe,,,,,,,,,2928,36,-79,1,0,0,response3disk,,4,-5,-6,1,0,0,rectangle,-5,-6,1,0,0,-5,-6,1,0,0,0,114,114,99,1,,,,,,,,
,,,,,,,,,,,,,FF,,,,,,,,1.199,,,,,,,,,,,,,,,,,,,,,,610309cb6693b9f1ae07b5f6,61036e14a0280fce27023e7f,2021-07-29_23h14.35.829,Simcolourproject_2stim_asymm_v5,2020.2.10,MacIntel,60,61025ae37ef11b136ea224fe,,,,,,,,,3998,-86,34,1,0,0,response7disk,,1,0,-9,1,0,0,rectangle,0,-9,1,0,0,0,-9,1,0,0,0,115,115,121,1,,,,,,,,
,,,,,,,,,,,,,FF,,,,,,,,1.733,,,,,,,,,,,,,,,,,,,,,,610309cb6693b9f1ae07b5f6,61036e14a0280fce27023e7f,2021-07-29_23h14.35.829,Simcolourproject_2stim_asymm_v5,2020.2.10,MacIntel,60,61025ae37ef11b136ea224fe,,,,,,,,,2931,101,34,1,0,0,response1disk,,6,1,-15,1,0,0,rectangle,1,-15,1,0,0,1,-15,1,0,0,0,116,116,44,1,,,,,,,,
,,,,,,,,,,,,,FF,,,,,,,,0.933,,,,,,,,,,,,,,,,,,,,,,610309cb6693b9f1ae07b5f6,61036e14a0280fce27023e7f,2021-07-29_23h14.35.829,Simcolourproject_2stim_asymm_v5,2020.2.10,MacIntel,60,61025ae37ef11b136ea224fe,,,,,,,,,4109,44,78,1,0,0,response1disk,,7,5,-15,1,0,0,rectangle,5,-15,1,0,0,5,-15,1,0,0,0,117,117,90,1,,,,,,,,
,,,,,,,,,,,,,FF,,,,,,,,1.332,,,,,,,,,,,,,,,,,,,,,,610309cb6693b9f1ae07b5f6,61036e14a0280fce27023e7f,2021-07-29_23h14.35.829,Simcolourproject_2stim_asymm_v5,2020.2.10,MacIntel,60,61025ae37ef11b136ea224fe,,,,,,,,,4251,-89,31,1,0,0,response7disk,,1,-9,1,1,0,0,rectangle,-9,1,1,0,0,-9,1,1,0,0,0,118,118,51,1,,,,,,,,
,,,,,,,,,,,,,FF,,,,,,,,1.549,,,,,,,,,,,,,,,,,,,,,,610309cb6693b9f1ae07b5f6,61036e14a0280fce27023e7f,2021-07-29_23h14.35.829,Simcolourproject_2stim_asymm_v5,2020.2.10,MacIntel,60,61025ae37ef11b136ea224fe,,,,,,,,,2224,89,35,1,0,0,response1disk,,6,5,-5,1,0,0,rectangle,5,-5,1,0,0,5,-5,1,0,0,0,119,119,32,1,,,,,,,,
,,,,,,,,,,,,,FF,,,,,,,,1.151,,,,,,,,,,,,,,,,,,,,,,610309cb6693b9f1ae07b5f6,61036e14a0280fce27023e7f,2021-07-29_23h14.35.829,Simcolourproject_2stim_asymm_v5,2020.2.10,MacIntel,60,61025ae37ef11b136ea224fe,,,,,,,,,3715,-54,-81,1,0,0,response5disk,,3,3,-3,1,0,0,rectangle,3,-3,1,0,0,3,-3,1,0,0,0,120,120,146,1,,,,,,,,
,,,,,,,,,,,,,FF,,,,,,,,0.999,,,,,,,,,,,,,,,,,,,,,,610309cb6693b9f1ae07b5f6,61036e14a0280fce27023e7f,2021-07-29_23h14.35.829,Simcolourproject_2stim_asymm_v5,2020.2.10,MacIntel,60,61025ae37ef11b136ea224fe,,,,,,,,,1135,-42,-87,1,0,0,response5disk,,3,0,-3,1,0,0,rectangle,0,-3,1,0,0,0,-3,1,0,0,0,121,121,74,1,,,,,,,,
,,,,,,,,,,,,,FF,,,,,,,,1.318,,,,,,,,,,,,,,,,,,,,,,610309cb6693b9f1ae07b5f6,61036e14a0280fce27023e7f,2021-07-29_23h14.35.829,Simcolourproject_2stim_asymm_v5,2020.2.10,MacIntel,60,61025ae37ef11b136ea224fe,,,,,,,,,4156,84,43,1,0,0,response1disk,,6,-7,3,1,0,0,rectangle,-7,3,1,0,0,-7,3,1,0,0,0,122,122,66,1,,,,,,,,
,,,,,,,,,,,,,FF,,,,,,,,1.017,,,,,,,,,,,,,,,,,,,,,,610309cb6693b9f1ae07b5f6,61036e14a0280fce27023e7f,2021-07-29_23h14.35.829,Simcolourproject_2stim_asymm_v5,2020.2.10,MacIntel,60,61025ae37ef11b136ea224fe,,,,,,,,,1792,-32,-100,1,0,0,response5disk,,3,5,-6,1,0,0,rectangle,5,-6,1,0,0,5,-6,1,0,0,0,123,123,4,1,,,,,,,,
,,,,,,,,,,,,,FF,,,,,,,,11.317,,,,,,,,,,,,,,,,,,,,,,610309cb6693b9f1ae07b5f6,61036e14a0280fce27023e7f,2021-07-29_23h14.35.829,Simcolourproject_2stim_asymm_v5,2020.2.10,MacIntel,60,61025ae37ef11b136ea224fe,,,,,,,,,1701,89,51,1,0,0,response1disk,,6,9,-6,1,0,0,rectangle,9,-6,1,0,0,9,-6,1,0,0,0,124,124,3,1,,,,,,,,
,,,,,,,,,,,,,FF,,,,,,,,0.951,,,,,,,,,,,,,,,,,,,,,,610309cb6693b9f1ae07b5f6,61036e14a0280fce27023e7f,2021-07-29_23h14.35.829,Simcolourproject_2stim_asymm_v5,2020.2.10,MacIntel,60,61025ae37ef11b136ea224fe,,,,,,,,,4220,-67,-103,1,0,0,response5disk,,3,1,13,1,0,0,rectangle,1,13,1,0,0,1,13,1,0,0,0,125,125,68,1,,,,,,,,
,,,,,,,,,,,,,FF,,,,,,,,0.85,,,,,,,,,,,,,,,,,,,,,,610309cb6693b9f1ae07b5f6,61036e14a0280fce27023e7f,2021-07-29_23h14.35.829,Simcolourproject_2stim_asymm_v5,2020.2.10,MacIntel,60,61025ae37ef11b136ea224fe,,,,,,,,,3546,-86,-49,1,0,0,response5disk,,2,1,-7,1,0,0,rectangle,1,-7,1,0,0,1,-7,1,0,0,0,126,126,72,1,,,,,,,,
,,,,,,,,,,,,,FF,,,,,,,,0.934,,,,,,,,,,,,,,,,,,,,,,610309cb6693b9f1ae07b5f6,61036e14a0280fce27023e7f,2021-07-29_23h14.35.829,Simcolourproject_2stim_asymm_v5,2020.2.10,MacIntel,60,61025ae37ef11b136ea224fe,,,,,,,,,1011,88,28,1,0,0,response1disk,,6,7,7,1,0,0,rectangle,7,7,1,0,0,7,7,1,0,0,0,127,127,6,1,,,,,,,,
,,,,,,,,,,,,,FF,,,,,,,,1.001,,,,,,,,,,,,,,,,,,,,,,610309cb6693b9f1ae07b5f6,61036e14a0280fce27023e7f,2021-07-29_23h14.35.829,Simcolourproject_2stim_asymm_v5,2020.2.10,MacIntel,60,61025ae37ef11b136ea224fe,,,,,,,,,1305,-56,-70,1,0,0,response5disk,,3,-1,3,1,0,0,rectangle,-41,106,1,0,0,-8,0,1,0,0,0,128,128,83,1,,response7disk_3,TRUE,0,0,"[185,91,64,46,129,5,113,68,28,56,177,217,36,195,11,210,103,255,293,179]",2.234,rectangle
,,,,,,,,,,,,,FF,,,,,,,,1.6,,,,,,,,,,,,,,,,,,,,,,610309cb6693b9f1ae07b5f6,61036e14a0280fce27023e7f,2021-07-29_23h14.35.829,Simcolourproject_2stim_asymm_v5,2020.2.10,MacIntel,60,61025ae37ef11b136ea224fe,,,,,,,,,3601,37,-71,1,0,0,response3disk,,4,6,-7,1,0,0,rectangle,6,-7,1,0,0,6,-7,1,0,0,0,129,129,22,1,,,,,,,,
,,,,,,,,,,,,,FF,,,,,,,,2.684,,,,,,,,,,,,,,,,,,,,,,610309cb6693b9f1ae07b5f6,61036e14a0280fce27023e7f,2021-07-29_23h14.35.829,Simcolourproject_2stim_asymm_v5,2020.2.10,MacIntel,60,61025ae37ef11b136ea224fe,,,,,,,,,2943,-34,-101,1,0,0,response5disk,,3,-3,0,1,0,0,rectangle,-3,0,1,0,0,-3,0,1,0,0,0,130,130,155,1,,,,,,,,
,,,,,,,,,,,,,FF,,,,,,,,2.4,,,,,,,,,,,,,,,,,,,,,,610309cb6693b9f1ae07b5f6,61036e14a0280fce27023e7f,2021-07-29_23h14.35.829,Simcolourproject_2stim_asymm_v5,2020.2.10,MacIntel,60,61025ae37ef11b136ea224fe,,,,,,,,,427,77,-38,1,0,0,response3disk,,5,8,-2,1,0,0,rectangle,8,-2,1,0,0,8,-2,1,0,0,0,131,131,152,1,,,,,,,,
,,,,,,,,,,,,,FF,,,,,,,,1.5,,,,,,,,,,,,,,,,,,,,,,610309cb6693b9f1ae07b5f6,61036e14a0280fce27023e7f,2021-07-29_23h14.35.829,Simcolourproject_2stim_asymm_v5,2020.2.10,MacIntel,60,61025ae37ef11b136ea224fe,,,,,,,,,2447,105,30,1,0,0,response1disk,,6,0,0,1,0,0,rectangle,0,0,1,0,0,0,0,1,0,0,0,132,132,130,1,,,,,,,,
,,,,,,,,,,,,,FF,,,,,,,,1.182,,,,,,,,,,,,,,,,,,,,,,610309cb6693b9f1ae07b5f6,61036e14a0280fce27023e7f,2021-07-29_23h14.35.829,Simcolourproject_2stim_asymm_v5,2020.2.10,MacIntel,60,61025ae37ef11b136ea224fe,,,,,,,,,1203,-38,-68,1,0,0,response5disk,,3,4,-2,1,0,0,rectangle,4,-2,1,0,0,4,-2,1,0,0,0,133,133,118,1,,,,,,,,
,,,,,,,,,,,,,FF,,,,,,,,1.7,,,,,,,,,,,,,,,,,,,,,,610309cb6693b9f1ae07b5f6,61036e14a0280fce27023e7f,2021-07-29_23h14.35.829,Simcolourproject_2stim_asymm_v5,2020.2.10,MacIntel,60,61025ae37ef11b136ea224fe,,,,,,,,,3112,47,-100,1,0,0,response3disk,,4,-15,-2,1,0,0,rectangle,-15,-2,1,0,0,-15,-2,1,0,0,0,134,134,114,1,,,,,,,,
,,,,,,,,,,,,,FF,,,,,,,,5.2,,,,,,,,,,,,,,,,,,,,,,610309cb6693b9f1ae07b5f6,61036e14a0280fce27023e7f,2021-07-29_23h14.35.829,Simcolourproject_2stim_asymm_v5,2020.2.10,MacIntel,60,61025ae37ef11b136ea224fe,,,,,,,,,1245,-88,-47,1,0,0,response5disk,,2,3,0,1,0,0,rectangle,3,0,1,0,0,3,0,1,0,0,0,135,135,30,1,,,,,,,,
,,,,,,,,,,,,,FF,,,,,,,,8.083,,,,,,,,,,,,,,,,,,,,,,610309cb6693b9f1ae07b5f6,61036e14a0280fce27023e7f,2021-07-29_23h14.35.829,Simcolourproject_2stim_asymm_v5,2020.2.10,MacIntel,60,61025ae37ef11b136ea224fe,,,,,,,,,2635,46,-93,1,0,0,response3disk,,4,-2,-1,1,0,0,rectangle,-2,-1,1,0,0,-2,-1,1,0,0,0,136,136,80,1,,,,,,,,
,,,,,,,,,,,,,FF,,,,,,,,4.434,,,,,,,,,,,,,,,,,,,,,,610309cb6693b9f1ae07b5f6,61036e14a0280fce27023e7f,2021-07-29_23h14.35.829,Simcolourproject_2stim_asymm_v5,2020.2.10,MacIntel,60,61025ae37ef11b136ea224fe,,,,,,,,,3052,-48,-99,1,0,0,response5disk,,3,-5,-9,1,0,0,rectangle,-5,-9,1,0,0,-5,-9,1,0,0,0,137,137,21,1,,,,,,,,
,,,,,,,,,,,,,FF,,,,,,,,4.551,,,,,,,,,,,,,,,,,,,,,,610309cb6693b9f1ae07b5f6,61036e14a0280fce27023e7f,2021-07-29_23h14.35.829,Simcolourproject_2stim_asymm_v5,2020.2.10,MacIntel,60,61025ae37ef11b136ea224fe,,,,,,,,,1174,82,42,1,0,0,response1disk,,6,-6,-2,1,0,0,rectangle,-6,-2,1,0,0,-6,-2,1,0,0,0,138,138,25,1,,,,,,,,
,,,,,,,,,,,,,FF,,,,,,,,1.216,,,,,,,,,,,,,,,,,,,,,,610309cb6693b9f1ae07b5f6,61036e14a0280fce27023e7f,2021-07-29_23h14.35.829,Simcolourproject_2stim_asymm_v5,2020.2.10,MacIntel,60,61025ae37ef11b136ea224fe,,,,,,,,,2138,80,35,1,0,0,response1disk,,6,4,1,1,0,0,rectangle,4,1,1,0,0,4,1,1,0,0,0,139,139,135,1,,,,,,,,
,,,,,,,,,,,,,FF,,,,,,,,0.933,,,,,,,,,,,,,,,,,,,,,,610309cb6693b9f1ae07b5f6,61036e14a0280fce27023e7f,2021-07-29_23h14.35.829,Simcolourproject_2stim_asymm_v5,2020.2.10,MacIntel,60,61025ae37ef11b136ea224fe,,,,,,,,,1088,113,58,1,0,0,response1disk,,6,-4,1,1,0,0,rectangle,-4,1,1,0,0,-4,1,1,0,0,0,140,140,45,1,,,,,,,,
,,,,,,,,,,,,,FF,,,,,,,,0.983,,,,,,,,,,,,,,,,,,,,,,610309cb6693b9f1ae07b5f6,61036e14a0280fce27023e7f,2021-07-29_23h14.35.829,Simcolourproject_2stim_asymm_v5,2020.2.10,MacIntel,60,61025ae37ef11b136ea224fe,,,,,,,,,3722,31,-72,1,0,0,response3disk,,4,10,-7,1,0,0,rectangle,10,-7,1,0,0,10,-7,1,0,0,0,141,141,148,1,,,,,,,,
,,,,,,,,,,,,,FF,,,,,,,,2.4,,,,,,,,,,,,,,,,,,,,,,610309cb6693b9f1ae07b5f6,61036e14a0280fce27023e7f,2021-07-29_23h14.35.829,Simcolourproject_2stim_asymm_v5,2020.2.10,MacIntel,60,61025ae37ef11b136ea224fe,,,,,,,,,3403,42,-74,1,0,0,response3disk,,4,13,-17,1,0,0,rectangle,13,-17,1,0,0,13,-17,1,0,0,0,142,142,70,1,,,,,,,,
,,,,,,,,,,,,,FF,,,,,,,,0.984,,,,,,,,,,,,,,,,,,,,,,610309cb6693b9f1ae07b5f6,61036e14a0280fce27023e7f,2021-07-29_23h14.35.829,Simcolourproject_2stim_asymm_v5,2020.2.10,MacIntel,60,61025ae37ef11b136ea224fe,,,,,,,,,1460,-90,-39,1,0,0,response5disk,,2,-3,-6,1,0,0,rectangle,-3,-6,1,0,0,-3,-6,1,0,0,0,143,143,29,1,,,,,,,,
,,,,,,,,,,,,,FF,,,,,,,,2.517,,,,,,,,,,,,,,,,,,,,,,610309cb6693b9f1ae07b5f6,61036e14a0280fce27023e7f,2021-07-29_23h14.35.829,Simcolourproject_2stim_asymm_v5,2020.2.10,MacIntel,60,61025ae37ef11b136ea224fe,,,,,,,,,272,73,-47,1,0,0,response3disk,,5,-1,-3,1,0,0,rectangle,-1,-3,1,0,0,-1,-3,1,0,0,0,144,144,151,1,,,,,,,,
,,,,,,,,,,,,,FF,,,,,,,,1.067,,,,,,,,,,,,,,,,,,,,,,610309cb6693b9f1ae07b5f6,61036e14a0280fce27023e7f,2021-07-29_23h14.35.829,Simcolourproject_2stim_asymm_v5,2020.2.10,MacIntel,60,61025ae37ef11b136ea224fe,,,,,,,,,720,-88,-52,1,0,0,response5disk,,2,-10,-5,1,0,0,rectangle,-10,-5,1,0,0,-10,-5,1,0,0,0,145,145,15,1,,,,,,,,
,,,,,,,,,,,,,FF,,,,,,,,0.966,,,,,,,,,,,,,,,,,,,,,,610309cb6693b9f1ae07b5f6,61036e14a0280fce27023e7f,2021-07-29_23h14.35.829,Simcolourproject_2stim_asymm_v5,2020.2.10,MacIntel,60,61025ae37ef11b136ea224fe,,,,,,,,,3236,-30,-71,1,0,0,response5disk,,3,6,-2,1,0,0,rectangle,6,-2,1,0,0,6,-2,1,0,0,0,146,146,89,1,,,,,,,,
,,,,,,,,,,,,,FF,,,,,,,,0.916,,,,,,,,,,,,,,,,,,,,,,610309cb6693b9f1ae07b5f6,61036e14a0280fce27023e7f,2021-07-29_23h14.35.829,Simcolourproject_2stim_asymm_v5,2020.2.10,MacIntel,60,61025ae37ef11b136ea224fe,,,,,,,,,1744,-98,-57,1,0,0,response5disk,,2,2,-3,1,0,0,rectangle,2,-3,1,0,0,2,-3,1,0,0,0,147,147,132,1,,,,,,,,
,,,,,,,,,,,,,FF,,,,,,,,2.933,,,,,,,,,,,,,,,,,,,,,,610309cb6693b9f1ae07b5f6,61036e14a0280fce27023e7f,2021-07-29_23h14.35.829,Simcolourproject_2stim_asymm_v5,2020.2.10,MacIntel,60,61025ae37ef11b136ea224fe,,,,,,,,,669,67,-42,1,0,0,response3disk,,5,3,7,1,0,0,rectangle,3,7,1,0,0,3,7,1,0,0,0,148,148,145,1,,,,,,,,
,,,,,,,,,,,,,FF,,,,,,,,0.899,,,,,,,,,,,,,,,,,,,,,,610309cb6693b9f1ae07b5f6,61036e14a0280fce27023e7f,2021-07-29_23h14.35.829,Simcolourproject_2stim_asymm_v5,2020.2.10,MacIntel,60,61025ae37ef11b136ea224fe,,,,,,,,,723,-33,-92,1,0,0,response5disk,,3,-1,8,1,0,0,rectangle,-1,8,1,0,0,-1,8,1,0,0,0,149,149,23,1,,,,,,,,
,,,,,,,,,,,,,FF,,,,,,,,0.883,,,,,,,,,,,,,,,,,,,,,,610309cb6693b9f1ae07b5f6,61036e14a0280fce27023e7f,2021-07-29_23h14.35.829,Simcolourproject_2stim_asymm_v5,2020.2.10,MacIntel,60,61025ae37ef11b136ea224fe,,,,,,,,,3203,-53,-83,1,0,0,response5disk,,3,2,-11,1,0,0,rectangle,2,-11,1,0,0,2,-11,1,0,0,0,150,150,157,1,,,,,,,,
,,,,,,,,,,,,,FF,,,,,,,,0.9,,,,,,,,,,,,,,,,,,,,,,610309cb6693b9f1ae07b5f6,61036e14a0280fce27023e7f,2021-07-29_23h14.35.829,Simcolourproject_2stim_asymm_v5,2020.2.10,MacIntel,60,61025ae37ef11b136ea224fe,,,,,,,,,4274,78,-47,1,0,0,response3disk,,5,2,-5,1,0,0,rectangle,2,-5,1,0,0,2,-5,1,0,0,0,151,151,92,1,,,,,,,,
,,,,,,,,,,,,,FF,,,,,,,,2.084,,,,,,,,,,,,,,,,,,,,,,610309cb6693b9f1ae07b5f6,61036e14a0280fce27023e7f,2021-07-29_23h14.35.829,Simcolourproject_2stim_asymm_v5,2020.2.10,MacIntel,60,61025ae37ef11b136ea224fe,,,,,,,,,2415,-46,-96,1,0,0,response5disk,,3,1,8,1,0,0,rectangle,1,8,1,0,0,1,8,1,0,0,0,152,152,100,1,,,,,,,,
,,,,,,,,,,,,,FF,,,,,,,,0.849,,,,,,,,,,,,,,,,,,,,,,610309cb6693b9f1ae07b5f6,61036e14a0280fce27023e7f,2021-07-29_23h14.35.829,Simcolourproject_2stim_asymm_v5,2020.2.10,MacIntel,60,61025ae37ef11b136ea224fe,,,,,,,,,3168,-46,-77,1,0,0,response5disk,,3,2,12,1,0,0,rectangle,2,12,1,0,0,2,12,1,0,0,0,153,153,48,1,,,,,,,,
,,,,,,,,,,,,,FF,,,,,,,,1.617,,,,,,,,,,,,,,,,,,,,,,610309cb6693b9f1ae07b5f6,61036e14a0280fce27023e7f,2021-07-29_23h14.35.829,Simcolourproject_2stim_asymm_v5,2020.2.10,MacIntel,60,61025ae37ef11b136ea224fe,,,,,,,,,3876,33,-114,1,0,0,response3disk,,4,0,-3,1,0,0,rectangle,0,-3,1,0,0,0,-3,1,0,0,0,154,154,75,1,,,,,,,,
,,,,,,,,,,,,,FF,,,,,,,,1.766,,,,,,,,,,,,,,,,,,,,,,610309cb6693b9f1ae07b5f6,61036e14a0280fce27023e7f,2021-07-29_23h14.35.829,Simcolourproject_2stim_asymm_v5,2020.2.10,MacIntel,60,61025ae37ef11b136ea224fe,,,,,,,,,3923,-59,-97,1,0,0,response5disk,,3,1,-1,1,0,0,rectangle,1,-1,1,0,0,1,-1,1,0,0,0,155,155,37,1,,,,,,,,
,,,,,,,,,,,,,FF,,,,,,,,2.618,,,,,,,,,,,,,,,,,,,,,,610309cb6693b9f1ae07b5f6,61036e14a0280fce27023e7f,2021-07-29_23h14.35.829,Simcolourproject_2stim_asymm_v5,2020.2.10,MacIntel,60,61025ae37ef11b136ea224fe,,,,,,,,,784,48,-93,1,0,0,response3disk,,4,-2,7,1,0,0,rectangle,-2,7,1,0,0,-2,7,1,0,0,0,156,156,19,1,,,,,,,,
,,,,,,,,,,,,,FF,,,,,,,,1.151,,,,,,,,,,,,,,,,,,,,,,610309cb6693b9f1ae07b5f6,61036e14a0280fce27023e7f,2021-07-29_23h14.35.829,Simcolourproject_2stim_asymm_v5,2020.2.10,MacIntel,60,61025ae37ef11b136ea224fe,,,,,,,,,3599,-98,-60,1,0,0,response5disk,,2,1,3,1,0,0,rectangle,1,3,1,0,0,1,3,1,0,0,0,157,157,111,1,,,,,,,,
,,,,,,,,,,,,,FF,,,,,,,,0.888,,,,,,,,,,,,,,,,,,,,,,610309cb6693b9f1ae07b5f6,61036e14a0280fce27023e7f,2021-07-29_23h14.35.829,Simcolourproject_2stim_asymm_v5,2020.2.10,MacIntel,60,61025ae37ef11b136ea224fe,,,,,,,,,2569,73,-51,1,0,0,response3disk,,5,-7,5,1,0,0,rectangle,-7,5,1,0,0,-7,5,1,0,0,0,158,158,60,1,,,,,,,,
,,,,,,,,,,,,,FF,,,,,,,,1.266,,,,,,,,,,,,,,,,,,,,,,610309cb6693b9f1ae07b5f6,61036e14a0280fce27023e7f,2021-07-29_23h14.35.829,Simcolourproject_2stim_asymm_v5,2020.2.10,MacIntel,60,61025ae37ef11b136ea224fe,,,,,,,,,493,68,56,1,0,0,response1disk,,6,-2,2,1,0,0,rectangle,-2,2,1,0,0,-2,2,1,0,0,0,159,159,110,1,,,,,,,,
,,,,,,,,,,,,,FF,,,,,,,,1.699,,,,,,,,,,,,,,,,,,,,,,610309cb6693b9f1ae07b5f6,61036e14a0280fce27023e7f,2021-07-29_23h14.35.829,Simcolourproject_2stim_asymm_v5,2020.2.10,MacIntel,60,61025ae37ef11b136ea224fe,,,,,,,,,383,98,-30,1,0,0,response3disk,,5,3,1,1,0,0,rectangle,3,1,1,0,0,3,1,1,0,0,1,0,160,120,1,,,,,,,,
,,,,,,,,,,,,,FF,,,,,,,,1.517,,,,,,,,,,,,,,,,,,,,,,610309cb6693b9f1ae07b5f6,61036e14a0280fce27023e7f,2021-07-29_23h14.35.829,Simcolourproject_2stim_asymm_v5,2020.2.10,MacIntel,60,61025ae37ef11b136ea224fe,,,,,,,,,2372,52,-95,1,0,0,response3disk,,4,0,-3,1,0,0,rectangle,0,-3,1,0,0,0,-3,1,0,0,1,1,161,10,1,,,,,,,,
,,,,,,,,,,,,,FF,,,,,,,,1.15,,,,,,,,,,,,,,,,,,,,,,610309cb6693b9f1ae07b5f6,61036e14a0280fce27023e7f,2021-07-29_23h14.35.829,Simcolourproject_2stim_asymm_v5,2020.2.10,MacIntel,60,61025ae37ef11b136ea224fe,,,,,,,,,3607,110,-38,1,0,0,response3disk,,5,5,-3,1,0,0,rectangle,5,-3,1,0,0,5,-3,1,0,0,1,2,162,117,1,,,,,,,,
,,,,,,,,,,,,,FF,,,,,,,,1.333,,,,,,,,,,,,,,,,,,,,,,610309cb6693b9f1ae07b5f6,61036e14a0280fce27023e7f,2021-07-29_23h14.35.829,Simcolourproject_2stim_asymm_v5,2020.2.10,MacIntel,60,61025ae37ef11b136ea224fe,,,,,,,,,2193,96,54,1,0,0,response1disk,,6,5,2,1,0,0,rectangle,5,2,1,0,0,5,2,1,0,0,1,3,163,11,1,,,,,,,,
,,,,,,,,,,,,,FF,,,,,,,,1.55,,,,,,,,,,,,,,,,,,,,,,610309cb6693b9f1ae07b5f6,61036e14a0280fce27023e7f,2021-07-29_23h14.35.829,Simcolourproject_2stim_asymm_v5,2020.2.10,MacIntel,60,61025ae37ef11b136ea224fe,,,,,,,,,2944,-49,-114,1,0,0,response5disk,,3,13,-7,1,0,0,rectangle,13,-7,1,0,0,13,-7,1,0,0,1,4,164,39,1,,,,,,,,
,,,,,,,,,,,,,FF,,,,,,,,0.916,,,,,,,,,,,,,,,,,,,,,,610309cb6693b9f1ae07b5f6,61036e14a0280fce27023e7f,2021-07-29_23h14.35.829,Simcolourproject_2stim_asymm_v5,2020.2.10,MacIntel,60,61025ae37ef11b136ea224fe,,,,,,,,,4346,-87,-38,1,0,0,response5disk,,2,12,-5,1,0,0,rectangle,12,-5,1,0,0,12,-5,1,0,0,1,5,165,38,1,,,,,,,,
,,,,,,,,,,,,,FF,,,,,,,,2.101,,,,,,,,,,,,,,,,,,,,,,610309cb6693b9f1ae07b5f6,61036e14a0280fce27023e7f,2021-07-29_23h14.35.829,Simcolourproject_2stim_asymm_v5,2020.2.10,MacIntel,60,61025ae37ef11b136ea224fe,,,,,,,,,3372,-62,-81,1,0,0,response5disk,,3,14,5,1,0,0,rectangle,14,5,1,0,0,14,5,1,0,0,1,6,166,52,1,,,,,,,,
,,,,,,,,,,,,,FF,,,,,,,,1.166,,,,,,,,,,,,,,,,,,,,,,610309cb6693b9f1ae07b5f6,61036e14a0280fce27023e7f,2021-07-29_23h14.35.829,Simcolourproject_2stim_asymm_v5,2020.2.10,MacIntel,60,61025ae37ef11b136ea224fe,,,,,,,,,3113,40,-78,1,0,0,response3disk,,4,-5,15,1,0,0,rectangle,-5,15,1,0,0,-5,15,1,0,0,1,7,167,58,1,,,,,,,,
,,,,,,,,,,,,,FF,,,,,,,,2.467,,,,,,,,,,,,,,,,,,,,,,610309cb6693b9f1ae07b5f6,61036e14a0280fce27023e7f,2021-07-29_23h14.35.829,Simcolourproject_2stim_asymm_v5,2020.2.10,MacIntel,60,61025ae37ef11b136ea224fe,,,,,,,,,2437,89,38,1,0,0,response1disk,,6,1,6,1,0,0,rectangle,1,6,1,0,0,1,6,1,0,0,1,8,168,93,1,,,,,,,,
,,,,,,,,,,,,,FF,,,,,,,,1.065,,,,,,,,,,,,,,,,,,,,,,610309cb6693b9f1ae07b5f6,61036e14a0280fce27023e7f,2021-07-29_23h14.35.829,Simcolourproject_2stim_asymm_v5,2020.2.10,MacIntel,60,61025ae37ef11b136ea224fe,,,,,,,,,3228,110,-40,1,0,0,response3disk,,5,-4,-4,1,0,0,rectangle,-4,-4,1,0,0,-4,-4,1,0,0,1,9,169,119,1,,,,,,,,
,,,,,,,,,,,,,FF,,,,,,,,1.434,,,,,,,,,,,,,,,,,,,,,,610309cb6693b9f1ae07b5f6,61036e14a0280fce27023e7f,2021-07-29_23h14.35.829,Simcolourproject_2stim_asymm_v5,2020.2.10,MacIntel,60,61025ae37ef11b136ea224fe,,,,,,,,,3497,53,-111,1,0,0,response3disk,,4,-10,7,1,0,0,rectangle,-10,7,1,0,0,-10,7,1,0,0,1,10,170,137,1,,,,,,,,
,,,,,,,,,,,,,FF,,,,,,,,0.951,,,,,,,,,,,,,,,,,,,,,,610309cb6693b9f1ae07b5f6,61036e14a0280fce27023e7f,2021-07-29_23h14.35.829,Simcolourproject_2stim_asymm_v5,2020.2.10,MacIntel,60,61025ae37ef11b136ea224fe,,,,,,,,,3675,-79,-62,1,0,0,response5disk,,2,3,-7,1,0,0,rectangle,3,-7,1,0,0,3,-7,1,0,0,1,11,171,42,1,,,,,,,,
,,,,,,,,,,,,,FF,,,,,,,,0.95,,,,,,,,,,,,,,,,,,,,,,610309cb6693b9f1ae07b5f6,61036e14a0280fce27023e7f,2021-07-29_23h14.35.829,Simcolourproject_2stim_asymm_v5,2020.2.10,MacIntel,60,61025ae37ef11b136ea224fe,,,,,,,,,402,80,-35,1,0,0,response3disk,,5,4,-3,1,0,0,rectangle,4,-3,1,0,0,4,-3,1,0,0,1,12,172,1,1,,,,,,,,
,,,,,,,,,,,,,FF,,,,,,,,0.899,,,,,,,,,,,,,,,,,,,,,,610309cb6693b9f1ae07b5f6,61036e14a0280fce27023e7f,2021-07-29_23h14.35.829,Simcolourproject_2stim_asymm_v5,2020.2.10,MacIntel,60,61025ae37ef11b136ea224fe,,,,,,,,,1035,96,-45,1,0,0,response3disk,,5,3,-4,1,0,0,rectangle,3,-4,1,0,0,3,-4,1,0,0,1,13,173,143,1,,,,,,,,
,,,,,,,,,,,,,FF,,,,,,,,1.484,,,,,,,,,,,,,,,,,,,,,,610309cb6693b9f1ae07b5f6,61036e14a0280fce27023e7f,2021-07-29_23h14.35.829,Simcolourproject_2stim_asymm_v5,2020.2.10,MacIntel,60,61025ae37ef11b136ea224fe,,,,,,,,,2168,-35,-95,1,0,0,response5disk,,3,2,-9,1,0,0,rectangle,2,-9,1,0,0,2,-9,1,0,0,1,14,174,76,1,,,,,,,,
,,,,,,,,,,,,,FF,,,,,,,,1,,,,,,,,,,,,,,,,,,,,,,610309cb6693b9f1ae07b5f6,61036e14a0280fce27023e7f,2021-07-29_23h14.35.829,Simcolourproject_2stim_asymm_v5,2020.2.10,MacIntel,60,61025ae37ef11b136ea224fe,,,,,,,,,3411,51,-70,1,0,0,response3disk,,4,-6,14,1,0,0,rectangle,-6,14,1,0,0,-6,14,1,0,0,1,15,175,123,1,,,,,,,,
,,,,,,,,,,,,,FF,,,,,,,,1.283,,,,,,,,,,,,,,,,,,,,,,610309cb6693b9f1ae07b5f6,61036e14a0280fce27023e7f,2021-07-29_23h14.35.829,Simcolourproject_2stim_asymm_v5,2020.2.10,MacIntel,60,61025ae37ef11b136ea224fe,,,,,,,,,2348,52,-79,1,0,0,response3disk,,4,-17,13,1,0,0,rectangle,-44,-101,1,0,0,-3,1,1,0,0,1,16,176,81,1,,response5disk_3,TRUE,3,3,"[185,91,64,46,129,5,113,68,28,56,177,217,36,195,11,210,103,255,293,179]",3.669,rectangle
,,,,,,,,,,,,,FF,,,,,,,,1.568,,,,,,,,,,,,,,,,,,,,,,610309cb6693b9f1ae07b5f6,61036e14a0280fce27023e7f,2021-07-29_23h14.35.829,Simcolourproject_2stim_asymm_v5,2020.2.10,MacIntel,60,61025ae37ef11b136ea224fe,,,,,,,,,2673,54,-88,1,0,0,response3disk,,4,3,7,1,0,0,rectangle,3,7,1,0,0,3,7,1,0,0,1,17,177,47,1,,,,,,,,
,,,,,,,,,,,,,FF,,,,,,,,1.466,,,,,,,,,,,,,,,,,,,,,,610309cb6693b9f1ae07b5f6,61036e14a0280fce27023e7f,2021-07-29_23h14.35.829,Simcolourproject_2stim_asymm_v5,2020.2.10,MacIntel,60,61025ae37ef11b136ea224fe,,,,,,,,,3652,50,-91,1,0,0,response3disk,,4,-11,1,1,0,0,rectangle,-98,-38,1,0,0,13,-1,1,0,0,1,18,178,60,1,,response5disk_3,TRUE,2,2,"[185,91,64,46,129,5,113,68,28,56,177,217,36,195,11,210,103,255,293,179]",2.017,rectangle
,,,,,,,,,,,,,FF,,,,,,,,1.833,,,,,,,,,,,,,,,,,,,,,,610309cb6693b9f1ae07b5f6,61036e14a0280fce27023e7f,2021-07-29_23h14.35.829,Simcolourproject_2stim_asymm_v5,2020.2.10,MacIntel,60,61025ae37ef11b136ea224fe,,,,,,,,,3379,48,-110,1,0,0,response3disk,,4,-7,2,1,0,0,rectangle,-7,2,1,0,0,-7,2,1,0,0,1,19,179,9,1,,,,,,,,
,,,,,,,,,,,,,FF,,,,,,,,1.75,,,,,,,,,,,,,,,,,,,,,,610309cb6693b9f1ae07b5f6,61036e14a0280fce27023e7f,2021-07-29_23h14.35.829,Simcolourproject_2stim_asymm_v5,2020.2.10,MacIntel,60,61025ae37ef11b136ea224fe,,,,,,,,,55,97,38,1,0,0,response1disk,,6,9,-4,1,0,0,rectangle,9,-4,1,0,0,9,-4,1,0,0,1,20,180,16,1,,,,,,,,
,,,,,,,,,,,,,FF,,,,,,,,1.416,,,,,,,,,,,,,,,,,,,,,,610309cb6693b9f1ae07b5f6,61036e14a0280fce27023e7f,2021-07-29_23h14.35.829,Simcolourproject_2stim_asymm_v5,2020.2.10,MacIntel,60,61025ae37ef11b136ea224fe,,,,,,,,,4065,34,-85,1,0,0,response3disk,,4,5,3,1,0,0,rectangle,5,3,1,0,0,5,3,1,0,0,1,21,181,56,1,,,,,,,,
,,,,,,,,,,,,,FF,,,,,,,,1.266,,,,,,,,,,,,,,,,,,,,,,610309cb6693b9f1ae07b5f6,61036e14a0280fce27023e7f,2021-07-29_23h14.35.829,Simcolourproject_2stim_asymm_v5,2020.2.10,MacIntel,60,61025ae37ef11b136ea224fe,,,,,,,,,164,-71,-113,1,0,0,response5disk,,3,11,0,1,0,0,rectangle,11,0,1,0,0,11,0,1,0,0,1,22,182,94,1,,,,,,,,
,,,,,,,,,,,,,FF,,,,,,,,1.083,,,,,,,,,,,,,,,,,,,,,,610309cb6693b9f1ae07b5f6,61036e14a0280fce27023e7f,2021-07-29_23h14.35.829,Simcolourproject_2stim_asymm_v5,2020.2.10,MacIntel,60,61025ae37ef11b136ea224fe,,,,,,,,,1382,37,-70,1,0,0,response3disk,,4,11,1,1,0,0,rectangle,11,1,1,0,0,11,1,1,0,0,1,23,183,114,1,,,,,,,,
,,,,,,,,,,,,,FF,,,,,,,,0.949,,,,,,,,,,,,,,,,,,,,,,610309cb6693b9f1ae07b5f6,61036e14a0280fce27023e7f,2021-07-29_23h14.35.829,Simcolourproject_2stim_asymm_v5,2020.2.10,MacIntel,60,61025ae37ef11b136ea224fe,,,,,,,,,3620,96,32,1,0,0,response1disk,,6,12,-5,1,0,0,rectangle,44,97,1,0,0,-7,-6,1,0,0,1,24,184,61,1,,response1disk_3,TRUE,7,7,"[185,91,64,46,129,5,113,68,28,56,177,217,36,195,11,210,103,255,293,179]",5.466,rectangle
,,,,,,,,,,,,,FF,,,,,,,,1.367,,,,,,,,,,,,,,,,,,,,,,610309cb6693b9f1ae07b5f6,61036e14a0280fce27023e7f,2021-07-29_23h14.35.829,Simcolourproject_2stim_asymm_v5,2020.2.10,MacIntel,60,61025ae37ef11b136ea224fe,,,,,,,,,2623,96,-43,1,0,0,response3disk,,5,3,-9,1,0,0,rectangle,3,-9,1,0,0,3,-9,1,0,0,1,25,185,126,1,,,,,,,,
,,,,,,,,,,,,,FF,,,,,,,,1.1,,,,,,,,,,,,,,,,,,,,,,610309cb6693b9f1ae07b5f6,61036e14a0280fce27023e7f,2021-07-29_23h14.35.829,Simcolourproject_2stim_asymm_v5,2020.2.10,MacIntel,60,61025ae37ef11b136ea224fe,,,,,,,,,3115,97,-29,1,0,0,response3disk,,5,-9,-3,1,0,0,rectangle,-9,-3,1,0,0,-9,-3,1,0,0,1,26,186,27,1,,,,,,,,
,,,,,,,,,,,,,FF,,,,,,,,3.217,,,,,,,,,,,,,,,,,,,,,,610309cb6693b9f1ae07b5f6,61036e14a0280fce27023e7f,2021-07-29_23h14.35.829,Simcolourproject_2stim_asymm_v5,2020.2.10,MacIntel,60,61025ae37ef11b136ea224fe,,,,,,,,,3419,49,-102,1,0,0,response3disk,,4,-6,-2,1,0,0,rectangle,-6,-2,1,0,0,-6,-2,1,0,0,1,27,187,135,1,,,,,,,,
,,,,,,,,,,,,,FF,,,,,,,,1.483,,,,,,,,,,,,,,,,,,,,,,610309cb6693b9f1ae07b5f6,61036e14a0280fce27023e7f,2021-07-29_23h14.35.829,Simcolourproject_2stim_asymm_v5,2020.2.10,MacIntel,60,61025ae37ef11b136ea224fe,,,,,,,,,72,-101,-52,1,0,0,response5disk,,2,1,-9,1,0,0,rectangle,1,-9,1,0,0,1,-9,1,0,0,1,28,188,107,1,,,,,,,,
,,,,,,,,,,,,,FF,,,,,,,,2.2,,,,,,,,,,,,,,,,,,,,,,610309cb6693b9f1ae07b5f6,61036e14a0280fce27023e7f,2021-07-29_23h14.35.829,Simcolourproject_2stim_asymm_v5,2020.2.10,MacIntel,60,61025ae37ef11b136ea224fe,,,,,,,,,2020,94,-49,1,0,0,response3disk,,5,-7,-1,1,0,0,rectangle,-7,-1,1,0,0,-7,-1,1,0,0,1,29,189,146,1,,,,,,,,
,,,,,,,,,,,,,FF,,,,,,,,1.134,,,,,,,,,,,,,,,,,,,,,,610309cb6693b9f1ae07b5f6,61036e14a0280fce27023e7f,2021-07-29_23h14.35.829,Simcolourproject_2stim_asymm_v5,2020.2.10,MacIntel,60,61025ae37ef11b136ea224fe,,,,,,,,,3513,-74,-48,1,0,0,response5disk,,2,-1,-11,1,0,0,rectangle,-1,-11,1,0,0,-1,-11,1,0,0,1,30,190,51,1,,,,,,,,
,,,,,,,,,,,,,FF,,,,,,,,1.299,,,,,,,,,,,,,,,,,,,,,,610309cb6693b9f1ae07b5f6,61036e14a0280fce27023e7f,2021-07-29_23h14.35.829,Simcolourproject_2stim_asymm_v5,2020.2.10,MacIntel,60,61025ae37ef11b136ea224fe,,,,,,,,,1887,-88,-57,1,0,0,response5disk,,2,7,1,1,0,0,rectangle,7,1,1,0,0,7,1,1,0,0,1,31,191,134,1,,,,,,,,
,,,,,,,,,,,,,FF,,,,,,,,1.35,,,,,,,,,,,,,,,,,,,,,,610309cb6693b9f1ae07b5f6,61036e14a0280fce27023e7f,2021-07-29_23h14.35.829,Simcolourproject_2stim_asymm_v5,2020.2.10,MacIntel,60,61025ae37ef11b136ea224fe,,,,,,,,,3880,-50,-83,1,0,0,response5disk,,3,-16,3,1,0,0,rectangle,-16,3,1,0,0,-16,3,1,0,0,1,32,192,29,1,,,,,,,,
,,,,,,,,,,,,,FF,,,,,,,,0.916,,,,,,,,,,,,,,,,,,,,,,610309cb6693b9f1ae07b5f6,61036e14a0280fce27023e7f,2021-07-29_23h14.35.829,Simcolourproject_2stim_asymm_v5,2020.2.10,MacIntel,60,61025ae37ef11b136ea224fe,,,,,,,,,3388,-87,27,1,0,0,response7disk,,1,-12,-3,1,0,0,rectangle,-12,-3,1,0,0,-12,-3,1,0,0,1,33,193,34,1,,,,,,,,
,,,,,,,,,,,,,FF,,,,,,,,1.651,,,,,,,,,,,,,,,,,,,,,,610309cb6693b9f1ae07b5f6,61036e14a0280fce27023e7f,2021-07-29_23h14.35.829,Simcolourproject_2stim_asymm_v5,2020.2.10,MacIntel,60,61025ae37ef11b136ea224fe,,,,,,,,,3285,45,-107,1,0,0,response3disk,,4,3,-8,1,0,0,rectangle,-47,-88,1,0,0,0,4,1,0,0,1,34,194,96,1,,response5disk_3,TRUE,3,3,"[185,91,64,46,129,5,113,68,28,56,177,217,36,195,11,210,103,255,293,179]",3.134,rectangle
,,,,,,,,,,,,,FF,,,,,,,,1.018,,,,,,,,,,,,,,,,,,,,,,610309cb6693b9f1ae07b5f6,61036e14a0280fce27023e7f,2021-07-29_23h14.35.829,Simcolourproject_2stim_asymm_v5,2020.2.10,MacIntel,60,61025ae37ef11b136ea224fe,,,,,,,,,1987,108,-55,1,0,0,response3disk,,5,13,4,1,0,0,rectangle,13,4,1,0,0,13,4,1,0,0,1,35,195,102,1,,,,,,,,
,,,,,,,,,,,,,FF,,,,,,,,0.95,,,,,,,,,,,,,,,,,,,,,,610309cb6693b9f1ae07b5f6,61036e14a0280fce27023e7f,2021-07-29_23h14.35.829,Simcolourproject_2stim_asymm_v5,2020.2.10,MacIntel,60,61025ae37ef11b136ea224fe,,,,,,,,,2246,85,-39,1,0,0,response3disk,,5,11,1,1,0,0,rectangle,11,1,1,0,0,11,1,1,0,0,1,36,196,85,1,,,,,,,,
,,,,,,,,,,,,,FF,,,,,,,,0.85,,,,,,,,,,,,,,,,,,,,,,610309cb6693b9f1ae07b5f6,61036e14a0280fce27023e7f,2021-07-29_23h14.35.829,Simcolourproject_2stim_asymm_v5,2020.2.10,MacIntel,60,61025ae37ef11b136ea224fe,,,,,,,,,2442,94,-50,1,0,0,response3disk,,5,23,3,1,0,0,rectangle,23,3,1,0,0,23,3,1,0,0,1,37,197,20,1,,,,,,,,
,,,,,,,,,,,,,FF,,,,,,,,1.333,,,,,,,,,,,,,,,,,,,,,,610309cb6693b9f1ae07b5f6,61036e14a0280fce27023e7f,2021-07-29_23h14.35.829,Simcolourproject_2stim_asymm_v5,2020.2.10,MacIntel,60,61025ae37ef11b136ea224fe,,,,,,,,,460,39,-100,1,0,0,response3disk,,4,0,-3,1,0,0,rectangle,0,-3,1,0,0,0,-3,1,0,0,1,38,198,13,1,,,,,,,,
,,,,,,,,,,,,,FF,,,,,,,,0.85,,,,,,,,,,,,,,,,,,,,,,610309cb6693b9f1ae07b5f6,61036e14a0280fce27023e7f,2021-07-29_23h14.35.829,Simcolourproject_2stim_asymm_v5,2020.2.10,MacIntel,60,61025ae37ef11b136ea224fe,,,,,,,,,2946,-51,-95,1,0,0,response5disk,,3,9,-1,1,0,0,rectangle,9,-1,1,0,0,9,-1,1,0,0,1,39,199,78,1,,,,,,,,
,,,,,,,,,,,,,FF,,,,,,,,1.2,,,,,,,,,,,,,,,,,,,,,,610309cb6693b9f1ae07b5f6,61036e14a0280fce27023e7f,2021-07-29_23h14.35.829,Simcolourproject_2stim_asymm_v5,2020.2.10,MacIntel,60,61025ae37ef11b136ea224fe,,,,,,,,,2366,35,-96,1,0,0,response3disk,,4,5,-6,1,0,0,rectangle,5,-6,1,0,0,5,-6,1,0,0,1,40,200,70,1,,,,,,,,
,,,,,,,,,,,,,FF,,,,,,,,1.751,,,,,,,,,,,,,,,,,,,,,,610309cb6693b9f1ae07b5f6,61036e14a0280fce27023e7f,2021-07-29_23h14.35.829,Simcolourproject_2stim_asymm_v5,2020.2.10,MacIntel,60,61025ae37ef11b136ea224fe,,,,,,,,,4343,-43,89,1,0,0,response7disk,,0,-9,5,1,0,0,rectangle,-9,5,1,0,0,-9,5,1,0,0,1,41,201,21,1,,,,,,,,
,,,,,,,,,,,,,FF,,,,,,,,1.4,,,,,,,,,,,,,,,,,,,,,,610309cb6693b9f1ae07b5f6,61036e14a0280fce27023e7f,2021-07-29_23h14.35.829,Simcolourproject_2stim_asymm_v5,2020.2.10,MacIntel,60,61025ae37ef11b136ea224fe,,,,,,,,,2640,82,49,1,0,0,response1disk,,6,-5,0,1,0,0,rectangle,-5,0,1,0,0,-5,0,1,0,0,1,42,202,141,1,,,,,,,,
,,,,,,,,,,,,,FF,,,,,,,,1.118,,,,,,,,,,,,,,,,,,,,,,610309cb6693b9f1ae07b5f6,61036e14a0280fce27023e7f,2021-07-29_23h14.35.829,Simcolourproject_2stim_asymm_v5,2020.2.10,MacIntel,60,61025ae37ef11b136ea224fe,,,,,,,,,3635,60,-77,1,0,0,response3disk,,4,-12,11,1,0,0,rectangle,-12,11,1,0,0,-12,11,1,0,0,1,43,203,22,1,,,,,,,,
,,,,,,,,,,,,,FF,,,,,,,,0.967,,,,,,,,,,,,,,,,,,,,,,610309cb6693b9f1ae07b5f6,61036e14a0280fce27023e7f,2021-07-29_23h14.35.829,Simcolourproject_2stim_asymm_v5,2020.2.10,MacIntel,60,61025ae37ef11b136ea224fe,,,,,,,,,2508,100,-31,1,0,0,response3disk,,5,-7,10,1,0,0,rectangle,-7,10,1,0,0,-7,10,1,0,0,1,44,204,77,1,,,,,,,,
,,,,,,,,,,,,,FF,,,,,,,,1.134,,,,,,,,,,,,,,,,,,,,,,610309cb6693b9f1ae07b5f6,61036e14a0280fce27023e7f,2021-07-29_23h14.35.829,Simcolourproject_2stim_asymm_v5,2020.2.10,MacIntel,60,61025ae37ef11b136ea224fe,,,,,,,,,3956,82,38,1,0,0,response1disk,,6,3,-8,1,0,0,rectangle,3,-8,1,0,0,3,-8,1,0,0,1,45,205,101,1,,,,,,,,
,,,,,,,,,,,,,FF,,,,,,,,1.3,,,,,,,,,,,,,,,,,,,,,,610309cb6693b9f1ae07b5f6,61036e14a0280fce27023e7f,2021-07-29_23h14.35.829,Simcolourproject_2stim_asymm_v5,2020.2.10,MacIntel,60,61025ae37ef11b136ea224fe,,,,,,,,,808,-79,-56,1,0,0,response5disk,,2,1,8,1,0,0,rectangle,1,8,1,0,0,1,8,1,0,0,1,46,206,118,1,,,,,,,,
,,,,,,,,,,,,,FF,,,,,,,,0.9,,,,,,,,,,,,,,,,,,,,,,610309cb6693b9f1ae07b5f6,61036e14a0280fce27023e7f,2021-07-29_23h14.35.829,Simcolourproject_2stim_asymm_v5,2020.2.10,MacIntel,60,61025ae37ef11b136ea224fe,,,,,,,,,3406,53,-108,1,0,0,response3disk,,4,-1,11,1,0,0,rectangle,-1,11,1,0,0,-1,11,1,0,0,1,47,207,122,1,,,,,,,,
,,,,,,,,,,,,,FF,,,,,,,,1.867,,,,,,,,,,,,,,,,,,,,,,610309cb6693b9f1ae07b5f6,61036e14a0280fce27023e7f,2021-07-29_23h14.35.829,Simcolourproject_2stim_asymm_v5,2020.2.10,MacIntel,60,61025ae37ef11b136ea224fe,,,,,,,,,232,95,36,1,0,0,response1disk,,6,1,-10,1,0,0,rectangle,1,-10,1,0,0,1,-10,1,0,0,1,48,208,43,1,,,,,,,,
,,,,,,,,,,,,,FF,,,,,,,,1.134,,,,,,,,,,,,,,,,,,,,,,610309cb6693b9f1ae07b5f6,61036e14a0280fce27023e7f,2021-07-29_23h14.35.829,Simcolourproject_2stim_asymm_v5,2020.2.10,MacIntel,60,61025ae37ef11b136ea224fe,,,,,,,,,3380,33,64,1,0,0,response1disk,,7,8,8,1,0,0,rectangle,41,-68,1,0,0,14,-2,1,0,0,1,49,209,105,1,,response3disk_3,TRUE,4,4,"[185,91,64,46,129,5,113,68,28,56,177,217,36,195,11,210,103,255,293,179]",1.499,rectangle
,,,,,,,,,,,,,FF,,,,,,,,0.95,,,,,,,,,,,,,,,,,,,,,,610309cb6693b9f1ae07b5f6,61036e14a0280fce27023e7f,2021-07-29_23h14.35.829,Simcolourproject_2stim_asymm_v5,2020.2.10,MacIntel,60,61025ae37ef11b136ea224fe,,,,,,,,,2252,117,-49,1,0,0,response3disk,,5,-4,-16,1,0,0,rectangle,-4,-16,1,0,0,-4,-16,1,0,0,1,50,210,154,1,,,,,,,,
,,,,,,,,,,,,,FF,,,,,,,,0.967,,,,,,,,,,,,,,,,,,,,,,610309cb6693b9f1ae07b5f6,61036e14a0280fce27023e7f,2021-07-29_23h14.35.829,Simcolourproject_2stim_asymm_v5,2020.2.10,MacIntel,60,61025ae37ef11b136ea224fe,,,,,,,,,3588,-54,-108,1,0,0,response5disk,,3,-7,4,1,0,0,rectangle,-7,4,1,0,0,-7,4,1,0,0,1,51,211,91,1,,,,,,,,
,,,,,,,,,,,,,FF,,,,,,,,0.833,,,,,,,,,,,,,,,,,,,,,,610309cb6693b9f1ae07b5f6,61036e14a0280fce27023e7f,2021-07-29_23h14.35.829,Simcolourproject_2stim_asymm_v5,2020.2.10,MacIntel,60,61025ae37ef11b136ea224fe,,,,,,,,,4012,92,-26,1,0,0,response3disk,,5,8,1,1,0,0,rectangle,8,1,1,0,0,8,1,1,0,0,1,52,212,104,1,,,,,,,,
,,,,,,,,,,,,,FF,,,,,,,,1.167,,,,,,,,,,,,,,,,,,,,,,610309cb6693b9f1ae07b5f6,61036e14a0280fce27023e7f,2021-07-29_23h14.35.829,Simcolourproject_2stim_asymm_v5,2020.2.10,MacIntel,60,61025ae37ef11b136ea224fe,,,,,,,,,2863,70,-31,1,0,0,response3disk,,5,0,3,1,0,0,rectangle,0,3,1,0,0,0,3,1,0,0,1,53,213,106,1,,,,,,,,
,,,,,,,,,,,,,FF,,,,,,,,0.867,,,,,,,,,,,,,,,,,,,,,,610309cb6693b9f1ae07b5f6,61036e14a0280fce27023e7f,2021-07-29_23h14.35.829,Simcolourproject_2stim_asymm_v5,2020.2.10,MacIntel,60,61025ae37ef11b136ea224fe,,,,,,,,,1992,38,-61,1,0,0,response3disk,,4,14,-7,1,0,0,rectangle,14,-7,1,0,0,14,-7,1,0,0,1,54,214,148,1,,,,,,,,
,,,,,,,,,,,,,FF,,,,,,,,1.051,,,,,,,,,,,,,,,,,,,,,,610309cb6693b9f1ae07b5f6,61036e14a0280fce27023e7f,2021-07-29_23h14.35.829,Simcolourproject_2stim_asymm_v5,2020.2.10,MacIntel,60,61025ae37ef11b136ea224fe,,,,,,,,,2556,-35,-94,1,0,0,response5disk,,3,-13,-5,1,0,0,rectangle,-13,-5,1,0,0,-13,-5,1,0,0,1,55,215,87,1,,,,,,,,
,,,,,,,,,,,,,FF,,,,,,,,1.15,,,,,,,,,,,,,,,,,,,,,,610309cb6693b9f1ae07b5f6,61036e14a0280fce27023e7f,2021-07-29_23h14.35.829,Simcolourproject_2stim_asymm_v5,2020.2.10,MacIntel,60,61025ae37ef11b136ea224fe,,,,,,,,,2878,-37,-67,1,0,0,response5disk,,3,-5,-7,1,0,0,rectangle,-34,-102,1,0,0,6,0,1,0,0,1,56,216,150,1,,response5disk_3,TRUE,3,3,"[185,91,64,46,129,5,113,68,28,56,177,217,36,195,11,210,103,255,293,179]",1.532,rectangle
,,,,,,,,,,,,,FF,,,,,,,,1.199,,,,,,,,,,,,,,,,,,,,,,610309cb6693b9f1ae07b5f6,61036e14a0280fce27023e7f,2021-07-29_23h14.35.829,Simcolourproject_2stim_asymm_v5,2020.2.10,MacIntel,60,61025ae37ef11b136ea224fe,,,,,,,,,3023,116,42,1,0,0,response1disk,,6,4,3,1,0,0,rectangle,4,3,1,0,0,4,3,1,0,0,1,57,217,19,1,,,,,,,,
,,,,,,,,,,,,,FF,,,,,,,,1.034,,,,,,,,,,,,,,,,,,,,,,610309cb6693b9f1ae07b5f6,61036e14a0280fce27023e7f,2021-07-29_23h14.35.829,Simcolourproject_2stim_asymm_v5,2020.2.10,MacIntel,60,61025ae37ef11b136ea224fe,,,,,,,,,3253,38,-53,1,0,0,response3disk,,4,1,3,1,0,0,rectangle,1,3,1,0,0,1,3,1,0,0,1,58,218,0,1,,,,,,,,
,,,,,,,,,,,,,FF,,,,,,,,0.967,,,,,,,,,,,,,,,,,,,,,,610309cb6693b9f1ae07b5f6,61036e14a0280fce27023e7f,2021-07-29_23h14.35.829,Simcolourproject_2stim_asymm_v5,2020.2.10,MacIntel,60,61025ae37ef11b136ea224fe,,,,,,,,,3073,-34,-85,1,0,0,response5disk,,3,-11,8,1,0,0,rectangle,-11,8,1,0,0,-11,8,1,0,0,1,59,219,28,1,,,,,,,,
,,,,,,,,,,,,,FF,,,,,,,,1.25,,,,,,,,,,,,,,,,,,,,,,610309cb6693b9f1ae07b5f6,61036e14a0280fce27023e7f,2021-07-29_23h14.35.829,Simcolourproject_2stim_asymm_v5,2020.2.10,MacIntel,60,61025ae37ef11b136ea224fe,,,,,,,,,1795,94,49,1,0,0,response1disk,,6,-9,-6,1,0,0,rectangle,-9,-6,1,0,0,-9,-6,1,0,0,1,60,220,142,1,,,,,,,,
,,,,,,,,,,,,,FF,,,,,,,,0.901,,,,,,,,,,,,,,,,,,,,,,610309cb6693b9f1ae07b5f6,61036e14a0280fce27023e7f,2021-07-29_23h14.35.829,Simcolourproject_2stim_asymm_v5,2020.2.10,MacIntel,60,61025ae37ef11b136ea224fe,,,,,,,,,3703,-98,-55,1,0,0,response5disk,,2,1,1,1,0,0,rectangle,1,1,1,0,0,1,1,1,0,0,1,61,221,130,1,,,,,,,,
,,,,,,,,,,,,,FF,,,,,,,,1.017,,,,,,,,,,,,,,,,,,,,,,610309cb6693b9f1ae07b5f6,61036e14a0280fce27023e7f,2021-07-29_23h14.35.829,Simcolourproject_2stim_asymm_v5,2020.2.10,MacIntel,60,61025ae37ef11b136ea224fe,,,,,,,,,1204,22,-82,1,0,0,response3disk,,4,4,-7,1,0,0,rectangle,4,-7,1,0,0,4,-7,1,0,0,1,62,222,72,1,,,,,,,,
,,,,,,,,,,,,,FF,,,,,,,,0.967,,,,,,,,,,,,,,,,,,,,,,610309cb6693b9f1ae07b5f6,61036e14a0280fce27023e7f,2021-07-29_23h14.35.829,Simcolourproject_2stim_asymm_v5,2020.2.10,MacIntel,60,61025ae37ef11b136ea224fe,,,,,,,,,1073,101,35,1,0,0,response1disk,,6,-8,-10,1,0,0,rectangle,-8,-10,1,0,0,-8,-10,1,0,0,1,63,223,17,1,,,,,,,,
,,,,,,,,,,,,,FF,,,,,,,,1.249,,,,,,,,,,,,,,,,,,,,,,610309cb6693b9f1ae07b5f6,61036e14a0280fce27023e7f,2021-07-29_23h14.35.829,Simcolourproject_2stim_asymm_v5,2020.2.10,MacIntel,60,61025ae37ef11b136ea224fe,,,,,,,,,1715,84,69,1,0,0,response1disk,,6,0,-6,1,0,0,rectangle,0,-6,1,0,0,0,-6,1,0,0,1,64,224,12,1,,,,,,,,
,,,,,,,,,,,,,FF,,,,,,,,0.9,,,,,,,,,,,,,,,,,,,,,,610309cb6693b9f1ae07b5f6,61036e14a0280fce27023e7f,2021-07-29_23h14.35.829,Simcolourproject_2stim_asymm_v5,2020.2.10,MacIntel,60,61025ae37ef11b136ea224fe,,,,,,,,,4223,-94,-53,1,0,0,response5disk,,2,-11,0,1,0,0,rectangle,-11,0,1,0,0,-11,0,1,0,0,1,65,225,64,1,,,,,,,,
,,,,,,,,,,,,,FF,,,,,,,,0.883,,,,,,,,,,,,,,,,,,,,,,610309cb6693b9f1ae07b5f6,61036e14a0280fce27023e7f,2021-07-29_23h14.35.829,Simcolourproject_2stim_asymm_v5,2020.2.10,MacIntel,60,61025ae37ef11b136ea224fe,,,,,,,,,2967,57,-75,1,0,0,response3disk,,4,11,10,1,0,0,rectangle,11,10,1,0,0,11,10,1,0,0,1,66,226,99,1,,,,,,,,
,,,,,,,,,,,,,FF,,,,,,,,1.068,,,,,,,,,,,,,,,,,,,,,,610309cb6693b9f1ae07b5f6,61036e14a0280fce27023e7f,2021-07-29_23h14.35.829,Simcolourproject_2stim_asymm_v5,2020.2.10,MacIntel,60,61025ae37ef11b136ea224fe,,,,,,,,,1766,-62,-121,1,0,0,response5disk,,3,-6,13,1,0,0,rectangle,-6,13,1,0,0,-6,13,1,0,0,1,67,227,140,1,,,,,,,,
,,,,,,,,,,,,,FF,,,,,,,,0.952,,,,,,,,,,,,,,,,,,,,,,610309cb6693b9f1ae07b5f6,61036e14a0280fce27023e7f,2021-07-29_23h14.35.829,Simcolourproject_2stim_asymm_v5,2020.2.10,MacIntel,60,61025ae37ef11b136ea224fe,,,,,,,,,2792,-118,-49,1,0,0,response5disk,,2,-7,5,1,0,0,rectangle,-7,5,1,0,0,-7,5,1,0,0,1,68,228,31,1,,,,,,,,
,,,,,,,,,,,,,FF,,,,,,,,1.351,,,,,,,,,,,,,,,,,,,,,,610309cb6693b9f1ae07b5f6,61036e14a0280fce27023e7f,2021-07-29_23h14.35.829,Simcolourproject_2stim_asymm_v5,2020.2.10,MacIntel,60,61025ae37ef11b136ea224fe,,,,,,,,,3685,110,51,1,0,0,response1disk,,6,6,4,1,0,0,rectangle,6,4,1,0,0,6,4,1,0,0,1,69,229,15,1,,,,,,,,
,,,,,,,,,,,,,FF,,,,,,,,1.049,,,,,,,,,,,,,,,,,,,,,,610309cb6693b9f1ae07b5f6,61036e14a0280fce27023e7f,2021-07-29_23h14.35.829,Simcolourproject_2stim_asymm_v5,2020.2.10,MacIntel,60,61025ae37ef11b136ea224fe,,,,,,,,,2845,33,-64,1,0,0,response3disk,,4,-15,0,1,0,0,rectangle,-15,0,1,0,0,-15,0,1,0,0,1,70,230,97,1,,,,,,,,
,,,,,,,,,,,,,FF,,,,,,,,0.85,,,,,,,,,,,,,,,,,,,,,,610309cb6693b9f1ae07b5f6,61036e14a0280fce27023e7f,2021-07-29_23h14.35.829,Simcolourproject_2stim_asymm_v5,2020.2.10,MacIntel,60,61025ae37ef11b136ea224fe,,,,,,,,,175,-56,-103,1,0,0,response5disk,,3,2,10,1,0,0,rectangle,2,10,1,0,0,2,10,1,0,0,1,71,231,8,1,,,,,,,,
,,,,,,,,,,,,,FF,,,,,,,,1.118,,,,,,,,,,,,,,,,,,,,,,610309cb6693b9f1ae07b5f6,61036e14a0280fce27023e7f,2021-07-29_23h14.35.829,Simcolourproject_2stim_asymm_v5,2020.2.10,MacIntel,60,61025ae37ef11b136ea224fe,,,,,,,,,2847,-48,-86,1,0,0,response5disk,,3,4,6,1,0,0,rectangle,4,6,1,0,0,4,6,1,0,0,1,72,232,132,1,,,,,,,,
,,,,,,,,,,,,,FF,,,,,,,,1,,,,,,,,,,,,,,,,,,,,,,610309cb6693b9f1ae07b5f6,61036e14a0280fce27023e7f,2021-07-29_23h14.35.829,Simcolourproject_2stim_asymm_v5,2020.2.10,MacIntel,60,61025ae37ef11b136ea224fe,,,,,,,,,1347,101,-42,1,0,0,response3disk,,5,-2,2,1,0,0,rectangle,-2,2,1,0,0,-2,2,1,0,0,1,73,233,100,1,,,,,,,,
,,,,,,,,,,,,,FF,,,,,,,,1.083,,,,,,,,,,,,,,,,,,,,,,610309cb6693b9f1ae07b5f6,61036e14a0280fce27023e7f,2021-07-29_23h14.35.829,Simcolourproject_2stim_asymm_v5,2020.2.10,MacIntel,60,61025ae37ef11b136ea224fe,,,,,,,,,1612,42,-70,1,0,0,response3disk,,4,10,2,1,0,0,rectangle,10,2,1,0,0,10,2,1,0,0,1,74,234,90,1,,,,,,,,
,,,,,,,,,,,,,FF,,,,,,,,1.768,,,,,,,,,,,,,,,,,,,,,,610309cb6693b9f1ae07b5f6,61036e14a0280fce27023e7f,2021-07-29_23h14.35.829,Simcolourproject_2stim_asymm_v5,2020.2.10,MacIntel,60,61025ae37ef11b136ea224fe,,,,,,,,,4302,84,-45,1,0,0,response3disk,,5,-4,1,1,0,0,rectangle,-4,1,1,0,0,-4,1,1,0,0,1,75,235,159,1,,,,,,,,
,,,,,,,,,,,,,FF,,,,,,,,1.484,,,,,,,,,,,,,,,,,,,,,,610309cb6693b9f1ae07b5f6,61036e14a0280fce27023e7f,2021-07-29_23h14.35.829,Simcolourproject_2stim_asymm_v5,2020.2.10,MacIntel,60,61025ae37ef11b136ea224fe,,,,,,,,,2309,61,-85,1,0,0,response3disk,,4,-14,0,1,0,0,rectangle,-14,0,1,0,0,-14,0,1,0,0,1,76,236,121,1,,,,,,,,
,,,,,,,,,,,,,FF,,,,,,,,0.95,,,,,,,,,,,,,,,,,,,,,,610309cb6693b9f1ae07b5f6,61036e14a0280fce27023e7f,2021-07-29_23h14.35.829,Simcolourproject_2stim_asymm_v5,2020.2.10,MacIntel,60,61025ae37ef11b136ea224fe,,,,,,,,,3670,-75,-36,1,0,0,response5disk,,2,-4,-2,1,0,0,rectangle,-4,-2,1,0,0,-4,-2,1,0,0,1,77,237,111,1,,,,,,,,
,,,,,,,,,,,,,FF,,,,,,,,0.868,,,,,,,,,,,,,,,,,,,,,,610309cb6693b9f1ae07b5f6,61036e14a0280fce27023e7f,2021-07-29_23h14.35.829,Simcolourproject_2stim_asymm_v5,2020.2.10,MacIntel,60,61025ae37ef11b136ea224fe,,,,,,,,,148,103,-47,1,0,0,response3disk,,5,7,-10,1,0,0,rectangle,7,-10,1,0,0,7,-10,1,0,0,1,78,238,26,1,,,,,,,,
,,,,,,,,,,,,,FF,,,,,,,,1.099,,,,,,,,,,,,,,,,,,,,,,610309cb6693b9f1ae07b5f6,61036e14a0280fce27023e7f,2021-07-29_23h14.35.829,Simcolourproject_2stim_asymm_v5,2020.2.10,MacIntel,60,61025ae37ef11b136ea224fe,,,,,,,,,3751,32,-70,1,0,0,response3disk,,4,-5,16,1,0,0,rectangle,-5,16,1,0,0,-5,16,1,0,0,1,79,239,36,1,,,,,,,,
,,,,,,,,,,,,,FF,,,,,,,,1.251,,,,,,,,,,,,,,,,,,,,,,610309cb6693b9f1ae07b5f6,61036e14a0280fce27023e7f,2021-07-29_23h14.35.829,Simcolourproject_2stim_asymm_v5,2020.2.10,MacIntel,60,61025ae37ef11b136ea224fe,,,,,,,,,1622,43,-78,1,0,0,response3disk,,4,12,-13,1,0,0,rectangle,12,-13,1,0,0,12,-13,1,0,0,1,80,240,86,1,,,,,,,,
,,,,,,,,,,,,,FF,,,,,,,,1.051,,,,,,,,,,,,,,,,,,,,,,610309cb6693b9f1ae07b5f6,61036e14a0280fce27023e7f,2021-07-29_23h14.35.829,Simcolourproject_2stim_asymm_v5,2020.2.10,MacIntel,60,61025ae37ef11b136ea224fe,,,,,,,,,1847,80,-44,1,0,0,response3disk,,5,19,8,1,0,0,rectangle,19,8,1,0,0,19,8,1,0,0,1,81,241,92,1,,,,,,,,
,,,,,,,,,,,,,FF,,,,,,,,1.399,,,,,,,,,,,,,,,,,,,,,,610309cb6693b9f1ae07b5f6,61036e14a0280fce27023e7f,2021-07-29_23h14.35.829,Simcolourproject_2stim_asymm_v5,2020.2.10,MacIntel,60,61025ae37ef11b136ea224fe,,,,,,,,,2677,-54,-117,1,0,0,response5disk,,3,-6,4,1,0,0,rectangle,-6,4,1,0,0,-6,4,1,0,0,1,82,242,112,1,,,,,,,,
,,,,,,,,,,,,,FF,,,,,,,,1.084,,,,,,,,,,,,,,,,,,,,,,610309cb6693b9f1ae07b5f6,61036e14a0280fce27023e7f,2021-07-29_23h14.35.829,Simcolourproject_2stim_asymm_v5,2020.2.10,MacIntel,60,61025ae37ef11b136ea224fe,,,,,,,,,2087,-35,-75,1,0,0,response5disk,,3,-10,-15,1,0,0,rectangle,-10,-15,1,0,0,-10,-15,1,0,0,1,83,243,67,1,,,,,,,,
,,,,,,,,,,,,,FF,,,,,,,,1.083,,,,,,,,,,,,,,,,,,,,,,610309cb6693b9f1ae07b5f6,61036e14a0280fce27023e7f,2021-07-29_23h14.35.829,Simcolourproject_2stim_asymm_v5,2020.2.10,MacIntel,60,61025ae37ef11b136ea224fe,,,,,,,,,908,-36,-66,1,0,0,response5disk,,3,-6,8,1,0,0,rectangle,-6,8,1,0,0,-6,8,1,0,0,1,84,244,153,1,,,,,,,,
,,,,,,,,,,,,,FF,,,,,,,,0.866,,,,,,,,,,,,,,,,,,,,,,610309cb6693b9f1ae07b5f6,61036e14a0280fce27023e7f,2021-07-29_23h14.35.829,Simcolourproject_2stim_asymm_v5,2020.2.10,MacIntel,60,61025ae37ef11b136ea224fe,,,,,,,,,2015,47,-71,1,0,0,response3disk,,4,9,-6,1,0,0,rectangle,9,-6,1,0,0,9,-6,1,0,0,1,85,245,158,1,,,,,,,,
,,,,,,,,,,,,,FF,,,,,,,,0.751,,,,,,,,,,,,,,,,,,,,,,610309cb6693b9f1ae07b5f6,61036e14a0280fce27023e7f,2021-07-29_23h14.35.829,Simcolourproject_2stim_asymm_v5,2020.2.10,MacIntel,60,61025ae37ef11b136ea224fe,,,,,,,,,1478,78,-42,1,0,0,response3disk,,5,2,-7,1,0,0,rectangle,2,-7,1,0,0,2,-7,1,0,0,1,86,246,44,1,,,,,,,,
,,,,,,,,,,,,,FF,,,,,,,,0.984,,,,,,,,,,,,,,,,,,,,,,610309cb6693b9f1ae07b5f6,61036e14a0280fce27023e7f,2021-07-29_23h14.35.829,Simcolourproject_2stim_asymm_v5,2020.2.10,MacIntel,60,61025ae37ef11b136ea224fe,,,,,,,,,3197,-92,-47,1,0,0,response5disk,,2,-7,-5,1,0,0,rectangle,-7,-5,1,0,0,-7,-5,1,0,0,1,87,247,125,1,,,,,,,,
,,,,,,,,,,,,,FF,,,,,,,,0.999,,,,,,,,,,,,,,,,,,,,,,610309cb6693b9f1ae07b5f6,61036e14a0280fce27023e7f,2021-07-29_23h14.35.829,Simcolourproject_2stim_asymm_v5,2020.2.10,MacIntel,60,61025ae37ef11b136ea224fe,,,,,,,,,2990,-31,-84,1,0,0,response5disk,,3,-1,-9,1,0,0,rectangle,-1,-9,1,0,0,-1,-9,1,0,0,1,88,248,83,1,,,,,,,,
,,,,,,,,,,,,,FF,,,,,,,,0.817,,,,,,,,,,,,,,,,,,,,,,610309cb6693b9f1ae07b5f6,61036e14a0280fce27023e7f,2021-07-29_23h14.35.829,Simcolourproject_2stim_asymm_v5,2020.2.10,MacIntel,60,61025ae37ef11b136ea224fe,,,,,,,,,1351,91,-36,1,0,0,response3disk,,5,-14,2,1,0,0,rectangle,-14,2,1,0,0,-14,2,1,0,0,1,89,249,6,1,,,,,,,,
,,,,,,,,,,,,,FF,,,,,,,,1.034,,,,,,,,,,,,,,,,,,,,,,610309cb6693b9f1ae07b5f6,61036e14a0280fce27023e7f,2021-07-29_23h14.35.829,Simcolourproject_2stim_asymm_v5,2020.2.10,MacIntel,60,61025ae37ef11b136ea224fe,,,,,,,,,4195,29,-101,1,0,0,response3disk,,4,-3,-9,1,0,0,rectangle,-3,-9,1,0,0,-3,-9,1,0,0,1,90,250,65,1,,,,,,,,
,,,,,,,,,,,,,FF,,,,,,,,1.483,,,,,,,,,,,,,,,,,,,,,,610309cb6693b9f1ae07b5f6,61036e14a0280fce27023e7f,2021-07-29_23h14.35.829,Simcolourproject_2stim_asymm_v5,2020.2.10,MacIntel,60,61025ae37ef11b136ea224fe,,,,,,,,,2213,94,-39,1,0,0,response3disk,,5,4,-9,1,0,0,rectangle,4,-9,1,0,0,4,-9,1,0,0,1,91,251,82,1,,,,,,,,
,,,,,,,,,,,,,FF,,,,,,,,0.816,,,,,,,,,,,,,,,,,,,,,,610309cb6693b9f1ae07b5f6,61036e14a0280fce27023e7f,2021-07-29_23h14.35.829,Simcolourproject_2stim_asymm_v5,2020.2.10,MacIntel,60,61025ae37ef11b136ea224fe,,,,,,,,,2789,-52,-97,1,0,0,response5disk,,3,-7,1,1,0,0,rectangle,-7,1,1,0,0,-7,1,1,0,0,1,92,252,37,1,,,,,,,,
,,,,,,,,,,,,,FF,,,,,,,,1.016,,,,,,,,,,,,,,,,,,,,,,610309cb6693b9f1ae07b5f6,61036e14a0280fce27023e7f,2021-07-29_23h14.35.829,Simcolourproject_2stim_asymm_v5,2020.2.10,MacIntel,60,61025ae37ef11b136ea224fe,,,,,,,,,651,32,-88,1,0,0,response3disk,,4,-11,-3,1,0,0,rectangle,-11,-3,1,0,0,-11,-3,1,0,0,1,93,253,98,1,,,,,,,,
,,,,,,,,,,,,,FF,,,,,,,,0.883,,,,,,,,,,,,,,,,,,,,,,610309cb6693b9f1ae07b5f6,61036e14a0280fce27023e7f,2021-07-29_23h14.35.829,Simcolourproject_2stim_asymm_v5,2020.2.10,MacIntel,60,61025ae37ef11b136ea224fe,,,,,,,,,1036,-29,-101,1,0,0,response5disk,,3,-1,14,1,0,0,rectangle,-52,98,1,0,0,8,-6,1,0,0,1,94,254,73,1,,response7disk_3,TRUE,0,0,"[185,91,64,46,129,5,113,68,28,56,177,217,36,195,11,210,103,255,293,179]",1.968,rectangle
,,,,,,,,,,,,,FF,,,,,,,,0.833,,,,,,,,,,,,,,,,,,,,,,610309cb6693b9f1ae07b5f6,61036e14a0280fce27023e7f,2021-07-29_23h14.35.829,Simcolourproject_2stim_asymm_v5,2020.2.10,MacIntel,60,61025ae37ef11b136ea224fe,,,,,,,,,2861,66,-29,1,0,0,response3disk,,5,11,-2,1,0,0,rectangle,11,-2,1,0,0,11,-2,1,0,0,1,95,255,157,1,,,,,,,,
,,,,,,,,,,,,,FF,,,,,,,,1.016,,,,,,,,,,,,,,,,,,,,,,610309cb6693b9f1ae07b5f6,61036e14a0280fce27023e7f,2021-07-29_23h14.35.829,Simcolourproject_2stim_asymm_v5,2020.2.10,MacIntel,60,61025ae37ef11b136ea224fe,,,,,,,,,98,-47,-98,1,0,0,response5disk,,3,-13,-8,1,0,0,rectangle,-13,-8,1,0,0,-13,-8,1,0,0,1,96,256,110,1,,,,,,,,
,,,,,,,,,,,,,FF,,,,,,,,0.915,,,,,,,,,,,,,,,,,,,,,,610309cb6693b9f1ae07b5f6,61036e14a0280fce27023e7f,2021-07-29_23h14.35.829,Simcolourproject_2stim_asymm_v5,2020.2.10,MacIntel,60,61025ae37ef11b136ea224fe,,,,,,,,,1310,41,-86,1,0,0,response3disk,,4,7,-2,1,0,0,rectangle,7,-2,1,0,0,7,-2,1,0,0,1,97,257,75,1,,,,,,,,
,,,,,,,,,,,,,FF,,,,,,,,1.733,,,,,,,,,,,,,,,,,,,,,,610309cb6693b9f1ae07b5f6,61036e14a0280fce27023e7f,2021-07-29_23h14.35.829,Simcolourproject_2stim_asymm_v5,2020.2.10,MacIntel,60,61025ae37ef11b136ea224fe,,,,,,,,,1665,-42,-92,1,0,0,response5disk,,3,-16,6,1,0,0,rectangle,-16,6,1,0,0,-16,6,1,0,0,1,98,258,147,1,,,,,,,,
,,,,,,,,,,,,,FF,,,,,,,,0.917,,,,,,,,,,,,,,,,,,,,,,610309cb6693b9f1ae07b5f6,61036e14a0280fce27023e7f,2021-07-29_23h14.35.829,Simcolourproject_2stim_asymm_v5,2020.2.10,MacIntel,60,61025ae37ef11b136ea224fe,,,,,,,,,1924,40,-95,1,0,0,response3disk,,4,6,9,1,0,0,rectangle,6,9,1,0,0,6,9,1,0,0,1,99,259,127,1,,,,,,,,
,,,,,,,,,,,,,FF,,,,,,,,1.984,,,,,,,,,,,,,,,,,,,,,,610309cb6693b9f1ae07b5f6,61036e14a0280fce27023e7f,2021-07-29_23h14.35.829,Simcolourproject_2stim_asymm_v5,2020.2.10,MacIntel,60,61025ae37ef11b136ea224fe,,,,,,,,,497,84,25,1,0,0,response1disk,,6,15,-4,1,0,0,rectangle,15,-4,1,0,0,15,-4,1,0,0,1,100,260,115,1,,,,,,,,
,,,,,,,,,,,,,FF,,,,,,,,0.799,,,,,,,,,,,,,,,,,,,,,,610309cb6693b9f1ae07b5f6,61036e14a0280fce27023e7f,2021-07-29_23h14.35.829,Simcolourproject_2stim_asymm_v5,2020.2.10,MacIntel,60,61025ae37ef11b136ea224fe,,,,,,,,,4089,37,-67,1,0,0,response3disk,,4,-3,13,1,0,0,rectangle,-3,13,1,0,0,-3,13,1,0,0,1,101,261,63,1,,,,,,,,
,,,,,,,,,,,,,FF,,,,,,,,1.633,,,,,,,,,,,,,,,,,,,,,,610309cb6693b9f1ae07b5f6,61036e14a0280fce27023e7f,2021-07-29_23h14.35.829,Simcolourproject_2stim_asymm_v5,2020.2.10,MacIntel,60,61025ae37ef11b136ea224fe,,,,,,,,,2011,86,-38,1,0,0,response3disk,,5,23,-12,1,0,0,rectangle,23,-12,1,0,0,23,-12,1,0,0,1,102,262,32,1,,,,,,,,
,,,,,,,,,,,,,FF,,,,,,,,1.118,,,,,,,,,,,,,,,,,,,,,,610309cb6693b9f1ae07b5f6,61036e14a0280fce27023e7f,2021-07-29_23h14.35.829,Simcolourproject_2stim_asymm_v5,2020.2.10,MacIntel,60,61025ae37ef11b136ea224fe,,,,,,,,,860,32,-82,1,0,0,response3disk,,4,15,-8,1,0,0,rectangle,15,-8,1,0,0,15,-8,1,0,0,1,103,263,57,1,,,,,,,,
,,,,,,,,,,,,,FF,,,,,,,,1.284,,,,,,,,,,,,,,,,,,,,,,610309cb6693b9f1ae07b5f6,61036e14a0280fce27023e7f,2021-07-29_23h14.35.829,Simcolourproject_2stim_asymm_v5,2020.2.10,MacIntel,60,61025ae37ef11b136ea224fe,,,,,,,,,1611,-80,-40,1,0,0,response5disk,,2,-8,6,1,0,0,rectangle,-8,6,1,0,0,-8,6,1,0,0,1,104,264,46,1,,,,,,,,
,,,,,,,,,,,,,FF,,,,,,,,1.799,,,,,,,,,,,,,,,,,,,,,,610309cb6693b9f1ae07b5f6,61036e14a0280fce27023e7f,2021-07-29_23h14.35.829,Simcolourproject_2stim_asymm_v5,2020.2.10,MacIntel,60,61025ae37ef11b136ea224fe,,,,,,,,,499,90,-56,1,0,0,response3disk,,5,11,3,1,0,0,rectangle,11,3,1,0,0,11,3,1,0,0,1,105,265,59,1,,,,,,,,
,,,,,,,,,,,,,FF,,,,,,,,0.816,,,,,,,,,,,,,,,,,,,,,,610309cb6693b9f1ae07b5f6,61036e14a0280fce27023e7f,2021-07-29_23h14.35.829,Simcolourproject_2stim_asymm_v5,2020.2.10,MacIntel,60,61025ae37ef11b136ea224fe,,,,,,,,,3544,-62,-108,1,0,0,response5disk,,3,3,-8,1,0,0,rectangle,3,-8,1,0,0,3,-8,1,0,0,1,106,266,116,1,,,,,,,,
,,,,,,,,,,,,,FF,,,,,,,,0.967,,,,,,,,,,,,,,,,,,,,,,610309cb6693b9f1ae07b5f6,61036e14a0280fce27023e7f,2021-07-29_23h14.35.829,Simcolourproject_2stim_asymm_v5,2020.2.10,MacIntel,60,61025ae37ef11b136ea224fe,,,,,,,,,223,83,-36,1,0,0,response3disk,,5,8,4,1,0,0,rectangle,8,4,1,0,0,8,4,1,0,0,1,107,267,5,1,,,,,,,,
,,,,,,,,,,,,,FF,,,,,,,,1.417,,,,,,,,,,,,,,,,,,,,,,610309cb6693b9f1ae07b5f6,61036e14a0280fce27023e7f,2021-07-29_23h14.35.829,Simcolourproject_2stim_asymm_v5,2020.2.10,MacIntel,60,61025ae37ef11b136ea224fe,,,,,,,,,1947,82,-37,1,0,0,response3disk,,5,4,-1,1,0,0,rectangle,4,-1,1,0,0,4,-1,1,0,0,1,108,268,124,1,,,,,,,,
,,,,,,,,,,,,,FF,,,,,,,,0.95,,,,,,,,,,,,,,,,,,,,,,610309cb6693b9f1ae07b5f6,61036e14a0280fce27023e7f,2021-07-29_23h14.35.829,Simcolourproject_2stim_asymm_v5,2020.2.10,MacIntel,60,61025ae37ef11b136ea224fe,,,,,,,,,94,-93,-54,1,0,0,response5disk,,2,-2,-7,1,0,0,rectangle,-2,-7,1,0,0,-2,-7,1,0,0,1,109,269,156,1,,,,,,,,
,,,,,,,,,,,,,FF,,,,,,,,1.734,,,,,,,,,,,,,,,,,,,,,,610309cb6693b9f1ae07b5f6,61036e14a0280fce27023e7f,2021-07-29_23h14.35.829,Simcolourproject_2stim_asymm_v5,2020.2.10,MacIntel,60,61025ae37ef11b136ea224fe,,,,,,,,,2628,75,-43,1,0,0,response3disk,,5,1,-4,1,0,0,rectangle,1,-4,1,0,0,1,-4,1,0,0,1,110,270,66,1,,,,,,,,
,,,,,,,,,,,,,FF,,,,,,,,0.984,,,,,,,,,,,,,,,,,,,,,,610309cb6693b9f1ae07b5f6,61036e14a0280fce27023e7f,2021-07-29_23h14.35.829,Simcolourproject_2stim_asymm_v5,2020.2.10,MacIntel,60,61025ae37ef11b136ea224fe,,,,,,,,,1648,81,43,1,0,0,response1disk,,6,4,-6,1,0,0,rectangle,4,-6,1,0,0,4,-6,1,0,0,1,111,271,40,1,,,,,,,,
,,,,,,,,,,,,,FF,,,,,,,,1.866,,,,,,,,,,,,,,,,,,,,,,610309cb6693b9f1ae07b5f6,61036e14a0280fce27023e7f,2021-07-29_23h14.35.829,Simcolourproject_2stim_asymm_v5,2020.2.10,MacIntel,60,61025ae37ef11b136ea224fe,,,,,,,,,1918,50,-77,1,0,0,response3disk,,4,-1,9,1,0,0,rectangle,-1,9,1,0,0,-1,9,1,0,0,1,112,272,151,1,,,,,,,,
,,,,,,,,,,,,,FF,,,,,,,,0.985,,,,,,,,,,,,,,,,,,,,,,610309cb6693b9f1ae07b5f6,61036e14a0280fce27023e7f,2021-07-29_23h14.35.829,Simcolourproject_2stim_asymm_v5,2020.2.10,MacIntel,60,61025ae37ef11b136ea224fe,,,,,,,,,2397,83,-56,1,0,0,response3disk,,5,13,8,1,0,0,rectangle,13,8,1,0,0,13,8,1,0,0,1,113,273,23,1,,,,,,,,
,,,,,,,,,,,,,FF,,,,,,,,0.733,,,,,,,,,,,,,,,,,,,,,,610309cb6693b9f1ae07b5f6,61036e14a0280fce27023e7f,2021-07-29_23h14.35.829,Simcolourproject_2stim_asymm_v5,2020.2.10,MacIntel,60,61025ae37ef11b136ea224fe,,,,,,,,,2928,90,-55,1,0,0,response3disk,,5,-5,-6,1,0,0,rectangle,-5,-6,1,0,0,-5,-6,1,0,0,1,114,274,128,1,,,,,,,,
,,,,,,,,,,,,,FF,,,,,,,,1.084,,,,,,,,,,,,,,,,,,,,,,610309cb6693b9f1ae07b5f6,61036e14a0280fce27023e7f,2021-07-29_23h14.35.829,Simcolourproject_2stim_asymm_v5,2020.2.10,MacIntel,60,61025ae37ef11b136ea224fe,,,,,,,,,3998,-68,34,1,0,0,response7disk,,1,0,2,1,0,0,rectangle,0,2,1,0,0,0,2,1,0,0,1,115,275,80,1,,,,,,,,
,,,,,,,,,,,,,FF,,,,,,,,0.899,,,,,,,,,,,,,,,,,,,,,,610309cb6693b9f1ae07b5f6,61036e14a0280fce27023e7f,2021-07-29_23h14.35.829,Simcolourproject_2stim_asymm_v5,2020.2.10,MacIntel,60,61025ae37ef11b136ea224fe,,,,,,,,,2931,73,26,1,0,0,response1disk,,6,2,-6,1,0,0,rectangle,2,-6,1,0,0,2,-6,1,0,0,1,116,276,89,1,,,,,,,,
,,,,,,,,,,,,,FF,,,,,,,,0.784,,,,,,,,,,,,,,,,,,,,,,610309cb6693b9f1ae07b5f6,61036e14a0280fce27023e7f,2021-07-29_23h14.35.829,Simcolourproject_2stim_asymm_v5,2020.2.10,MacIntel,60,61025ae37ef11b136ea224fe,,,,,,,,,4109,26,68,1,0,0,response1disk,,7,-10,-2,1,0,0,rectangle,-10,-2,1,0,0,-10,-2,1,0,0,1,117,277,74,1,,,,,,,,
,,,,,,,,,,,,,FF,,,,,,,,1.033,,,,,,,,,,,,,,,,,,,,,,610309cb6693b9f1ae07b5f6,61036e14a0280fce27023e7f,2021-07-29_23h14.35.829,Simcolourproject_2stim_asymm_v5,2020.2.10,MacIntel,60,61025ae37ef11b136ea224fe,,,,,,,,,4251,-83,40,1,0,0,response7disk,,1,27,-11,1,0,0,rectangle,27,-11,1,0,0,27,-11,1,0,0,1,118,278,71,1,,,,,,,,
,,,,,,,,,,,,,FF,,,,,,,,1.117,,,,,,,,,,,,,,,,,,,,,,610309cb6693b9f1ae07b5f6,61036e14a0280fce27023e7f,2021-07-29_23h14.35.829,Simcolourproject_2stim_asymm_v5,2020.2.10,MacIntel,60,61025ae37ef11b136ea224fe,,,,,,,,,2224,35,68,1,0,0,response1disk,,7,7,-15,1,0,0,rectangle,7,-15,1,0,0,7,-15,1,0,0,1,119,279,109,1,,,,,,,,
,,,,,,,,,,,,,FF,,,,,,,,0.917,,,,,,,,,,,,,,,,,,,,,,610309cb6693b9f1ae07b5f6,61036e14a0280fce27023e7f,2021-07-29_23h14.35.829,Simcolourproject_2stim_asymm_v5,2020.2.10,MacIntel,60,61025ae37ef11b136ea224fe,,,,,,,,,3715,-33,-88,1,0,0,response5disk,,3,-10,3,1,0,0,rectangle,-10,3,1,0,0,-10,3,1,0,0,1,120,280,68,1,,,,,,,,
,,,,,,,,,,,,,FF,,,,,,,,1.833,,,,,,,,,,,,,,,,,,,,,,610309cb6693b9f1ae07b5f6,61036e14a0280fce27023e7f,2021-07-29_23h14.35.829,Simcolourproject_2stim_asymm_v5,2020.2.10,MacIntel,60,61025ae37ef11b136ea224fe,,,,,,,,,1135,43,-82,1,0,0,response3disk,,4,0,2,1,0,0,rectangle,0,2,1,0,0,0,2,1,0,0,1,121,281,131,1,,,,,,,,
,,,,,,,,,,,,,FF,,,,,,,,2.833,,,,,,,,,,,,,,,,,,,,,,610309cb6693b9f1ae07b5f6,61036e14a0280fce27023e7f,2021-07-29_23h14.35.829,Simcolourproject_2stim_asymm_v5,2020.2.10,MacIntel,60,61025ae37ef11b136ea224fe,,,,,,,,,4156,-38,-67,1,0,0,response5disk,,3,-17,-5,1,0,0,rectangle,-17,-5,1,0,0,-17,-5,1,0,0,1,122,282,4,1,,,,,,,,
,,,,,,,,,,,,,FF,,,,,,,,1.016,,,,,,,,,,,,,,,,,,,,,,610309cb6693b9f1ae07b5f6,61036e14a0280fce27023e7f,2021-07-29_23h14.35.829,Simcolourproject_2stim_asymm_v5,2020.2.10,MacIntel,60,61025ae37ef11b136ea224fe,,,,,,,,,1792,27,-85,1,0,0,response3disk,,4,8,10,1,0,0,rectangle,8,10,1,0,0,8,10,1,0,0,1,123,283,62,1,,,,,,,,
,,,,,,,,,,,,,FF,,,,,,,,1.333,,,,,,,,,,,,,,,,,,,,,,610309cb6693b9f1ae07b5f6,61036e14a0280fce27023e7f,2021-07-29_23h14.35.829,Simcolourproject_2stim_asymm_v5,2020.2.10,MacIntel,60,61025ae37ef11b136ea224fe,,,,,,,,,1701,80,35,1,0,0,response1disk,,6,0,-10,1,0,0,rectangle,0,-10,1,0,0,0,-10,1,0,0,1,124,284,30,1,,,,,,,,
,,,,,,,,,,,,,FF,,,,,,,,0.966,,,,,,,,,,,,,,,,,,,,,,610309cb6693b9f1ae07b5f6,61036e14a0280fce27023e7f,2021-07-29_23h14.35.829,Simcolourproject_2stim_asymm_v5,2020.2.10,MacIntel,60,61025ae37ef11b136ea224fe,,,,,,,,,4220,-31,-85,1,0,0,response5disk,,3,-1,-5,1,0,0,rectangle,-1,-5,1,0,0,-1,-5,1,0,0,1,125,285,45,1,,,,,,,,
,,,,,,,,,,,,,FF,,,,,,,,1.767,,,,,,,,,,,,,,,,,,,,,,610309cb6693b9f1ae07b5f6,61036e14a0280fce27023e7f,2021-07-29_23h14.35.829,Simcolourproject_2stim_asymm_v5,2020.2.10,MacIntel,60,61025ae37ef11b136ea224fe,,,,,,,,,3546,-46,-21,1,0,0,response5disk,,2,4,8,1,0,0,rectangle,4,8,1,0,0,4,8,1,0,0,1,126,286,49,1,,,,,,,,
,,,,,,,,,,,,,FF,,,,,,,,0.916,,,,,,,,,,,,,,,,,,,,,,610309cb6693b9f1ae07b5f6,61036e14a0280fce27023e7f,2021-07-29_23h14.35.829,Simcolourproject_2stim_asymm_v5,2020.2.10,MacIntel,60,61025ae37ef11b136ea224fe,,,,,,,,,1011,85,42,1,0,0,response1disk,,6,4,4,1,0,0,rectangle,4,4,1,0,0,4,4,1,0,0,1,127,287,53,1,,,,,,,,
,,,,,,,,,,,,,FF,,,,,,,,2.952,,,,,,,,,,,,,,,,,,,,,,610309cb6693b9f1ae07b5f6,61036e14a0280fce27023e7f,2021-07-29_23h14.35.829,Simcolourproject_2stim_asymm_v5,2020.2.10,MacIntel,60,61025ae37ef11b136ea224fe,,,,,,,,,1305,-45,-102,1,0,0,response5disk,,3,-10,-6,1,0,0,rectangle,-10,-6,1,0,0,-10,-6,1,0,0,1,128,288,55,1,,,,,,,,
,,,,,,,,,,,,,FF,,,,,,,,1.166,,,,,,,,,,,,,,,,,,,,,,610309cb6693b9f1ae07b5f6,61036e14a0280fce27023e7f,2021-07-29_23h14.35.829,Simcolourproject_2stim_asymm_v5,2020.2.10,MacIntel,60,61025ae37ef11b136ea224fe,,,,,,,,,3601,78,-48,1,0,0,response3disk,,5,5,0,1,0,0,rectangle,5,0,1,0,0,5,0,1,0,0,1,129,289,18,1,,,,,,,,
,,,,,,,,,,,,,FF,,,,,,,,1.084,,,,,,,,,,,,,,,,,,,,,,610309cb6693b9f1ae07b5f6,61036e14a0280fce27023e7f,2021-07-29_23h14.35.829,Simcolourproject_2stim_asymm_v5,2020.2.10,MacIntel,60,61025ae37ef11b136ea224fe,,,,,,,,,2943,-70,-52,1,0,0,response5disk,,2,-1,-8,1,0,0,rectangle,-1,-8,1,0,0,-1,-8,1,0,0,1,130,290,50,1,,,,,,,,
,,,,,,,,,,,,,FF,,,,,,,,1.15,,,,,,,,,,,,,,,,,,,,,,610309cb6693b9f1ae07b5f6,61036e14a0280fce27023e7f,2021-07-29_23h14.35.829,Simcolourproject_2stim_asymm_v5,2020.2.10,MacIntel,60,61025ae37ef11b136ea224fe,,,,,,,,,427,39,-73,1,0,0,response3disk,,4,2,3,1,0,0,rectangle,2,3,1,0,0,2,3,1,0,0,1,131,291,113,1,,,,,,,,
,,,,,,,,,,,,,FF,,,,,,,,2.2,,,,,,,,,,,,,,,,,,,,,,610309cb6693b9f1ae07b5f6,61036e14a0280fce27023e7f,2021-07-29_23h14.35.829,Simcolourproject_2stim_asymm_v5,2020.2.10,MacIntel,60,61025ae37ef11b136ea224fe,,,,,,,,,2447,89,43,1,0,0,response1disk,,6,-15,10,1,0,0,rectangle,110,-45,1,0,0,5,4,1,0,0,1,132,292,41,1,,response3disk_3,TRUE,5,5,"[185,91,64,46,129,5,113,68,28,56,177,217,36,195,11,210,103,255,293,179]",1.516,rectangle
,,,,,,,,,,,,,FF,,,,,,,,1.966,,,,,,,,,,,,,,,,,,,,,,610309cb6693b9f1ae07b5f6,61036e14a0280fce27023e7f,2021-07-29_23h14.35.829,Simcolourproject_2stim_asymm_v5,2020.2.10,MacIntel,60,61025ae37ef11b136ea224fe,,,,,,,,,1203,-78,-29,1,0,0,response5disk,,2,-5,7,1,0,0,rectangle,-5,7,1,0,0,-5,7,1,0,0,1,133,293,108,1,,,,,,,,
,,,,,,,,,,,,,FF,,,,,,,,1.117,,,,,,,,,,,,,,,,,,,,,,610309cb6693b9f1ae07b5f6,61036e14a0280fce27023e7f,2021-07-29_23h14.35.829,Simcolourproject_2stim_asymm_v5,2020.2.10,MacIntel,60,61025ae37ef11b136ea224fe,,,,,,,,,3112,70,-44,1,0,0,response3disk,,5,-1,-16,1,0,0,rectangle,-1,-16,1,0,0,-1,-16,1,0,0,1,134,294,14,1,,,,,,,,
,,,,,,,,,,,,,FF,,,,,,,,0.717,,,,,,,,,,,,,,,,,,,,,,610309cb6693b9f1ae07b5f6,61036e14a0280fce27023e7f,2021-07-29_23h14.35.829,Simcolourproject_2stim_asymm_v5,2020.2.10,MacIntel,60,61025ae37ef11b136ea224fe,,,,,,,,,1245,101,-51,1,0,0,response3disk,,5,15,-8,1,0,0,rectangle,15,-8,1,0,0,15,-8,1,0,0,1,135,295,24,1,,,,,,,,
,,,,,,,,,,,,,FF,,,,,,,,1.3,,,,,,,,,,,,,,,,,,,,,,610309cb6693b9f1ae07b5f6,61036e14a0280fce27023e7f,2021-07-29_23h14.35.829,Simcolourproject_2stim_asymm_v5,2020.2.10,MacIntel,60,61025ae37ef11b136ea224fe,,,,,,,,,2635,96,38,1,0,0,response1disk,,6,-10,-8,1,0,0,rectangle,-10,-8,1,0,0,-10,-8,1,0,0,1,136,296,33,1,,,,,,,,
,,,,,,,,,,,,,FF,,,,,,,,0.998,,,,,,,,,,,,,,,,,,,,,,610309cb6693b9f1ae07b5f6,61036e14a0280fce27023e7f,2021-07-29_23h14.35.829,Simcolourproject_2stim_asymm_v5,2020.2.10,MacIntel,60,61025ae37ef11b136ea224fe,,,,,,,,,3052,-93,-42,1,0,0,response5disk,,2,-11,2,1,0,0,rectangle,-11,2,1,0,0,-11,2,1,0,0,1,137,297,136,1,,,,,,,,
,,,,,,,,,,,,,FF,,,,,,,,0.85,,,,,,,,,,,,,,,,,,,,,,610309cb6693b9f1ae07b5f6,61036e14a0280fce27023e7f,2021-07-29_23h14.35.829,Simcolourproject_2stim_asymm_v5,2020.2.10,MacIntel,60,61025ae37ef11b136ea224fe,,,,,,,,,1174,61,127,1,0,0,response1disk,,7,1,7,1,0,0,rectangle,1,7,1,0,0,1,7,1,0,0,1,138,298,129,1,,,,,,,,
,,,,,,,,,,,,,FF,,,,,,,,1.001,,,,,,,,,,,,,,,,,,,,,,610309cb6693b9f1ae07b5f6,61036e14a0280fce27023e7f,2021-07-29_23h14.35.829,Simcolourproject_2stim_asymm_v5,2020.2.10,MacIntel,60,61025ae37ef11b136ea224fe,,,,,,,,,2138,92,37,1,0,0,response1disk,,6,-5,7,1,0,0,rectangle,-5,7,1,0,0,-5,7,1,0,0,1,139,299,144,1,,,,,,,,
,,,,,,,,,,,,,FF,,,,,,,,1.082,,,,,,,,,,,,,,,,,,,,,,610309cb6693b9f1ae07b5f6,61036e14a0280fce27023e7f,2021-07-29_23h14.35.829,Simcolourproject_2stim_asymm_v5,2020.2.10,MacIntel,60,61025ae37ef11b136ea224fe,,,,,,,,,1088,102,40,1,0,0,response1disk,,6,-9,-11,1,0,0,rectangle,-9,-11,1,0,0,-9,-11,1,0,0,1,140,300,133,1,,,,,,,,
