key_resp.keys,key_resp.rt,key_resp_14.keys,key_resp_14.rt,key_resp_15.keys,key_resp_15.rt,key_resp_17.keys,key_resp_17.rt,key_resp_9.keys,key_resp_9.rt,key_resp_10.keys,key_resp_10.rt,practice_comparison,Ecc,mouse_5.x,mouse_5.y,mouse_5.leftButton,mouse_5.midButton,mouse_5.rightButton,mouse_5.clicked_name,pracsimilarity,response_time,mouse_10.x,mouse_10.y,mouse_10.leftButton,mouse_10.midButton,mouse_10.rightButton,mouse_10.clicked_name,mouse_7.x,mouse_7.y,mouse_7.leftButton,mouse_7.midButton,mouse_7.rightButton,mouse_6.x,mouse_6.y,mouse_6.leftButton,mouse_6.midButton,mouse_6.rightButton,duringprac.thisRepN,duringprac.thisTrialN,duringprac.thisN,duringprac.thisIndex,duringprac.ran,participant,session,date,expName,psychopyVersion,OS,frameRate,study_id,mouse_7.clicked_name,catchpracsimilarity,catch_response_time,catchnumberprac,catchtrialorderprac,mouse_6.clicked_name,key_resp_22.keys,key_resp_22.rt,realcomparison,mouse.x,mouse.y,mouse.leftButton,mouse.midButton,mouse.rightButton,mouse.clicked_name,Colour2,similarity,mouse_2.x,mouse_2.y,mouse_2.leftButton,mouse_2.midButton,mouse_2.rightButton,mouse_2.clicked_name,mouse_3.x,mouse_3.y,mouse_3.leftButton,mouse_3.midButton,mouse_3.rightButton,mouse_11.x,mouse_11.y,mouse_11.leftButton,mouse_11.midButton,mouse_11.rightButton,trials_2.thisRepN,trials_2.thisTrialN,trials_2.thisN,trials_2.thisIndex,trials_2.ran,Colour1,mouse_3.clicked_name,catchornah,catchsimilarity,catchnumber,catchtrialorder,catchRT,mouse_11.clicked_name
space,1.3345,space,18.0981,space,28.7863,space,14.9655,space,1.3019,space,4.4537,123,FF,68.26953125,-48.98828125,1,0,0,response3disk_5,5,8.7879,1.48828125,-11.625,1,0,0,rectangle_8,1.48828125,-11.625,1,0,0,1.48828125,-11.625,1,0,0,0,0,0,0,1,610314f70be8d9402adf9c6f,61036c3ec47011d51cdbae68,2021-07-29_20h08.55.548,Simcolourproject_2stim_asymm_v5,2020.2.10,MacIntel,60,61025ae37ef11b136ea224fe,,,,,,,,,,,,,,,,,,,,,,,,,,,,,,,,,,,,,,,,,,,,,,
,,,,,,,,,,,,78,PF,-32.29296875,-83.8359375,1,0,0,response5disk_5,3,1.5825,18.5234375,11.8359375,1,0,0,rectangle_8,89.64453125,-79.671875,1,0,0,-3.1875,-15.91015625,1,0,0,0,1,1,4,1,610314f70be8d9402adf9c6f,61036c3ec47011d51cdbae68,2021-07-29_20h08.55.548,Simcolourproject_2stim_asymm_v5,2020.2.10,MacIntel,60,61025ae37ef11b136ea224fe,response3disk_7,5,3.5513,5,"[2,5]",rectangle_4,,,,,,,,,,,,,,,,,,,,,,,,,,,,,,,,,,,,,,,,
,,,,,,,,,,,,21,FF,42.52734375,-80.359375,1,0,0,response3disk_5,4,4.8336,1.765625,-1.78125,1,0,0,rectangle_8,1.765625,-1.78125,1,0,0,1.765625,-1.78125,1,0,0,0,2,2,5,1,610314f70be8d9402adf9c6f,61036c3ec47011d51cdbae68,2021-07-29_20h08.55.548,Simcolourproject_2stim_asymm_v5,2020.2.10,MacIntel,60,61025ae37ef11b136ea224fe,,,,,,,,,,,,,,,,,,,,,,,,,,,,,,,,,,,,,,,,,,,,,,
,,,,,,,,,,,,74,PF,-34.75390625,-109.3242188,1,0,0,response5disk_5,3,3.0004,20.22265625,5.39453125,1,0,0,rectangle_8,20.22265625,5.39453125,1,0,0,20.22265625,5.39453125,1,0,0,0,3,3,6,1,610314f70be8d9402adf9c6f,61036c3ec47011d51cdbae68,2021-07-29_20h08.55.548,Simcolourproject_2stim_asymm_v5,2020.2.10,MacIntel,60,61025ae37ef11b136ea224fe,,,,,,,,,,,,,,,,,,,,,,,,,,,,,,,,,,,,,,,,,,,,,,
,,,,,,,,,,,,96,PF,90.734375,46.21875,1,0,0,response1disk_5,6,1.6666,16.015625,-14.09375,1,0,0,rectangle_8,95.00390625,-43.0390625,1,0,0,4.515625,-4.4453125,1,0,0,0,4,4,1,1,610314f70be8d9402adf9c6f,61036c3ec47011d51cdbae68,2021-07-29_20h08.55.548,Simcolourproject_2stim_asymm_v5,2020.2.10,MacIntel,60,61025ae37ef11b136ea224fe,response3disk_7,5,4.7836,5,"[2,5]",rectangle_4,,,,,,,,,,,,,,,,,,,,,,,,,,,,,,,,,,,,,,,,
,,,,,,,,,,,,114,FF,67.53515625,16.37890625,1,0,0,response1disk_5,6,13.95,-1.546875,-5.8046875,1,0,0,rectangle_8,-1.546875,-5.8046875,1,0,0,-1.546875,-5.8046875,1,0,0,0,5,5,3,1,610314f70be8d9402adf9c6f,61036c3ec47011d51cdbae68,2021-07-29_20h08.55.548,Simcolourproject_2stim_asymm_v5,2020.2.10,MacIntel,60,61025ae37ef11b136ea224fe,,,,,,,,,,,,,,,,,,,,,,,,,,,,,,,,,,,,,,,,,,,,,,
,,,,,,,,,,,,152,PF,-67.984375,-48.6953125,1,0,0,response5disk_5,2,2.2169,3.66796875,-7.765625,1,0,0,rectangle_8,3.66796875,-7.765625,1,0,0,3.66796875,-7.765625,1,0,0,0,6,6,2,1,610314f70be8d9402adf9c6f,61036c3ec47011d51cdbae68,2021-07-29_20h08.55.548,Simcolourproject_2stim_asymm_v5,2020.2.10,MacIntel,60,61025ae37ef11b136ea224fe,,,,,,,,,,,,,,,,,,,,,,,,,,,,,,,,,,,,,,,,,,,,,,
,,,,,,,,,,,,,FF,,,,,,,,4.6013,,,,,,,,,,,,,,,,,,,,,,610314f70be8d9402adf9c6f,61036c3ec47011d51cdbae68,2021-07-29_20h08.55.548,Simcolourproject_2stim_asymm_v5,2020.2.10,MacIntel,60,61025ae37ef11b136ea224fe,,,,,,,space,8.4157,4178,85.453125,-44.15625,1,0,0,response3disk,,5,-1.05859375,-4.3046875,1,0,0,rectangle,-1.05859375,-4.3046875,1,0,0,-1.05859375,-4.3046875,1,0,0,0,0,0,107,1,,,,,,,,
,,,,,,,,,,,,,FF,,,,,,,,0.9345,,,,,,,,,,,,,,,,,,,,,,610314f70be8d9402adf9c6f,61036c3ec47011d51cdbae68,2021-07-29_20h08.55.548,Simcolourproject_2stim_asymm_v5,2020.2.10,MacIntel,60,61025ae37ef11b136ea224fe,,,,,,,,,1606,-31.44921875,-73.59375,1,0,0,response5disk,,3,12.9296875,-2.109375,1,0,0,rectangle,12.9296875,-2.109375,1,0,0,12.9296875,-2.109375,1,0,0,0,1,1,67,1,,,,,,,,
,,,,,,,,,,,,,FF,,,,,,,,1.3332,,,,,,,,,,,,,,,,,,,,,,610314f70be8d9402adf9c6f,61036c3ec47011d51cdbae68,2021-07-29_20h08.55.548,Simcolourproject_2stim_asymm_v5,2020.2.10,MacIntel,60,61025ae37ef11b136ea224fe,,,,,,,,,642,19.6484375,-113.6835938,1,0,0,response3disk,,4,7.8515625,-3.46875,1,0,0,rectangle,7.8515625,-3.46875,1,0,0,7.8515625,-3.46875,1,0,0,0,2,2,60,1,,,,,,,,
,,,,,,,,,,,,,FF,,,,,,,,1.8002,,,,,,,,,,,,,,,,,,,,,,610314f70be8d9402adf9c6f,61036c3ec47011d51cdbae68,2021-07-29_20h08.55.548,Simcolourproject_2stim_asymm_v5,2020.2.10,MacIntel,60,61025ae37ef11b136ea224fe,,,,,,,,,2311,101.3945313,-48.56640625,1,0,0,response3disk,,5,-5.88671875,-16.95703125,1,0,0,rectangle,-94.765625,-59.44921875,1,0,0,-5.5703125,3.39453125,1,0,0,0,3,3,4,1,,response5disk_3,TRUE,2,2,"[4,108,323,10,57,73,46,96,304,289,205,113,263,298,318,311,47,270,260,35]",3.8346,rectangle
,,,,,,,,,,,,,FF,,,,,,,,3.235,,,,,,,,,,,,,,,,,,,,,,610314f70be8d9402adf9c6f,61036c3ec47011d51cdbae68,2021-07-29_20h08.55.548,Simcolourproject_2stim_asymm_v5,2020.2.10,MacIntel,60,61025ae37ef11b136ea224fe,,,,,,,,,3344,35.7734375,-101.34375,1,0,0,response3disk,,4,24.87109375,-7.2109375,1,0,0,rectangle,24.87109375,-7.2109375,1,0,0,24.87109375,-7.2109375,1,0,0,0,4,4,124,1,,,,,,,,
,,,,,,,,,,,,,FF,,,,,,,,1.9668,,,,,,,,,,,,,,,,,,,,,,610314f70be8d9402adf9c6f,61036c3ec47011d51cdbae68,2021-07-29_20h08.55.548,Simcolourproject_2stim_asymm_v5,2020.2.10,MacIntel,60,61025ae37ef11b136ea224fe,,,,,,,,,339,66.91015625,-76.00390625,1,0,0,response3disk,,4,15.3359375,-2.8046875,1,0,0,rectangle,15.3359375,-2.8046875,1,0,0,15.3359375,-2.8046875,1,0,0,0,5,5,18,1,,,,,,,,
,,,,,,,,,,,,,FF,,,,,,,,1.2331,,,,,,,,,,,,,,,,,,,,,,610314f70be8d9402adf9c6f,61036c3ec47011d51cdbae68,2021-07-29_20h08.55.548,Simcolourproject_2stim_asymm_v5,2020.2.10,MacIntel,60,61025ae37ef11b136ea224fe,,,,,,,,,161,33.16015625,76.59765625,1,0,0,response1disk,,7,11.1171875,2.0625,1,0,0,rectangle,11.1171875,2.0625,1,0,0,11.1171875,2.0625,1,0,0,0,6,6,136,1,,,,,,,,
,,,,,,,,,,,,,FF,,,,,,,,1.2848,,,,,,,,,,,,,,,,,,,,,,610314f70be8d9402adf9c6f,61036c3ec47011d51cdbae68,2021-07-29_20h08.55.548,Simcolourproject_2stim_asymm_v5,2020.2.10,MacIntel,60,61025ae37ef11b136ea224fe,,,,,,,,,1087,111.4882813,55.0546875,1,0,0,response1disk,,6,18.3359375,5.90234375,1,0,0,rectangle,18.3359375,5.90234375,1,0,0,18.3359375,5.90234375,1,0,0,0,7,7,72,1,,,,,,,,
,,,,,,,,,,,,,FF,,,,,,,,1.2992,,,,,,,,,,,,,,,,,,,,,,610314f70be8d9402adf9c6f,61036c3ec47011d51cdbae68,2021-07-29_20h08.55.548,Simcolourproject_2stim_asymm_v5,2020.2.10,MacIntel,60,61025ae37ef11b136ea224fe,,,,,,,,,3766,47.078125,77.4140625,1,0,0,response1disk,,7,12.75,-3.234375,1,0,0,rectangle,12.75,-3.234375,1,0,0,12.75,-3.234375,1,0,0,0,8,8,89,1,,,,,,,,
,,,,,,,,,,,,,FF,,,,,,,,2.2672,,,,,,,,,,,,,,,,,,,,,,610314f70be8d9402adf9c6f,61036c3ec47011d51cdbae68,2021-07-29_20h08.55.548,Simcolourproject_2stim_asymm_v5,2020.2.10,MacIntel,60,61025ae37ef11b136ea224fe,,,,,,,,,2345,34.53125,83.4140625,1,0,0,response1disk,,7,29.7421875,-2.0390625,1,0,0,rectangle,51.1171875,92.578125,1,0,0,2.55078125,-5.5390625,1,0,0,0,9,9,27,1,,response1disk_3,TRUE,7,7,"[4,108,323,10,57,73,46,96,304,289,205,113,263,298,318,311,47,270,260,35]",3.2818,rectangle
,,,,,,,,,,,,,FF,,,,,,,,2.483,,,,,,,,,,,,,,,,,,,,,,610314f70be8d9402adf9c6f,61036c3ec47011d51cdbae68,2021-07-29_20h08.55.548,Simcolourproject_2stim_asymm_v5,2020.2.10,MacIntel,60,61025ae37ef11b136ea224fe,,,,,,,,,1771,102.859375,26.42578125,1,0,0,response1disk,,6,2.15234375,4.8828125,1,0,0,rectangle,2.15234375,4.8828125,1,0,0,2.15234375,4.8828125,1,0,0,0,10,10,100,1,,,,,,,,
,,,,,,,,,,,,,FF,,,,,,,,2.0006,,,,,,,,,,,,,,,,,,,,,,610314f70be8d9402adf9c6f,61036c3ec47011d51cdbae68,2021-07-29_20h08.55.548,Simcolourproject_2stim_asymm_v5,2020.2.10,MacIntel,60,61025ae37ef11b136ea224fe,,,,,,,,,3114,47.8828125,-107.3203125,1,0,0,response3disk,,4,13.65234375,2.26953125,1,0,0,rectangle,13.65234375,2.26953125,1,0,0,13.65234375,2.26953125,1,0,0,0,11,11,41,1,,,,,,,,
,,,,,,,,,,,,,FF,,,,,,,,2.0836,,,,,,,,,,,,,,,,,,,,,,610314f70be8d9402adf9c6f,61036c3ec47011d51cdbae68,2021-07-29_20h08.55.548,Simcolourproject_2stim_asymm_v5,2020.2.10,MacIntel,60,61025ae37ef11b136ea224fe,,,,,,,,,3846,-73.9140625,-40.56640625,1,0,0,response5disk,,2,-2.1875,6.4765625,1,0,0,rectangle,-2.1875,6.4765625,1,0,0,-2.1875,6.4765625,1,0,0,0,12,12,134,1,,,,,,,,
,,,,,,,,,,,,,FF,,,,,,,,2.9845,,,,,,,,,,,,,,,,,,,,,,610314f70be8d9402adf9c6f,61036c3ec47011d51cdbae68,2021-07-29_20h08.55.548,Simcolourproject_2stim_asymm_v5,2020.2.10,MacIntel,60,61025ae37ef11b136ea224fe,,,,,,,,,2475,116.0390625,34.1875,1,0,0,response1disk,,6,8.27734375,3.64453125,1,0,0,rectangle,8.27734375,3.64453125,1,0,0,8.27734375,3.64453125,1,0,0,0,13,13,85,1,,,,,,,,
,,,,,,,,,,,,,FF,,,,,,,,0.9995,,,,,,,,,,,,,,,,,,,,,,610314f70be8d9402adf9c6f,61036c3ec47011d51cdbae68,2021-07-29_20h08.55.548,Simcolourproject_2stim_asymm_v5,2020.2.10,MacIntel,60,61025ae37ef11b136ea224fe,,,,,,,,,588,51.4453125,81.4609375,1,0,0,response1disk,,7,0.6015625,1.0234375,1,0,0,rectangle,0.6015625,1.0234375,1,0,0,0.6015625,1.0234375,1,0,0,0,14,14,106,1,,,,,,,,
,,,,,,,,,,,,,FF,,,,,,,,0.8339,,,,,,,,,,,,,,,,,,,,,,610314f70be8d9402adf9c6f,61036c3ec47011d51cdbae68,2021-07-29_20h08.55.548,Simcolourproject_2stim_asymm_v5,2020.2.10,MacIntel,60,61025ae37ef11b136ea224fe,,,,,,,,,2402,33.68359375,80.5078125,1,0,0,response1disk,,7,7.33203125,1.91796875,1,0,0,rectangle,7.33203125,1.91796875,1,0,0,7.33203125,1.91796875,1,0,0,0,15,15,101,1,,,,,,,,
,,,,,,,,,,,,,FF,,,,,,,,1.1168,,,,,,,,,,,,,,,,,,,,,,610314f70be8d9402adf9c6f,61036c3ec47011d51cdbae68,2021-07-29_20h08.55.548,Simcolourproject_2stim_asymm_v5,2020.2.10,MacIntel,60,61025ae37ef11b136ea224fe,,,,,,,,,1818,44.21875,-90.69921875,1,0,0,response3disk,,4,21.15234375,-2.1796875,1,0,0,rectangle,21.15234375,-2.1796875,1,0,0,21.15234375,-2.1796875,1,0,0,0,16,16,94,1,,,,,,,,
,,,,,,,,,,,,,FF,,,,,,,,0.8677,,,,,,,,,,,,,,,,,,,,,,610314f70be8d9402adf9c6f,61036c3ec47011d51cdbae68,2021-07-29_20h08.55.548,Simcolourproject_2stim_asymm_v5,2020.2.10,MacIntel,60,61025ae37ef11b136ea224fe,,,,,,,,,1792,64.75390625,-39,1,0,0,response3disk,,5,5.94921875,0.54296875,1,0,0,rectangle,5.94921875,0.54296875,1,0,0,5.94921875,0.54296875,1,0,0,0,17,17,82,1,,,,,,,,
,,,,,,,,,,,,,FF,,,,,,,,1.3002,,,,,,,,,,,,,,,,,,,,,,610314f70be8d9402adf9c6f,61036c3ec47011d51cdbae68,2021-07-29_20h08.55.548,Simcolourproject_2stim_asymm_v5,2020.2.10,MacIntel,60,61025ae37ef11b136ea224fe,,,,,,,,,3745,39.3984375,-97.08984375,1,0,0,response3disk,,4,6.44921875,-4.68359375,1,0,0,rectangle,6.44921875,-4.68359375,1,0,0,6.44921875,-4.68359375,1,0,0,0,18,18,111,1,,,,,,,,
,,,,,,,,,,,,,FF,,,,,,,,2.5991,,,,,,,,,,,,,,,,,,,,,,610314f70be8d9402adf9c6f,61036c3ec47011d51cdbae68,2021-07-29_20h08.55.548,Simcolourproject_2stim_asymm_v5,2020.2.10,MacIntel,60,61025ae37ef11b136ea224fe,,,,,,,,,466,52.6796875,98.80859375,1,0,0,response1disk,,7,13.76953125,5.3046875,1,0,0,rectangle,13.76953125,5.3046875,1,0,0,13.76953125,5.3046875,1,0,0,0,19,19,108,1,,,,,,,,
,,,,,,,,,,,,,FF,,,,,,,,0.8653,,,,,,,,,,,,,,,,,,,,,,610314f70be8d9402adf9c6f,61036c3ec47011d51cdbae68,2021-07-29_20h08.55.548,Simcolourproject_2stim_asymm_v5,2020.2.10,MacIntel,60,61025ae37ef11b136ea224fe,,,,,,,,,84,31.23828125,74.09375,1,0,0,response1disk,,7,6.80078125,1.50390625,1,0,0,rectangle,6.80078125,1.50390625,1,0,0,6.80078125,1.50390625,1,0,0,0,20,20,71,1,,,,,,,,
,,,,,,,,,,,,,FF,,,,,,,,1.4174,,,,,,,,,,,,,,,,,,,,,,610314f70be8d9402adf9c6f,61036c3ec47011d51cdbae68,2021-07-29_20h08.55.548,Simcolourproject_2stim_asymm_v5,2020.2.10,MacIntel,60,61025ae37ef11b136ea224fe,,,,,,,,,1157,93.3125,50.828125,1,0,0,response1disk,,6,24.5703125,8.859375,1,0,0,rectangle,24.5703125,8.859375,1,0,0,24.5703125,8.859375,1,0,0,0,21,21,95,1,,,,,,,,
,,,,,,,,,,,,,FF,,,,,,,,1.0665,,,,,,,,,,,,,,,,,,,,,,610314f70be8d9402adf9c6f,61036c3ec47011d51cdbae68,2021-07-29_20h08.55.548,Simcolourproject_2stim_asymm_v5,2020.2.10,MacIntel,60,61025ae37ef11b136ea224fe,,,,,,,,,4094,37.84765625,82.80078125,1,0,0,response1disk,,7,-5.6640625,3.57421875,1,0,0,rectangle,-5.6640625,3.57421875,1,0,0,-5.6640625,3.57421875,1,0,0,0,22,22,145,1,,,,,,,,
,,,,,,,,,,,,,FF,,,,,,,,1.9168,,,,,,,,,,,,,,,,,,,,,,610314f70be8d9402adf9c6f,61036c3ec47011d51cdbae68,2021-07-29_20h08.55.548,Simcolourproject_2stim_asymm_v5,2020.2.10,MacIntel,60,61025ae37ef11b136ea224fe,,,,,,,,,686,54.71484375,88.890625,1,0,0,response1disk,,7,-2.5,8.56640625,1,0,0,rectangle,-2.5,8.56640625,1,0,0,-2.5,8.56640625,1,0,0,0,23,23,150,1,,,,,,,,
,,,,,,,,,,,,,FF,,,,,,,,1.7001,,,,,,,,,,,,,,,,,,,,,,610314f70be8d9402adf9c6f,61036c3ec47011d51cdbae68,2021-07-29_20h08.55.548,Simcolourproject_2stim_asymm_v5,2020.2.10,MacIntel,60,61025ae37ef11b136ea224fe,,,,,,,,,1980,96.7890625,55.7109375,1,0,0,response1disk,,6,11.640625,1.140625,1,0,0,rectangle,11.640625,1.140625,1,0,0,11.640625,1.140625,1,0,0,0,24,24,98,1,,,,,,,,
,,,,,,,,,,,,,FF,,,,,,,,0.9334,,,,,,,,,,,,,,,,,,,,,,610314f70be8d9402adf9c6f,61036c3ec47011d51cdbae68,2021-07-29_20h08.55.548,Simcolourproject_2stim_asymm_v5,2020.2.10,MacIntel,60,61025ae37ef11b136ea224fe,,,,,,,,,2063,79.28515625,34.73828125,1,0,0,response1disk,,6,4.56640625,3.5703125,1,0,0,rectangle,4.56640625,3.5703125,1,0,0,4.56640625,3.5703125,1,0,0,0,25,25,57,1,,,,,,,,
,,,,,,,,,,,,,FF,,,,,,,,1.4501,,,,,,,,,,,,,,,,,,,,,,610314f70be8d9402adf9c6f,61036c3ec47011d51cdbae68,2021-07-29_20h08.55.548,Simcolourproject_2stim_asymm_v5,2020.2.10,MacIntel,60,61025ae37ef11b136ea224fe,,,,,,,,,3058,37.94921875,-103.2695313,1,0,0,response3disk,,4,5.734375,-2.4140625,1,0,0,rectangle,5.734375,-2.4140625,1,0,0,5.734375,-2.4140625,1,0,0,0,26,26,53,1,,,,,,,,
,,,,,,,,,,,,,FF,,,,,,,,1.2493,,,,,,,,,,,,,,,,,,,,,,610314f70be8d9402adf9c6f,61036c3ec47011d51cdbae68,2021-07-29_20h08.55.548,Simcolourproject_2stim_asymm_v5,2020.2.10,MacIntel,60,61025ae37ef11b136ea224fe,,,,,,,,,2579,114.625,45.8046875,1,0,0,response1disk,,6,7.4296875,2.140625,1,0,0,rectangle,7.4296875,2.140625,1,0,0,7.4296875,2.140625,1,0,0,0,27,27,99,1,,,,,,,,
,,,,,,,,,,,,,FF,,,,,,,,2.2332,,,,,,,,,,,,,,,,,,,,,,610314f70be8d9402adf9c6f,61036c3ec47011d51cdbae68,2021-07-29_20h08.55.548,Simcolourproject_2stim_asymm_v5,2020.2.10,MacIntel,60,61025ae37ef11b136ea224fe,,,,,,,,,2548,115.296875,58.60546875,1,0,0,response1disk,,6,13.234375,3.05078125,1,0,0,rectangle,13.234375,3.05078125,1,0,0,13.234375,3.05078125,1,0,0,0,28,28,84,1,,,,,,,,
,,,,,,,,,,,,,FF,,,,,,,,1.4344,,,,,,,,,,,,,,,,,,,,,,610314f70be8d9402adf9c6f,61036c3ec47011d51cdbae68,2021-07-29_20h08.55.548,Simcolourproject_2stim_asymm_v5,2020.2.10,MacIntel,60,61025ae37ef11b136ea224fe,,,,,,,,,3858,77.15234375,36.09765625,1,0,0,response1disk,,6,23.1328125,7.26953125,1,0,0,rectangle,23.1328125,7.26953125,1,0,0,23.1328125,7.26953125,1,0,0,0,29,29,120,1,,,,,,,,
,,,,,,,,,,,,,FF,,,,,,,,2.6853,,,,,,,,,,,,,,,,,,,,,,610314f70be8d9402adf9c6f,61036c3ec47011d51cdbae68,2021-07-29_20h08.55.548,Simcolourproject_2stim_asymm_v5,2020.2.10,MacIntel,60,61025ae37ef11b136ea224fe,,,,,,,,,1369,96.90625,32.06640625,1,0,0,response1disk,,6,28.578125,8.9921875,1,0,0,rectangle,28.578125,8.9921875,1,0,0,28.578125,8.9921875,1,0,0,0,30,30,127,1,,,,,,,,
,,,,,,,,,,,,,FF,,,,,,,,1.1166,,,,,,,,,,,,,,,,,,,,,,610314f70be8d9402adf9c6f,61036c3ec47011d51cdbae68,2021-07-29_20h08.55.548,Simcolourproject_2stim_asymm_v5,2020.2.10,MacIntel,60,61025ae37ef11b136ea224fe,,,,,,,,,2804,90.15234375,36.9921875,1,0,0,response1disk,,6,16.6328125,11.1484375,1,0,0,rectangle,16.6328125,11.1484375,1,0,0,16.6328125,11.1484375,1,0,0,0,31,31,157,1,,,,,,,,
,,,,,,,,,,,,,FF,,,,,,,,1.0001,,,,,,,,,,,,,,,,,,,,,,610314f70be8d9402adf9c6f,61036c3ec47011d51cdbae68,2021-07-29_20h08.55.548,Simcolourproject_2stim_asymm_v5,2020.2.10,MacIntel,60,61025ae37ef11b136ea224fe,,,,,,,,,1423,47.07421875,91.60546875,1,0,0,response1disk,,7,8.35546875,4.92578125,1,0,0,rectangle,8.35546875,4.92578125,1,0,0,8.35546875,4.92578125,1,0,0,0,32,32,69,1,,,,,,,,
,,,,,,,,,,,,,FF,,,,,,,,0.8156,,,,,,,,,,,,,,,,,,,,,,610314f70be8d9402adf9c6f,61036c3ec47011d51cdbae68,2021-07-29_20h08.55.548,Simcolourproject_2stim_asymm_v5,2020.2.10,MacIntel,60,61025ae37ef11b136ea224fe,,,,,,,,,3370,39.26953125,93.30078125,1,0,0,response1disk,,7,7.66796875,-2.890625,1,0,0,rectangle,7.66796875,-2.890625,1,0,0,7.66796875,-2.890625,1,0,0,0,33,33,25,1,,,,,,,,
,,,,,,,,,,,,,FF,,,,,,,,1.0519,,,,,,,,,,,,,,,,,,,,,,610314f70be8d9402adf9c6f,61036c3ec47011d51cdbae68,2021-07-29_20h08.55.548,Simcolourproject_2stim_asymm_v5,2020.2.10,MacIntel,60,61025ae37ef11b136ea224fe,,,,,,,,,993,76.13671875,49.0859375,1,0,0,response1disk,,6,-14.8984375,-16.32421875,1,0,0,rectangle,96.71875,-23.12890625,1,0,0,7.32421875,-1.10546875,1,0,0,0,34,34,70,1,,response3disk_3,TRUE,5,5,"[4,108,323,10,57,73,46,96,304,289,205,113,263,298,318,311,47,270,260,35]",1.6177,rectangle
,,,,,,,,,,,,,FF,,,,,,,,3.8007,,,,,,,,,,,,,,,,,,,,,,610314f70be8d9402adf9c6f,61036c3ec47011d51cdbae68,2021-07-29_20h08.55.548,Simcolourproject_2stim_asymm_v5,2020.2.10,MacIntel,60,61025ae37ef11b136ea224fe,,,,,,,,,3452,42.0390625,107.8984375,1,0,0,response1disk,,7,10.17578125,9.3515625,1,0,0,rectangle,10.17578125,9.3515625,1,0,0,10.17578125,9.3515625,1,0,0,0,35,35,23,1,,,,,,,,
,,,,,,,,,,,,,FF,,,,,,,,1.1322,,,,,,,,,,,,,,,,,,,,,,610314f70be8d9402adf9c6f,61036c3ec47011d51cdbae68,2021-07-29_20h08.55.548,Simcolourproject_2stim_asymm_v5,2020.2.10,MacIntel,60,61025ae37ef11b136ea224fe,,,,,,,,,3996,82.83203125,-34.76953125,1,0,0,response3disk,,5,13.28125,11.75,1,0,0,rectangle,13.28125,11.75,1,0,0,13.28125,11.75,1,0,0,0,36,36,68,1,,,,,,,,
,,,,,,,,,,,,,FF,,,,,,,,0.967,,,,,,,,,,,,,,,,,,,,,,610314f70be8d9402adf9c6f,61036c3ec47011d51cdbae68,2021-07-29_20h08.55.548,Simcolourproject_2stim_asymm_v5,2020.2.10,MacIntel,60,61025ae37ef11b136ea224fe,,,,,,,,,1133,48.875,-91.15625,1,0,0,response3disk,,4,-1.484375,5.57421875,1,0,0,rectangle,-1.484375,5.57421875,1,0,0,-1.484375,5.57421875,1,0,0,0,37,37,146,1,,,,,,,,
,,,,,,,,,,,,,FF,,,,,,,,1.318,,,,,,,,,,,,,,,,,,,,,,610314f70be8d9402adf9c6f,61036c3ec47011d51cdbae68,2021-07-29_20h08.55.548,Simcolourproject_2stim_asymm_v5,2020.2.10,MacIntel,60,61025ae37ef11b136ea224fe,,,,,,,,,2211,64.82421875,102.8085938,1,0,0,response1disk,,7,14.87109375,14.1328125,1,0,0,rectangle,14.87109375,14.1328125,1,0,0,14.87109375,14.1328125,1,0,0,0,38,38,77,1,,,,,,,,
,,,,,,,,,,,,,FF,,,,,,,,0.6658,,,,,,,,,,,,,,,,,,,,,,610314f70be8d9402adf9c6f,61036c3ec47011d51cdbae68,2021-07-29_20h08.55.548,Simcolourproject_2stim_asymm_v5,2020.2.10,MacIntel,60,61025ae37ef11b136ea224fe,,,,,,,,,1537,93.46484375,28.44921875,1,0,0,response1disk,,6,14.8984375,4.234375,1,0,0,rectangle,14.8984375,4.234375,1,0,0,14.8984375,4.234375,1,0,0,0,39,39,123,1,,,,,,,,
,,,,,,,,,,,,,FF,,,,,,,,1.0667,,,,,,,,,,,,,,,,,,,,,,610314f70be8d9402adf9c6f,61036c3ec47011d51cdbae68,2021-07-29_20h08.55.548,Simcolourproject_2stim_asymm_v5,2020.2.10,MacIntel,60,61025ae37ef11b136ea224fe,,,,,,,,,2718,-114.5273438,29.65234375,1,0,0,response7disk,,1,6.49609375,2.671875,1,0,0,rectangle,6.49609375,2.671875,1,0,0,6.49609375,2.671875,1,0,0,0,40,40,87,1,,,,,,,,
,,,,,,,,,,,,,FF,,,,,,,,0.9661,,,,,,,,,,,,,,,,,,,,,,610314f70be8d9402adf9c6f,61036c3ec47011d51cdbae68,2021-07-29_20h08.55.548,Simcolourproject_2stim_asymm_v5,2020.2.10,MacIntel,60,61025ae37ef11b136ea224fe,,,,,,,,,1454,-107.1328125,37.734375,1,0,0,response7disk,,1,0.99609375,-8.93359375,1,0,0,rectangle,0.99609375,-8.93359375,1,0,0,0.99609375,-8.93359375,1,0,0,0,41,41,74,1,,,,,,,,
,,,,,,,,,,,,,FF,,,,,,,,1.0499,,,,,,,,,,,,,,,,,,,,,,610314f70be8d9402adf9c6f,61036c3ec47011d51cdbae68,2021-07-29_20h08.55.548,Simcolourproject_2stim_asymm_v5,2020.2.10,MacIntel,60,61025ae37ef11b136ea224fe,,,,,,,,,3331,-96.76953125,-85.3828125,1,0,0,response5disk,,2,0.890625,-2.4296875,1,0,0,rectangle,0.890625,-2.4296875,1,0,0,0.890625,-2.4296875,1,0,0,0,42,42,12,1,,,,,,,,
,,,,,,,,,,,,,FF,,,,,,,,1.2172,,,,,,,,,,,,,,,,,,,,,,610314f70be8d9402adf9c6f,61036c3ec47011d51cdbae68,2021-07-29_20h08.55.548,Simcolourproject_2stim_asymm_v5,2020.2.10,MacIntel,60,61025ae37ef11b136ea224fe,,,,,,,,,2276,98.68359375,40.81640625,1,0,0,response1disk,,6,13.8671875,3.9921875,1,0,0,rectangle,13.8671875,3.9921875,1,0,0,13.8671875,3.9921875,1,0,0,0,43,43,56,1,,,,,,,,
,,,,,,,,,,,,,FF,,,,,,,,0.85,,,,,,,,,,,,,,,,,,,,,,610314f70be8d9402adf9c6f,61036c3ec47011d51cdbae68,2021-07-29_20h08.55.548,Simcolourproject_2stim_asymm_v5,2020.2.10,MacIntel,60,61025ae37ef11b136ea224fe,,,,,,,,,1872,104.421875,36.75,1,0,0,response1disk,,6,3.046875,0.92578125,1,0,0,rectangle,3.046875,0.92578125,1,0,0,3.046875,0.92578125,1,0,0,0,44,44,36,1,,,,,,,,
,,,,,,,,,,,,,FF,,,,,,,,1.2998,,,,,,,,,,,,,,,,,,,,,,610314f70be8d9402adf9c6f,61036c3ec47011d51cdbae68,2021-07-29_20h08.55.548,Simcolourproject_2stim_asymm_v5,2020.2.10,MacIntel,60,61025ae37ef11b136ea224fe,,,,,,,,,2108,94.4609375,29.26953125,1,0,0,response1disk,,6,7.2734375,-13.15234375,1,0,0,rectangle,-89.3671875,-56.20703125,1,0,0,-9.98828125,-3.8984375,1,0,0,0,45,45,141,1,,response5disk_3,TRUE,2,2,"[4,108,323,10,57,73,46,96,304,289,205,113,263,298,318,311,47,270,260,35]",1.6676,rectangle
,,,,,,,,,,,,,FF,,,,,,,,0.7993,,,,,,,,,,,,,,,,,,,,,,610314f70be8d9402adf9c6f,61036c3ec47011d51cdbae68,2021-07-29_20h08.55.548,Simcolourproject_2stim_asymm_v5,2020.2.10,MacIntel,60,61025ae37ef11b136ea224fe,,,,,,,,,3690,95.06640625,37.52734375,1,0,0,response1disk,,6,4.61328125,-1.3203125,1,0,0,rectangle,51.421875,-108.4179688,1,0,0,5.453125,8.87890625,1,0,0,0,46,46,88,1,,response3disk_3,TRUE,4,4,"[4,108,323,10,57,73,46,96,304,289,205,113,263,298,318,311,47,270,260,35]",2.2994,rectangle
,,,,,,,,,,,,,FF,,,,,,,,2.1003,,,,,,,,,,,,,,,,,,,,,,610314f70be8d9402adf9c6f,61036c3ec47011d51cdbae68,2021-07-29_20h08.55.548,Simcolourproject_2stim_asymm_v5,2020.2.10,MacIntel,60,61025ae37ef11b136ea224fe,,,,,,,,,273,35.37890625,107.2617188,1,0,0,response1disk,,7,-8.4921875,-4.28125,1,0,0,rectangle,-8.4921875,-4.28125,1,0,0,-8.4921875,-4.28125,1,0,0,0,47,47,138,1,,,,,,,,
,,,,,,,,,,,,,FF,,,,,,,,0.9498,,,,,,,,,,,,,,,,,,,,,,610314f70be8d9402adf9c6f,61036c3ec47011d51cdbae68,2021-07-29_20h08.55.548,Simcolourproject_2stim_asymm_v5,2020.2.10,MacIntel,60,61025ae37ef11b136ea224fe,,,,,,,,,3686,99.02734375,49.8984375,1,0,0,response1disk,,6,-8.3828125,-2.7734375,1,0,0,rectangle,-8.3828125,-2.7734375,1,0,0,-8.3828125,-2.7734375,1,0,0,0,48,48,151,1,,,,,,,,
,,,,,,,,,,,,,FF,,,,,,,,1.9337,,,,,,,,,,,,,,,,,,,,,,610314f70be8d9402adf9c6f,61036c3ec47011d51cdbae68,2021-07-29_20h08.55.548,Simcolourproject_2stim_asymm_v5,2020.2.10,MacIntel,60,61025ae37ef11b136ea224fe,,,,,,,,,106,105.1289063,42.609375,1,0,0,response1disk,,6,5.8125,-3.0546875,1,0,0,rectangle,5.8125,-3.0546875,1,0,0,5.8125,-3.0546875,1,0,0,0,49,49,28,1,,,,,,,,
,,,,,,,,,,,,,FF,,,,,,,,3.4342,,,,,,,,,,,,,,,,,,,,,,610314f70be8d9402adf9c6f,61036c3ec47011d51cdbae68,2021-07-29_20h08.55.548,Simcolourproject_2stim_asymm_v5,2020.2.10,MacIntel,60,61025ae37ef11b136ea224fe,,,,,,,,,551,43.9453125,-104.1015625,1,0,0,response3disk,,4,14.12109375,4.08984375,1,0,0,rectangle,14.12109375,4.08984375,1,0,0,14.12109375,4.08984375,1,0,0,0,50,50,115,1,,,,,,,,
,,,,,,,,,,,,,FF,,,,,,,,0.8173,,,,,,,,,,,,,,,,,,,,,,610314f70be8d9402adf9c6f,61036c3ec47011d51cdbae68,2021-07-29_20h08.55.548,Simcolourproject_2stim_asymm_v5,2020.2.10,MacIntel,60,61025ae37ef11b136ea224fe,,,,,,,,,2903,103.3515625,-43.25,1,0,0,response3disk,,5,3.9765625,4.80859375,1,0,0,rectangle,3.9765625,4.80859375,1,0,0,3.9765625,4.80859375,1,0,0,0,51,51,47,1,,,,,,,,
,,,,,,,,,,,,,FF,,,,,,,,1.35,,,,,,,,,,,,,,,,,,,,,,610314f70be8d9402adf9c6f,61036c3ec47011d51cdbae68,2021-07-29_20h08.55.548,Simcolourproject_2stim_asymm_v5,2020.2.10,MacIntel,60,61025ae37ef11b136ea224fe,,,,,,,,,332,54.84375,90.69921875,1,0,0,response1disk,,7,-9.25,-12.859375,1,0,0,rectangle,-9.25,-12.859375,1,0,0,-9.25,-12.859375,1,0,0,0,52,52,91,1,,,,,,,,
,,,,,,,,,,,,,FF,,,,,,,,1.3665,,,,,,,,,,,,,,,,,,,,,,610314f70be8d9402adf9c6f,61036c3ec47011d51cdbae68,2021-07-29_20h08.55.548,Simcolourproject_2stim_asymm_v5,2020.2.10,MacIntel,60,61025ae37ef11b136ea224fe,,,,,,,,,1922,31.58203125,102.09375,1,0,0,response1disk,,7,16.0078125,11.76171875,1,0,0,rectangle,16.0078125,11.76171875,1,0,0,16.0078125,11.76171875,1,0,0,0,53,53,58,1,,,,,,,,
,,,,,,,,,,,,,FF,,,,,,,,3.8487,,,,,,,,,,,,,,,,,,,,,,610314f70be8d9402adf9c6f,61036c3ec47011d51cdbae68,2021-07-29_20h08.55.548,Simcolourproject_2stim_asymm_v5,2020.2.10,MacIntel,60,61025ae37ef11b136ea224fe,,,,,,,,,1575,104.9140625,51.12109375,1,0,0,response1disk,,6,-18.484375,-9.2421875,1,0,0,rectangle,-18.484375,-9.2421875,1,0,0,-18.484375,-9.2421875,1,0,0,0,54,54,122,1,,,,,,,,
,,,,,,,,,,,,,FF,,,,,,,,0.7167,,,,,,,,,,,,,,,,,,,,,,610314f70be8d9402adf9c6f,61036c3ec47011d51cdbae68,2021-07-29_20h08.55.548,Simcolourproject_2stim_asymm_v5,2020.2.10,MacIntel,60,61025ae37ef11b136ea224fe,,,,,,,,,499,90.21484375,20.2890625,1,0,0,response1disk,,6,11.58984375,-2.16796875,1,0,0,rectangle,11.58984375,-2.16796875,1,0,0,11.58984375,-2.16796875,1,0,0,0,55,55,0,1,,,,,,,,
,,,,,,,,,,,,,FF,,,,,,,,1.3676,,,,,,,,,,,,,,,,,,,,,,610314f70be8d9402adf9c6f,61036c3ec47011d51cdbae68,2021-07-29_20h08.55.548,Simcolourproject_2stim_asymm_v5,2020.2.10,MacIntel,60,61025ae37ef11b136ea224fe,,,,,,,,,2899,97.0625,-44.60546875,1,0,0,response3disk,,5,-2.51171875,-4.1484375,1,0,0,rectangle,104.9921875,-26.2734375,1,0,0,-24.23828125,-2.8359375,1,0,0,0,56,56,153,1,,response3disk_3,TRUE,5,5,"[4,108,323,10,57,73,46,96,304,289,205,113,263,298,318,311,47,270,260,35]",1.5325,rectangle
,,,,,,,,,,,,,FF,,,,,,,,1.033,,,,,,,,,,,,,,,,,,,,,,610314f70be8d9402adf9c6f,61036c3ec47011d51cdbae68,2021-07-29_20h08.55.548,Simcolourproject_2stim_asymm_v5,2020.2.10,MacIntel,60,61025ae37ef11b136ea224fe,,,,,,,,,801,-70.1875,-31.4453125,1,0,0,response5disk,,2,-4.89453125,-1.66796875,1,0,0,rectangle,-4.89453125,-1.66796875,1,0,0,-4.89453125,-1.66796875,1,0,0,0,57,57,112,1,,,,,,,,
,,,,,,,,,,,,,FF,,,,,,,,0.9818,,,,,,,,,,,,,,,,,,,,,,610314f70be8d9402adf9c6f,61036c3ec47011d51cdbae68,2021-07-29_20h08.55.548,Simcolourproject_2stim_asymm_v5,2020.2.10,MacIntel,60,61025ae37ef11b136ea224fe,,,,,,,,,4018,114.2382813,36.0234375,1,0,0,response1disk,,6,2.41796875,4.78515625,1,0,0,rectangle,2.41796875,4.78515625,1,0,0,2.41796875,4.78515625,1,0,0,0,58,58,43,1,,,,,,,,
,,,,,,,,,,,,,FF,,,,,,,,1.7817,,,,,,,,,,,,,,,,,,,,,,610314f70be8d9402adf9c6f,61036c3ec47011d51cdbae68,2021-07-29_20h08.55.548,Simcolourproject_2stim_asymm_v5,2020.2.10,MacIntel,60,61025ae37ef11b136ea224fe,,,,,,,,,3754,94.0234375,-45.55078125,1,0,0,response3disk,,5,-31.03515625,9.4453125,1,0,0,rectangle,-31.03515625,9.4453125,1,0,0,-31.03515625,9.4453125,1,0,0,0,59,59,118,1,,,,,,,,
,,,,,,,,,,,,,FF,,,,,,,,1.4005,,,,,,,,,,,,,,,,,,,,,,610314f70be8d9402adf9c6f,61036c3ec47011d51cdbae68,2021-07-29_20h08.55.548,Simcolourproject_2stim_asymm_v5,2020.2.10,MacIntel,60,61025ae37ef11b136ea224fe,,,,,,,,,1849,87.17578125,26.60546875,1,0,0,response1disk,,6,10.93359375,-8.66796875,1,0,0,rectangle,10.93359375,-8.66796875,1,0,0,10.93359375,-8.66796875,1,0,0,0,60,60,34,1,,,,,,,,
,,,,,,,,,,,,,FF,,,,,,,,1.8181,,,,,,,,,,,,,,,,,,,,,,610314f70be8d9402adf9c6f,61036c3ec47011d51cdbae68,2021-07-29_20h08.55.548,Simcolourproject_2stim_asymm_v5,2020.2.10,MacIntel,60,61025ae37ef11b136ea224fe,,,,,,,,,1631,106.7773438,32.11328125,1,0,0,response1disk,,6,9.46875,5,1,0,0,rectangle,9.46875,5,1,0,0,9.46875,5,1,0,0,0,61,61,37,1,,,,,,,,
,,,,,,,,,,,,,FF,,,,,,,,2.0492,,,,,,,,,,,,,,,,,,,,,,610314f70be8d9402adf9c6f,61036c3ec47011d51cdbae68,2021-07-29_20h08.55.548,Simcolourproject_2stim_asymm_v5,2020.2.10,MacIntel,60,61025ae37ef11b136ea224fe,,,,,,,,,1566,58.11328125,83.59375,1,0,0,response1disk,,7,-2.57421875,-10.04296875,1,0,0,rectangle,-2.57421875,-10.04296875,1,0,0,-2.57421875,-10.04296875,1,0,0,0,62,62,14,1,,,,,,,,
,,,,,,,,,,,,,FF,,,,,,,,0.8169,,,,,,,,,,,,,,,,,,,,,,610314f70be8d9402adf9c6f,61036c3ec47011d51cdbae68,2021-07-29_20h08.55.548,Simcolourproject_2stim_asymm_v5,2020.2.10,MacIntel,60,61025ae37ef11b136ea224fe,,,,,,,,,3697,32.578125,90.8359375,1,0,0,response1disk,,7,13.35546875,-0.2578125,1,0,0,rectangle,13.35546875,-0.2578125,1,0,0,13.35546875,-0.2578125,1,0,0,0,63,63,42,1,,,,,,,,
,,,,,,,,,,,,,FF,,,,,,,,1.8502,,,,,,,,,,,,,,,,,,,,,,610314f70be8d9402adf9c6f,61036c3ec47011d51cdbae68,2021-07-29_20h08.55.548,Simcolourproject_2stim_asymm_v5,2020.2.10,MacIntel,60,61025ae37ef11b136ea224fe,,,,,,,,,1795,37.109375,62.68359375,1,0,0,response1disk,,7,-3.08984375,-7.4765625,1,0,0,rectangle,-3.08984375,-7.4765625,1,0,0,-3.08984375,-7.4765625,1,0,0,0,64,64,49,1,,,,,,,,
,,,,,,,,,,,,,FF,,,,,,,,0.8685,,,,,,,,,,,,,,,,,,,,,,610314f70be8d9402adf9c6f,61036c3ec47011d51cdbae68,2021-07-29_20h08.55.548,Simcolourproject_2stim_asymm_v5,2020.2.10,MacIntel,60,61025ae37ef11b136ea224fe,,,,,,,,,690,55.23046875,80.17578125,1,0,0,response1disk,,7,5.11328125,0.02734375,1,0,0,rectangle,5.11328125,0.02734375,1,0,0,5.11328125,0.02734375,1,0,0,0,65,65,22,1,,,,,,,,
,,,,,,,,,,,,,FF,,,,,,,,1.5841,,,,,,,,,,,,,,,,,,,,,,610314f70be8d9402adf9c6f,61036c3ec47011d51cdbae68,2021-07-29_20h08.55.548,Simcolourproject_2stim_asymm_v5,2020.2.10,MacIntel,60,61025ae37ef11b136ea224fe,,,,,,,,,4182,104.4960938,-30.96484375,1,0,0,response3disk,,5,9.65625,6.484375,1,0,0,rectangle,9.65625,6.484375,1,0,0,9.65625,6.484375,1,0,0,0,66,66,155,1,,,,,,,,
,,,,,,,,,,,,,FF,,,,,,,,2.5506,,,,,,,,,,,,,,,,,,,,,,610314f70be8d9402adf9c6f,61036c3ec47011d51cdbae68,2021-07-29_20h08.55.548,Simcolourproject_2stim_asymm_v5,2020.2.10,MacIntel,60,61025ae37ef11b136ea224fe,,,,,,,,,2957,115.0664063,47.328125,1,0,0,response1disk,,6,6.1875,-17.03125,1,0,0,rectangle,6.1875,-17.03125,1,0,0,6.1875,-17.03125,1,0,0,0,67,67,62,1,,,,,,,,
,,,,,,,,,,,,,FF,,,,,,,,3.9176,,,,,,,,,,,,,,,,,,,,,,610314f70be8d9402adf9c6f,61036c3ec47011d51cdbae68,2021-07-29_20h08.55.548,Simcolourproject_2stim_asymm_v5,2020.2.10,MacIntel,60,61025ae37ef11b136ea224fe,,,,,,,,,1506,34.3515625,98.78125,1,0,0,response1disk,,7,-16.7890625,5.19140625,1,0,0,rectangle,-16.7890625,5.19140625,1,0,0,-16.7890625,5.19140625,1,0,0,0,68,68,8,1,,,,,,,,
,,,,,,,,,,,,,FF,,,,,,,,1.7492,,,,,,,,,,,,,,,,,,,,,,610314f70be8d9402adf9c6f,61036c3ec47011d51cdbae68,2021-07-29_20h08.55.548,Simcolourproject_2stim_asymm_v5,2020.2.10,MacIntel,60,61025ae37ef11b136ea224fe,,,,,,,,,2578,100.3320313,37.93359375,1,0,0,response1disk,,6,10.828125,3.14453125,1,0,0,rectangle,10.828125,3.14453125,1,0,0,10.828125,3.14453125,1,0,0,0,69,69,2,1,,,,,,,,
,,,,,,,,,,,,,FF,,,,,,,,1.1177,,,,,,,,,,,,,,,,,,,,,,610314f70be8d9402adf9c6f,61036c3ec47011d51cdbae68,2021-07-29_20h08.55.548,Simcolourproject_2stim_asymm_v5,2020.2.10,MacIntel,60,61025ae37ef11b136ea224fe,,,,,,,,,2440,86.921875,-36.55078125,1,0,0,response3disk,,5,23.8671875,-9.8125,1,0,0,rectangle,23.8671875,-9.8125,1,0,0,23.8671875,-9.8125,1,0,0,0,70,70,52,1,,,,,,,,
,,,,,,,,,,,,,FF,,,,,,,,0.7004,,,,,,,,,,,,,,,,,,,,,,610314f70be8d9402adf9c6f,61036c3ec47011d51cdbae68,2021-07-29_20h08.55.548,Simcolourproject_2stim_asymm_v5,2020.2.10,MacIntel,60,61025ae37ef11b136ea224fe,,,,,,,,,2544,78.23046875,-47.203125,1,0,0,response3disk,,5,-0.65234375,11.0390625,1,0,0,rectangle,-0.65234375,11.0390625,1,0,0,-0.65234375,11.0390625,1,0,0,0,71,71,33,1,,,,,,,,
,,,,,,,,,,,,,FF,,,,,,,,1.9832,,,,,,,,,,,,,,,,,,,,,,610314f70be8d9402adf9c6f,61036c3ec47011d51cdbae68,2021-07-29_20h08.55.548,Simcolourproject_2stim_asymm_v5,2020.2.10,MacIntel,60,61025ae37ef11b136ea224fe,,,,,,,,,1044,23.33203125,106.046875,1,0,0,response1disk,,7,8.30078125,-8.69140625,1,0,0,rectangle,100.125,-35.35546875,1,0,0,4.38671875,-2.48046875,1,0,0,0,72,72,64,1,,response3disk_3,TRUE,5,5,"[4,108,323,10,57,73,46,96,304,289,205,113,263,298,318,311,47,270,260,35]",1.4337,rectangle
,,,,,,,,,,,,,FF,,,,,,,,1.8683,,,,,,,,,,,,,,,,,,,,,,610314f70be8d9402adf9c6f,61036c3ec47011d51cdbae68,2021-07-29_20h08.55.548,Simcolourproject_2stim_asymm_v5,2020.2.10,MacIntel,60,61025ae37ef11b136ea224fe,,,,,,,,,667,47.671875,85.30078125,1,0,0,response1disk,,7,5.90234375,6.859375,1,0,0,rectangle,5.90234375,6.859375,1,0,0,5.90234375,6.859375,1,0,0,0,73,73,1,1,,,,,,,,
,,,,,,,,,,,,,FF,,,,,,,,1.2161,,,,,,,,,,,,,,,,,,,,,,610314f70be8d9402adf9c6f,61036c3ec47011d51cdbae68,2021-07-29_20h08.55.548,Simcolourproject_2stim_asymm_v5,2020.2.10,MacIntel,60,61025ae37ef11b136ea224fe,,,,,,,,,3246,95.53125,36.39453125,1,0,0,response1disk,,6,4.61328125,-2.93359375,1,0,0,rectangle,4.61328125,-2.93359375,1,0,0,4.61328125,-2.93359375,1,0,0,0,74,74,40,1,,,,,,,,
,,,,,,,,,,,,,FF,,,,,,,,1.3328,,,,,,,,,,,,,,,,,,,,,,610314f70be8d9402adf9c6f,61036c3ec47011d51cdbae68,2021-07-29_20h08.55.548,Simcolourproject_2stim_asymm_v5,2020.2.10,MacIntel,60,61025ae37ef11b136ea224fe,,,,,,,,,784,104.2734375,37.6953125,1,0,0,response1disk,,6,10.8359375,5.82421875,1,0,0,rectangle,10.8359375,5.82421875,1,0,0,10.8359375,5.82421875,1,0,0,0,75,75,31,1,,,,,,,,
,,,,,,,,,,,,,FF,,,,,,,,1.5159,,,,,,,,,,,,,,,,,,,,,,610314f70be8d9402adf9c6f,61036c3ec47011d51cdbae68,2021-07-29_20h08.55.548,Simcolourproject_2stim_asymm_v5,2020.2.10,MacIntel,60,61025ae37ef11b136ea224fe,,,,,,,,,1126,34.7578125,93.62109375,1,0,0,response1disk,,7,8.61328125,1.8359375,1,0,0,rectangle,8.61328125,1.8359375,1,0,0,8.61328125,1.8359375,1,0,0,0,76,76,90,1,,,,,,,,
,,,,,,,,,,,,,FF,,,,,,,,5.7498,,,,,,,,,,,,,,,,,,,,,,610314f70be8d9402adf9c6f,61036c3ec47011d51cdbae68,2021-07-29_20h08.55.548,Simcolourproject_2stim_asymm_v5,2020.2.10,MacIntel,60,61025ae37ef11b136ea224fe,,,,,,,,,378,100.78125,40.58203125,1,0,0,response1disk,,6,0.1484375,6.953125,1,0,0,rectangle,0.1484375,6.953125,1,0,0,0.1484375,6.953125,1,0,0,0,77,77,46,1,,,,,,,,
,,,,,,,,,,,,,FF,,,,,,,,0.9666,,,,,,,,,,,,,,,,,,,,,,610314f70be8d9402adf9c6f,61036c3ec47011d51cdbae68,2021-07-29_20h08.55.548,Simcolourproject_2stim_asymm_v5,2020.2.10,MacIntel,60,61025ae37ef11b136ea224fe,,,,,,,,,2473,99.75390625,49.59375,1,0,0,response1disk,,6,19.3515625,4.13671875,1,0,0,rectangle,19.3515625,4.13671875,1,0,0,19.3515625,4.13671875,1,0,0,0,78,78,6,1,,,,,,,,
,,,,,,,,,,,,,FF,,,,,,,,1.2173,,,,,,,,,,,,,,,,,,,,,,610314f70be8d9402adf9c6f,61036c3ec47011d51cdbae68,2021-07-29_20h08.55.548,Simcolourproject_2stim_asymm_v5,2020.2.10,MacIntel,60,61025ae37ef11b136ea224fe,,,,,,,,,2845,47.3359375,-78.99609375,1,0,0,response3disk,,4,-0.98828125,2.52734375,1,0,0,rectangle,-0.98828125,2.52734375,1,0,0,-0.98828125,2.52734375,1,0,0,0,79,79,159,1,,,,,,,,
,,,,,,,,,,,,,FF,,,,,,,,0.818,,,,,,,,,,,,,,,,,,,,,,610314f70be8d9402adf9c6f,61036c3ec47011d51cdbae68,2021-07-29_20h08.55.548,Simcolourproject_2stim_asymm_v5,2020.2.10,MacIntel,60,61025ae37ef11b136ea224fe,,,,,,,,,1940,128.609375,-27.11328125,1,0,0,response3disk,,5,-7.64453125,2.0390625,1,0,0,rectangle,-7.64453125,2.0390625,1,0,0,-7.64453125,2.0390625,1,0,0,0,80,80,19,1,,,,,,,,
,,,,,,,,,,,,,FF,,,,,,,,1.5835,,,,,,,,,,,,,,,,,,,,,,610314f70be8d9402adf9c6f,61036c3ec47011d51cdbae68,2021-07-29_20h08.55.548,Simcolourproject_2stim_asymm_v5,2020.2.10,MacIntel,60,61025ae37ef11b136ea224fe,,,,,,,,,375,-30.203125,-95.1875,1,0,0,response5disk,,3,-14.9375,-1.78515625,1,0,0,rectangle,-14.9375,-1.78515625,1,0,0,-14.9375,-1.78515625,1,0,0,0,81,81,80,1,,,,,,,,
,,,,,,,,,,,,,FF,,,,,,,,1.0678,,,,,,,,,,,,,,,,,,,,,,610314f70be8d9402adf9c6f,61036c3ec47011d51cdbae68,2021-07-29_20h08.55.548,Simcolourproject_2stim_asymm_v5,2020.2.10,MacIntel,60,61025ae37ef11b136ea224fe,,,,,,,,,3083,33.75390625,101.125,1,0,0,response1disk,,7,-10.03515625,-3.6171875,1,0,0,rectangle,-10.03515625,-3.6171875,1,0,0,-10.03515625,-3.6171875,1,0,0,0,82,82,54,1,,,,,,,,
,,,,,,,,,,,,,FF,,,,,,,,0.817,,,,,,,,,,,,,,,,,,,,,,610314f70be8d9402adf9c6f,61036c3ec47011d51cdbae68,2021-07-29_20h08.55.548,Simcolourproject_2stim_asymm_v5,2020.2.10,MacIntel,60,61025ae37ef11b136ea224fe,,,,,,,,,130,45.6015625,88.5625,1,0,0,response1disk,,7,7.60546875,2.1015625,1,0,0,rectangle,7.60546875,2.1015625,1,0,0,7.60546875,2.1015625,1,0,0,0,83,83,148,1,,,,,,,,
,,,,,,,,,,,,,FF,,,,,,,,0.95,,,,,,,,,,,,,,,,,,,,,,610314f70be8d9402adf9c6f,61036c3ec47011d51cdbae68,2021-07-29_20h08.55.548,Simcolourproject_2stim_asymm_v5,2020.2.10,MacIntel,60,61025ae37ef11b136ea224fe,,,,,,,,,473,87.09765625,41.44140625,1,0,0,response1disk,,6,22.54296875,14.734375,1,0,0,rectangle,22.54296875,14.734375,1,0,0,22.54296875,14.734375,1,0,0,0,84,84,76,1,,,,,,,,
,,,,,,,,,,,,,FF,,,,,,,,1.8673,,,,,,,,,,,,,,,,,,,,,,610314f70be8d9402adf9c6f,61036c3ec47011d51cdbae68,2021-07-29_20h08.55.548,Simcolourproject_2stim_asymm_v5,2020.2.10,MacIntel,60,61025ae37ef11b136ea224fe,,,,,,,,,4288,40.9453125,81.31640625,1,0,0,response1disk,,7,-3.90234375,-4.50390625,1,0,0,rectangle,-3.90234375,-4.50390625,1,0,0,-3.90234375,-4.50390625,1,0,0,0,85,85,114,1,,,,,,,,
,,,,,,,,,,,,,FF,,,,,,,,3.0826,,,,,,,,,,,,,,,,,,,,,,610314f70be8d9402adf9c6f,61036c3ec47011d51cdbae68,2021-07-29_20h08.55.548,Simcolourproject_2stim_asymm_v5,2020.2.10,MacIntel,60,61025ae37ef11b136ea224fe,,,,,,,,,1107,37.95703125,89.984375,1,0,0,response1disk,,7,9.60546875,5.40625,1,0,0,rectangle,9.60546875,5.40625,1,0,0,9.60546875,5.40625,1,0,0,0,86,86,81,1,,,,,,,,
,,,,,,,,,,,,,FF,,,,,,,,1.317,,,,,,,,,,,,,,,,,,,,,,610314f70be8d9402adf9c6f,61036c3ec47011d51cdbae68,2021-07-29_20h08.55.548,Simcolourproject_2stim_asymm_v5,2020.2.10,MacIntel,60,61025ae37ef11b136ea224fe,,,,,,,,,2284,75.91796875,-51.0546875,1,0,0,response3disk,,5,2.19140625,-8.4765625,1,0,0,rectangle,2.19140625,-8.4765625,1,0,0,2.19140625,-8.4765625,1,0,0,0,87,87,55,1,,,,,,,,
,,,,,,,,,,,,,FF,,,,,,,,1.1826,,,,,,,,,,,,,,,,,,,,,,610314f70be8d9402adf9c6f,61036c3ec47011d51cdbae68,2021-07-29_20h08.55.548,Simcolourproject_2stim_asymm_v5,2020.2.10,MacIntel,60,61025ae37ef11b136ea224fe,,,,,,,,,3028,94.73046875,51.32421875,1,0,0,response1disk,,6,3.359375,0.27734375,1,0,0,rectangle,3.359375,0.27734375,1,0,0,3.359375,0.27734375,1,0,0,0,88,88,154,1,,,,,,,,
,,,,,,,,,,,,,FF,,,,,,,,1.4167,,,,,,,,,,,,,,,,,,,,,,610314f70be8d9402adf9c6f,61036c3ec47011d51cdbae68,2021-07-29_20h08.55.548,Simcolourproject_2stim_asymm_v5,2020.2.10,MacIntel,60,61025ae37ef11b136ea224fe,,,,,,,,,3782,44.390625,-101.5507813,1,0,0,response3disk,,4,-6.15625,0.0859375,1,0,0,rectangle,-6.15625,0.0859375,1,0,0,-6.15625,0.0859375,1,0,0,0,89,89,75,1,,,,,,,,
,,,,,,,,,,,,,FF,,,,,,,,1.2002,,,,,,,,,,,,,,,,,,,,,,610314f70be8d9402adf9c6f,61036c3ec47011d51cdbae68,2021-07-29_20h08.55.548,Simcolourproject_2stim_asymm_v5,2020.2.10,MacIntel,60,61025ae37ef11b136ea224fe,,,,,,,,,1278,40.05078125,-63.95703125,1,0,0,response3disk,,4,-4.17578125,4.3125,1,0,0,rectangle,-4.17578125,4.3125,1,0,0,-4.17578125,4.3125,1,0,0,0,90,90,21,1,,,,,,,,
,,,,,,,,,,,,,FF,,,,,,,,1.2838,,,,,,,,,,,,,,,,,,,,,,610314f70be8d9402adf9c6f,61036c3ec47011d51cdbae68,2021-07-29_20h08.55.548,Simcolourproject_2stim_asymm_v5,2020.2.10,MacIntel,60,61025ae37ef11b136ea224fe,,,,,,,,,4043,107.6367188,40.265625,1,0,0,response1disk,,6,28.2421875,16.08203125,1,0,0,rectangle,28.2421875,16.08203125,1,0,0,28.2421875,16.08203125,1,0,0,0,91,91,132,1,,,,,,,,
,,,,,,,,,,,,,FF,,,,,,,,1.6504,,,,,,,,,,,,,,,,,,,,,,610314f70be8d9402adf9c6f,61036c3ec47011d51cdbae68,2021-07-29_20h08.55.548,Simcolourproject_2stim_asymm_v5,2020.2.10,MacIntel,60,61025ae37ef11b136ea224fe,,,,,,,,,4009,51.33203125,-97.1953125,1,0,0,response3disk,,4,-9.9453125,-10.09765625,1,0,0,rectangle,-9.9453125,-10.09765625,1,0,0,-9.9453125,-10.09765625,1,0,0,0,92,92,105,1,,,,,,,,
,,,,,,,,,,,,,FF,,,,,,,,1.4845,,,,,,,,,,,,,,,,,,,,,,610314f70be8d9402adf9c6f,61036c3ec47011d51cdbae68,2021-07-29_20h08.55.548,Simcolourproject_2stim_asymm_v5,2020.2.10,MacIntel,60,61025ae37ef11b136ea224fe,,,,,,,,,720,-91.74609375,-40.6171875,1,0,0,response5disk,,2,-6.87109375,-7.43359375,1,0,0,rectangle,-6.87109375,-7.43359375,1,0,0,-6.87109375,-7.43359375,1,0,0,0,93,93,29,1,,,,,,,,
,,,,,,,,,,,,,FF,,,,,,,,1.4318,,,,,,,,,,,,,,,,,,,,,,610314f70be8d9402adf9c6f,61036c3ec47011d51cdbae68,2021-07-29_20h08.55.548,Simcolourproject_2stim_asymm_v5,2020.2.10,MacIntel,60,61025ae37ef11b136ea224fe,,,,,,,,,583,51.078125,84.03515625,1,0,0,response1disk,,7,9.91796875,5.78125,1,0,0,rectangle,9.91796875,5.78125,1,0,0,9.91796875,5.78125,1,0,0,0,94,94,158,1,,,,,,,,
,,,,,,,,,,,,,FF,,,,,,,,2.0008,,,,,,,,,,,,,,,,,,,,,,610314f70be8d9402adf9c6f,61036c3ec47011d51cdbae68,2021-07-29_20h08.55.548,Simcolourproject_2stim_asymm_v5,2020.2.10,MacIntel,60,61025ae37ef11b136ea224fe,,,,,,,,,1788,48.328125,83.80078125,1,0,0,response1disk,,7,21.34375,4.859375,1,0,0,rectangle,91.27734375,67.59765625,1,0,0,2.87890625,3.296875,1,0,0,0,95,95,65,1,,response1disk_3,TRUE,6,6,"[4,108,323,10,57,73,46,96,304,289,205,113,263,298,318,311,47,270,260,35]",1.5656,rectangle
,,,,,,,,,,,,,FF,,,,,,,,3.2333,,,,,,,,,,,,,,,,,,,,,,610314f70be8d9402adf9c6f,61036c3ec47011d51cdbae68,2021-07-29_20h08.55.548,Simcolourproject_2stim_asymm_v5,2020.2.10,MacIntel,60,61025ae37ef11b136ea224fe,,,,,,,,,506,32.1875,81.6875,1,0,0,response1disk,,7,7.27734375,1.6796875,1,0,0,rectangle,7.27734375,1.6796875,1,0,0,7.27734375,1.6796875,1,0,0,0,96,96,48,1,,,,,,,,
,,,,,,,,,,,,,FF,,,,,,,,0.8001,,,,,,,,,,,,,,,,,,,,,,610314f70be8d9402adf9c6f,61036c3ec47011d51cdbae68,2021-07-29_20h08.55.548,Simcolourproject_2stim_asymm_v5,2020.2.10,MacIntel,60,61025ae37ef11b136ea224fe,,,,,,,,,579,26.578125,81.14453125,1,0,0,response1disk,,7,-1.41015625,1.39453125,1,0,0,rectangle,-1.41015625,1.39453125,1,0,0,-1.41015625,1.39453125,1,0,0,0,97,97,135,1,,,,,,,,
,,,,,,,,,,,,,FF,,,,,,,,0.767,,,,,,,,,,,,,,,,,,,,,,610314f70be8d9402adf9c6f,61036c3ec47011d51cdbae68,2021-07-29_20h08.55.548,Simcolourproject_2stim_asymm_v5,2020.2.10,MacIntel,60,61025ae37ef11b136ea224fe,,,,,,,,,1718,46.55859375,106.0195313,1,0,0,response1disk,,7,13.05078125,7.5625,1,0,0,rectangle,13.05078125,7.5625,1,0,0,13.05078125,7.5625,1,0,0,0,98,98,125,1,,,,,,,,
,,,,,,,,,,,,,FF,,,,,,,,3.1832,,,,,,,,,,,,,,,,,,,,,,610314f70be8d9402adf9c6f,61036c3ec47011d51cdbae68,2021-07-29_20h08.55.548,Simcolourproject_2stim_asymm_v5,2020.2.10,MacIntel,60,61025ae37ef11b136ea224fe,,,,,,,,,1025,76.390625,29.84375,1,0,0,response1disk,,6,-4.52734375,6.125,1,0,0,rectangle,-4.52734375,6.125,1,0,0,-4.52734375,6.125,1,0,0,0,99,99,144,1,,,,,,,,
,,,,,,,,,,,,,FF,,,,,,,,1.0323,,,,,,,,,,,,,,,,,,,,,,610314f70be8d9402adf9c6f,61036c3ec47011d51cdbae68,2021-07-29_20h08.55.548,Simcolourproject_2stim_asymm_v5,2020.2.10,MacIntel,60,61025ae37ef11b136ea224fe,,,,,,,,,2500,84.97265625,23.5546875,1,0,0,response1disk,,6,20.84375,6.7734375,1,0,0,rectangle,20.84375,6.7734375,1,0,0,20.84375,6.7734375,1,0,0,0,100,100,73,1,,,,,,,,
,,,,,,,,,,,,,FF,,,,,,,,0.9,,,,,,,,,,,,,,,,,,,,,,610314f70be8d9402adf9c6f,61036c3ec47011d51cdbae68,2021-07-29_20h08.55.548,Simcolourproject_2stim_asymm_v5,2020.2.10,MacIntel,60,61025ae37ef11b136ea224fe,,,,,,,,,1151,81.30859375,-40.46875,1,0,0,response3disk,,5,23.765625,-2.6796875,1,0,0,rectangle,23.765625,-2.6796875,1,0,0,23.765625,-2.6796875,1,0,0,0,101,101,5,1,,,,,,,,
,,,,,,,,,,,,,FF,,,,,,,,1.9661,,,,,,,,,,,,,,,,,,,,,,610314f70be8d9402adf9c6f,61036c3ec47011d51cdbae68,2021-07-29_20h08.55.548,Simcolourproject_2stim_asymm_v5,2020.2.10,MacIntel,60,61025ae37ef11b136ea224fe,,,,,,,,,616,-58.19140625,-108.5078125,1,0,0,response5disk,,3,-1.29296875,4.9609375,1,0,0,rectangle,-1.29296875,4.9609375,1,0,0,-1.29296875,4.9609375,1,0,0,0,102,102,66,1,,,,,,,,
,,,,,,,,,,,,,FF,,,,,,,,0.9333,,,,,,,,,,,,,,,,,,,,,,610314f70be8d9402adf9c6f,61036c3ec47011d51cdbae68,2021-07-29_20h08.55.548,Simcolourproject_2stim_asymm_v5,2020.2.10,MacIntel,60,61025ae37ef11b136ea224fe,,,,,,,,,3637,-82.71484375,-44.703125,1,0,0,response5disk,,2,-15.859375,-7.48046875,1,0,0,rectangle,-15.859375,-7.48046875,1,0,0,-15.859375,-7.48046875,1,0,0,0,103,103,126,1,,,,,,,,
,,,,,,,,,,,,,FF,,,,,,,,1.6664,,,,,,,,,,,,,,,,,,,,,,610314f70be8d9402adf9c6f,61036c3ec47011d51cdbae68,2021-07-29_20h08.55.548,Simcolourproject_2stim_asymm_v5,2020.2.10,MacIntel,60,61025ae37ef11b136ea224fe,,,,,,,,,1442,92.2109375,40.828125,1,0,0,response1disk,,6,15.02734375,1.65234375,1,0,0,rectangle,15.02734375,1.65234375,1,0,0,15.02734375,1.65234375,1,0,0,0,104,104,140,1,,,,,,,,
,,,,,,,,,,,,,FF,,,,,,,,1.3007,,,,,,,,,,,,,,,,,,,,,,610314f70be8d9402adf9c6f,61036c3ec47011d51cdbae68,2021-07-29_20h08.55.548,Simcolourproject_2stim_asymm_v5,2020.2.10,MacIntel,60,61025ae37ef11b136ea224fe,,,,,,,,,2060,49.3125,89.51171875,1,0,0,response1disk,,7,-0.578125,1.703125,1,0,0,rectangle,-0.578125,1.703125,1,0,0,-0.578125,1.703125,1,0,0,0,105,105,61,1,,,,,,,,
,,,,,,,,,,,,,FF,,,,,,,,1.4494,,,,,,,,,,,,,,,,,,,,,,610314f70be8d9402adf9c6f,61036c3ec47011d51cdbae68,2021-07-29_20h08.55.548,Simcolourproject_2stim_asymm_v5,2020.2.10,MacIntel,60,61025ae37ef11b136ea224fe,,,,,,,,,955,112.5117188,27.68359375,1,0,0,response1disk,,6,12.40625,-10.0546875,1,0,0,rectangle,12.40625,-10.0546875,1,0,0,12.40625,-10.0546875,1,0,0,0,106,106,38,1,,,,,,,,
,,,,,,,,,,,,,FF,,,,,,,,1.0007,,,,,,,,,,,,,,,,,,,,,,610314f70be8d9402adf9c6f,61036c3ec47011d51cdbae68,2021-07-29_20h08.55.548,Simcolourproject_2stim_asymm_v5,2020.2.10,MacIntel,60,61025ae37ef11b136ea224fe,,,,,,,,,2854,87.3125,-41.17578125,1,0,0,response3disk,,5,15.67578125,8.9609375,1,0,0,rectangle,-54.37109375,99.375,1,0,0,-10.71484375,6.54296875,1,0,0,0,107,107,92,1,,response7disk_3,TRUE,0,0,"[4,108,323,10,57,73,46,96,304,289,205,113,263,298,318,311,47,270,260,35]",1.9668,rectangle
,,,,,,,,,,,,,FF,,,,,,,,3.3175,,,,,,,,,,,,,,,,,,,,,,610314f70be8d9402adf9c6f,61036c3ec47011d51cdbae68,2021-07-29_20h08.55.548,Simcolourproject_2stim_asymm_v5,2020.2.10,MacIntel,60,61025ae37ef11b136ea224fe,,,,,,,,,1800,60.1484375,-38.84765625,1,0,0,response3disk,,5,3.09375,7.14453125,1,0,0,rectangle,3.09375,7.14453125,1,0,0,3.09375,7.14453125,1,0,0,0,108,108,15,1,,,,,,,,
,,,,,,,,,,,,,FF,,,,,,,,1.4167,,,,,,,,,,,,,,,,,,,,,,610314f70be8d9402adf9c6f,61036c3ec47011d51cdbae68,2021-07-29_20h08.55.548,Simcolourproject_2stim_asymm_v5,2020.2.10,MacIntel,60,61025ae37ef11b136ea224fe,,,,,,,,,2491,38.74609375,-81.59765625,1,0,0,response3disk,,4,18.0859375,9.76953125,1,0,0,rectangle,18.0859375,9.76953125,1,0,0,18.0859375,9.76953125,1,0,0,0,109,109,147,1,,,,,,,,
,,,,,,,,,,,,,FF,,,,,,,,2.1845,,,,,,,,,,,,,,,,,,,,,,610314f70be8d9402adf9c6f,61036c3ec47011d51cdbae68,2021-07-29_20h08.55.548,Simcolourproject_2stim_asymm_v5,2020.2.10,MacIntel,60,61025ae37ef11b136ea224fe,,,,,,,,,181,40.94140625,84.58984375,1,0,0,response1disk,,7,1.2265625,-16.72265625,1,0,0,rectangle,1.2265625,-16.72265625,1,0,0,1.2265625,-16.72265625,1,0,0,0,110,110,116,1,,,,,,,,
,,,,,,,,,,,,,FF,,,,,,,,0.6656,,,,,,,,,,,,,,,,,,,,,,610314f70be8d9402adf9c6f,61036c3ec47011d51cdbae68,2021-07-29_20h08.55.548,Simcolourproject_2stim_asymm_v5,2020.2.10,MacIntel,60,61025ae37ef11b136ea224fe,,,,,,,,,596,38.95703125,107.09375,1,0,0,response1disk,,7,6.52734375,9.64453125,1,0,0,rectangle,6.52734375,9.64453125,1,0,0,6.52734375,9.64453125,1,0,0,0,111,111,142,1,,,,,,,,
,,,,,,,,,,,,,FF,,,,,,,,0.95,,,,,,,,,,,,,,,,,,,,,,610314f70be8d9402adf9c6f,61036c3ec47011d51cdbae68,2021-07-29_20h08.55.548,Simcolourproject_2stim_asymm_v5,2020.2.10,MacIntel,60,61025ae37ef11b136ea224fe,,,,,,,,,2649,25.5390625,76.5859375,1,0,0,response1disk,,7,-2.6796875,-3.94140625,1,0,0,rectangle,50.61328125,-99.05078125,1,0,0,6.25390625,-5.390625,1,0,0,0,112,112,39,1,,response3disk_3,TRUE,4,4,"[4,108,323,10,57,73,46,96,304,289,205,113,263,298,318,311,47,270,260,35]",1.3997,rectangle
,,,,,,,,,,,,,FF,,,,,,,,0.9332,,,,,,,,,,,,,,,,,,,,,,610314f70be8d9402adf9c6f,61036c3ec47011d51cdbae68,2021-07-29_20h08.55.548,Simcolourproject_2stim_asymm_v5,2020.2.10,MacIntel,60,61025ae37ef11b136ea224fe,,,,,,,,,1308,-22.578125,-56.296875,1,0,0,response5disk,,3,-19.58203125,-4.140625,1,0,0,rectangle,-19.58203125,-4.140625,1,0,0,-19.58203125,-4.140625,1,0,0,0,113,113,137,1,,,,,,,,
,,,,,,,,,,,,,FF,,,,,,,,1.6991,,,,,,,,,,,,,,,,,,,,,,610314f70be8d9402adf9c6f,61036c3ec47011d51cdbae68,2021-07-29_20h08.55.548,Simcolourproject_2stim_asymm_v5,2020.2.10,MacIntel,60,61025ae37ef11b136ea224fe,,,,,,,,,2958,27.23828125,-80.62890625,1,0,0,response3disk,,4,26.85546875,3.97265625,1,0,0,rectangle,26.85546875,3.97265625,1,0,0,26.85546875,3.97265625,1,0,0,0,114,114,128,1,,,,,,,,
,,,,,,,,,,,,,FF,,,,,,,,2.5826,,,,,,,,,,,,,,,,,,,,,,610314f70be8d9402adf9c6f,61036c3ec47011d51cdbae68,2021-07-29_20h08.55.548,Simcolourproject_2stim_asymm_v5,2020.2.10,MacIntel,60,61025ae37ef11b136ea224fe,,,,,,,,,1493,26.51171875,57.7734375,1,0,0,response1disk,,7,23.875,4.90625,1,0,0,rectangle,23.875,4.90625,1,0,0,23.875,4.90625,1,0,0,0,115,115,152,1,,,,,,,,
,,,,,,,,,,,,,FF,,,,,,,,0.6336,,,,,,,,,,,,,,,,,,,,,,610314f70be8d9402adf9c6f,61036c3ec47011d51cdbae68,2021-07-29_20h08.55.548,Simcolourproject_2stim_asymm_v5,2020.2.10,MacIntel,60,61025ae37ef11b136ea224fe,,,,,,,,,3807,20.31640625,95.69921875,1,0,0,response1disk,,7,17.05859375,16.453125,1,0,0,rectangle,17.05859375,16.453125,1,0,0,17.05859375,16.453125,1,0,0,0,116,116,97,1,,,,,,,,
,,,,,,,,,,,,,FF,,,,,,,,1.2169,,,,,,,,,,,,,,,,,,,,,,610314f70be8d9402adf9c6f,61036c3ec47011d51cdbae68,2021-07-29_20h08.55.548,Simcolourproject_2stim_asymm_v5,2020.2.10,MacIntel,60,61025ae37ef11b136ea224fe,,,,,,,,,1267,97.9609375,49.3828125,1,0,0,response1disk,,6,5.109375,-4.43359375,1,0,0,rectangle,5.109375,-4.43359375,1,0,0,5.109375,-4.43359375,1,0,0,0,117,117,78,1,,,,,,,,
,,,,,,,,,,,,,FF,,,,,,,,1.0157,,,,,,,,,,,,,,,,,,,,,,610314f70be8d9402adf9c6f,61036c3ec47011d51cdbae68,2021-07-29_20h08.55.548,Simcolourproject_2stim_asymm_v5,2020.2.10,MacIntel,60,61025ae37ef11b136ea224fe,,,,,,,,,3837,83.9453125,-41.80078125,1,0,0,response3disk,,5,6.21484375,-2.671875,1,0,0,rectangle,6.21484375,-2.671875,1,0,0,6.21484375,-2.671875,1,0,0,0,118,118,149,1,,,,,,,,
,,,,,,,,,,,,,FF,,,,,,,,1.1664,,,,,,,,,,,,,,,,,,,,,,610314f70be8d9402adf9c6f,61036c3ec47011d51cdbae68,2021-07-29_20h08.55.548,Simcolourproject_2stim_asymm_v5,2020.2.10,MacIntel,60,61025ae37ef11b136ea224fe,,,,,,,,,2364,46.1171875,-95.6796875,1,0,0,response3disk,,4,-8.2890625,17.90625,1,0,0,rectangle,-8.2890625,17.90625,1,0,0,-8.2890625,17.90625,1,0,0,0,119,119,35,1,,,,,,,,
,,,,,,,,,,,,,FF,,,,,,,,0.6831,,,,,,,,,,,,,,,,,,,,,,610314f70be8d9402adf9c6f,61036c3ec47011d51cdbae68,2021-07-29_20h08.55.548,Simcolourproject_2stim_asymm_v5,2020.2.10,MacIntel,60,61025ae37ef11b136ea224fe,,,,,,,,,3834,58.53515625,90.1640625,1,0,0,response1disk,,7,-5.71484375,-10.2421875,1,0,0,rectangle,-5.71484375,-10.2421875,1,0,0,-5.71484375,-10.2421875,1,0,0,0,120,120,51,1,,,,,,,,
,,,,,,,,,,,,,FF,,,,,,,,1.6663,,,,,,,,,,,,,,,,,,,,,,610314f70be8d9402adf9c6f,61036c3ec47011d51cdbae68,2021-07-29_20h08.55.548,Simcolourproject_2stim_asymm_v5,2020.2.10,MacIntel,60,61025ae37ef11b136ea224fe,,,,,,,,,3557,54.421875,-85.7890625,1,0,0,response3disk,,4,6.12109375,-4.19140625,1,0,0,rectangle,6.12109375,-4.19140625,1,0,0,6.12109375,-4.19140625,1,0,0,0,121,121,9,1,,,,,,,,
,,,,,,,,,,,,,FF,,,,,,,,1.3332,,,,,,,,,,,,,,,,,,,,,,610314f70be8d9402adf9c6f,61036c3ec47011d51cdbae68,2021-07-29_20h08.55.548,Simcolourproject_2stim_asymm_v5,2020.2.10,MacIntel,60,61025ae37ef11b136ea224fe,,,,,,,,,1952,86.28515625,-33.86328125,1,0,0,response3disk,,5,-0.8984375,7.27734375,1,0,0,rectangle,-0.8984375,7.27734375,1,0,0,-0.8984375,7.27734375,1,0,0,0,122,122,59,1,,,,,,,,
,,,,,,,,,,,,,FF,,,,,,,,1.7683,,,,,,,,,,,,,,,,,,,,,,610314f70be8d9402adf9c6f,61036c3ec47011d51cdbae68,2021-07-29_20h08.55.548,Simcolourproject_2stim_asymm_v5,2020.2.10,MacIntel,60,61025ae37ef11b136ea224fe,,,,,,,,,1367,103.2890625,-37.3203125,1,0,0,response3disk,,5,20.5859375,-7.3046875,1,0,0,rectangle,20.5859375,-7.3046875,1,0,0,20.5859375,-7.3046875,1,0,0,0,123,123,7,1,,,,,,,,
,,,,,,,,,,,,,FF,,,,,,,,1.2672,,,,,,,,,,,,,,,,,,,,,,610314f70be8d9402adf9c6f,61036c3ec47011d51cdbae68,2021-07-29_20h08.55.548,Simcolourproject_2stim_asymm_v5,2020.2.10,MacIntel,60,61025ae37ef11b136ea224fe,,,,,,,,,2417,50.0625,113.90625,1,0,0,response1disk,,7,-9.1171875,2.09765625,1,0,0,rectangle,-9.1171875,2.09765625,1,0,0,-9.1171875,2.09765625,1,0,0,0,124,124,156,1,,,,,,,,
,,,,,,,,,,,,,FF,,,,,,,,0.9502,,,,,,,,,,,,,,,,,,,,,,610314f70be8d9402adf9c6f,61036c3ec47011d51cdbae68,2021-07-29_20h08.55.548,Simcolourproject_2stim_asymm_v5,2020.2.10,MacIntel,60,61025ae37ef11b136ea224fe,,,,,,,,,881,26.78515625,87.9609375,1,0,0,response1disk,,7,14.1640625,6.46484375,1,0,0,rectangle,14.1640625,6.46484375,1,0,0,14.1640625,6.46484375,1,0,0,0,125,125,113,1,,,,,,,,
,,,,,,,,,,,,,FF,,,,,,,,1.4826,,,,,,,,,,,,,,,,,,,,,,610314f70be8d9402adf9c6f,61036c3ec47011d51cdbae68,2021-07-29_20h08.55.548,Simcolourproject_2stim_asymm_v5,2020.2.10,MacIntel,60,61025ae37ef11b136ea224fe,,,,,,,,,3236,-29.5625,-84.45703125,1,0,0,response5disk,,3,-23.32421875,-13.81640625,1,0,0,rectangle,-23.32421875,-13.81640625,1,0,0,-23.32421875,-13.81640625,1,0,0,0,126,126,30,1,,,,,,,,
,,,,,,,,,,,,,FF,,,,,,,,0.8834,,,,,,,,,,,,,,,,,,,,,,610314f70be8d9402adf9c6f,61036c3ec47011d51cdbae68,2021-07-29_20h08.55.548,Simcolourproject_2stim_asymm_v5,2020.2.10,MacIntel,60,61025ae37ef11b136ea224fe,,,,,,,,,2460,51.2421875,73.58984375,1,0,0,response1disk,,7,22.53125,9.10546875,1,0,0,rectangle,22.53125,9.10546875,1,0,0,22.53125,9.10546875,1,0,0,0,127,127,143,1,,,,,,,,
,,,,,,,,,,,,,FF,,,,,,,,2.1668,,,,,,,,,,,,,,,,,,,,,,610314f70be8d9402adf9c6f,61036c3ec47011d51cdbae68,2021-07-29_20h08.55.548,Simcolourproject_2stim_asymm_v5,2020.2.10,MacIntel,60,61025ae37ef11b136ea224fe,,,,,,,,,566,24.625,71.43359375,1,0,0,response1disk,,7,7.04296875,1.3671875,1,0,0,rectangle,7.04296875,1.3671875,1,0,0,7.04296875,1.3671875,1,0,0,0,128,128,79,1,,,,,,,,
,,,,,,,,,,,,,FF,,,,,,,,1.6515,,,,,,,,,,,,,,,,,,,,,,610314f70be8d9402adf9c6f,61036c3ec47011d51cdbae68,2021-07-29_20h08.55.548,Simcolourproject_2stim_asymm_v5,2020.2.10,MacIntel,60,61025ae37ef11b136ea224fe,,,,,,,,,2057,23.2109375,87.1484375,1,0,0,response1disk,,7,-3.30078125,9,1,0,0,rectangle,-3.30078125,9,1,0,0,-3.30078125,9,1,0,0,0,129,129,10,1,,,,,,,,
,,,,,,,,,,,,,FF,,,,,,,,0.6504,,,,,,,,,,,,,,,,,,,,,,610314f70be8d9402adf9c6f,61036c3ec47011d51cdbae68,2021-07-29_20h08.55.548,Simcolourproject_2stim_asymm_v5,2020.2.10,MacIntel,60,61025ae37ef11b136ea224fe,,,,,,,,,2125,43.14453125,72.1875,1,0,0,response1disk,,7,10.140625,-8.6796875,1,0,0,rectangle,10.140625,-8.6796875,1,0,0,10.140625,-8.6796875,1,0,0,0,130,130,13,1,,,,,,,,
,,,,,,,,,,,,,FF,,,,,,,,2.6325,,,,,,,,,,,,,,,,,,,,,,610314f70be8d9402adf9c6f,61036c3ec47011d51cdbae68,2021-07-29_20h08.55.548,Simcolourproject_2stim_asymm_v5,2020.2.10,MacIntel,60,61025ae37ef11b136ea224fe,,,,,,,,,66,100.15625,40.5390625,1,0,0,response1disk,,6,10.26953125,-0.53125,1,0,0,rectangle,10.26953125,-0.53125,1,0,0,10.26953125,-0.53125,1,0,0,0,131,131,109,1,,,,,,,,
,,,,,,,,,,,,,FF,,,,,,,,0.6666,,,,,,,,,,,,,,,,,,,,,,610314f70be8d9402adf9c6f,61036c3ec47011d51cdbae68,2021-07-29_20h08.55.548,Simcolourproject_2stim_asymm_v5,2020.2.10,MacIntel,60,61025ae37ef11b136ea224fe,,,,,,,,,1707,27.35546875,64.79296875,1,0,0,response1disk,,7,-12.9921875,-1.2265625,1,0,0,rectangle,-12.9921875,-1.2265625,1,0,0,-12.9921875,-1.2265625,1,0,0,0,132,132,3,1,,,,,,,,
,,,,,,,,,,,,,FF,,,,,,,,0.9171,,,,,,,,,,,,,,,,,,,,,,610314f70be8d9402adf9c6f,61036c3ec47011d51cdbae68,2021-07-29_20h08.55.548,Simcolourproject_2stim_asymm_v5,2020.2.10,MacIntel,60,61025ae37ef11b136ea224fe,,,,,,,,,3606,80.08203125,106.9414063,1,0,0,response1disk,,7,-11.44921875,-5.39453125,1,0,0,rectangle,-11.44921875,-5.39453125,1,0,0,-11.44921875,-5.39453125,1,0,0,0,133,133,121,1,,,,,,,,
,,,,,,,,,,,,,FF,,,,,,,,0.8665,,,,,,,,,,,,,,,,,,,,,,610314f70be8d9402adf9c6f,61036c3ec47011d51cdbae68,2021-07-29_20h08.55.548,Simcolourproject_2stim_asymm_v5,2020.2.10,MacIntel,60,61025ae37ef11b136ea224fe,,,,,,,,,197,87.20703125,28.25,1,0,0,response1disk,,6,8.03515625,-2.66796875,1,0,0,rectangle,8.03515625,-2.66796875,1,0,0,8.03515625,-2.66796875,1,0,0,0,134,134,104,1,,,,,,,,
,,,,,,,,,,,,,FF,,,,,,,,0.7159,,,,,,,,,,,,,,,,,,,,,,610314f70be8d9402adf9c6f,61036c3ec47011d51cdbae68,2021-07-29_20h08.55.548,Simcolourproject_2stim_asymm_v5,2020.2.10,MacIntel,60,61025ae37ef11b136ea224fe,,,,,,,,,1744,90.8046875,-38.44921875,1,0,0,response3disk,,5,18.03515625,15.6953125,1,0,0,rectangle,18.03515625,15.6953125,1,0,0,18.03515625,15.6953125,1,0,0,0,135,135,83,1,,,,,,,,
,,,,,,,,,,,,,FF,,,,,,,,1.8508,,,,,,,,,,,,,,,,,,,,,,610314f70be8d9402adf9c6f,61036c3ec47011d51cdbae68,2021-07-29_20h08.55.548,Simcolourproject_2stim_asymm_v5,2020.2.10,MacIntel,60,61025ae37ef11b136ea224fe,,,,,,,,,1330,101.7851563,31.140625,1,0,0,response1disk,,6,-0.5703125,0.54296875,1,0,0,rectangle,-0.5703125,0.54296875,1,0,0,-0.5703125,0.54296875,1,0,0,0,136,136,133,1,,,,,,,,
,,,,,,,,,,,,,FF,,,,,,,,2.6172,,,,,,,,,,,,,,,,,,,,,,610314f70be8d9402adf9c6f,61036c3ec47011d51cdbae68,2021-07-29_20h08.55.548,Simcolourproject_2stim_asymm_v5,2020.2.10,MacIntel,60,61025ae37ef11b136ea224fe,,,,,,,,,3642,53.78125,97.4609375,1,0,0,response1disk,,7,9.8515625,13.421875,1,0,0,rectangle,9.8515625,13.421875,1,0,0,9.8515625,13.421875,1,0,0,0,137,137,130,1,,,,,,,,
,,,,,,,,,,,,,FF,,,,,,,,1.217,,,,,,,,,,,,,,,,,,,,,,610314f70be8d9402adf9c6f,61036c3ec47011d51cdbae68,2021-07-29_20h08.55.548,Simcolourproject_2stim_asymm_v5,2020.2.10,MacIntel,60,61025ae37ef11b136ea224fe,,,,,,,,,2891,72.73046875,-57.25390625,1,0,0,response3disk,,5,-1.4296875,-5.7890625,1,0,0,rectangle,-1.4296875,-5.7890625,1,0,0,-1.4296875,-5.7890625,1,0,0,0,138,138,93,1,,,,,,,,
,,,,,,,,,,,,,FF,,,,,,,,1.3339,,,,,,,,,,,,,,,,,,,,,,610314f70be8d9402adf9c6f,61036c3ec47011d51cdbae68,2021-07-29_20h08.55.548,Simcolourproject_2stim_asymm_v5,2020.2.10,MacIntel,60,61025ae37ef11b136ea224fe,,,,,,,,,1677,-91.13671875,82.140625,1,0,0,response7disk,,1,-5.6484375,-12.46484375,1,0,0,rectangle,-5.6484375,-12.46484375,1,0,0,-5.6484375,-12.46484375,1,0,0,0,139,139,32,1,,,,,,,,
,,,,,,,,,,,,,FF,,,,,,,,5.4161,,,,,,,,,,,,,,,,,,,,,,610314f70be8d9402adf9c6f,61036c3ec47011d51cdbae68,2021-07-29_20h08.55.548,Simcolourproject_2stim_asymm_v5,2020.2.10,MacIntel,60,61025ae37ef11b136ea224fe,,,,,,,,,4289,49.125,91.71484375,1,0,0,response1disk,,7,3.73046875,-1.0625,1,0,0,rectangle,3.73046875,-1.0625,1,0,0,3.73046875,-1.0625,1,0,0,0,140,140,129,1,,,,,,,,
,,,,,,,,,,,,,FF,,,,,,,,4.3994,,,,,,,,,,,,,,,,,,,,,,610314f70be8d9402adf9c6f,61036c3ec47011d51cdbae68,2021-07-29_20h08.55.548,Simcolourproject_2stim_asymm_v5,2020.2.10,MacIntel,60,61025ae37ef11b136ea224fe,,,,,,,,,3456,82.50390625,18.41796875,1,0,0,response1disk,,6,20.28515625,15.34765625,1,0,0,rectangle,20.28515625,15.34765625,1,0,0,20.28515625,15.34765625,1,0,0,0,141,141,102,1,,,,,,,,
,,,,,,,,,,,,,FF,,,,,,,,1.7156,,,,,,,,,,,,,,,,,,,,,,610314f70be8d9402adf9c6f,61036c3ec47011d51cdbae68,2021-07-29_20h08.55.548,Simcolourproject_2stim_asymm_v5,2020.2.10,MacIntel,60,61025ae37ef11b136ea224fe,,,,,,,,,1999,98.46875,31.7421875,1,0,0,response1disk,,6,28.50390625,5.546875,1,0,0,rectangle,28.50390625,5.546875,1,0,0,28.50390625,5.546875,1,0,0,0,142,142,117,1,,,,,,,,
,,,,,,,,,,,,,FF,,,,,,,,1.1501,,,,,,,,,,,,,,,,,,,,,,610314f70be8d9402adf9c6f,61036c3ec47011d51cdbae68,2021-07-29_20h08.55.548,Simcolourproject_2stim_asymm_v5,2020.2.10,MacIntel,60,61025ae37ef11b136ea224fe,,,,,,,,,359,52.140625,16.09765625,1,0,0,response1disk,,6,14.62109375,-1.0390625,1,0,0,rectangle,14.62109375,-1.0390625,1,0,0,14.62109375,-1.0390625,1,0,0,0,143,143,119,1,,,,,,,,
,,,,,,,,,,,,,FF,,,,,,,,2.7015,,,,,,,,,,,,,,,,,,,,,,610314f70be8d9402adf9c6f,61036c3ec47011d51cdbae68,2021-07-29_20h08.55.548,Simcolourproject_2stim_asymm_v5,2020.2.10,MacIntel,60,61025ae37ef11b136ea224fe,,,,,,,,,2786,47.19140625,-86.05859375,1,0,0,response3disk,,4,0.85546875,-4.078125,1,0,0,rectangle,0.85546875,-4.078125,1,0,0,0.85546875,-4.078125,1,0,0,0,144,144,86,1,,,,,,,,
,,,,,,,,,,,,,FF,,,,,,,,5.8678,,,,,,,,,,,,,,,,,,,,,,610314f70be8d9402adf9c6f,61036c3ec47011d51cdbae68,2021-07-29_20h08.55.548,Simcolourproject_2stim_asymm_v5,2020.2.10,MacIntel,60,61025ae37ef11b136ea224fe,,,,,,,,,1418,47.0234375,-56.22265625,1,0,0,response3disk,,4,7.3203125,3.71484375,1,0,0,rectangle,7.3203125,3.71484375,1,0,0,7.3203125,3.71484375,1,0,0,0,145,145,17,1,,,,,,,,
,,,,,,,,,,,,,FF,,,,,,,,1.0501,,,,,,,,,,,,,,,,,,,,,,610314f70be8d9402adf9c6f,61036c3ec47011d51cdbae68,2021-07-29_20h08.55.548,Simcolourproject_2stim_asymm_v5,2020.2.10,MacIntel,60,61025ae37ef11b136ea224fe,,,,,,,,,345,-96.80859375,-56.859375,1,0,0,response5disk,,2,-2.87109375,10.1796875,1,0,0,rectangle,-2.87109375,10.1796875,1,0,0,-2.87109375,10.1796875,1,0,0,0,146,146,26,1,,,,,,,,
,,,,,,,,,,,,,FF,,,,,,,,6.6506,,,,,,,,,,,,,,,,,,,,,,610314f70be8d9402adf9c6f,61036c3ec47011d51cdbae68,2021-07-29_20h08.55.548,Simcolourproject_2stim_asymm_v5,2020.2.10,MacIntel,60,61025ae37ef11b136ea224fe,,,,,,,,,208,126.625,38.703125,1,0,0,response1disk,,6,1.5078125,8.203125,1,0,0,rectangle,1.5078125,8.203125,1,0,0,1.5078125,8.203125,1,0,0,0,147,147,63,1,,,,,,,,
,,,,,,,,,,,,,FF,,,,,,,,0.8819,,,,,,,,,,,,,,,,,,,,,,610314f70be8d9402adf9c6f,61036c3ec47011d51cdbae68,2021-07-29_20h08.55.548,Simcolourproject_2stim_asymm_v5,2020.2.10,MacIntel,60,61025ae37ef11b136ea224fe,,,,,,,,,3659,30.984375,76.8984375,1,0,0,response1disk,,7,8.88671875,15.96875,1,0,0,rectangle,8.88671875,15.96875,1,0,0,8.88671875,15.96875,1,0,0,0,148,148,131,1,,,,,,,,
,,,,,,,,,,,,,FF,,,,,,,,0.7496,,,,,,,,,,,,,,,,,,,,,,610314f70be8d9402adf9c6f,61036c3ec47011d51cdbae68,2021-07-29_20h08.55.548,Simcolourproject_2stim_asymm_v5,2020.2.10,MacIntel,60,61025ae37ef11b136ea224fe,,,,,,,,,4096,-88.1640625,-25.3046875,1,0,0,response5disk,,2,-16.09765625,15.0234375,1,0,0,rectangle,-16.09765625,15.0234375,1,0,0,-16.09765625,15.0234375,1,0,0,0,149,149,44,1,,,,,,,,
,,,,,,,,,,,,,FF,,,,,,,,1.2998,,,,,,,,,,,,,,,,,,,,,,610314f70be8d9402adf9c6f,61036c3ec47011d51cdbae68,2021-07-29_20h08.55.548,Simcolourproject_2stim_asymm_v5,2020.2.10,MacIntel,60,61025ae37ef11b136ea224fe,,,,,,,,,1769,95.07421875,-36.265625,1,0,0,response3disk,,5,19.07421875,3.05859375,1,0,0,rectangle,19.07421875,3.05859375,1,0,0,19.07421875,3.05859375,1,0,0,0,150,150,139,1,,,,,,,,
,,,,,,,,,,,,,FF,,,,,,,,1.5347,,,,,,,,,,,,,,,,,,,,,,610314f70be8d9402adf9c6f,61036c3ec47011d51cdbae68,2021-07-29_20h08.55.548,Simcolourproject_2stim_asymm_v5,2020.2.10,MacIntel,60,61025ae37ef11b136ea224fe,,,,,,,,,2868,78.72265625,51.234375,1,0,0,response1disk,,6,16.19140625,3.94140625,1,0,0,rectangle,16.19140625,3.94140625,1,0,0,16.19140625,3.94140625,1,0,0,0,151,151,110,1,,,,,,,,
,,,,,,,,,,,,,FF,,,,,,,,1.8513,,,,,,,,,,,,,,,,,,,,,,610314f70be8d9402adf9c6f,61036c3ec47011d51cdbae68,2021-07-29_20h08.55.548,Simcolourproject_2stim_asymm_v5,2020.2.10,MacIntel,60,61025ae37ef11b136ea224fe,,,,,,,,,2720,-50.08984375,-79.08203125,1,0,0,response5disk,,3,-25.7890625,-11.30859375,1,0,0,rectangle,-25.7890625,-11.30859375,1,0,0,-25.7890625,-11.30859375,1,0,0,0,152,152,96,1,,,,,,,,
,,,,,,,,,,,,,FF,,,,,,,,0.9003,,,,,,,,,,,,,,,,,,,,,,610314f70be8d9402adf9c6f,61036c3ec47011d51cdbae68,2021-07-29_20h08.55.548,Simcolourproject_2stim_asymm_v5,2020.2.10,MacIntel,60,61025ae37ef11b136ea224fe,,,,,,,,,3347,93.24609375,-36.23046875,1,0,0,response3disk,,5,13.0390625,-3.9140625,1,0,0,rectangle,13.0390625,-3.9140625,1,0,0,13.0390625,-3.9140625,1,0,0,0,153,153,45,1,,,,,,,,
,,,,,,,,,,,,,FF,,,,,,,,1.0333,,,,,,,,,,,,,,,,,,,,,,610314f70be8d9402adf9c6f,61036c3ec47011d51cdbae68,2021-07-29_20h08.55.548,Simcolourproject_2stim_asymm_v5,2020.2.10,MacIntel,60,61025ae37ef11b136ea224fe,,,,,,,,,574,110.984375,45.859375,1,0,0,response1disk,,6,-2.70703125,-4.78125,1,0,0,rectangle,-2.70703125,-4.78125,1,0,0,-2.70703125,-4.78125,1,0,0,0,154,154,24,1,,,,,,,,
,,,,,,,,,,,,,FF,,,,,,,,0.8502,,,,,,,,,,,,,,,,,,,,,,610314f70be8d9402adf9c6f,61036c3ec47011d51cdbae68,2021-07-29_20h08.55.548,Simcolourproject_2stim_asymm_v5,2020.2.10,MacIntel,60,61025ae37ef11b136ea224fe,,,,,,,,,2937,118.3945313,60.08203125,1,0,0,response1disk,,6,6.89453125,-6.6484375,1,0,0,rectangle,6.89453125,-6.6484375,1,0,0,6.89453125,-6.6484375,1,0,0,0,155,155,20,1,,,,,,,,
,,,,,,,,,,,,,FF,,,,,,,,1.4491,,,,,,,,,,,,,,,,,,,,,,610314f70be8d9402adf9c6f,61036c3ec47011d51cdbae68,2021-07-29_20h08.55.548,Simcolourproject_2stim_asymm_v5,2020.2.10,MacIntel,60,61025ae37ef11b136ea224fe,,,,,,,,,3017,71.89453125,23.7421875,1,0,0,response1disk,,6,24.3671875,2.46484375,1,0,0,rectangle,24.3671875,2.46484375,1,0,0,24.3671875,2.46484375,1,0,0,0,156,156,16,1,,,,,,,,
,,,,,,,,,,,,,FF,,,,,,,,1.0175,,,,,,,,,,,,,,,,,,,,,,610314f70be8d9402adf9c6f,61036c3ec47011d51cdbae68,2021-07-29_20h08.55.548,Simcolourproject_2stim_asymm_v5,2020.2.10,MacIntel,60,61025ae37ef11b136ea224fe,,,,,,,,,1956,-47.296875,62.45703125,1,0,0,response7disk,,0,-14.12109375,-0.14453125,1,0,0,rectangle,-14.12109375,-0.14453125,1,0,0,-14.12109375,-0.14453125,1,0,0,0,157,157,103,1,,,,,,,,
,,,,,,,,,,,,,FF,,,,,,,,1.1327,,,,,,,,,,,,,,,,,,,,,,610314f70be8d9402adf9c6f,61036c3ec47011d51cdbae68,2021-07-29_20h08.55.548,Simcolourproject_2stim_asymm_v5,2020.2.10,MacIntel,60,61025ae37ef11b136ea224fe,,,,,,,,,371,-82.00390625,26.890625,1,0,0,response7disk,,1,-10.55078125,3.42578125,1,0,0,rectangle,-10.55078125,3.42578125,1,0,0,-10.55078125,3.42578125,1,0,0,0,158,158,11,1,,,,,,,,
,,,,,,,,,,,,,FF,,,,,,,,1.2175,,,,,,,,,,,,,,,,,,,,,,610314f70be8d9402adf9c6f,61036c3ec47011d51cdbae68,2021-07-29_20h08.55.548,Simcolourproject_2stim_asymm_v5,2020.2.10,MacIntel,60,61025ae37ef11b136ea224fe,,,,,,,,,3919,84.46484375,-48.08203125,1,0,0,response3disk,,5,27.5859375,-13.7421875,1,0,0,rectangle,27.5859375,-13.7421875,1,0,0,27.5859375,-13.7421875,1,0,0,0,159,159,50,1,,,,,,,,
,,,,,,,,,,,,,FF,,,,,,,,1.1333,,,,,,,,,,,,,,,,,,,,,,610314f70be8d9402adf9c6f,61036c3ec47011d51cdbae68,2021-07-29_20h08.55.548,Simcolourproject_2stim_asymm_v5,2020.2.10,MacIntel,60,61025ae37ef11b136ea224fe,,,,,,,,,4178,31.7578125,87.2578125,1,0,0,response1disk,,7,-11.3984375,-15.37109375,1,0,0,rectangle,-11.3984375,-15.37109375,1,0,0,-11.3984375,-15.37109375,1,0,0,1,0,160,128,1,,,,,,,,
,,,,,,,,,,,,,FF,,,,,,,,1.033,,,,,,,,,,,,,,,,,,,,,,610314f70be8d9402adf9c6f,61036c3ec47011d51cdbae68,2021-07-29_20h08.55.548,Simcolourproject_2stim_asymm_v5,2020.2.10,MacIntel,60,61025ae37ef11b136ea224fe,,,,,,,,,1606,74.49609375,-23.79296875,1,0,0,response3disk,,5,15.5625,-2,1,0,0,rectangle,15.5625,-2,1,0,0,15.5625,-2,1,0,0,1,1,161,86,1,,,,,,,,
,,,,,,,,,,,,,FF,,,,,,,,1.6506,,,,,,,,,,,,,,,,,,,,,,610314f70be8d9402adf9c6f,61036c3ec47011d51cdbae68,2021-07-29_20h08.55.548,Simcolourproject_2stim_asymm_v5,2020.2.10,MacIntel,60,61025ae37ef11b136ea224fe,,,,,,,,,642,87.9375,-55.59765625,1,0,0,response3disk,,5,-1.125,3.8203125,1,0,0,rectangle,-1.125,3.8203125,1,0,0,-1.125,3.8203125,1,0,0,1,2,162,154,1,,,,,,,,
,,,,,,,,,,,,,FF,,,,,,,,1.0168,,,,,,,,,,,,,,,,,,,,,,610314f70be8d9402adf9c6f,61036c3ec47011d51cdbae68,2021-07-29_20h08.55.548,Simcolourproject_2stim_asymm_v5,2020.2.10,MacIntel,60,61025ae37ef11b136ea224fe,,,,,,,,,2311,89.05859375,33.91796875,1,0,0,response1disk,,6,-5.2109375,4.7265625,1,0,0,rectangle,-5.2109375,4.7265625,1,0,0,-5.2109375,4.7265625,1,0,0,1,3,163,72,1,,,,,,,,
,,,,,,,,,,,,,FF,,,,,,,,1.2008,,,,,,,,,,,,,,,,,,,,,,610314f70be8d9402adf9c6f,61036c3ec47011d51cdbae68,2021-07-29_20h08.55.548,Simcolourproject_2stim_asymm_v5,2020.2.10,MacIntel,60,61025ae37ef11b136ea224fe,,,,,,,,,3344,79.94921875,-50.046875,1,0,0,response3disk,,5,2.796875,0.00390625,1,0,0,rectangle,2.796875,0.00390625,1,0,0,2.796875,0.00390625,1,0,0,1,4,164,104,1,,,,,,,,
,,,,,,,,,,,,,FF,,,,,,,,1.5179,,,,,,,,,,,,,,,,,,,,,,610314f70be8d9402adf9c6f,61036c3ec47011d51cdbae68,2021-07-29_20h08.55.548,Simcolourproject_2stim_asymm_v5,2020.2.10,MacIntel,60,61025ae37ef11b136ea224fe,,,,,,,,,339,87.4140625,16.21484375,1,0,0,response1disk,,6,2.20703125,-2.6796875,1,0,0,rectangle,2.20703125,-2.6796875,1,0,0,2.20703125,-2.6796875,1,0,0,1,5,165,102,1,,,,,,,,
,,,,,,,,,,,,,FF,,,,,,,,0.866,,,,,,,,,,,,,,,,,,,,,,610314f70be8d9402adf9c6f,61036c3ec47011d51cdbae68,2021-07-29_20h08.55.548,Simcolourproject_2stim_asymm_v5,2020.2.10,MacIntel,60,61025ae37ef11b136ea224fe,,,,,,,,,161,24.39453125,91.90625,1,0,0,response1disk,,7,3.734375,0.91015625,1,0,0,rectangle,3.734375,0.91015625,1,0,0,3.734375,0.91015625,1,0,0,1,6,166,98,1,,,,,,,,
,,,,,,,,,,,,,FF,,,,,,,,1.0665,,,,,,,,,,,,,,,,,,,,,,610314f70be8d9402adf9c6f,61036c3ec47011d51cdbae68,2021-07-29_20h08.55.548,Simcolourproject_2stim_asymm_v5,2020.2.10,MacIntel,60,61025ae37ef11b136ea224fe,,,,,,,,,1087,22.18359375,83.38671875,1,0,0,response1disk,,7,7.5703125,2.93359375,1,0,0,rectangle,7.5703125,2.93359375,1,0,0,7.5703125,2.93359375,1,0,0,1,7,167,92,1,,,,,,,,
,,,,,,,,,,,,,FF,,,,,,,,0.7175,,,,,,,,,,,,,,,,,,,,,,610314f70be8d9402adf9c6f,61036c3ec47011d51cdbae68,2021-07-29_20h08.55.548,Simcolourproject_2stim_asymm_v5,2020.2.10,MacIntel,60,61025ae37ef11b136ea224fe,,,,,,,,,3766,42.03515625,82.796875,1,0,0,response1disk,,7,12.21484375,10.69140625,1,0,0,rectangle,12.21484375,10.69140625,1,0,0,12.21484375,10.69140625,1,0,0,1,8,168,14,1,,,,,,,,
,,,,,,,,,,,,,FF,,,,,,,,0.7834,,,,,,,,,,,,,,,,,,,,,,610314f70be8d9402adf9c6f,61036c3ec47011d51cdbae68,2021-07-29_20h08.55.548,Simcolourproject_2stim_asymm_v5,2020.2.10,MacIntel,60,61025ae37ef11b136ea224fe,,,,,,,,,2345,41.6640625,83.46875,1,0,0,response1disk,,7,18.6640625,8.703125,1,0,0,rectangle,18.6640625,8.703125,1,0,0,18.6640625,8.703125,1,0,0,1,9,169,15,1,,,,,,,,
,,,,,,,,,,,,,FF,,,,,,,,1.4335,,,,,,,,,,,,,,,,,,,,,,610314f70be8d9402adf9c6f,61036c3ec47011d51cdbae68,2021-07-29_20h08.55.548,Simcolourproject_2stim_asymm_v5,2020.2.10,MacIntel,60,61025ae37ef11b136ea224fe,,,,,,,,,1771,48.17578125,64.81640625,1,0,0,response1disk,,7,17.140625,3.9453125,1,0,0,rectangle,17.140625,3.9453125,1,0,0,17.140625,3.9453125,1,0,0,1,10,170,131,1,,,,,,,,
,,,,,,,,,,,,,FF,,,,,,,,1.835,,,,,,,,,,,,,,,,,,,,,,610314f70be8d9402adf9c6f,61036c3ec47011d51cdbae68,2021-07-29_20h08.55.548,Simcolourproject_2stim_asymm_v5,2020.2.10,MacIntel,60,61025ae37ef11b136ea224fe,,,,,,,,,3114,92.66015625,-40.03515625,1,0,0,response3disk,,5,21.453125,-7.25,1,0,0,rectangle,21.453125,-7.25,1,0,0,21.453125,-7.25,1,0,0,1,11,171,6,1,,,,,,,,
,,,,,,,,,,,,,FF,,,,,,,,0.6671,,,,,,,,,,,,,,,,,,,,,,610314f70be8d9402adf9c6f,61036c3ec47011d51cdbae68,2021-07-29_20h08.55.548,Simcolourproject_2stim_asymm_v5,2020.2.10,MacIntel,60,61025ae37ef11b136ea224fe,,,,,,,,,3846,41.2578125,-80.27734375,1,0,0,response3disk,,4,7.40625,5.1796875,1,0,0,rectangle,7.40625,5.1796875,1,0,0,7.40625,5.1796875,1,0,0,1,12,172,8,1,,,,,,,,
,,,,,,,,,,,,,FF,,,,,,,,1.6823,,,,,,,,,,,,,,,,,,,,,,610314f70be8d9402adf9c6f,61036c3ec47011d51cdbae68,2021-07-29_20h08.55.548,Simcolourproject_2stim_asymm_v5,2020.2.10,MacIntel,60,61025ae37ef11b136ea224fe,,,,,,,,,2475,87.12890625,49.50390625,1,0,0,response1disk,,6,16.98828125,5.23828125,1,0,0,rectangle,16.98828125,5.23828125,1,0,0,16.98828125,5.23828125,1,0,0,1,13,173,148,1,,,,,,,,
,,,,,,,,,,,,,FF,,,,,,,,0.7491,,,,,,,,,,,,,,,,,,,,,,610314f70be8d9402adf9c6f,61036c3ec47011d51cdbae68,2021-07-29_20h08.55.548,Simcolourproject_2stim_asymm_v5,2020.2.10,MacIntel,60,61025ae37ef11b136ea224fe,,,,,,,,,588,37.10546875,89.2578125,1,0,0,response1disk,,7,18.55078125,-7.69921875,1,0,0,rectangle,18.55078125,-7.69921875,1,0,0,18.55078125,-7.69921875,1,0,0,1,14,174,139,1,,,,,,,,
,,,,,,,,,,,,,FF,,,,,,,,0.8669,,,,,,,,,,,,,,,,,,,,,,610314f70be8d9402adf9c6f,61036c3ec47011d51cdbae68,2021-07-29_20h08.55.548,Simcolourproject_2stim_asymm_v5,2020.2.10,MacIntel,60,61025ae37ef11b136ea224fe,,,,,,,,,2402,34.18359375,94.15234375,1,0,0,response1disk,,7,6.15625,-10.37890625,1,0,0,rectangle,6.15625,-10.37890625,1,0,0,6.15625,-10.37890625,1,0,0,1,15,175,130,1,,,,,,,,
,,,,,,,,,,,,,FF,,,,,,,,2.999,,,,,,,,,,,,,,,,,,,,,,610314f70be8d9402adf9c6f,61036c3ec47011d51cdbae68,2021-07-29_20h08.55.548,Simcolourproject_2stim_asymm_v5,2020.2.10,MacIntel,60,61025ae37ef11b136ea224fe,,,,,,,,,1818,-74.0390625,-48.0703125,1,0,0,response5disk,,2,-12.859375,-0.89453125,1,0,0,rectangle,-12.859375,-0.89453125,1,0,0,-12.859375,-0.89453125,1,0,0,1,16,176,45,1,,,,,,,,
,,,,,,,,,,,,,FF,,,,,,,,1.134,,,,,,,,,,,,,,,,,,,,,,610314f70be8d9402adf9c6f,61036c3ec47011d51cdbae68,2021-07-29_20h08.55.548,Simcolourproject_2stim_asymm_v5,2020.2.10,MacIntel,60,61025ae37ef11b136ea224fe,,,,,,,,,1792,87.796875,46.83984375,1,0,0,response1disk,,6,5.1015625,4.078125,1,0,0,rectangle,5.1015625,4.078125,1,0,0,5.1015625,4.078125,1,0,0,1,17,177,19,1,,,,,,,,
,,,,,,,,,,,,,FF,,,,,,,,2.6829,,,,,,,,,,,,,,,,,,,,,,610314f70be8d9402adf9c6f,61036c3ec47011d51cdbae68,2021-07-29_20h08.55.548,Simcolourproject_2stim_asymm_v5,2020.2.10,MacIntel,60,61025ae37ef11b136ea224fe,,,,,,,,,3745,74.43359375,-32.85546875,1,0,0,response3disk,,5,-10.84375,12.515625,1,0,0,rectangle,-10.84375,12.515625,1,0,0,-10.84375,12.515625,1,0,0,1,18,178,66,1,,,,,,,,
,,,,,,,,,,,,,FF,,,,,,,,2.1155,,,,,,,,,,,,,,,,,,,,,,610314f70be8d9402adf9c6f,61036c3ec47011d51cdbae68,2021-07-29_20h08.55.548,Simcolourproject_2stim_asymm_v5,2020.2.10,MacIntel,60,61025ae37ef11b136ea224fe,,,,,,,,,466,89.7265625,41.234375,1,0,0,response1disk,,6,-15.796875,-1.13671875,1,0,0,rectangle,-15.796875,-1.13671875,1,0,0,-15.796875,-1.13671875,1,0,0,1,19,179,121,1,,,,,,,,
,,,,,,,,,,,,,FF,,,,,,,,0.9005,,,,,,,,,,,,,,,,,,,,,,610314f70be8d9402adf9c6f,61036c3ec47011d51cdbae68,2021-07-29_20h08.55.548,Simcolourproject_2stim_asymm_v5,2020.2.10,MacIntel,60,61025ae37ef11b136ea224fe,,,,,,,,,84,46.44140625,71.5625,1,0,0,response1disk,,7,27.8984375,5.66015625,1,0,0,rectangle,27.8984375,5.66015625,1,0,0,27.8984375,5.66015625,1,0,0,1,20,180,20,1,,,,,,,,
,,,,,,,,,,,,,FF,,,,,,,,1.6001,,,,,,,,,,,,,,,,,,,,,,610314f70be8d9402adf9c6f,61036c3ec47011d51cdbae68,2021-07-29_20h08.55.548,Simcolourproject_2stim_asymm_v5,2020.2.10,MacIntel,60,61025ae37ef11b136ea224fe,,,,,,,,,1157,89.28125,47.58203125,1,0,0,response1disk,,6,1.328125,3.53125,1,0,0,rectangle,1.328125,3.53125,1,0,0,1.328125,3.53125,1,0,0,1,21,181,81,1,,,,,,,,
,,,,,,,,,,,,,FF,,,,,,,,0.6333,,,,,,,,,,,,,,,,,,,,,,610314f70be8d9402adf9c6f,61036c3ec47011d51cdbae68,2021-07-29_20h08.55.548,Simcolourproject_2stim_asymm_v5,2020.2.10,MacIntel,60,61025ae37ef11b136ea224fe,,,,,,,,,4094,22.2890625,62.71875,1,0,0,response1disk,,7,0.59375,-0.70703125,1,0,0,rectangle,0.59375,-0.70703125,1,0,0,0.59375,-0.70703125,1,0,0,1,22,182,158,1,,,,,,,,
,,,,,,,,,,,,,FF,,,,,,,,0.6333,,,,,,,,,,,,,,,,,,,,,,610314f70be8d9402adf9c6f,61036c3ec47011d51cdbae68,2021-07-29_20h08.55.548,Simcolourproject_2stim_asymm_v5,2020.2.10,MacIntel,60,61025ae37ef11b136ea224fe,,,,,,,,,686,29.71484375,94.08203125,1,0,0,response1disk,,7,29.71484375,16.6875,1,0,0,rectangle,29.71484375,16.6875,1,0,0,29.71484375,16.6875,1,0,0,1,23,183,96,1,,,,,,,,
,,,,,,,,,,,,,FF,,,,,,,,0.8496,,,,,,,,,,,,,,,,,,,,,,610314f70be8d9402adf9c6f,61036c3ec47011d51cdbae68,2021-07-29_20h08.55.548,Simcolourproject_2stim_asymm_v5,2020.2.10,MacIntel,60,61025ae37ef11b136ea224fe,,,,,,,,,1980,103.609375,30.29296875,1,0,0,response1disk,,6,1.28515625,14.39453125,1,0,0,rectangle,1.28515625,14.39453125,1,0,0,1.28515625,14.39453125,1,0,0,1,24,184,147,1,,,,,,,,
,,,,,,,,,,,,,FF,,,,,,,,0.7837,,,,,,,,,,,,,,,,,,,,,,610314f70be8d9402adf9c6f,61036c3ec47011d51cdbae68,2021-07-29_20h08.55.548,Simcolourproject_2stim_asymm_v5,2020.2.10,MacIntel,60,61025ae37ef11b136ea224fe,,,,,,,,,2063,34.484375,72.36328125,1,0,0,response1disk,,7,25.75390625,4.89453125,1,0,0,rectangle,25.75390625,4.89453125,1,0,0,25.75390625,4.89453125,1,0,0,1,25,185,140,1,,,,,,,,
,,,,,,,,,,,,,FF,,,,,,,,1.183,,,,,,,,,,,,,,,,,,,,,,610314f70be8d9402adf9c6f,61036c3ec47011d51cdbae68,2021-07-29_20h08.55.548,Simcolourproject_2stim_asymm_v5,2020.2.10,MacIntel,60,61025ae37ef11b136ea224fe,,,,,,,,,3058,16.6640625,-121.3125,1,0,0,response3disk,,4,-28.40234375,16.046875,1,0,0,rectangle,-28.40234375,16.046875,1,0,0,-28.40234375,16.046875,1,0,0,1,26,186,141,1,,,,,,,,
,,,,,,,,,,,,,FF,,,,,,,,1.2001,,,,,,,,,,,,,,,,,,,,,,610314f70be8d9402adf9c6f,61036c3ec47011d51cdbae68,2021-07-29_20h08.55.548,Simcolourproject_2stim_asymm_v5,2020.2.10,MacIntel,60,61025ae37ef11b136ea224fe,,,,,,,,,2579,36.3125,79.7578125,1,0,0,response1disk,,7,-0.28515625,-14.33203125,1,0,0,rectangle,-0.28515625,-14.33203125,1,0,0,-0.28515625,-14.33203125,1,0,0,1,27,187,144,1,,,,,,,,
,,,,,,,,,,,,,FF,,,,,,,,0.9321,,,,,,,,,,,,,,,,,,,,,,610314f70be8d9402adf9c6f,61036c3ec47011d51cdbae68,2021-07-29_20h08.55.548,Simcolourproject_2stim_asymm_v5,2020.2.10,MacIntel,60,61025ae37ef11b136ea224fe,,,,,,,,,2548,38.26171875,-79.16015625,1,0,0,response3disk,,4,-0.81640625,8.703125,1,0,0,rectangle,-0.81640625,8.703125,1,0,0,-0.81640625,8.703125,1,0,0,1,28,188,55,1,,,,,,,,
,,,,,,,,,,,,,FF,,,,,,,,2.5997,,,,,,,,,,,,,,,,,,,,,,610314f70be8d9402adf9c6f,61036c3ec47011d51cdbae68,2021-07-29_20h08.55.548,Simcolourproject_2stim_asymm_v5,2020.2.10,MacIntel,60,61025ae37ef11b136ea224fe,,,,,,,,,3858,25.328125,102.7617188,1,0,0,response1disk,,7,8.0859375,-1.7578125,1,0,0,rectangle,8.0859375,-1.7578125,1,0,0,8.0859375,-1.7578125,1,0,0,1,29,189,88,1,,,,,,,,
,,,,,,,,,,,,,FF,,,,,,,,0.8459,,,,,,,,,,,,,,,,,,,,,,610314f70be8d9402adf9c6f,61036c3ec47011d51cdbae68,2021-07-29_20h08.55.548,Simcolourproject_2stim_asymm_v5,2020.2.10,MacIntel,60,61025ae37ef11b136ea224fe,,,,,,,,,1369,65.65625,21.66015625,1,0,0,response1disk,,6,18.2734375,-2.21875,1,0,0,rectangle,18.2734375,-2.21875,1,0,0,18.2734375,-2.21875,1,0,0,1,30,190,12,1,,,,,,,,
,,,,,,,,,,,,,FF,,,,,,,,0.9335,,,,,,,,,,,,,,,,,,,,,,610314f70be8d9402adf9c6f,61036c3ec47011d51cdbae68,2021-07-29_20h08.55.548,Simcolourproject_2stim_asymm_v5,2020.2.10,MacIntel,60,61025ae37ef11b136ea224fe,,,,,,,,,2804,33.4765625,61.2578125,1,0,0,response1disk,,7,15.00390625,-1.96875,1,0,0,rectangle,15.00390625,-1.96875,1,0,0,15.00390625,-1.96875,1,0,0,1,31,191,103,1,,,,,,,,
,,,,,,,,,,,,,FF,,,,,,,,0.84,,,,,,,,,,,,,,,,,,,,,,610314f70be8d9402adf9c6f,61036c3ec47011d51cdbae68,2021-07-29_20h08.55.548,Simcolourproject_2stim_asymm_v5,2020.2.10,MacIntel,60,61025ae37ef11b136ea224fe,,,,,,,,,1423,33.5234375,81.03515625,1,0,0,response1disk,,7,12.96484375,2.90625,1,0,0,rectangle,12.96484375,2.90625,1,0,0,12.96484375,2.90625,1,0,0,1,32,192,68,1,,,,,,,,
,,,,,,,,,,,,,FF,,,,,,,,0.8005,,,,,,,,,,,,,,,,,,,,,,610314f70be8d9402adf9c6f,61036c3ec47011d51cdbae68,2021-07-29_20h08.55.548,Simcolourproject_2stim_asymm_v5,2020.2.10,MacIntel,60,61025ae37ef11b136ea224fe,,,,,,,,,3370,31.06640625,81.8515625,1,0,0,response1disk,,7,-7.015625,-7.296875,1,0,0,rectangle,-7.015625,-7.296875,1,0,0,-7.015625,-7.296875,1,0,0,1,33,193,149,1,,,,,,,,
,,,,,,,,,,,,,FF,,,,,,,,1.7008,,,,,,,,,,,,,,,,,,,,,,610314f70be8d9402adf9c6f,61036c3ec47011d51cdbae68,2021-07-29_20h08.55.548,Simcolourproject_2stim_asymm_v5,2020.2.10,MacIntel,60,61025ae37ef11b136ea224fe,,,,,,,,,993,37.7421875,70.3515625,1,0,0,response1disk,,7,-5.7890625,-14.19140625,1,0,0,rectangle,-5.7890625,-14.19140625,1,0,0,-5.7890625,-14.19140625,1,0,0,1,34,194,78,1,,,,,,,,
,,,,,,,,,,,,,FF,,,,,,,,1.3009,,,,,,,,,,,,,,,,,,,,,,610314f70be8d9402adf9c6f,61036c3ec47011d51cdbae68,2021-07-29_20h08.55.548,Simcolourproject_2stim_asymm_v5,2020.2.10,MacIntel,60,61025ae37ef11b136ea224fe,,,,,,,,,3452,38.1328125,91.96875,1,0,0,response1disk,,7,27.65625,2.1015625,1,0,0,rectangle,27.65625,2.1015625,1,0,0,27.65625,2.1015625,1,0,0,1,35,195,7,1,,,,,,,,
,,,,,,,,,,,,,FF,,,,,,,,1.0338,,,,,,,,,,,,,,,,,,,,,,610314f70be8d9402adf9c6f,61036c3ec47011d51cdbae68,2021-07-29_20h08.55.548,Simcolourproject_2stim_asymm_v5,2020.2.10,MacIntel,60,61025ae37ef11b136ea224fe,,,,,,,,,3996,59.7109375,-33.58984375,1,0,0,response3disk,,5,25.53125,-16.29296875,1,0,0,rectangle,25.53125,-16.29296875,1,0,0,25.53125,-16.29296875,1,0,0,1,36,196,39,1,,,,,,,,
,,,,,,,,,,,,,FF,,,,,,,,0.8176,,,,,,,,,,,,,,,,,,,,,,610314f70be8d9402adf9c6f,61036c3ec47011d51cdbae68,2021-07-29_20h08.55.548,Simcolourproject_2stim_asymm_v5,2020.2.10,MacIntel,60,61025ae37ef11b136ea224fe,,,,,,,,,1133,32.58203125,-83.2421875,1,0,0,response3disk,,4,23.61328125,-7.12890625,1,0,0,rectangle,23.61328125,-7.12890625,1,0,0,23.61328125,-7.12890625,1,0,0,1,37,197,13,1,,,,,,,,
,,,,,,,,,,,,,FF,,,,,,,,0.9494,,,,,,,,,,,,,,,,,,,,,,610314f70be8d9402adf9c6f,61036c3ec47011d51cdbae68,2021-07-29_20h08.55.548,Simcolourproject_2stim_asymm_v5,2020.2.10,MacIntel,60,61025ae37ef11b136ea224fe,,,,,,,,,2211,23.203125,72.48046875,1,0,0,response1disk,,7,-0.9140625,13.04296875,1,0,0,rectangle,-0.9140625,13.04296875,1,0,0,-0.9140625,13.04296875,1,0,0,1,38,198,100,1,,,,,,,,
,,,,,,,,,,,,,FF,,,,,,,,1.117,,,,,,,,,,,,,,,,,,,,,,610314f70be8d9402adf9c6f,61036c3ec47011d51cdbae68,2021-07-29_20h08.55.548,Simcolourproject_2stim_asymm_v5,2020.2.10,MacIntel,60,61025ae37ef11b136ea224fe,,,,,,,,,1537,100.4804688,26.640625,1,0,0,response1disk,,6,28.4921875,17.703125,1,0,0,rectangle,28.4921875,17.703125,1,0,0,28.4921875,17.703125,1,0,0,1,39,199,57,1,,,,,,,,
,,,,,,,,,,,,,FF,,,,,,,,2.0164,,,,,,,,,,,,,,,,,,,,,,610314f70be8d9402adf9c6f,61036c3ec47011d51cdbae68,2021-07-29_20h08.55.548,Simcolourproject_2stim_asymm_v5,2020.2.10,MacIntel,60,61025ae37ef11b136ea224fe,,,,,,,,,2718,-72.69140625,50.34765625,1,0,0,response7disk,,1,-20.39453125,14.1796875,1,0,0,rectangle,-20.39453125,14.1796875,1,0,0,-20.39453125,14.1796875,1,0,0,1,40,200,113,1,,,,,,,,
,,,,,,,,,,,,,FF,,,,,,,,0.933,,,,,,,,,,,,,,,,,,,,,,610314f70be8d9402adf9c6f,61036c3ec47011d51cdbae68,2021-07-29_20h08.55.548,Simcolourproject_2stim_asymm_v5,2020.2.10,MacIntel,60,61025ae37ef11b136ea224fe,,,,,,,,,1454,-77.875,29.78515625,1,0,0,response7disk,,1,-1.08984375,12.421875,1,0,0,rectangle,-1.08984375,12.421875,1,0,0,-1.08984375,12.421875,1,0,0,1,41,201,151,1,,,,,,,,
,,,,,,,,,,,,,FF,,,,,,,,1.2329,,,,,,,,,,,,,,,,,,,,,,610314f70be8d9402adf9c6f,61036c3ec47011d51cdbae68,2021-07-29_20h08.55.548,Simcolourproject_2stim_asymm_v5,2020.2.10,MacIntel,60,61025ae37ef11b136ea224fe,,,,,,,,,3331,-97.01953125,-68.3125,1,0,0,response5disk,,2,-7.9609375,-0.0078125,1,0,0,rectangle,-7.9609375,-0.0078125,1,0,0,-7.9609375,-0.0078125,1,0,0,1,42,202,30,1,,,,,,,,
,,,,,,,,,,,,,FF,,,,,,,,0.9346,,,,,,,,,,,,,,,,,,,,,,610314f70be8d9402adf9c6f,61036c3ec47011d51cdbae68,2021-07-29_20h08.55.548,Simcolourproject_2stim_asymm_v5,2020.2.10,MacIntel,60,61025ae37ef11b136ea224fe,,,,,,,,,2276,35.55078125,80.24609375,1,0,0,response1disk,,7,-3.82421875,-3.23828125,1,0,0,rectangle,-3.82421875,-3.23828125,1,0,0,-3.82421875,-3.23828125,1,0,0,1,43,203,73,1,,,,,,,,
,,,,,,,,,,,,,FF,,,,,,,,0.733,,,,,,,,,,,,,,,,,,,,,,610314f70be8d9402adf9c6f,61036c3ec47011d51cdbae68,2021-07-29_20h08.55.548,Simcolourproject_2stim_asymm_v5,2020.2.10,MacIntel,60,61025ae37ef11b136ea224fe,,,,,,,,,1872,86.03125,39.265625,1,0,0,response1disk,,6,1.6171875,-0.51171875,1,0,0,rectangle,-83.5859375,-41.34765625,1,0,0,5.328125,6,1,0,0,1,44,204,74,1,,response5disk_3,TRUE,2,2,"[4,108,323,10,57,73,46,96,304,289,205,113,263,298,318,311,47,270,260,35]",2.2631,rectangle
,,,,,,,,,,,,,FF,,,,,,,,1.017,,,,,,,,,,,,,,,,,,,,,,610314f70be8d9402adf9c6f,61036c3ec47011d51cdbae68,2021-07-29_20h08.55.548,Simcolourproject_2stim_asymm_v5,2020.2.10,MacIntel,60,61025ae37ef11b136ea224fe,,,,,,,,,2108,108.7734375,38.390625,1,0,0,response1disk,,6,-16.640625,-5.39453125,1,0,0,rectangle,-16.640625,-5.39453125,1,0,0,-16.640625,-5.39453125,1,0,0,1,45,205,40,1,,,,,,,,
,,,,,,,,,,,,,FF,,,,,,,,1.0998,,,,,,,,,,,,,,,,,,,,,,610314f70be8d9402adf9c6f,61036c3ec47011d51cdbae68,2021-07-29_20h08.55.548,Simcolourproject_2stim_asymm_v5,2020.2.10,MacIntel,60,61025ae37ef11b136ea224fe,,,,,,,,,3690,60.640625,124.9570313,1,0,0,response1disk,,7,12.2109375,1.015625,1,0,0,rectangle,12.2109375,1.015625,1,0,0,12.2109375,1.015625,1,0,0,1,46,206,136,1,,,,,,,,
,,,,,,,,,,,,,FF,,,,,,,,1.0173,,,,,,,,,,,,,,,,,,,,,,610314f70be8d9402adf9c6f,61036c3ec47011d51cdbae68,2021-07-29_20h08.55.548,Simcolourproject_2stim_asymm_v5,2020.2.10,MacIntel,60,61025ae37ef11b136ea224fe,,,,,,,,,273,60.19921875,100.28125,1,0,0,response1disk,,7,5.72265625,0.30078125,1,0,0,rectangle,5.72265625,0.30078125,1,0,0,5.72265625,0.30078125,1,0,0,1,47,207,84,1,,,,,,,,
,,,,,,,,,,,,,FF,,,,,,,,0.9502,,,,,,,,,,,,,,,,,,,,,,610314f70be8d9402adf9c6f,61036c3ec47011d51cdbae68,2021-07-29_20h08.55.548,Simcolourproject_2stim_asymm_v5,2020.2.10,MacIntel,60,61025ae37ef11b136ea224fe,,,,,,,,,3686,102.09375,33.7578125,1,0,0,response1disk,,6,15.27734375,1.15625,1,0,0,rectangle,15.27734375,1.15625,1,0,0,15.27734375,1.15625,1,0,0,1,48,208,43,1,,,,,,,,
,,,,,,,,,,,,,FF,,,,,,,,1.4492,,,,,,,,,,,,,,,,,,,,,,610314f70be8d9402adf9c6f,61036c3ec47011d51cdbae68,2021-07-29_20h08.55.548,Simcolourproject_2stim_asymm_v5,2020.2.10,MacIntel,60,61025ae37ef11b136ea224fe,,,,,,,,,106,74.4453125,18.296875,1,0,0,response1disk,,6,13.078125,-4.2890625,1,0,0,rectangle,13.078125,-4.2890625,1,0,0,13.078125,-4.2890625,1,0,0,1,49,209,64,1,,,,,,,,
,,,,,,,,,,,,,FF,,,,,,,,0.9004,,,,,,,,,,,,,,,,,,,,,,610314f70be8d9402adf9c6f,61036c3ec47011d51cdbae68,2021-07-29_20h08.55.548,Simcolourproject_2stim_asymm_v5,2020.2.10,MacIntel,60,61025ae37ef11b136ea224fe,,,,,,,,,551,67.4921875,-47.7265625,1,0,0,response3disk,,5,-4.7578125,2.296875,1,0,0,rectangle,-4.7578125,2.296875,1,0,0,-4.7578125,2.296875,1,0,0,1,50,210,115,1,,,,,,,,
,,,,,,,,,,,,,FF,,,,,,,,1.1502,,,,,,,,,,,,,,,,,,,,,,610314f70be8d9402adf9c6f,61036c3ec47011d51cdbae68,2021-07-29_20h08.55.548,Simcolourproject_2stim_asymm_v5,2020.2.10,MacIntel,60,61025ae37ef11b136ea224fe,,,,,,,,,2903,98.5625,33.6953125,1,0,0,response1disk,,6,10.50390625,12.32421875,1,0,0,rectangle,10.50390625,12.32421875,1,0,0,10.50390625,12.32421875,1,0,0,1,51,211,9,1,,,,,,,,
,,,,,,,,,,,,,FF,,,,,,,,2.9681,,,,,,,,,,,,,,,,,,,,,,610314f70be8d9402adf9c6f,61036c3ec47011d51cdbae68,2021-07-29_20h08.55.548,Simcolourproject_2stim_asymm_v5,2020.2.10,MacIntel,60,61025ae37ef11b136ea224fe,,,,,,,,,332,45.54296875,83.99609375,1,0,0,response1disk,,7,7.34375,-12.6953125,1,0,0,rectangle,7.34375,-12.6953125,1,0,0,7.34375,-12.6953125,1,0,0,1,52,212,150,1,,,,,,,,
,,,,,,,,,,,,,FF,,,,,,,,1.4842,,,,,,,,,,,,,,,,,,,,,,610314f70be8d9402adf9c6f,61036c3ec47011d51cdbae68,2021-07-29_20h08.55.548,Simcolourproject_2stim_asymm_v5,2020.2.10,MacIntel,60,61025ae37ef11b136ea224fe,,,,,,,,,1922,45.45703125,100.8007813,1,0,0,response1disk,,7,-10.2578125,-3.87109375,1,0,0,rectangle,-10.2578125,-3.87109375,1,0,0,-10.2578125,-3.87109375,1,0,0,1,53,213,63,1,,,,,,,,
,,,,,,,,,,,,,FF,,,,,,,,1.2513,,,,,,,,,,,,,,,,,,,,,,610314f70be8d9402adf9c6f,61036c3ec47011d51cdbae68,2021-07-29_20h08.55.548,Simcolourproject_2stim_asymm_v5,2020.2.10,MacIntel,60,61025ae37ef11b136ea224fe,,,,,,,,,1575,42.40234375,66.86328125,1,0,0,response1disk,,7,-1.7734375,-2.11328125,1,0,0,rectangle,-1.7734375,-2.11328125,1,0,0,-1.7734375,-2.11328125,1,0,0,1,54,214,5,1,,,,,,,,
,,,,,,,,,,,,,FF,,,,,,,,0.6168,,,,,,,,,,,,,,,,,,,,,,610314f70be8d9402adf9c6f,61036c3ec47011d51cdbae68,2021-07-29_20h08.55.548,Simcolourproject_2stim_asymm_v5,2020.2.10,MacIntel,60,61025ae37ef11b136ea224fe,,,,,,,,,499,45.484375,63.015625,1,0,0,response1disk,,7,5.2109375,0.05078125,1,0,0,rectangle,5.2109375,0.05078125,1,0,0,5.2109375,0.05078125,1,0,0,1,55,215,61,1,,,,,,,,
,,,,,,,,,,,,,FF,,,,,,,,1.1335,,,,,,,,,,,,,,,,,,,,,,610314f70be8d9402adf9c6f,61036c3ec47011d51cdbae68,2021-07-29_20h08.55.548,Simcolourproject_2stim_asymm_v5,2020.2.10,MacIntel,60,61025ae37ef11b136ea224fe,,,,,,,,,2899,46.97265625,-79.98828125,1,0,0,response3disk,,4,8.3984375,3.82421875,1,0,0,rectangle,8.3984375,3.82421875,1,0,0,8.3984375,3.82421875,1,0,0,1,56,216,2,1,,,,,,,,
,,,,,,,,,,,,,FF,,,,,,,,1.9668,,,,,,,,,,,,,,,,,,,,,,610314f70be8d9402adf9c6f,61036c3ec47011d51cdbae68,2021-07-29_20h08.55.548,Simcolourproject_2stim_asymm_v5,2020.2.10,MacIntel,60,61025ae37ef11b136ea224fe,,,,,,,,,801,-81.671875,27.9609375,1,0,0,response7disk,,1,10.7578125,11.9296875,1,0,0,rectangle,10.7578125,11.9296875,1,0,0,10.7578125,11.9296875,1,0,0,1,57,217,108,1,,,,,,,,
,,,,,,,,,,,,,FF,,,,,,,,1.2495,,,,,,,,,,,,,,,,,,,,,,610314f70be8d9402adf9c6f,61036c3ec47011d51cdbae68,2021-07-29_20h08.55.548,Simcolourproject_2stim_asymm_v5,2020.2.10,MacIntel,60,61025ae37ef11b136ea224fe,,,,,,,,,4018,49.6640625,76.3203125,1,0,0,response1disk,,7,0.77734375,-8.2265625,1,0,0,rectangle,0.77734375,-8.2265625,1,0,0,0.77734375,-8.2265625,1,0,0,1,58,218,1,1,,,,,,,,
,,,,,,,,,,,,,FF,,,,,,,,0.9828,,,,,,,,,,,,,,,,,,,,,,610314f70be8d9402adf9c6f,61036c3ec47011d51cdbae68,2021-07-29_20h08.55.548,Simcolourproject_2stim_asymm_v5,2020.2.10,MacIntel,60,61025ae37ef11b136ea224fe,,,,,,,,,3754,-36.890625,-83.80859375,1,0,0,response5disk,,3,0.59765625,-4.12890625,1,0,0,rectangle,0.59765625,-4.12890625,1,0,0,0.59765625,-4.12890625,1,0,0,1,59,219,146,1,,,,,,,,
,,,,,,,,,,,,,FF,,,,,,,,1.2661,,,,,,,,,,,,,,,,,,,,,,610314f70be8d9402adf9c6f,61036c3ec47011d51cdbae68,2021-07-29_20h08.55.548,Simcolourproject_2stim_asymm_v5,2020.2.10,MacIntel,60,61025ae37ef11b136ea224fe,,,,,,,,,1849,35.3828125,59.63671875,1,0,0,response1disk,,7,0.13671875,-2.2734375,1,0,0,rectangle,0.13671875,-2.2734375,1,0,0,0.13671875,-2.2734375,1,0,0,1,60,220,50,1,,,,,,,,
,,,,,,,,,,,,,FF,,,,,,,,0.9502,,,,,,,,,,,,,,,,,,,,,,610314f70be8d9402adf9c6f,61036c3ec47011d51cdbae68,2021-07-29_20h08.55.548,Simcolourproject_2stim_asymm_v5,2020.2.10,MacIntel,60,61025ae37ef11b136ea224fe,,,,,,,,,1631,22.8046875,82.5859375,1,0,0,response1disk,,7,9.78515625,-2.3671875,1,0,0,rectangle,9.78515625,-2.3671875,1,0,0,9.78515625,-2.3671875,1,0,0,1,61,221,87,1,,,,,,,,
,,,,,,,,,,,,,FF,,,,,,,,1.1176,,,,,,,,,,,,,,,,,,,,,,610314f70be8d9402adf9c6f,61036c3ec47011d51cdbae68,2021-07-29_20h08.55.548,Simcolourproject_2stim_asymm_v5,2020.2.10,MacIntel,60,61025ae37ef11b136ea224fe,,,,,,,,,1566,31.7578125,78.67578125,1,0,0,response1disk,,7,-1.64453125,2.66015625,1,0,0,rectangle,-1.64453125,2.66015625,1,0,0,-1.64453125,2.66015625,1,0,0,1,62,222,54,1,,,,,,,,
,,,,,,,,,,,,,FF,,,,,,,,0.817,,,,,,,,,,,,,,,,,,,,,,610314f70be8d9402adf9c6f,61036c3ec47011d51cdbae68,2021-07-29_20h08.55.548,Simcolourproject_2stim_asymm_v5,2020.2.10,MacIntel,60,61025ae37ef11b136ea224fe,,,,,,,,,3697,23.5703125,60.43359375,1,0,0,response1disk,,7,-2.66015625,3.08984375,1,0,0,rectangle,-2.66015625,3.08984375,1,0,0,-2.66015625,3.08984375,1,0,0,1,63,223,109,1,,,,,,,,
,,,,,,,,,,,,,FF,,,,,,,,0.8503,,,,,,,,,,,,,,,,,,,,,,610314f70be8d9402adf9c6f,61036c3ec47011d51cdbae68,2021-07-29_20h08.55.548,Simcolourproject_2stim_asymm_v5,2020.2.10,MacIntel,60,61025ae37ef11b136ea224fe,,,,,,,,,1795,27.5859375,42.8203125,1,0,0,response1disk,,7,1.37109375,-1.03515625,1,0,0,rectangle,1.37109375,-1.03515625,1,0,0,1.37109375,-1.03515625,1,0,0,1,64,224,52,1,,,,,,,,
,,,,,,,,,,,,,FF,,,,,,,,1.0674,,,,,,,,,,,,,,,,,,,,,,610314f70be8d9402adf9c6f,61036c3ec47011d51cdbae68,2021-07-29_20h08.55.548,Simcolourproject_2stim_asymm_v5,2020.2.10,MacIntel,60,61025ae37ef11b136ea224fe,,,,,,,,,690,38.953125,63.93359375,1,0,0,response1disk,,7,13.02734375,2.46484375,1,0,0,rectangle,13.02734375,2.46484375,1,0,0,13.02734375,2.46484375,1,0,0,1,65,225,117,1,,,,,,,,
,,,,,,,,,,,,,FF,,,,,,,,1.5005,,,,,,,,,,,,,,,,,,,,,,610314f70be8d9402adf9c6f,61036c3ec47011d51cdbae68,2021-07-29_20h08.55.548,Simcolourproject_2stim_asymm_v5,2020.2.10,MacIntel,60,61025ae37ef11b136ea224fe,,,,,,,,,4182,76.18359375,-30.9609375,1,0,0,response3disk,,5,2.1328125,-10.2578125,1,0,0,rectangle,2.1328125,-10.2578125,1,0,0,2.1328125,-10.2578125,1,0,0,1,66,226,123,1,,,,,,,,
,,,,,,,,,,,,,FF,,,,,,,,0.9335,,,,,,,,,,,,,,,,,,,,,,610314f70be8d9402adf9c6f,61036c3ec47011d51cdbae68,2021-07-29_20h08.55.548,Simcolourproject_2stim_asymm_v5,2020.2.10,MacIntel,60,61025ae37ef11b136ea224fe,,,,,,,,,2957,64.9765625,20.83203125,1,0,0,response1disk,,6,11.859375,-7.08203125,1,0,0,rectangle,11.859375,-7.08203125,1,0,0,11.859375,-7.08203125,1,0,0,1,67,227,59,1,,,,,,,,
,,,,,,,,,,,,,FF,,,,,,,,0.8334,,,,,,,,,,,,,,,,,,,,,,610314f70be8d9402adf9c6f,61036c3ec47011d51cdbae68,2021-07-29_20h08.55.548,Simcolourproject_2stim_asymm_v5,2020.2.10,MacIntel,60,61025ae37ef11b136ea224fe,,,,,,,,,1506,31.546875,44.49609375,1,0,0,response1disk,,7,10.8828125,3.46484375,1,0,0,rectangle,10.8828125,3.46484375,1,0,0,10.8828125,3.46484375,1,0,0,1,68,228,27,1,,,,,,,,
,,,,,,,,,,,,,FF,,,,,,,,0.7496,,,,,,,,,,,,,,,,,,,,,,610314f70be8d9402adf9c6f,61036c3ec47011d51cdbae68,2021-07-29_20h08.55.548,Simcolourproject_2stim_asymm_v5,2020.2.10,MacIntel,60,61025ae37ef11b136ea224fe,,,,,,,,,2578,32.67578125,48.9296875,1,0,0,response1disk,,7,3.02734375,-4.93359375,1,0,0,rectangle,3.02734375,-4.93359375,1,0,0,3.02734375,-4.93359375,1,0,0,1,69,229,153,1,,,,,,,,
,,,,,,,,,,,,,FF,,,,,,,,1.0999,,,,,,,,,,,,,,,,,,,,,,610314f70be8d9402adf9c6f,61036c3ec47011d51cdbae68,2021-07-29_20h08.55.548,Simcolourproject_2stim_asymm_v5,2020.2.10,MacIntel,60,61025ae37ef11b136ea224fe,,,,,,,,,2440,69.921875,41.140625,1,0,0,response1disk,,6,-9.44921875,-6.078125,1,0,0,rectangle,-9.44921875,-6.078125,1,0,0,-9.44921875,-6.078125,1,0,0,1,70,230,46,1,,,,,,,,
,,,,,,,,,,,,,FF,,,,,,,,1.4495,,,,,,,,,,,,,,,,,,,,,,610314f70be8d9402adf9c6f,61036c3ec47011d51cdbae68,2021-07-29_20h08.55.548,Simcolourproject_2stim_asymm_v5,2020.2.10,MacIntel,60,61025ae37ef11b136ea224fe,,,,,,,,,2544,-29.6796875,-88.296875,1,0,0,response5disk,,3,12.0625,7.60546875,1,0,0,rectangle,12.0625,7.60546875,1,0,0,12.0625,7.60546875,1,0,0,1,71,231,77,1,,,,,,,,
,,,,,,,,,,,,,FF,,,,,,,,0.8838,,,,,,,,,,,,,,,,,,,,,,610314f70be8d9402adf9c6f,61036c3ec47011d51cdbae68,2021-07-29_20h08.55.548,Simcolourproject_2stim_asymm_v5,2020.2.10,MacIntel,60,61025ae37ef11b136ea224fe,,,,,,,,,1044,55.89453125,35.25,1,0,0,response1disk,,6,0.37890625,-8.23046875,1,0,0,rectangle,0.37890625,-8.23046875,1,0,0,0.37890625,-8.23046875,1,0,0,1,72,232,53,1,,,,,,,,
,,,,,,,,,,,,,FF,,,,,,,,1.4164,,,,,,,,,,,,,,,,,,,,,,610314f70be8d9402adf9c6f,61036c3ec47011d51cdbae68,2021-07-29_20h08.55.548,Simcolourproject_2stim_asymm_v5,2020.2.10,MacIntel,60,61025ae37ef11b136ea224fe,,,,,,,,,667,72.06640625,35.05078125,1,0,0,response1disk,,6,10.42578125,-5.05078125,1,0,0,rectangle,10.42578125,-5.05078125,1,0,0,10.42578125,-5.05078125,1,0,0,1,73,233,99,1,,,,,,,,
,,,,,,,,,,,,,FF,,,,,,,,1.1317,,,,,,,,,,,,,,,,,,,,,,610314f70be8d9402adf9c6f,61036c3ec47011d51cdbae68,2021-07-29_20h08.55.548,Simcolourproject_2stim_asymm_v5,2020.2.10,MacIntel,60,61025ae37ef11b136ea224fe,,,,,,,,,3246,36.28515625,-74.3046875,1,0,0,response3disk,,4,20.5234375,15.46484375,1,0,0,rectangle,20.5234375,15.46484375,1,0,0,20.5234375,15.46484375,1,0,0,1,74,234,126,1,,,,,,,,
,,,,,,,,,,,,,FF,,,,,,,,1.7664,,,,,,,,,,,,,,,,,,,,,,610314f70be8d9402adf9c6f,61036c3ec47011d51cdbae68,2021-07-29_20h08.55.548,Simcolourproject_2stim_asymm_v5,2020.2.10,MacIntel,60,61025ae37ef11b136ea224fe,,,,,,,,,784,36.3046875,63.1328125,1,0,0,response1disk,,7,8.890625,-3.671875,1,0,0,rectangle,8.890625,-3.671875,1,0,0,8.890625,-3.671875,1,0,0,1,75,235,34,1,,,,,,,,
,,,,,,,,,,,,,FF,,,,,,,,0.8339,,,,,,,,,,,,,,,,,,,,,,610314f70be8d9402adf9c6f,61036c3ec47011d51cdbae68,2021-07-29_20h08.55.548,Simcolourproject_2stim_asymm_v5,2020.2.10,MacIntel,60,61025ae37ef11b136ea224fe,,,,,,,,,1126,31.3671875,58.37890625,1,0,0,response1disk,,7,-8.83203125,4.08203125,1,0,0,rectangle,-8.83203125,4.08203125,1,0,0,-8.83203125,4.08203125,1,0,0,1,76,236,48,1,,,,,,,,
,,,,,,,,,,,,,FF,,,,,,,,1.3179,,,,,,,,,,,,,,,,,,,,,,610314f70be8d9402adf9c6f,61036c3ec47011d51cdbae68,2021-07-29_20h08.55.548,Simcolourproject_2stim_asymm_v5,2020.2.10,MacIntel,60,61025ae37ef11b136ea224fe,,,,,,,,,378,68.33984375,-40.23828125,1,0,0,response3disk,,5,7.953125,-6.16015625,1,0,0,rectangle,7.953125,-6.16015625,1,0,0,7.953125,-6.16015625,1,0,0,1,77,237,89,1,,,,,,,,
,,,,,,,,,,,,,FF,,,,,,,,1.1348,,,,,,,,,,,,,,,,,,,,,,610314f70be8d9402adf9c6f,61036c3ec47011d51cdbae68,2021-07-29_20h08.55.548,Simcolourproject_2stim_asymm_v5,2020.2.10,MacIntel,60,61025ae37ef11b136ea224fe,,,,,,,,,2473,73.87109375,29.4453125,1,0,0,response1disk,,6,20.5234375,-2.94140625,1,0,0,rectangle,20.5234375,-2.94140625,1,0,0,20.5234375,-2.94140625,1,0,0,1,78,238,21,1,,,,,,,,
,,,,,,,,,,,,,FF,,,,,,,,1.2503,,,,,,,,,,,,,,,,,,,,,,610314f70be8d9402adf9c6f,61036c3ec47011d51cdbae68,2021-07-29_20h08.55.548,Simcolourproject_2stim_asymm_v5,2020.2.10,MacIntel,60,61025ae37ef11b136ea224fe,,,,,,,,,2845,32.68359375,-75.8046875,1,0,0,response3disk,,4,2.8203125,0.828125,1,0,0,rectangle,2.8203125,0.828125,1,0,0,2.8203125,0.828125,1,0,0,1,79,239,71,1,,,,,,,,
,,,,,,,,,,,,,FF,,,,,,,,2.0171,,,,,,,,,,,,,,,,,,,,,,610314f70be8d9402adf9c6f,61036c3ec47011d51cdbae68,2021-07-29_20h08.55.548,Simcolourproject_2stim_asymm_v5,2020.2.10,MacIntel,60,61025ae37ef11b136ea224fe,,,,,,,,,1940,81.73828125,-28.28125,1,0,0,response3disk,,5,15.30078125,-10.63671875,1,0,0,rectangle,15.30078125,-10.63671875,1,0,0,15.30078125,-10.63671875,1,0,0,1,80,240,32,1,,,,,,,,
,,,,,,,,,,,,,FF,,,,,,,,1.2501,,,,,,,,,,,,,,,,,,,,,,610314f70be8d9402adf9c6f,61036c3ec47011d51cdbae68,2021-07-29_20h08.55.548,Simcolourproject_2stim_asymm_v5,2020.2.10,MacIntel,60,61025ae37ef11b136ea224fe,,,,,,,,,375,-25.36328125,-86.19140625,1,0,0,response5disk,,3,13.0234375,8.546875,1,0,0,rectangle,13.0234375,8.546875,1,0,0,13.0234375,8.546875,1,0,0,1,81,241,90,1,,,,,,,,
,,,,,,,,,,,,,FF,,,,,,,,15.8358,,,,,,,,,,,,,,,,,,,,,,610314f70be8d9402adf9c6f,61036c3ec47011d51cdbae68,2021-07-29_20h08.55.548,Simcolourproject_2stim_asymm_v5,2020.2.10,MacIntel,60,61025ae37ef11b136ea224fe,,,,,,,,,3083,55.8125,21.63671875,1,0,0,response1disk,,6,17.33203125,6.00390625,1,0,0,rectangle,17.33203125,6.00390625,1,0,0,17.33203125,6.00390625,1,0,0,1,82,242,41,1,,,,,,,,
,,,,,,,,,,,,,FF,,,,,,,,1.1501,,,,,,,,,,,,,,,,,,,,,,610314f70be8d9402adf9c6f,61036c3ec47011d51cdbae68,2021-07-29_20h08.55.548,Simcolourproject_2stim_asymm_v5,2020.2.10,MacIntel,60,61025ae37ef11b136ea224fe,,,,,,,,,130,37.71875,57.95703125,1,0,0,response1disk,,7,-5.8671875,-1.5234375,1,0,0,rectangle,-5.8671875,-1.5234375,1,0,0,-5.8671875,-1.5234375,1,0,0,1,83,243,124,1,,,,,,,,
,,,,,,,,,,,,,FF,,,,,,,,0.8997,,,,,,,,,,,,,,,,,,,,,,610314f70be8d9402adf9c6f,61036c3ec47011d51cdbae68,2021-07-29_20h08.55.548,Simcolourproject_2stim_asymm_v5,2020.2.10,MacIntel,60,61025ae37ef11b136ea224fe,,,,,,,,,473,70.4921875,30.015625,1,0,0,response1disk,,6,6.45703125,1.15625,1,0,0,rectangle,6.45703125,1.15625,1,0,0,6.45703125,1.15625,1,0,0,1,84,244,75,1,,,,,,,,
,,,,,,,,,,,,,FF,,,,,,,,0.7662,,,,,,,,,,,,,,,,,,,,,,610314f70be8d9402adf9c6f,61036c3ec47011d51cdbae68,2021-07-29_20h08.55.548,Simcolourproject_2stim_asymm_v5,2020.2.10,MacIntel,60,61025ae37ef11b136ea224fe,,,,,,,,,4288,27.48046875,41.65625,1,0,0,response1disk,,7,5.44140625,9.1328125,1,0,0,rectangle,5.44140625,9.1328125,1,0,0,5.44140625,9.1328125,1,0,0,1,85,245,69,1,,,,,,,,
,,,,,,,,,,,,,FF,,,,,,,,1.1015,,,,,,,,,,,,,,,,,,,,,,610314f70be8d9402adf9c6f,61036c3ec47011d51cdbae68,2021-07-29_20h08.55.548,Simcolourproject_2stim_asymm_v5,2020.2.10,MacIntel,60,61025ae37ef11b136ea224fe,,,,,,,,,1107,36.87890625,53.3828125,1,0,0,response1disk,,7,14.33984375,1.55859375,1,0,0,rectangle,14.33984375,1.55859375,1,0,0,14.33984375,1.55859375,1,0,0,1,86,246,26,1,,,,,,,,
,,,,,,,,,,,,,FF,,,,,,,,0.7492,,,,,,,,,,,,,,,,,,,,,,610314f70be8d9402adf9c6f,61036c3ec47011d51cdbae68,2021-07-29_20h08.55.548,Simcolourproject_2stim_asymm_v5,2020.2.10,MacIntel,60,61025ae37ef11b136ea224fe,,,,,,,,,2284,55.7265625,-19.359375,1,0,0,response3disk,,5,16.61328125,4.3984375,1,0,0,rectangle,16.61328125,4.3984375,1,0,0,16.61328125,4.3984375,1,0,0,1,87,247,127,1,,,,,,,,
,,,,,,,,,,,,,FF,,,,,,,,0.6675,,,,,,,,,,,,,,,,,,,,,,610314f70be8d9402adf9c6f,61036c3ec47011d51cdbae68,2021-07-29_20h08.55.548,Simcolourproject_2stim_asymm_v5,2020.2.10,MacIntel,60,61025ae37ef11b136ea224fe,,,,,,,,,3028,51.4921875,72.37109375,1,0,0,response1disk,,7,17.859375,4.14453125,1,0,0,rectangle,17.859375,4.14453125,1,0,0,17.859375,4.14453125,1,0,0,1,88,248,156,1,,,,,,,,
,,,,,,,,,,,,,FF,,,,,,,,0.8009,,,,,,,,,,,,,,,,,,,,,,610314f70be8d9402adf9c6f,61036c3ec47011d51cdbae68,2021-07-29_20h08.55.548,Simcolourproject_2stim_asymm_v5,2020.2.10,MacIntel,60,61025ae37ef11b136ea224fe,,,,,,,,,3782,54.65625,-68.16015625,1,0,0,response3disk,,4,8.765625,-4.01953125,1,0,0,rectangle,8.765625,-4.01953125,1,0,0,8.765625,-4.01953125,1,0,0,1,89,249,107,1,,,,,,,,
,,,,,,,,,,,,,FF,,,,,,,,1.9189,,,,,,,,,,,,,,,,,,,,,,610314f70be8d9402adf9c6f,61036c3ec47011d51cdbae68,2021-07-29_20h08.55.548,Simcolourproject_2stim_asymm_v5,2020.2.10,MacIntel,60,61025ae37ef11b136ea224fe,,,,,,,,,1278,77.3984375,-37.6328125,1,0,0,response3disk,,5,29.2890625,-15.01171875,1,0,0,rectangle,29.2890625,-15.01171875,1,0,0,29.2890625,-15.01171875,1,0,0,1,90,250,67,1,,,,,,,,
