key_resp.keys,key_resp.rt,key_resp_14.keys,key_resp_14.rt,key_resp_15.keys,key_resp_15.rt,key_resp_17.keys,key_resp_17.rt,key_resp_9.keys,key_resp_9.rt,key_resp_10.keys,key_resp_10.rt,practice_comparison,Ecc,mouse_5.x,mouse_5.y,mouse_5.leftButton,mouse_5.midButton,mouse_5.rightButton,mouse_5.clicked_name,pracsimilarity,response_time,mouse_10.x,mouse_10.y,mouse_10.leftButton,mouse_10.midButton,mouse_10.rightButton,mouse_10.clicked_name,mouse_7.x,mouse_7.y,mouse_7.leftButton,mouse_7.midButton,mouse_7.rightButton,mouse_6.x,mouse_6.y,mouse_6.leftButton,mouse_6.midButton,mouse_6.rightButton,duringprac.thisRepN,duringprac.thisTrialN,duringprac.thisN,duringprac.thisIndex,duringprac.ran,participant,session,date,expName,psychopyVersion,OS,frameRate,study_id,mouse_7.clicked_name,catchpracsimilarity,catch_response_time,catchnumberprac,catchtrialorderprac,mouse_6.clicked_name,key_resp_22.keys,key_resp_22.rt,realcomparison,mouse.x,mouse.y,mouse.leftButton,mouse.midButton,mouse.rightButton,mouse.clicked_name,Colour2,similarity,mouse_2.x,mouse_2.y,mouse_2.leftButton,mouse_2.midButton,mouse_2.rightButton,mouse_2.clicked_name,mouse_3.x,mouse_3.y,mouse_3.leftButton,mouse_3.midButton,mouse_3.rightButton,mouse_11.x,mouse_11.y,mouse_11.leftButton,mouse_11.midButton,mouse_11.rightButton,trials_2.thisRepN,trials_2.thisTrialN,trials_2.thisN,trials_2.thisIndex,trials_2.ran,Colour1,mouse_3.clicked_name,catchornah,catchsimilarity,catchnumber,catchtrialorder,catchRT,mouse_11.clicked_name
space,1.3136,space,26.8925,space,27.592,space,5.1889,space,2.9513,space,5.1147,91,PF,43.09765625,-97.93359375,1,0,0,response3disk_5,4,6.0016,-6.14453125,8.8125,1,0,0,rectangle_8,-6.14453125,8.8125,1,0,0,-6.14453125,8.8125,1,0,0,0,0,0,6,1,610339d9df9af20e59c4c686,610368b2c1a5986f00de04fa,2021-07-29_22h50.25.071,Simcolourproject_2stim_asymm_v5,2020.2.10,MacIntel,60,61025ae37ef11b136ea224fe,,,,,,,,,,,,,,,,,,,,,,,,,,,,,,,,,,,,,,,,,,,,,,
,,,,,,,,,,,,10,FF,-67.7890625,32.19921875,1,0,0,response7disk_5,1,4.0172,2.8671875,-0.8828125,1,0,0,rectangle_8,-35.17578125,82.9375,1,0,0,1.2890625,-0.546875,1,0,0,0,1,1,5,1,610339d9df9af20e59c4c686,610368b2c1a5986f00de04fa,2021-07-29_22h50.25.071,Simcolourproject_2stim_asymm_v5,2020.2.10,MacIntel,60,61025ae37ef11b136ea224fe,response7disk_7,0,3.5515,0,"[2,5]",rectangle_4,,,,,,,,,,,,,,,,,,,,,,,,,,,,,,,,,,,,,,,,
,,,,,,,,,,,,149,PF,-43.76953125,-57.390625,1,0,0,response5disk_5,3,1.6345,1.64453125,-0.5,1,0,0,rectangle_8,1.64453125,-0.5,1,0,0,1.64453125,-0.5,1,0,0,0,2,2,1,1,610339d9df9af20e59c4c686,610368b2c1a5986f00de04fa,2021-07-29_22h50.25.071,Simcolourproject_2stim_asymm_v5,2020.2.10,MacIntel,60,61025ae37ef11b136ea224fe,,,,,,,,,,,,,,,,,,,,,,,,,,,,,,,,,,,,,,,,,,,,,,
,,,,,,,,,,,,8,FF,44.36328125,-92.09375,1,0,0,response3disk_5,4,3.7001,3.66796875,-3.703125,1,0,0,rectangle_8,3.66796875,-3.703125,1,0,0,3.66796875,-3.703125,1,0,0,0,3,3,3,1,610339d9df9af20e59c4c686,610368b2c1a5986f00de04fa,2021-07-29_22h50.25.071,Simcolourproject_2stim_asymm_v5,2020.2.10,MacIntel,60,61025ae37ef11b136ea224fe,,,,,,,,,,,,,,,,,,,,,,,,,,,,,,,,,,,,,,,,,,,,,,
,,,,,,,,,,,,90,PF,90.0546875,57.6171875,1,0,0,response1disk_5,6,3.4024,-19.28125,-2.390625,1,0,0,rectangle_8,-35.08203125,80.53125,1,0,0,-7.421875,-0.1484375,1,0,0,0,4,4,2,1,610339d9df9af20e59c4c686,610368b2c1a5986f00de04fa,2021-07-29_22h50.25.071,Simcolourproject_2stim_asymm_v5,2020.2.10,MacIntel,60,61025ae37ef11b136ea224fe,response7disk_7,0,1.6156,0,"[2,5]",rectangle_4,,,,,,,,,,,,,,,,,,,,,,,,,,,,,,,,,,,,,,,,
,,,,,,,,,,,,30,PF,-60.40625,-27.171875,1,0,0,response5disk_5,2,1.4499,7.453125,10.62109375,1,0,0,rectangle_8,7.453125,10.62109375,1,0,0,7.453125,10.62109375,1,0,0,0,5,5,4,1,610339d9df9af20e59c4c686,610368b2c1a5986f00de04fa,2021-07-29_22h50.25.071,Simcolourproject_2stim_asymm_v5,2020.2.10,MacIntel,60,61025ae37ef11b136ea224fe,,,,,,,,,,,,,,,,,,,,,,,,,,,,,,,,,,,,,,,,,,,,,,
,,,,,,,,,,,,71,FF,88.87109375,-29.81640625,1,0,0,response3disk_5,5,1.935,-7.51171875,5.8515625,1,0,0,rectangle_8,-7.51171875,5.8515625,1,0,0,-7.51171875,5.8515625,1,0,0,0,6,6,0,1,610339d9df9af20e59c4c686,610368b2c1a5986f00de04fa,2021-07-29_22h50.25.071,Simcolourproject_2stim_asymm_v5,2020.2.10,MacIntel,60,61025ae37ef11b136ea224fe,,,,,,,,,,,,,,,,,,,,,,,,,,,,,,,,,,,,,,,,,,,,,,
,,,,,,,,,,,,,FF,,,,,,,,1.4501,,,,,,,,,,,,,,,,,,,,,,610339d9df9af20e59c4c686,610368b2c1a5986f00de04fa,2021-07-29_22h50.25.071,Simcolourproject_2stim_asymm_v5,2020.2.10,MacIntel,60,61025ae37ef11b136ea224fe,,,,,,,space,33.9236,1028,42.06640625,-90.828125,1,0,0,response3disk,,4,-1.265625,3.83203125,1,0,0,rectangle,-1.265625,3.83203125,1,0,0,-1.265625,3.83203125,1,0,0,0,0,0,29,1,,,,,,,,
,,,,,,,,,,,,,FF,,,,,,,,2.7997,,,,,,,,,,,,,,,,,,,,,,610339d9df9af20e59c4c686,610368b2c1a5986f00de04fa,2021-07-29_22h50.25.071,Simcolourproject_2stim_asymm_v5,2020.2.10,MacIntel,60,61025ae37ef11b136ea224fe,,,,,,,,,1445,-48,59.953125,1,0,0,response7disk,,0,2.46875,-7.58984375,1,0,0,rectangle,2.46875,-7.58984375,1,0,0,2.46875,-7.58984375,1,0,0,0,1,1,143,1,,,,,,,,
,,,,,,,,,,,,,FF,,,,,,,,0.9513,,,,,,,,,,,,,,,,,,,,,,610339d9df9af20e59c4c686,610368b2c1a5986f00de04fa,2021-07-29_22h50.25.071,Simcolourproject_2stim_asymm_v5,2020.2.10,MacIntel,60,61025ae37ef11b136ea224fe,,,,,,,,,2363,-71.4453125,-48.9375,1,0,0,response5disk,,2,11.76171875,4.83203125,1,0,0,rectangle,11.76171875,4.83203125,1,0,0,11.76171875,4.83203125,1,0,0,0,2,2,100,1,,,,,,,,
,,,,,,,,,,,,,FF,,,,,,,,1.0342,,,,,,,,,,,,,,,,,,,,,,610339d9df9af20e59c4c686,610368b2c1a5986f00de04fa,2021-07-29_22h50.25.071,Simcolourproject_2stim_asymm_v5,2020.2.10,MacIntel,60,61025ae37ef11b136ea224fe,,,,,,,,,3352,49.34765625,-75.23828125,1,0,0,response3disk,,4,3.88671875,-0.65625,1,0,0,rectangle,3.88671875,-0.65625,1,0,0,3.88671875,-0.65625,1,0,0,0,3,3,120,1,,,,,,,,
,,,,,,,,,,,,,FF,,,,,,,,1.4496,,,,,,,,,,,,,,,,,,,,,,610339d9df9af20e59c4c686,610368b2c1a5986f00de04fa,2021-07-29_22h50.25.071,Simcolourproject_2stim_asymm_v5,2020.2.10,MacIntel,60,61025ae37ef11b136ea224fe,,,,,,,,,435,-84.76171875,-51.57421875,1,0,0,response5disk,,2,6.33203125,-2.0859375,1,0,0,rectangle,6.33203125,-2.0859375,1,0,0,6.33203125,-2.0859375,1,0,0,0,4,4,62,1,,,,,,,,
,,,,,,,,,,,,,FF,,,,,,,,2.033,,,,,,,,,,,,,,,,,,,,,,610339d9df9af20e59c4c686,610368b2c1a5986f00de04fa,2021-07-29_22h50.25.071,Simcolourproject_2stim_asymm_v5,2020.2.10,MacIntel,60,61025ae37ef11b136ea224fe,,,,,,,,,2676,-27.8984375,-73.92578125,1,0,0,response5disk,,3,2.140625,16.85546875,1,0,0,rectangle,2.140625,16.85546875,1,0,0,2.140625,16.85546875,1,0,0,0,5,5,91,1,,,,,,,,
,,,,,,,,,,,,,FF,,,,,,,,1.5683,,,,,,,,,,,,,,,,,,,,,,610339d9df9af20e59c4c686,610368b2c1a5986f00de04fa,2021-07-29_22h50.25.071,Simcolourproject_2stim_asymm_v5,2020.2.10,MacIntel,60,61025ae37ef11b136ea224fe,,,,,,,,,3435,-63.45703125,-88.62109375,1,0,0,response5disk,,3,4.65234375,-1.87109375,1,0,0,rectangle,4.65234375,-1.87109375,1,0,0,4.65234375,-1.87109375,1,0,0,0,6,6,137,1,,,,,,,,
,,,,,,,,,,,,,FF,,,,,,,,1.4658,,,,,,,,,,,,,,,,,,,,,,610339d9df9af20e59c4c686,610368b2c1a5986f00de04fa,2021-07-29_22h50.25.071,Simcolourproject_2stim_asymm_v5,2020.2.10,MacIntel,60,61025ae37ef11b136ea224fe,,,,,,,,,1161,103.953125,28.28515625,1,0,0,response1disk,,6,12.234375,7.87109375,1,0,0,rectangle,12.234375,7.87109375,1,0,0,12.234375,7.87109375,1,0,0,0,7,7,97,1,,,,,,,,
,,,,,,,,,,,,,FF,,,,,,,,1.3505,,,,,,,,,,,,,,,,,,,,,,610339d9df9af20e59c4c686,610368b2c1a5986f00de04fa,2021-07-29_22h50.25.071,Simcolourproject_2stim_asymm_v5,2020.2.10,MacIntel,60,61025ae37ef11b136ea224fe,,,,,,,,,2222,61.28125,-94.58203125,1,0,0,response3disk,,4,17.09375,-2.83203125,1,0,0,rectangle,17.09375,-2.83203125,1,0,0,17.09375,-2.83203125,1,0,0,0,8,8,36,1,,,,,,,,
,,,,,,,,,,,,,FF,,,,,,,,1.719,,,,,,,,,,,,,,,,,,,,,,610339d9df9af20e59c4c686,610368b2c1a5986f00de04fa,2021-07-29_22h50.25.071,Simcolourproject_2stim_asymm_v5,2020.2.10,MacIntel,60,61025ae37ef11b136ea224fe,,,,,,,,,2152,79.9921875,-52.21484375,1,0,0,response3disk,,5,18.84765625,-5.83203125,1,0,0,rectangle,18.84765625,-5.83203125,1,0,0,18.84765625,-5.83203125,1,0,0,0,9,9,82,1,,,,,,,,
,,,,,,,,,,,,,FF,,,,,,,,1.415,,,,,,,,,,,,,,,,,,,,,,610339d9df9af20e59c4c686,610368b2c1a5986f00de04fa,2021-07-29_22h50.25.071,Simcolourproject_2stim_asymm_v5,2020.2.10,MacIntel,60,61025ae37ef11b136ea224fe,,,,,,,,,2424,-34.33203125,-67.09375,1,0,0,response5disk,,3,10.02734375,2.58984375,1,0,0,rectangle,10.02734375,2.58984375,1,0,0,10.02734375,2.58984375,1,0,0,0,10,10,90,1,,,,,,,,
,,,,,,,,,,,,,FF,,,,,,,,1.5671,,,,,,,,,,,,,,,,,,,,,,610339d9df9af20e59c4c686,610368b2c1a5986f00de04fa,2021-07-29_22h50.25.071,Simcolourproject_2stim_asymm_v5,2020.2.10,MacIntel,60,61025ae37ef11b136ea224fe,,,,,,,,,2537,89.140625,28.234375,1,0,0,response1disk,,6,6.3828125,-2.1484375,1,0,0,rectangle,6.3828125,-2.1484375,1,0,0,6.3828125,-2.1484375,1,0,0,0,11,11,30,1,,,,,,,,
,,,,,,,,,,,,,FF,,,,,,,,1.7667,,,,,,,,,,,,,,,,,,,,,,610339d9df9af20e59c4c686,610368b2c1a5986f00de04fa,2021-07-29_22h50.25.071,Simcolourproject_2stim_asymm_v5,2020.2.10,MacIntel,60,61025ae37ef11b136ea224fe,,,,,,,,,654,61.65234375,-85.4375,1,0,0,response3disk,,4,-0.33984375,-4.35546875,1,0,0,rectangle,-66.96875,-41.2890625,1,0,0,8.453125,3.12109375,1,0,0,0,12,12,157,1,,response5disk_3,TRUE,2,2,"[181,196,255,247,13,54,149,119,18,234,53,193,203,16,198,275,149,143,203,308]",1.9678,rectangle
,,,,,,,,,,,,,FF,,,,,,,,1.0002,,,,,,,,,,,,,,,,,,,,,,610339d9df9af20e59c4c686,610368b2c1a5986f00de04fa,2021-07-29_22h50.25.071,Simcolourproject_2stim_asymm_v5,2020.2.10,MacIntel,60,61025ae37ef11b136ea224fe,,,,,,,,,2892,-44.73046875,-61.359375,1,0,0,response5disk,,3,-9.36328125,1.61328125,1,0,0,rectangle,-9.36328125,1.61328125,1,0,0,-9.36328125,1.61328125,1,0,0,0,13,13,67,1,,,,,,,,
,,,,,,,,,,,,,FF,,,,,,,,1.0462,,,,,,,,,,,,,,,,,,,,,,610339d9df9af20e59c4c686,610368b2c1a5986f00de04fa,2021-07-29_22h50.25.071,Simcolourproject_2stim_asymm_v5,2020.2.10,MacIntel,60,61025ae37ef11b136ea224fe,,,,,,,,,3953,27.46875,-75.26171875,1,0,0,response3disk,,4,-3.71484375,-3.859375,1,0,0,rectangle,-3.71484375,-3.859375,1,0,0,-3.71484375,-3.859375,1,0,0,0,14,14,122,1,,,,,,,,
,,,,,,,,,,,,,FF,,,,,,,,2.5169,,,,,,,,,,,,,,,,,,,,,,610339d9df9af20e59c4c686,610368b2c1a5986f00de04fa,2021-07-29_22h50.25.071,Simcolourproject_2stim_asymm_v5,2020.2.10,MacIntel,60,61025ae37ef11b136ea224fe,,,,,,,,,4081,58.859375,-90.46875,1,0,0,response3disk,,4,-2.296875,-0.4609375,1,0,0,rectangle,-74.2734375,40.94921875,1,0,0,17.83984375,-5.87890625,1,0,0,0,15,15,17,1,,response7disk_3,TRUE,1,1,"[181,196,255,247,13,54,149,119,18,234,53,193,203,16,198,275,149,143,203,308]",1.3816,rectangle
,,,,,,,,,,,,,FF,,,,,,,,0.9672,,,,,,,,,,,,,,,,,,,,,,610339d9df9af20e59c4c686,610368b2c1a5986f00de04fa,2021-07-29_22h50.25.071,Simcolourproject_2stim_asymm_v5,2020.2.10,MacIntel,60,61025ae37ef11b136ea224fe,,,,,,,,,2182,100.2109375,49.61328125,1,0,0,response1disk,,6,-14.76953125,-9.8671875,1,0,0,rectangle,-14.76953125,-9.8671875,1,0,0,-14.76953125,-9.8671875,1,0,0,0,16,16,75,1,,,,,,,,
,,,,,,,,,,,,,FF,,,,,,,,1.1825,,,,,,,,,,,,,,,,,,,,,,610339d9df9af20e59c4c686,610368b2c1a5986f00de04fa,2021-07-29_22h50.25.071,Simcolourproject_2stim_asymm_v5,2020.2.10,MacIntel,60,61025ae37ef11b136ea224fe,,,,,,,,,1354,83.1328125,-55.93359375,1,0,0,response3disk,,5,-1.89453125,7.58984375,1,0,0,rectangle,-37.27734375,60.8671875,1,0,0,24.859375,-2.93359375,1,0,0,0,17,17,5,1,,response7disk_3,TRUE,0,0,"[181,196,255,247,13,54,149,119,18,234,53,193,203,16,198,275,149,143,203,308]",1.4157,rectangle
,,,,,,,,,,,,,FF,,,,,,,,1.9341,,,,,,,,,,,,,,,,,,,,,,610339d9df9af20e59c4c686,610368b2c1a5986f00de04fa,2021-07-29_22h50.25.071,Simcolourproject_2stim_asymm_v5,2020.2.10,MacIntel,60,61025ae37ef11b136ea224fe,,,,,,,,,2416,92.76171875,53.4140625,1,0,0,response1disk,,6,1.796875,0.1328125,1,0,0,rectangle,1.796875,0.1328125,1,0,0,1.796875,0.1328125,1,0,0,0,18,18,35,1,,,,,,,,
,,,,,,,,,,,,,FF,,,,,,,,2.5334,,,,,,,,,,,,,,,,,,,,,,610339d9df9af20e59c4c686,610368b2c1a5986f00de04fa,2021-07-29_22h50.25.071,Simcolourproject_2stim_asymm_v5,2020.2.10,MacIntel,60,61025ae37ef11b136ea224fe,,,,,,,,,1004,48.671875,67.265625,1,0,0,response1disk,,7,-11.890625,-8.53125,1,0,0,rectangle,-11.890625,-8.53125,1,0,0,-11.890625,-8.53125,1,0,0,0,19,19,4,1,,,,,,,,
,,,,,,,,,,,,,FF,,,,,,,,1.066,,,,,,,,,,,,,,,,,,,,,,610339d9df9af20e59c4c686,610368b2c1a5986f00de04fa,2021-07-29_22h50.25.071,Simcolourproject_2stim_asymm_v5,2020.2.10,MacIntel,60,61025ae37ef11b136ea224fe,,,,,,,,,1931,91.6875,18.03515625,1,0,0,response1disk,,6,26.32421875,-10.66796875,1,0,0,rectangle,26.32421875,-10.66796875,1,0,0,26.32421875,-10.66796875,1,0,0,0,20,20,102,1,,,,,,,,
,,,,,,,,,,,,,FF,,,,,,,,1.1007,,,,,,,,,,,,,,,,,,,,,,610339d9df9af20e59c4c686,610368b2c1a5986f00de04fa,2021-07-29_22h50.25.071,Simcolourproject_2stim_asymm_v5,2020.2.10,MacIntel,60,61025ae37ef11b136ea224fe,,,,,,,,,4035,76.2578125,-61.9375,1,0,0,response3disk,,5,20.2421875,-4.546875,1,0,0,rectangle,20.2421875,-4.546875,1,0,0,20.2421875,-4.546875,1,0,0,0,21,21,88,1,,,,,,,,
,,,,,,,,,,,,,FF,,,,,,,,1.3171,,,,,,,,,,,,,,,,,,,,,,610339d9df9af20e59c4c686,610368b2c1a5986f00de04fa,2021-07-29_22h50.25.071,Simcolourproject_2stim_asymm_v5,2020.2.10,MacIntel,60,61025ae37ef11b136ea224fe,,,,,,,,,1482,79.453125,37.82421875,1,0,0,response1disk,,6,-8.2734375,-1.75,1,0,0,rectangle,-8.2734375,-1.75,1,0,0,-8.2734375,-1.75,1,0,0,0,22,22,95,1,,,,,,,,
,,,,,,,,,,,,,FF,,,,,,,,1.0835,,,,,,,,,,,,,,,,,,,,,,610339d9df9af20e59c4c686,610368b2c1a5986f00de04fa,2021-07-29_22h50.25.071,Simcolourproject_2stim_asymm_v5,2020.2.10,MacIntel,60,61025ae37ef11b136ea224fe,,,,,,,,,1547,45.171875,62.13671875,1,0,0,response1disk,,7,13.2578125,7.79296875,1,0,0,rectangle,13.2578125,7.79296875,1,0,0,13.2578125,7.79296875,1,0,0,0,23,23,107,1,,,,,,,,
,,,,,,,,,,,,,FF,,,,,,,,1.0178,,,,,,,,,,,,,,,,,,,,,,610339d9df9af20e59c4c686,610368b2c1a5986f00de04fa,2021-07-29_22h50.25.071,Simcolourproject_2stim_asymm_v5,2020.2.10,MacIntel,60,61025ae37ef11b136ea224fe,,,,,,,,,1268,38.05078125,67.95703125,1,0,0,response1disk,,7,17.2734375,6.05078125,1,0,0,rectangle,17.2734375,6.05078125,1,0,0,17.2734375,6.05078125,1,0,0,0,24,24,41,1,,,,,,,,
,,,,,,,,,,,,,FF,,,,,,,,1.451,,,,,,,,,,,,,,,,,,,,,,610339d9df9af20e59c4c686,610368b2c1a5986f00de04fa,2021-07-29_22h50.25.071,Simcolourproject_2stim_asymm_v5,2020.2.10,MacIntel,60,61025ae37ef11b136ea224fe,,,,,,,,,2194,38.22265625,64.66015625,1,0,0,response1disk,,7,27.12890625,-4.29296875,1,0,0,rectangle,27.12890625,-4.29296875,1,0,0,27.12890625,-4.29296875,1,0,0,0,25,25,101,1,,,,,,,,
,,,,,,,,,,,,,FF,,,,,,,,1.1008,,,,,,,,,,,,,,,,,,,,,,610339d9df9af20e59c4c686,610368b2c1a5986f00de04fa,2021-07-29_22h50.25.071,Simcolourproject_2stim_asymm_v5,2020.2.10,MacIntel,60,61025ae37ef11b136ea224fe,,,,,,,,,4116,22.91796875,59.61328125,1,0,0,response1disk,,7,3.9609375,-3.65234375,1,0,0,rectangle,3.9609375,-3.65234375,1,0,0,3.9609375,-3.65234375,1,0,0,0,26,26,84,1,,,,,,,,
,,,,,,,,,,,,,FF,,,,,,,,1.0496,,,,,,,,,,,,,,,,,,,,,,610339d9df9af20e59c4c686,610368b2c1a5986f00de04fa,2021-07-29_22h50.25.071,Simcolourproject_2stim_asymm_v5,2020.2.10,MacIntel,60,61025ae37ef11b136ea224fe,,,,,,,,,3101,-68.06640625,28.73046875,1,0,0,response7disk,,1,12.79296875,-4.93359375,1,0,0,rectangle,12.79296875,-4.93359375,1,0,0,12.79296875,-4.93359375,1,0,0,0,27,27,105,1,,,,,,,,
,,,,,,,,,,,,,FF,,,,,,,,0.8832,,,,,,,,,,,,,,,,,,,,,,610339d9df9af20e59c4c686,610368b2c1a5986f00de04fa,2021-07-29_22h50.25.071,Simcolourproject_2stim_asymm_v5,2020.2.10,MacIntel,60,61025ae37ef11b136ea224fe,,,,,,,,,3621,29.76171875,75.15625,1,0,0,response1disk,,7,23.95703125,2.26171875,1,0,0,rectangle,23.95703125,2.26171875,1,0,0,23.95703125,2.26171875,1,0,0,0,28,28,19,1,,,,,,,,
,,,,,,,,,,,,,FF,,,,,,,,1.1849,,,,,,,,,,,,,,,,,,,,,,610339d9df9af20e59c4c686,610368b2c1a5986f00de04fa,2021-07-29_22h50.25.071,Simcolourproject_2stim_asymm_v5,2020.2.10,MacIntel,60,61025ae37ef11b136ea224fe,,,,,,,,,1130,42.44921875,71.48046875,1,0,0,response1disk,,7,18.2109375,3.31640625,1,0,0,rectangle,18.2109375,3.31640625,1,0,0,18.2109375,3.31640625,1,0,0,0,29,29,77,1,,,,,,,,
,,,,,,,,,,,,,FF,,,,,,,,1.0164,,,,,,,,,,,,,,,,,,,,,,610339d9df9af20e59c4c686,610368b2c1a5986f00de04fa,2021-07-29_22h50.25.071,Simcolourproject_2stim_asymm_v5,2020.2.10,MacIntel,60,61025ae37ef11b136ea224fe,,,,,,,,,76,-84.16796875,-30.9609375,1,0,0,response5disk,,2,-3.078125,3.6171875,1,0,0,rectangle,-3.078125,3.6171875,1,0,0,-3.078125,3.6171875,1,0,0,0,30,30,60,1,,,,,,,,
,,,,,,,,,,,,,FF,,,,,,,,1.8517,,,,,,,,,,,,,,,,,,,,,,610339d9df9af20e59c4c686,610368b2c1a5986f00de04fa,2021-07-29_22h50.25.071,Simcolourproject_2stim_asymm_v5,2020.2.10,MacIntel,60,61025ae37ef11b136ea224fe,,,,,,,,,3598,-33.71875,-92.41015625,1,0,0,response5disk,,3,14.79296875,-3.64453125,1,0,0,rectangle,14.79296875,-3.64453125,1,0,0,14.79296875,-3.64453125,1,0,0,0,31,31,72,1,,,,,,,,
,,,,,,,,,,,,,FF,,,,,,,,1.0502,,,,,,,,,,,,,,,,,,,,,,610339d9df9af20e59c4c686,610368b2c1a5986f00de04fa,2021-07-29_22h50.25.071,Simcolourproject_2stim_asymm_v5,2020.2.10,MacIntel,60,61025ae37ef11b136ea224fe,,,,,,,,,1559,38.08984375,51.9765625,1,0,0,response1disk,,7,21.98828125,-8.12890625,1,0,0,rectangle,21.98828125,-8.12890625,1,0,0,21.98828125,-8.12890625,1,0,0,0,32,32,128,1,,,,,,,,
,,,,,,,,,,,,,FF,,,,,,,,0.9333,,,,,,,,,,,,,,,,,,,,,,610339d9df9af20e59c4c686,610368b2c1a5986f00de04fa,2021-07-29_22h50.25.071,Simcolourproject_2stim_asymm_v5,2020.2.10,MacIntel,60,61025ae37ef11b136ea224fe,,,,,,,,,3321,73.3359375,45.02734375,1,0,0,response1disk,,6,14.2421875,-2.48046875,1,0,0,rectangle,14.2421875,-2.48046875,1,0,0,14.2421875,-2.48046875,1,0,0,0,33,33,127,1,,,,,,,,
,,,,,,,,,,,,,FF,,,,,,,,1.5334,,,,,,,,,,,,,,,,,,,,,,610339d9df9af20e59c4c686,610368b2c1a5986f00de04fa,2021-07-29_22h50.25.071,Simcolourproject_2stim_asymm_v5,2020.2.10,MacIntel,60,61025ae37ef11b136ea224fe,,,,,,,,,1150,-50.71875,-85.796875,1,0,0,response5disk,,3,-9,-4.21484375,1,0,0,rectangle,-9,-4.21484375,1,0,0,-9,-4.21484375,1,0,0,0,34,34,149,1,,,,,,,,
,,,,,,,,,,,,,FF,,,,,,,,1.4006,,,,,,,,,,,,,,,,,,,,,,610339d9df9af20e59c4c686,610368b2c1a5986f00de04fa,2021-07-29_22h50.25.071,Simcolourproject_2stim_asymm_v5,2020.2.10,MacIntel,60,61025ae37ef11b136ea224fe,,,,,,,,,3390,-77.34375,28.859375,1,0,0,response7disk,,1,20.6484375,-3.21484375,1,0,0,rectangle,20.6484375,-3.21484375,1,0,0,20.6484375,-3.21484375,1,0,0,0,35,35,58,1,,,,,,,,
,,,,,,,,,,,,,FF,,,,,,,,1.8155,,,,,,,,,,,,,,,,,,,,,,610339d9df9af20e59c4c686,610368b2c1a5986f00de04fa,2021-07-29_22h50.25.071,Simcolourproject_2stim_asymm_v5,2020.2.10,MacIntel,60,61025ae37ef11b136ea224fe,,,,,,,,,905,88.171875,37.71875,1,0,0,response1disk,,6,8.58984375,-1.890625,1,0,0,rectangle,8.58984375,-1.890625,1,0,0,8.58984375,-1.890625,1,0,0,0,36,36,40,1,,,,,,,,
,,,,,,,,,,,,,FF,,,,,,,,1.034,,,,,,,,,,,,,,,,,,,,,,610339d9df9af20e59c4c686,610368b2c1a5986f00de04fa,2021-07-29_22h50.25.071,Simcolourproject_2stim_asymm_v5,2020.2.10,MacIntel,60,61025ae37ef11b136ea224fe,,,,,,,,,493,61.30859375,-44.296875,1,0,0,response3disk,,5,7.20703125,-15.58984375,1,0,0,rectangle,7.20703125,-15.58984375,1,0,0,7.20703125,-15.58984375,1,0,0,0,37,37,22,1,,,,,,,,
,,,,,,,,,,,,,FF,,,,,,,,1.6826,,,,,,,,,,,,,,,,,,,,,,610339d9df9af20e59c4c686,610368b2c1a5986f00de04fa,2021-07-29_22h50.25.071,Simcolourproject_2stim_asymm_v5,2020.2.10,MacIntel,60,61025ae37ef11b136ea224fe,,,,,,,,,377,64.41796875,-76.9140625,1,0,0,response3disk,,4,-6.83203125,0.42578125,1,0,0,rectangle,-6.83203125,0.42578125,1,0,0,-6.83203125,0.42578125,1,0,0,0,38,38,61,1,,,,,,,,
,,,,,,,,,,,,,FF,,,,,,,,1.0504,,,,,,,,,,,,,,,,,,,,,,610339d9df9af20e59c4c686,610368b2c1a5986f00de04fa,2021-07-29_22h50.25.071,Simcolourproject_2stim_asymm_v5,2020.2.10,MacIntel,60,61025ae37ef11b136ea224fe,,,,,,,,,1502,80.06640625,34.37109375,1,0,0,response1disk,,6,-11.5,-8.1484375,1,0,0,rectangle,-11.5,-8.1484375,1,0,0,-11.5,-8.1484375,1,0,0,0,39,39,117,1,,,,,,,,
,,,,,,,,,,,,,FF,,,,,,,,1.1331,,,,,,,,,,,,,,,,,,,,,,610339d9df9af20e59c4c686,610368b2c1a5986f00de04fa,2021-07-29_22h50.25.071,Simcolourproject_2stim_asymm_v5,2020.2.10,MacIntel,60,61025ae37ef11b136ea224fe,,,,,,,,,3098,-82.46484375,23.13671875,1,0,0,response7disk,,1,18.5859375,2.765625,1,0,0,rectangle,18.5859375,2.765625,1,0,0,18.5859375,2.765625,1,0,0,0,40,40,110,1,,,,,,,,
,,,,,,,,,,,,,FF,,,,,,,,1.9012,,,,,,,,,,,,,,,,,,,,,,610339d9df9af20e59c4c686,610368b2c1a5986f00de04fa,2021-07-29_22h50.25.071,Simcolourproject_2stim_asymm_v5,2020.2.10,MacIntel,60,61025ae37ef11b136ea224fe,,,,,,,,,3822,97.4765625,21.8515625,1,0,0,response1disk,,6,4.06640625,4.0078125,1,0,0,rectangle,4.06640625,4.0078125,1,0,0,4.06640625,4.0078125,1,0,0,0,41,41,39,1,,,,,,,,
,,,,,,,,,,,,,FF,,,,,,,,1.0001,,,,,,,,,,,,,,,,,,,,,,610339d9df9af20e59c4c686,610368b2c1a5986f00de04fa,2021-07-29_22h50.25.071,Simcolourproject_2stim_asymm_v5,2020.2.10,MacIntel,60,61025ae37ef11b136ea224fe,,,,,,,,,1135,-40.87109375,-61.265625,1,0,0,response5disk,,3,-7.94921875,-4.7109375,1,0,0,rectangle,-7.94921875,-4.7109375,1,0,0,-7.94921875,-4.7109375,1,0,0,0,42,42,150,1,,,,,,,,
,,,,,,,,,,,,,FF,,,,,,,,1.5995,,,,,,,,,,,,,,,,,,,,,,610339d9df9af20e59c4c686,610368b2c1a5986f00de04fa,2021-07-29_22h50.25.071,Simcolourproject_2stim_asymm_v5,2020.2.10,MacIntel,60,61025ae37ef11b136ea224fe,,,,,,,,,393,53.5078125,-62.71484375,1,0,0,response3disk,,4,5.78515625,1.64453125,1,0,0,rectangle,5.78515625,1.64453125,1,0,0,5.78515625,1.64453125,1,0,0,0,43,43,9,1,,,,,,,,
,,,,,,,,,,,,,FF,,,,,,,,1.1668,,,,,,,,,,,,,,,,,,,,,,610339d9df9af20e59c4c686,610368b2c1a5986f00de04fa,2021-07-29_22h50.25.071,Simcolourproject_2stim_asymm_v5,2020.2.10,MacIntel,60,61025ae37ef11b136ea224fe,,,,,,,,,675,33.1484375,79.94921875,1,0,0,response1disk,,7,13.2734375,2.5703125,1,0,0,rectangle,13.2734375,2.5703125,1,0,0,13.2734375,2.5703125,1,0,0,0,44,44,68,1,,,,,,,,
,,,,,,,,,,,,,FF,,,,,,,,1.6838,,,,,,,,,,,,,,,,,,,,,,610339d9df9af20e59c4c686,610368b2c1a5986f00de04fa,2021-07-29_22h50.25.071,Simcolourproject_2stim_asymm_v5,2020.2.10,MacIntel,60,61025ae37ef11b136ea224fe,,,,,,,,,2315,85.8046875,42.96484375,1,0,0,response1disk,,6,8.82421875,-2.81640625,1,0,0,rectangle,8.82421875,-2.81640625,1,0,0,8.82421875,-2.81640625,1,0,0,0,45,45,25,1,,,,,,,,
,,,,,,,,,,,,,FF,,,,,,,,1.0498,,,,,,,,,,,,,,,,,,,,,,610339d9df9af20e59c4c686,610368b2c1a5986f00de04fa,2021-07-29_22h50.25.071,Simcolourproject_2stim_asymm_v5,2020.2.10,MacIntel,60,61025ae37ef11b136ea224fe,,,,,,,,,1723,92.828125,38.78515625,1,0,0,response1disk,,6,16.55078125,-4.47265625,1,0,0,rectangle,16.55078125,-4.47265625,1,0,0,16.55078125,-4.47265625,1,0,0,0,46,46,154,1,,,,,,,,
,,,,,,,,,,,,,FF,,,,,,,,2.1495,,,,,,,,,,,,,,,,,,,,,,610339d9df9af20e59c4c686,610368b2c1a5986f00de04fa,2021-07-29_22h50.25.071,Simcolourproject_2stim_asymm_v5,2020.2.10,MacIntel,60,61025ae37ef11b136ea224fe,,,,,,,,,2650,38.36328125,61.9609375,1,0,0,response1disk,,7,27.96484375,3.47265625,1,0,0,rectangle,27.96484375,3.47265625,1,0,0,27.96484375,3.47265625,1,0,0,0,47,47,70,1,,,,,,,,
,,,,,,,,,,,,,FF,,,,,,,,1.133,,,,,,,,,,,,,,,,,,,,,,610339d9df9af20e59c4c686,610368b2c1a5986f00de04fa,2021-07-29_22h50.25.071,Simcolourproject_2stim_asymm_v5,2020.2.10,MacIntel,60,61025ae37ef11b136ea224fe,,,,,,,,,658,20.8984375,66.58984375,1,0,0,response1disk,,7,12.33984375,0.25,1,0,0,rectangle,12.33984375,0.25,1,0,0,12.33984375,0.25,1,0,0,0,48,48,13,1,,,,,,,,
,,,,,,,,,,,,,FF,,,,,,,,0.9995,,,,,,,,,,,,,,,,,,,,,,610339d9df9af20e59c4c686,610368b2c1a5986f00de04fa,2021-07-29_22h50.25.071,Simcolourproject_2stim_asymm_v5,2020.2.10,MacIntel,60,61025ae37ef11b136ea224fe,,,,,,,,,4242,31.6875,57.890625,1,0,0,response1disk,,7,27.67578125,7.73046875,1,0,0,rectangle,27.67578125,7.73046875,1,0,0,27.67578125,7.73046875,1,0,0,0,49,49,52,1,,,,,,,,
,,,,,,,,,,,,,FF,,,,,,,,1.1493,,,,,,,,,,,,,,,,,,,,,,610339d9df9af20e59c4c686,610368b2c1a5986f00de04fa,2021-07-29_22h50.25.071,Simcolourproject_2stim_asymm_v5,2020.2.10,MacIntel,60,61025ae37ef11b136ea224fe,,,,,,,,,2377,40.640625,-47.921875,1,0,0,response3disk,,4,7.5390625,-1.625,1,0,0,rectangle,7.5390625,-1.625,1,0,0,7.5390625,-1.625,1,0,0,0,50,50,103,1,,,,,,,,
,,,,,,,,,,,,,FF,,,,,,,,1.3496,,,,,,,,,,,,,,,,,,,,,,610339d9df9af20e59c4c686,610368b2c1a5986f00de04fa,2021-07-29_22h50.25.071,Simcolourproject_2stim_asymm_v5,2020.2.10,MacIntel,60,61025ae37ef11b136ea224fe,,,,,,,,,2558,75.7734375,38.23046875,1,0,0,response1disk,,6,7.546875,1.8828125,1,0,0,rectangle,7.546875,1.8828125,1,0,0,7.546875,1.8828125,1,0,0,0,51,51,11,1,,,,,,,,
,,,,,,,,,,,,,FF,,,,,,,,1.7,,,,,,,,,,,,,,,,,,,,,,610339d9df9af20e59c4c686,610368b2c1a5986f00de04fa,2021-07-29_22h50.25.071,Simcolourproject_2stim_asymm_v5,2020.2.10,MacIntel,60,61025ae37ef11b136ea224fe,,,,,,,,,4080,86.828125,-34.52734375,1,0,0,response3disk,,5,6.53125,-2.5,1,0,0,rectangle,-83.9140625,27.70703125,1,0,0,7.48046875,-7.62109375,1,0,0,0,52,52,48,1,,response7disk_3,TRUE,1,1,"[181,196,255,247,13,54,149,119,18,234,53,193,203,16,198,275,149,143,203,308]",1.3665,rectangle
,,,,,,,,,,,,,FF,,,,,,,,0.867,,,,,,,,,,,,,,,,,,,,,,610339d9df9af20e59c4c686,610368b2c1a5986f00de04fa,2021-07-29_22h50.25.071,Simcolourproject_2stim_asymm_v5,2020.2.10,MacIntel,60,61025ae37ef11b136ea224fe,,,,,,,,,3161,-43.3046875,-99.10546875,1,0,0,response5disk,,3,24.125,15.94921875,1,0,0,rectangle,-33.5546875,-73.52734375,1,0,0,16.22265625,-0.5859375,1,0,0,0,53,53,26,1,,response5disk_3,TRUE,3,3,"[181,196,255,247,13,54,149,119,18,234,53,193,203,16,198,275,149,143,203,308]",1.5138,rectangle
,,,,,,,,,,,,,FF,,,,,,,,1.2342,,,,,,,,,,,,,,,,,,,,,,610339d9df9af20e59c4c686,610368b2c1a5986f00de04fa,2021-07-29_22h50.25.071,Simcolourproject_2stim_asymm_v5,2020.2.10,MacIntel,60,61025ae37ef11b136ea224fe,,,,,,,,,3632,47.25,-79.48828125,1,0,0,response3disk,,4,6.34375,4.55859375,1,0,0,rectangle,6.34375,4.55859375,1,0,0,6.34375,4.55859375,1,0,0,0,54,54,126,1,,,,,,,,
,,,,,,,,,,,,,FF,,,,,,,,0.984,,,,,,,,,,,,,,,,,,,,,,610339d9df9af20e59c4c686,610368b2c1a5986f00de04fa,2021-07-29_22h50.25.071,Simcolourproject_2stim_asymm_v5,2020.2.10,MacIntel,60,61025ae37ef11b136ea224fe,,,,,,,,,2534,96.98828125,41.41015625,1,0,0,response1disk,,6,28.3203125,2.90625,1,0,0,rectangle,28.3203125,2.90625,1,0,0,28.3203125,2.90625,1,0,0,0,55,55,49,1,,,,,,,,
,,,,,,,,,,,,,FF,,,,,,,,1.4177,,,,,,,,,,,,,,,,,,,,,,610339d9df9af20e59c4c686,610368b2c1a5986f00de04fa,2021-07-29_22h50.25.071,Simcolourproject_2stim_asymm_v5,2020.2.10,MacIntel,60,61025ae37ef11b136ea224fe,,,,,,,,,1026,81.98828125,35.51171875,1,0,0,response1disk,,6,12.25390625,-17.37109375,1,0,0,rectangle,12.25390625,-17.37109375,1,0,0,12.25390625,-17.37109375,1,0,0,0,56,56,43,1,,,,,,,,
,,,,,,,,,,,,,FF,,,,,,,,1.315,,,,,,,,,,,,,,,,,,,,,,610339d9df9af20e59c4c686,610368b2c1a5986f00de04fa,2021-07-29_22h50.25.071,Simcolourproject_2stim_asymm_v5,2020.2.10,MacIntel,60,61025ae37ef11b136ea224fe,,,,,,,,,2827,34.16796875,-69.52734375,1,0,0,response3disk,,4,0.3359375,-6.4453125,1,0,0,rectangle,0.3359375,-6.4453125,1,0,0,0.3359375,-6.4453125,1,0,0,0,57,57,18,1,,,,,,,,
,,,,,,,,,,,,,FF,,,,,,,,2.2491,,,,,,,,,,,,,,,,,,,,,,610339d9df9af20e59c4c686,610368b2c1a5986f00de04fa,2021-07-29_22h50.25.071,Simcolourproject_2stim_asymm_v5,2020.2.10,MacIntel,60,61025ae37ef11b136ea224fe,,,,,,,,,263,62.65234375,-25.9140625,1,0,0,response3disk,,5,14.07421875,-3.62109375,1,0,0,rectangle,14.07421875,-3.62109375,1,0,0,14.07421875,-3.62109375,1,0,0,0,58,58,79,1,,,,,,,,
,,,,,,,,,,,,,FF,,,,,,,,0.9665,,,,,,,,,,,,,,,,,,,,,,610339d9df9af20e59c4c686,610368b2c1a5986f00de04fa,2021-07-29_22h50.25.071,Simcolourproject_2stim_asymm_v5,2020.2.10,MacIntel,60,61025ae37ef11b136ea224fe,,,,,,,,,1159,80.2890625,-50.34765625,1,0,0,response3disk,,5,6.3671875,-0.76171875,1,0,0,rectangle,6.3671875,-0.76171875,1,0,0,6.3671875,-0.76171875,1,0,0,0,59,59,142,1,,,,,,,,
,,,,,,,,,,,,,FF,,,,,,,,0.8487,,,,,,,,,,,,,,,,,,,,,,610339d9df9af20e59c4c686,610368b2c1a5986f00de04fa,2021-07-29_22h50.25.071,Simcolourproject_2stim_asymm_v5,2020.2.10,MacIntel,60,61025ae37ef11b136ea224fe,,,,,,,,,1146,60.5546875,-34.74609375,1,0,0,response3disk,,5,17.2109375,0.19921875,1,0,0,rectangle,17.2109375,0.19921875,1,0,0,17.2109375,0.19921875,1,0,0,0,60,60,38,1,,,,,,,,
,,,,,,,,,,,,,FF,,,,,,,,1.0664,,,,,,,,,,,,,,,,,,,,,,610339d9df9af20e59c4c686,610368b2c1a5986f00de04fa,2021-07-29_22h50.25.071,Simcolourproject_2stim_asymm_v5,2020.2.10,MacIntel,60,61025ae37ef11b136ea224fe,,,,,,,,,1637,85.35546875,33.23828125,1,0,0,response1disk,,6,24.4453125,-6.05859375,1,0,0,rectangle,24.4453125,-6.05859375,1,0,0,24.4453125,-6.05859375,1,0,0,0,61,61,50,1,,,,,,,,
,,,,,,,,,,,,,FF,,,,,,,,1.0994,,,,,,,,,,,,,,,,,,,,,,610339d9df9af20e59c4c686,610368b2c1a5986f00de04fa,2021-07-29_22h50.25.071,Simcolourproject_2stim_asymm_v5,2020.2.10,MacIntel,60,61025ae37ef11b136ea224fe,,,,,,,,,1002,69.6328125,29.91015625,1,0,0,response1disk,,6,26.53125,10.765625,1,0,0,rectangle,26.53125,10.765625,1,0,0,26.53125,10.765625,1,0,0,0,62,62,14,1,,,,,,,,
,,,,,,,,,,,,,FF,,,,,,,,0.7512,,,,,,,,,,,,,,,,,,,,,,610339d9df9af20e59c4c686,610368b2c1a5986f00de04fa,2021-07-29_22h50.25.071,Simcolourproject_2stim_asymm_v5,2020.2.10,MacIntel,60,61025ae37ef11b136ea224fe,,,,,,,,,2124,67.18359375,36.01953125,1,0,0,response1disk,,6,17.33203125,-5.328125,1,0,0,rectangle,17.33203125,-5.328125,1,0,0,17.33203125,-5.328125,1,0,0,0,63,63,46,1,,,,,,,,
,,,,,,,,,,,,,FF,,,,,,,,1.2169,,,,,,,,,,,,,,,,,,,,,,610339d9df9af20e59c4c686,610368b2c1a5986f00de04fa,2021-07-29_22h50.25.071,Simcolourproject_2stim_asymm_v5,2020.2.10,MacIntel,60,61025ae37ef11b136ea224fe,,,,,,,,,1881,30.71875,60.92578125,1,0,0,response1disk,,7,26.46484375,10.92578125,1,0,0,rectangle,26.46484375,10.92578125,1,0,0,26.46484375,10.92578125,1,0,0,0,64,64,111,1,,,,,,,,
,,,,,,,,,,,,,FF,,,,,,,,1.8828,,,,,,,,,,,,,,,,,,,,,,610339d9df9af20e59c4c686,610368b2c1a5986f00de04fa,2021-07-29_22h50.25.071,Simcolourproject_2stim_asymm_v5,2020.2.10,MacIntel,60,61025ae37ef11b136ea224fe,,,,,,,,,2286,21.84375,44.6796875,1,0,0,response1disk,,7,16.69921875,-2.85546875,1,0,0,rectangle,16.69921875,-2.85546875,1,0,0,16.69921875,-2.85546875,1,0,0,0,65,65,145,1,,,,,,,,
,,,,,,,,,,,,,FF,,,,,,,,0.8153,,,,,,,,,,,,,,,,,,,,,,610339d9df9af20e59c4c686,610368b2c1a5986f00de04fa,2021-07-29_22h50.25.071,Simcolourproject_2stim_asymm_v5,2020.2.10,MacIntel,60,61025ae37ef11b136ea224fe,,,,,,,,,899,22.4453125,45.48828125,1,0,0,response1disk,,7,15.71875,8.29296875,1,0,0,rectangle,15.71875,8.29296875,1,0,0,15.71875,8.29296875,1,0,0,0,66,66,109,1,,,,,,,,
,,,,,,,,,,,,,FF,,,,,,,,0.8991,,,,,,,,,,,,,,,,,,,,,,610339d9df9af20e59c4c686,610368b2c1a5986f00de04fa,2021-07-29_22h50.25.071,Simcolourproject_2stim_asymm_v5,2020.2.10,MacIntel,60,61025ae37ef11b136ea224fe,,,,,,,,,2701,59.84375,27.66796875,1,0,0,response1disk,,6,27.625,10.55859375,1,0,0,rectangle,27.625,10.55859375,1,0,0,27.625,10.55859375,1,0,0,0,67,67,121,1,,,,,,,,
,,,,,,,,,,,,,FF,,,,,,,,0.7156,,,,,,,,,,,,,,,,,,,,,,610339d9df9af20e59c4c686,610368b2c1a5986f00de04fa,2021-07-29_22h50.25.071,Simcolourproject_2stim_asymm_v5,2020.2.10,MacIntel,60,61025ae37ef11b136ea224fe,,,,,,,,,1263,33.97265625,54.921875,1,0,0,response1disk,,7,31.578125,8.4609375,1,0,0,rectangle,31.578125,8.4609375,1,0,0,31.578125,8.4609375,1,0,0,0,68,68,124,1,,,,,,,,
,,,,,,,,,,,,,FF,,,,,,,,1.0503,,,,,,,,,,,,,,,,,,,,,,610339d9df9af20e59c4c686,610368b2c1a5986f00de04fa,2021-07-29_22h50.25.071,Simcolourproject_2stim_asymm_v5,2020.2.10,MacIntel,60,61025ae37ef11b136ea224fe,,,,,,,,,553,-84.1328125,-41.30859375,1,0,0,response5disk,,2,4.5390625,7.4765625,1,0,0,rectangle,4.5390625,7.4765625,1,0,0,4.5390625,7.4765625,1,0,0,0,69,69,59,1,,,,,,,,
,,,,,,,,,,,,,FF,,,,,,,,0.8186,,,,,,,,,,,,,,,,,,,,,,610339d9df9af20e59c4c686,610368b2c1a5986f00de04fa,2021-07-29_22h50.25.071,Simcolourproject_2stim_asymm_v5,2020.2.10,MacIntel,60,61025ae37ef11b136ea224fe,,,,,,,,,457,-48.828125,-29.19921875,1,0,0,response5disk,,2,-5.953125,-7.1015625,1,0,0,rectangle,-5.953125,-7.1015625,1,0,0,-5.953125,-7.1015625,1,0,0,0,70,70,31,1,,,,,,,,
,,,,,,,,,,,,,FF,,,,,,,,0.8663,,,,,,,,,,,,,,,,,,,,,,610339d9df9af20e59c4c686,610368b2c1a5986f00de04fa,2021-07-29_22h50.25.071,Simcolourproject_2stim_asymm_v5,2020.2.10,MacIntel,60,61025ae37ef11b136ea224fe,,,,,,,,,3959,45.30859375,57.9609375,1,0,0,response1disk,,7,26.69140625,8.828125,1,0,0,rectangle,26.69140625,8.828125,1,0,0,26.69140625,8.828125,1,0,0,0,71,71,99,1,,,,,,,,
,,,,,,,,,,,,,FF,,,,,,,,0.7826,,,,,,,,,,,,,,,,,,,,,,610339d9df9af20e59c4c686,610368b2c1a5986f00de04fa,2021-07-29_22h50.25.071,Simcolourproject_2stim_asymm_v5,2020.2.10,MacIntel,60,61025ae37ef11b136ea224fe,,,,,,,,,3800,20.3046875,52.01171875,1,0,0,response1disk,,7,20.78515625,8.953125,1,0,0,rectangle,20.78515625,8.953125,1,0,0,20.78515625,8.953125,1,0,0,0,72,72,152,1,,,,,,,,
,,,,,,,,,,,,,FF,,,,,,,,0.9338,,,,,,,,,,,,,,,,,,,,,,610339d9df9af20e59c4c686,610368b2c1a5986f00de04fa,2021-07-29_22h50.25.071,Simcolourproject_2stim_asymm_v5,2020.2.10,MacIntel,60,61025ae37ef11b136ea224fe,,,,,,,,,2742,65.33203125,34.5859375,1,0,0,response1disk,,6,14.4765625,3.3359375,1,0,0,rectangle,14.4765625,3.3359375,1,0,0,14.4765625,3.3359375,1,0,0,0,73,73,45,1,,,,,,,,
,,,,,,,,,,,,,FF,,,,,,,,0.8163,,,,,,,,,,,,,,,,,,,,,,610339d9df9af20e59c4c686,610368b2c1a5986f00de04fa,2021-07-29_22h50.25.071,Simcolourproject_2stim_asymm_v5,2020.2.10,MacIntel,60,61025ae37ef11b136ea224fe,,,,,,,,,3833,66.48828125,32.51171875,1,0,0,response1disk,,6,8.48046875,5.4375,1,0,0,rectangle,8.48046875,5.4375,1,0,0,8.48046875,5.4375,1,0,0,0,74,74,135,1,,,,,,,,
,,,,,,,,,,,,,FF,,,,,,,,5.9997,,,,,,,,,,,,,,,,,,,,,,610339d9df9af20e59c4c686,610368b2c1a5986f00de04fa,2021-07-29_22h50.25.071,Simcolourproject_2stim_asymm_v5,2020.2.10,MacIntel,60,61025ae37ef11b136ea224fe,,,,,,,,,4018,54.09765625,-34.94140625,1,0,0,response3disk,,5,-6.4453125,-4.74609375,1,0,0,rectangle,-6.4453125,-4.74609375,1,0,0,-6.4453125,-4.74609375,1,0,0,0,75,75,71,1,,,,,,,,
,,,,,,,,,,,,,FF,,,,,,,,0.9158,,,,,,,,,,,,,,,,,,,,,,610339d9df9af20e59c4c686,610368b2c1a5986f00de04fa,2021-07-29_22h50.25.071,Simcolourproject_2stim_asymm_v5,2020.2.10,MacIntel,60,61025ae37ef11b136ea224fe,,,,,,,,,1492,41.17578125,65.78125,1,0,0,response1disk,,7,16.66796875,-3.80859375,1,0,0,rectangle,16.66796875,-3.80859375,1,0,0,16.66796875,-3.80859375,1,0,0,0,76,76,78,1,,,,,,,,
,,,,,,,,,,,,,FF,,,,,,,,0.95,,,,,,,,,,,,,,,,,,,,,,610339d9df9af20e59c4c686,610368b2c1a5986f00de04fa,2021-07-29_22h50.25.071,Simcolourproject_2stim_asymm_v5,2020.2.10,MacIntel,60,61025ae37ef11b136ea224fe,,,,,,,,,1718,58.7421875,26.6875,1,0,0,response1disk,,6,15.92578125,4.24609375,1,0,0,rectangle,15.92578125,4.24609375,1,0,0,15.92578125,4.24609375,1,0,0,0,77,77,24,1,,,,,,,,
,,,,,,,,,,,,,FF,,,,,,,,0.9182,,,,,,,,,,,,,,,,,,,,,,610339d9df9af20e59c4c686,610368b2c1a5986f00de04fa,2021-07-29_22h50.25.071,Simcolourproject_2stim_asymm_v5,2020.2.10,MacIntel,60,61025ae37ef11b136ea224fe,,,,,,,,,1427,-64.359375,-28.6640625,1,0,0,response5disk,,2,-6.078125,-1.6328125,1,0,0,rectangle,-6.078125,-1.6328125,1,0,0,-6.078125,-1.6328125,1,0,0,0,78,78,56,1,,,,,,,,
,,,,,,,,,,,,,FF,,,,,,,,1.1667,,,,,,,,,,,,,,,,,,,,,,610339d9df9af20e59c4c686,610368b2c1a5986f00de04fa,2021-07-29_22h50.25.071,Simcolourproject_2stim_asymm_v5,2020.2.10,MacIntel,60,61025ae37ef11b136ea224fe,,,,,,,,,4326,-31.91796875,86.0625,1,0,0,response7disk,,0,1.12890625,-4.08203125,1,0,0,rectangle,1.12890625,-4.08203125,1,0,0,1.12890625,-4.08203125,1,0,0,0,79,79,132,1,,,,,,,,
,,,,,,,,,,,,,FF,,,,,,,,1.2667,,,,,,,,,,,,,,,,,,,,,,610339d9df9af20e59c4c686,610368b2c1a5986f00de04fa,2021-07-29_22h50.25.071,Simcolourproject_2stim_asymm_v5,2020.2.10,MacIntel,60,61025ae37ef11b136ea224fe,,,,,,,,,1541,-36.9609375,-86.640625,1,0,0,response5disk,,3,10.8046875,-1.3125,1,0,0,rectangle,10.8046875,-1.3125,1,0,0,10.8046875,-1.3125,1,0,0,0,80,80,51,1,,,,,,,,
,,,,,,,,,,,,,FF,,,,,,,,1.2673,,,,,,,,,,,,,,,,,,,,,,610339d9df9af20e59c4c686,610368b2c1a5986f00de04fa,2021-07-29_22h50.25.071,Simcolourproject_2stim_asymm_v5,2020.2.10,MacIntel,60,61025ae37ef11b136ea224fe,,,,,,,,,1621,26.07421875,-84.34375,1,0,0,response3disk,,4,2.48046875,-3.68359375,1,0,0,rectangle,2.48046875,-3.68359375,1,0,0,2.48046875,-3.68359375,1,0,0,0,81,81,129,1,,,,,,,,
,,,,,,,,,,,,,FF,,,,,,,,0.8669,,,,,,,,,,,,,,,,,,,,,,610339d9df9af20e59c4c686,610368b2c1a5986f00de04fa,2021-07-29_22h50.25.071,Simcolourproject_2stim_asymm_v5,2020.2.10,MacIntel,60,61025ae37ef11b136ea224fe,,,,,,,,,2480,-32.6640625,55.8359375,1,0,0,response7disk,,0,-3.2578125,5.515625,1,0,0,rectangle,-3.2578125,5.515625,1,0,0,-3.2578125,5.515625,1,0,0,0,82,82,74,1,,,,,,,,
,,,,,,,,,,,,,FF,,,,,,,,0.816,,,,,,,,,,,,,,,,,,,,,,610339d9df9af20e59c4c686,610368b2c1a5986f00de04fa,2021-07-29_22h50.25.071,Simcolourproject_2stim_asymm_v5,2020.2.10,MacIntel,60,61025ae37ef11b136ea224fe,,,,,,,,,2484,-50.12109375,-24.38671875,1,0,0,response5disk,,2,-5.8984375,0.96875,1,0,0,rectangle,-5.8984375,0.96875,1,0,0,-5.8984375,0.96875,1,0,0,0,83,83,138,1,,,,,,,,
,,,,,,,,,,,,,FF,,,,,,,,0.7491,,,,,,,,,,,,,,,,,,,,,,610339d9df9af20e59c4c686,610368b2c1a5986f00de04fa,2021-07-29_22h50.25.071,Simcolourproject_2stim_asymm_v5,2020.2.10,MacIntel,60,61025ae37ef11b136ea224fe,,,,,,,,,2678,-42.94921875,-86.5703125,1,0,0,response5disk,,3,-0.12890625,-2.69921875,1,0,0,rectangle,-0.12890625,-2.69921875,1,0,0,-0.12890625,-2.69921875,1,0,0,0,84,84,159,1,,,,,,,,
,,,,,,,,,,,,,FF,,,,,,,,0.8995,,,,,,,,,,,,,,,,,,,,,,610339d9df9af20e59c4c686,610368b2c1a5986f00de04fa,2021-07-29_22h50.25.071,Simcolourproject_2stim_asymm_v5,2020.2.10,MacIntel,60,61025ae37ef11b136ea224fe,,,,,,,,,2951,-60.21875,-31.328125,1,0,0,response5disk,,2,-15.48046875,-11.4765625,1,0,0,rectangle,-15.48046875,-11.4765625,1,0,0,-15.48046875,-11.4765625,1,0,0,0,85,85,114,1,,,,,,,,
,,,,,,,,,,,,,FF,,,,,,,,1.2154,,,,,,,,,,,,,,,,,,,,,,610339d9df9af20e59c4c686,610368b2c1a5986f00de04fa,2021-07-29_22h50.25.071,Simcolourproject_2stim_asymm_v5,2020.2.10,MacIntel,60,61025ae37ef11b136ea224fe,,,,,,,,,1190,58.27734375,-75.3515625,1,0,0,response3disk,,4,-0.6796875,4.1484375,1,0,0,rectangle,-0.6796875,4.1484375,1,0,0,-0.6796875,4.1484375,1,0,0,0,86,86,146,1,,,,,,,,
,,,,,,,,,,,,,FF,,,,,,,,1.3168,,,,,,,,,,,,,,,,,,,,,,610339d9df9af20e59c4c686,610368b2c1a5986f00de04fa,2021-07-29_22h50.25.071,Simcolourproject_2stim_asymm_v5,2020.2.10,MacIntel,60,61025ae37ef11b136ea224fe,,,,,,,,,1052,-35.6953125,-76.3671875,1,0,0,response5disk,,3,-17.87109375,-5.8203125,1,0,0,rectangle,-17.87109375,-5.8203125,1,0,0,-17.87109375,-5.8203125,1,0,0,0,87,87,54,1,,,,,,,,
,,,,,,,,,,,,,FF,,,,,,,,1.1836,,,,,,,,,,,,,,,,,,,,,,610339d9df9af20e59c4c686,610368b2c1a5986f00de04fa,2021-07-29_22h50.25.071,Simcolourproject_2stim_asymm_v5,2020.2.10,MacIntel,60,61025ae37ef11b136ea224fe,,,,,,,,,1779,52.39453125,70.51953125,1,0,0,response1disk,,7,20.890625,8.99609375,1,0,0,rectangle,20.890625,8.99609375,1,0,0,20.890625,8.99609375,1,0,0,0,88,88,28,1,,,,,,,,
,,,,,,,,,,,,,FF,,,,,,,,0.7505,,,,,,,,,,,,,,,,,,,,,,610339d9df9af20e59c4c686,610368b2c1a5986f00de04fa,2021-07-29_22h50.25.071,Simcolourproject_2stim_asymm_v5,2020.2.10,MacIntel,60,61025ae37ef11b136ea224fe,,,,,,,,,1335,18.88671875,38.6796875,1,0,0,response1disk,,7,19.484375,-4.921875,1,0,0,rectangle,19.484375,-4.921875,1,0,0,19.484375,-4.921875,1,0,0,0,89,89,83,1,,,,,,,,
,,,,,,,,,,,,,FF,,,,,,,,35.0179,,,,,,,,,,,,,,,,,,,,,,610339d9df9af20e59c4c686,610368b2c1a5986f00de04fa,2021-07-29_22h50.25.071,Simcolourproject_2stim_asymm_v5,2020.2.10,MacIntel,60,61025ae37ef11b136ea224fe,,,,,,,,,1124,-27.546875,-78.05078125,1,0,0,response5disk,,3,0.13671875,4.87890625,1,0,0,rectangle,0.13671875,4.87890625,1,0,0,0.13671875,4.87890625,1,0,0,0,90,90,37,1,,,,,,,,
,,,,,,,,,,,,,FF,,,,,,,,1.0349,,,,,,,,,,,,,,,,,,,,,,610339d9df9af20e59c4c686,610368b2c1a5986f00de04fa,2021-07-29_22h50.25.071,Simcolourproject_2stim_asymm_v5,2020.2.10,MacIntel,60,61025ae37ef11b136ea224fe,,,,,,,,,1631,60.4296875,-91.05078125,1,0,0,response3disk,,4,-0.3046875,1.15625,1,0,0,rectangle,-0.3046875,1.15625,1,0,0,-0.3046875,1.15625,1,0,0,0,91,91,98,1,,,,,,,,
,,,,,,,,,,,,,FF,,,,,,,,0.7828,,,,,,,,,,,,,,,,,,,,,,610339d9df9af20e59c4c686,610368b2c1a5986f00de04fa,2021-07-29_22h50.25.071,Simcolourproject_2stim_asymm_v5,2020.2.10,MacIntel,60,61025ae37ef11b136ea224fe,,,,,,,,,2559,84.92578125,-50.34765625,1,0,0,response3disk,,5,10.46875,-11.94140625,1,0,0,rectangle,10.46875,-11.94140625,1,0,0,10.46875,-11.94140625,1,0,0,0,92,92,94,1,,,,,,,,
,,,,,,,,,,,,,FF,,,,,,,,0.7512,,,,,,,,,,,,,,,,,,,,,,610339d9df9af20e59c4c686,610368b2c1a5986f00de04fa,2021-07-29_22h50.25.071,Simcolourproject_2stim_asymm_v5,2020.2.10,MacIntel,60,61025ae37ef11b136ea224fe,,,,,,,,,1112,69.53515625,-36.38671875,1,0,0,response3disk,,5,16.5078125,-7.7578125,1,0,0,rectangle,16.5078125,-7.7578125,1,0,0,16.5078125,-7.7578125,1,0,0,0,93,93,153,1,,,,,,,,
,,,,,,,,,,,,,FF,,,,,,,,1.0495,,,,,,,,,,,,,,,,,,,,,,610339d9df9af20e59c4c686,610368b2c1a5986f00de04fa,2021-07-29_22h50.25.071,Simcolourproject_2stim_asymm_v5,2020.2.10,MacIntel,60,61025ae37ef11b136ea224fe,,,,,,,,,4106,-43.76171875,-61.69140625,1,0,0,response5disk,,3,-13.0703125,7.171875,1,0,0,rectangle,-13.0703125,7.171875,1,0,0,-13.0703125,7.171875,1,0,0,0,94,94,86,1,,,,,,,,
,,,,,,,,,,,,,FF,,,,,,,,0.9492,,,,,,,,,,,,,,,,,,,,,,610339d9df9af20e59c4c686,610368b2c1a5986f00de04fa,2021-07-29_22h50.25.071,Simcolourproject_2stim_asymm_v5,2020.2.10,MacIntel,60,61025ae37ef11b136ea224fe,,,,,,,,,521,51.94140625,-88.98828125,1,0,0,response3disk,,4,4.3515625,10.734375,1,0,0,rectangle,4.3515625,10.734375,1,0,0,4.3515625,10.734375,1,0,0,0,95,95,42,1,,,,,,,,
,,,,,,,,,,,,,FF,,,,,,,,0.9168,,,,,,,,,,,,,,,,,,,,,,610339d9df9af20e59c4c686,610368b2c1a5986f00de04fa,2021-07-29_22h50.25.071,Simcolourproject_2stim_asymm_v5,2020.2.10,MacIntel,60,61025ae37ef11b136ea224fe,,,,,,,,,1900,-27.203125,-57.78125,1,0,0,response5disk,,3,-17.2421875,6.03515625,1,0,0,rectangle,-17.2421875,6.03515625,1,0,0,-17.2421875,6.03515625,1,0,0,0,96,96,96,1,,,,,,,,
,,,,,,,,,,,,,FF,,,,,,,,3.2834,,,,,,,,,,,,,,,,,,,,,,610339d9df9af20e59c4c686,610368b2c1a5986f00de04fa,2021-07-29_22h50.25.071,Simcolourproject_2stim_asymm_v5,2020.2.10,MacIntel,60,61025ae37ef11b136ea224fe,,,,,,,,,1687,-34.77734375,-35.125,1,0,0,response5disk,,3,-18.7265625,1.96484375,1,0,0,rectangle,-18.7265625,1.96484375,1,0,0,-18.7265625,1.96484375,1,0,0,0,97,97,93,1,,,,,,,,
,,,,,,,,,,,,,FF,,,,,,,,0.7001,,,,,,,,,,,,,,,,,,,,,,610339d9df9af20e59c4c686,610368b2c1a5986f00de04fa,2021-07-29_22h50.25.071,Simcolourproject_2stim_asymm_v5,2020.2.10,MacIntel,60,61025ae37ef11b136ea224fe,,,,,,,,,3898,-40.2890625,-53.3671875,1,0,0,response5disk,,3,-24.63671875,-7.7734375,1,0,0,rectangle,-24.63671875,-7.7734375,1,0,0,-24.63671875,-7.7734375,1,0,0,0,98,98,112,1,,,,,,,,
,,,,,,,,,,,,,FF,,,,,,,,1.2338,,,,,,,,,,,,,,,,,,,,,,610339d9df9af20e59c4c686,610368b2c1a5986f00de04fa,2021-07-29_22h50.25.071,Simcolourproject_2stim_asymm_v5,2020.2.10,MacIntel,60,61025ae37ef11b136ea224fe,,,,,,,,,946,45.171875,65.71484375,1,0,0,response1disk,,7,31.203125,5.3203125,1,0,0,rectangle,31.203125,5.3203125,1,0,0,31.203125,5.3203125,1,0,0,0,99,99,147,1,,,,,,,,
,,,,,,,,,,,,,FF,,,,,,,,0.8837,,,,,,,,,,,,,,,,,,,,,,610339d9df9af20e59c4c686,610368b2c1a5986f00de04fa,2021-07-29_22h50.25.071,Simcolourproject_2stim_asymm_v5,2020.2.10,MacIntel,60,61025ae37ef11b136ea224fe,,,,,,,,,2802,61.57421875,-40.06640625,1,0,0,response3disk,,5,16.9296875,-5.1875,1,0,0,rectangle,16.9296875,-5.1875,1,0,0,16.9296875,-5.1875,1,0,0,0,100,100,44,1,,,,,,,,
,,,,,,,,,,,,,FF,,,,,,,,1.7507,,,,,,,,,,,,,,,,,,,,,,610339d9df9af20e59c4c686,610368b2c1a5986f00de04fa,2021-07-29_22h50.25.071,Simcolourproject_2stim_asymm_v5,2020.2.10,MacIntel,60,61025ae37ef11b136ea224fe,,,,,,,,,1443,33.671875,-76.1640625,1,0,0,response3disk,,4,10.87890625,-4.2421875,1,0,0,rectangle,10.87890625,-4.2421875,1,0,0,10.87890625,-4.2421875,1,0,0,0,101,101,158,1,,,,,,,,
,,,,,,,,,,,,,FF,,,,,,,,0.8515,,,,,,,,,,,,,,,,,,,,,,610339d9df9af20e59c4c686,610368b2c1a5986f00de04fa,2021-07-29_22h50.25.071,Simcolourproject_2stim_asymm_v5,2020.2.10,MacIntel,60,61025ae37ef11b136ea224fe,,,,,,,,,1109,33.73046875,50.328125,1,0,0,response1disk,,7,30.13671875,13.65234375,1,0,0,rectangle,30.13671875,13.65234375,1,0,0,30.13671875,13.65234375,1,0,0,0,102,102,33,1,,,,,,,,
,,,,,,,,,,,,,FF,,,,,,,,0.8686,,,,,,,,,,,,,,,,,,,,,,610339d9df9af20e59c4c686,610368b2c1a5986f00de04fa,2021-07-29_22h50.25.071,Simcolourproject_2stim_asymm_v5,2020.2.10,MacIntel,60,61025ae37ef11b136ea224fe,,,,,,,,,1923,58.07421875,28.69921875,1,0,0,response1disk,,6,13.40625,-4.046875,1,0,0,rectangle,13.40625,-4.046875,1,0,0,13.40625,-4.046875,1,0,0,0,103,103,20,1,,,,,,,,
,,,,,,,,,,,,,FF,,,,,,,,1.0165,,,,,,,,,,,,,,,,,,,,,,610339d9df9af20e59c4c686,610368b2c1a5986f00de04fa,2021-07-29_22h50.25.071,Simcolourproject_2stim_asymm_v5,2020.2.10,MacIntel,60,61025ae37ef11b136ea224fe,,,,,,,,,1229,-45.3828125,-74.890625,1,0,0,response5disk,,3,-14.265625,-10.0234375,1,0,0,rectangle,-14.265625,-10.0234375,1,0,0,-14.265625,-10.0234375,1,0,0,0,104,104,8,1,,,,,,,,
,,,,,,,,,,,,,FF,,,,,,,,5.2856,,,,,,,,,,,,,,,,,,,,,,610339d9df9af20e59c4c686,610368b2c1a5986f00de04fa,2021-07-29_22h50.25.071,Simcolourproject_2stim_asymm_v5,2020.2.10,MacIntel,60,61025ae37ef11b136ea224fe,,,,,,,,,1255,-27.36328125,-64.66015625,1,0,0,response5disk,,3,-3.20703125,-2.83203125,1,0,0,rectangle,-3.20703125,-2.83203125,1,0,0,-3.20703125,-2.83203125,1,0,0,0,105,105,104,1,,,,,,,,
,,,,,,,,,,,,,FF,,,,,,,,0.8648,,,,,,,,,,,,,,,,,,,,,,610339d9df9af20e59c4c686,610368b2c1a5986f00de04fa,2021-07-29_22h50.25.071,Simcolourproject_2stim_asymm_v5,2020.2.10,MacIntel,60,61025ae37ef11b136ea224fe,,,,,,,,,1205,89.6328125,-50.4140625,1,0,0,response3disk,,5,18.02734375,-4.953125,1,0,0,rectangle,18.02734375,-4.953125,1,0,0,18.02734375,-4.953125,1,0,0,0,106,106,80,1,,,,,,,,
,,,,,,,,,,,,,FF,,,,,,,,1.9356,,,,,,,,,,,,,,,,,,,,,,610339d9df9af20e59c4c686,610368b2c1a5986f00de04fa,2021-07-29_22h50.25.071,Simcolourproject_2stim_asymm_v5,2020.2.10,MacIntel,60,61025ae37ef11b136ea224fe,,,,,,,,,2553,86.9609375,60.83203125,1,0,0,response1disk,,6,4.58984375,5.64453125,1,0,0,rectangle,4.58984375,5.64453125,1,0,0,4.58984375,5.64453125,1,0,0,0,107,107,47,1,,,,,,,,
,,,,,,,,,,,,,FF,,,,,,,,1.6016,,,,,,,,,,,,,,,,,,,,,,610339d9df9af20e59c4c686,610368b2c1a5986f00de04fa,2021-07-29_22h50.25.071,Simcolourproject_2stim_asymm_v5,2020.2.10,MacIntel,60,61025ae37ef11b136ea224fe,,,,,,,,,2217,-73.078125,-47.37890625,1,0,0,response5disk,,2,-0.88671875,-2.66796875,1,0,0,rectangle,-0.88671875,-2.66796875,1,0,0,-0.88671875,-2.66796875,1,0,0,0,108,108,106,1,,,,,,,,
,,,,,,,,,,,,,FF,,,,,,,,0.7677,,,,,,,,,,,,,,,,,,,,,,610339d9df9af20e59c4c686,610368b2c1a5986f00de04fa,2021-07-29_22h50.25.071,Simcolourproject_2stim_asymm_v5,2020.2.10,MacIntel,60,61025ae37ef11b136ea224fe,,,,,,,,,2218,-24.13671875,-55.80859375,1,0,0,response5disk,,3,10.48828125,-7.578125,1,0,0,rectangle,10.48828125,-7.578125,1,0,0,10.48828125,-7.578125,1,0,0,0,109,109,2,1,,,,,,,,
,,,,,,,,,,,,,FF,,,,,,,,1.0499,,,,,,,,,,,,,,,,,,,,,,610339d9df9af20e59c4c686,610368b2c1a5986f00de04fa,2021-07-29_22h50.25.071,Simcolourproject_2stim_asymm_v5,2020.2.10,MacIntel,60,61025ae37ef11b136ea224fe,,,,,,,,,3493,58.1484375,34.734375,1,0,0,response1disk,,6,14.484375,3.703125,1,0,0,rectangle,14.484375,3.703125,1,0,0,14.484375,3.703125,1,0,0,0,110,110,125,1,,,,,,,,
,,,,,,,,,,,,,FF,,,,,,,,0.8489,,,,,,,,,,,,,,,,,,,,,,610339d9df9af20e59c4c686,610368b2c1a5986f00de04fa,2021-07-29_22h50.25.071,Simcolourproject_2stim_asymm_v5,2020.2.10,MacIntel,60,61025ae37ef11b136ea224fe,,,,,,,,,2133,40.83203125,57.33203125,1,0,0,response1disk,,7,25.91796875,8.29296875,1,0,0,rectangle,25.91796875,8.29296875,1,0,0,25.91796875,8.29296875,1,0,0,0,111,111,141,1,,,,,,,,
,,,,,,,,,,,,,FF,,,,,,,,0.6007,,,,,,,,,,,,,,,,,,,,,,610339d9df9af20e59c4c686,610368b2c1a5986f00de04fa,2021-07-29_22h50.25.071,Simcolourproject_2stim_asymm_v5,2020.2.10,MacIntel,60,61025ae37ef11b136ea224fe,,,,,,,,,2388,27.99609375,51.05078125,1,0,0,response1disk,,7,20.5234375,-2.4140625,1,0,0,rectangle,20.5234375,-2.4140625,1,0,0,20.5234375,-2.4140625,1,0,0,0,112,112,66,1,,,,,,,,
,,,,,,,,,,,,,FF,,,,,,,,1.1834,,,,,,,,,,,,,,,,,,,,,,610339d9df9af20e59c4c686,610368b2c1a5986f00de04fa,2021-07-29_22h50.25.071,Simcolourproject_2stim_asymm_v5,2020.2.10,MacIntel,60,61025ae37ef11b136ea224fe,,,,,,,,,2178,60.3671875,-21.34375,1,0,0,response3disk,,5,-5.328125,-6.15625,1,0,0,rectangle,-5.328125,-6.15625,1,0,0,-5.328125,-6.15625,1,0,0,0,113,113,134,1,,,,,,,,
,,,,,,,,,,,,,FF,,,,,,,,0.7157,,,,,,,,,,,,,,,,,,,,,,610339d9df9af20e59c4c686,610368b2c1a5986f00de04fa,2021-07-29_22h50.25.071,Simcolourproject_2stim_asymm_v5,2020.2.10,MacIntel,60,61025ae37ef11b136ea224fe,,,,,,,,,2118,54.6484375,-24.17578125,1,0,0,response3disk,,5,23.875,1.1484375,1,0,0,rectangle,23.875,1.1484375,1,0,0,23.875,1.1484375,1,0,0,0,114,114,12,1,,,,,,,,
,,,,,,,,,,,,,FF,,,,,,,,0.9156,,,,,,,,,,,,,,,,,,,,,,610339d9df9af20e59c4c686,610368b2c1a5986f00de04fa,2021-07-29_22h50.25.071,Simcolourproject_2stim_asymm_v5,2020.2.10,MacIntel,60,61025ae37ef11b136ea224fe,,,,,,,,,649,30.1796875,-74.86328125,1,0,0,response3disk,,4,-5.08984375,1.0078125,1,0,0,rectangle,-5.08984375,1.0078125,1,0,0,-5.08984375,1.0078125,1,0,0,0,115,115,32,1,,,,,,,,
,,,,,,,,,,,,,FF,,,,,,,,1.168,,,,,,,,,,,,,,,,,,,,,,610339d9df9af20e59c4c686,610368b2c1a5986f00de04fa,2021-07-29_22h50.25.071,Simcolourproject_2stim_asymm_v5,2020.2.10,MacIntel,60,61025ae37ef11b136ea224fe,,,,,,,,,2653,-18.47265625,-81.47265625,1,0,0,response5disk,,3,0.203125,0.25,1,0,0,rectangle,0.203125,0.25,1,0,0,0.203125,0.25,1,0,0,0,116,116,69,1,,,,,,,,
,,,,,,,,,,,,,FF,,,,,,,,1.0671,,,,,,,,,,,,,,,,,,,,,,610339d9df9af20e59c4c686,610368b2c1a5986f00de04fa,2021-07-29_22h50.25.071,Simcolourproject_2stim_asymm_v5,2020.2.10,MacIntel,60,61025ae37ef11b136ea224fe,,,,,,,,,1476,42.77734375,-77.91015625,1,0,0,response3disk,,4,21.4921875,4.41796875,1,0,0,rectangle,21.4921875,4.41796875,1,0,0,21.4921875,4.41796875,1,0,0,0,117,117,21,1,,,,,,,,
,,,,,,,,,,,,,FF,,,,,,,,1.0153,,,,,,,,,,,,,,,,,,,,,,610339d9df9af20e59c4c686,610368b2c1a5986f00de04fa,2021-07-29_22h50.25.071,Simcolourproject_2stim_asymm_v5,2020.2.10,MacIntel,60,61025ae37ef11b136ea224fe,,,,,,,,,1844,77.265625,-47.046875,1,0,0,response3disk,,5,35.46484375,-6.79296875,1,0,0,rectangle,65.484375,-40.1015625,1,0,0,5.09375,8.65625,1,0,0,0,118,118,156,1,,response3disk_3,TRUE,5,5,"[181,196,255,247,13,54,149,119,18,234,53,193,203,16,198,275,149,143,203,308]",1.7657,rectangle
,,,,,,,,,,,,,FF,,,,,,,,0.866,,,,,,,,,,,,,,,,,,,,,,610339d9df9af20e59c4c686,610368b2c1a5986f00de04fa,2021-07-29_22h50.25.071,Simcolourproject_2stim_asymm_v5,2020.2.10,MacIntel,60,61025ae37ef11b136ea224fe,,,,,,,,,1057,-25.85546875,-76.49609375,1,0,0,response5disk,,3,-10.734375,0.265625,1,0,0,rectangle,-10.734375,0.265625,1,0,0,-10.734375,0.265625,1,0,0,0,119,119,115,1,,,,,,,,
,,,,,,,,,,,,,FF,,,,,,,,0.899,,,,,,,,,,,,,,,,,,,,,,610339d9df9af20e59c4c686,610368b2c1a5986f00de04fa,2021-07-29_22h50.25.071,Simcolourproject_2stim_asymm_v5,2020.2.10,MacIntel,60,61025ae37ef11b136ea224fe,,,,,,,,,303,31.61328125,-88.19921875,1,0,0,response3disk,,4,3.13671875,-12.7578125,1,0,0,rectangle,3.13671875,-12.7578125,1,0,0,3.13671875,-12.7578125,1,0,0,0,120,120,15,1,,,,,,,,
,,,,,,,,,,,,,FF,,,,,,,,2.268,,,,,,,,,,,,,,,,,,,,,,610339d9df9af20e59c4c686,610368b2c1a5986f00de04fa,2021-07-29_22h50.25.071,Simcolourproject_2stim_asymm_v5,2020.2.10,MacIntel,60,61025ae37ef11b136ea224fe,,,,,,,,,176,70.54296875,27.22265625,1,0,0,response1disk,,6,14.734375,8.08984375,1,0,0,rectangle,14.734375,8.08984375,1,0,0,14.734375,8.08984375,1,0,0,0,121,121,116,1,,,,,,,,
,,,,,,,,,,,,,FF,,,,,,,,1.2005,,,,,,,,,,,,,,,,,,,,,,610339d9df9af20e59c4c686,610368b2c1a5986f00de04fa,2021-07-29_22h50.25.071,Simcolourproject_2stim_asymm_v5,2020.2.10,MacIntel,60,61025ae37ef11b136ea224fe,,,,,,,,,4288,28.16015625,74.15234375,1,0,0,response1disk,,7,14.796875,1.55078125,1,0,0,rectangle,14.796875,1.55078125,1,0,0,14.796875,1.55078125,1,0,0,0,122,122,119,1,,,,,,,,
,,,,,,,,,,,,,FF,,,,,,,,0.917,,,,,,,,,,,,,,,,,,,,,,610339d9df9af20e59c4c686,610368b2c1a5986f00de04fa,2021-07-29_22h50.25.071,Simcolourproject_2stim_asymm_v5,2020.2.10,MacIntel,60,61025ae37ef11b136ea224fe,,,,,,,,,3859,67.9609375,15.33984375,1,0,0,response1disk,,6,23.296875,2.72265625,1,0,0,rectangle,23.296875,2.72265625,1,0,0,23.296875,2.72265625,1,0,0,0,123,123,139,1,,,,,,,,
,,,,,,,,,,,,,FF,,,,,,,,0.9338,,,,,,,,,,,,,,,,,,,,,,610339d9df9af20e59c4c686,610368b2c1a5986f00de04fa,2021-07-29_22h50.25.071,Simcolourproject_2stim_asymm_v5,2020.2.10,MacIntel,60,61025ae37ef11b136ea224fe,,,,,,,,,605,72.66015625,-41.078125,1,0,0,response3disk,,5,6.84765625,-1.19140625,1,0,0,rectangle,6.84765625,-1.19140625,1,0,0,6.84765625,-1.19140625,1,0,0,0,124,124,89,1,,,,,,,,
,,,,,,,,,,,,,FF,,,,,,,,1.5511,,,,,,,,,,,,,,,,,,,,,,610339d9df9af20e59c4c686,610368b2c1a5986f00de04fa,2021-07-29_22h50.25.071,Simcolourproject_2stim_asymm_v5,2020.2.10,MacIntel,60,61025ae37ef11b136ea224fe,,,,,,,,,1460,-63.75390625,-45.0625,1,0,0,response5disk,,2,10.0390625,-1.83984375,1,0,0,rectangle,10.0390625,-1.83984375,1,0,0,10.0390625,-1.83984375,1,0,0,0,125,125,136,1,,,,,,,,
,,,,,,,,,,,,,FF,,,,,,,,1.3323,,,,,,,,,,,,,,,,,,,,,,610339d9df9af20e59c4c686,610368b2c1a5986f00de04fa,2021-07-29_22h50.25.071,Simcolourproject_2stim_asymm_v5,2020.2.10,MacIntel,60,61025ae37ef11b136ea224fe,,,,,,,,,1179,103.7148438,45.17578125,1,0,0,response1disk,,6,6.38671875,-8.66015625,1,0,0,rectangle,6.38671875,-8.66015625,1,0,0,6.38671875,-8.66015625,1,0,0,0,126,126,23,1,,,,,,,,
,,,,,,,,,,,,,FF,,,,,,,,1.5011,,,,,,,,,,,,,,,,,,,,,,610339d9df9af20e59c4c686,610368b2c1a5986f00de04fa,2021-07-29_22h50.25.071,Simcolourproject_2stim_asymm_v5,2020.2.10,MacIntel,60,61025ae37ef11b136ea224fe,,,,,,,,,70,-22.19921875,-79.7265625,1,0,0,response5disk,,3,-11.75390625,-15.01953125,1,0,0,rectangle,-11.75390625,-15.01953125,1,0,0,-11.75390625,-15.01953125,1,0,0,0,127,127,65,1,,,,,,,,
,,,,,,,,,,,,,FF,,,,,,,,0.8337,,,,,,,,,,,,,,,,,,,,,,610339d9df9af20e59c4c686,610368b2c1a5986f00de04fa,2021-07-29_22h50.25.071,Simcolourproject_2stim_asymm_v5,2020.2.10,MacIntel,60,61025ae37ef11b136ea224fe,,,,,,,,,4056,-31.0390625,-57.9296875,1,0,0,response5disk,,3,-20.36328125,-9.9453125,1,0,0,rectangle,-20.36328125,-9.9453125,1,0,0,-20.36328125,-9.9453125,1,0,0,0,128,128,10,1,,,,,,,,
,,,,,,,,,,,,,FF,,,,,,,,0.9667,,,,,,,,,,,,,,,,,,,,,,610339d9df9af20e59c4c686,610368b2c1a5986f00de04fa,2021-07-29_22h50.25.071,Simcolourproject_2stim_asymm_v5,2020.2.10,MacIntel,60,61025ae37ef11b136ea224fe,,,,,,,,,1336,88.82421875,37.52734375,1,0,0,response1disk,,6,29.11328125,5.47265625,1,0,0,rectangle,29.11328125,5.47265625,1,0,0,29.11328125,5.47265625,1,0,0,0,129,129,144,1,,,,,,,,
,,,,,,,,,,,,,FF,,,,,,,,1.2677,,,,,,,,,,,,,,,,,,,,,,610339d9df9af20e59c4c686,610368b2c1a5986f00de04fa,2021-07-29_22h50.25.071,Simcolourproject_2stim_asymm_v5,2020.2.10,MacIntel,60,61025ae37ef11b136ea224fe,,,,,,,,,856,45.8515625,78.625,1,0,0,response1disk,,7,26.3046875,4.390625,1,0,0,rectangle,26.3046875,4.390625,1,0,0,26.3046875,4.390625,1,0,0,0,130,130,73,1,,,,,,,,
,,,,,,,,,,,,,FF,,,,,,,,1.3328,,,,,,,,,,,,,,,,,,,,,,610339d9df9af20e59c4c686,610368b2c1a5986f00de04fa,2021-07-29_22h50.25.071,Simcolourproject_2stim_asymm_v5,2020.2.10,MacIntel,60,61025ae37ef11b136ea224fe,,,,,,,,,1724,67.67578125,-29.2421875,1,0,0,response3disk,,5,16.375,-8.09375,1,0,0,rectangle,16.375,-8.09375,1,0,0,16.375,-8.09375,1,0,0,0,131,131,63,1,,,,,,,,
,,,,,,,,,,,,,FF,,,,,,,,1.0004,,,,,,,,,,,,,,,,,,,,,,610339d9df9af20e59c4c686,610368b2c1a5986f00de04fa,2021-07-29_22h50.25.071,Simcolourproject_2stim_asymm_v5,2020.2.10,MacIntel,60,61025ae37ef11b136ea224fe,,,,,,,,,1820,-56.421875,-36.10546875,1,0,0,response5disk,,2,7,3.71875,1,0,0,rectangle,7,3.71875,1,0,0,7,3.71875,1,0,0,0,132,132,87,1,,,,,,,,
,,,,,,,,,,,,,FF,,,,,,,,0.8335,,,,,,,,,,,,,,,,,,,,,,610339d9df9af20e59c4c686,610368b2c1a5986f00de04fa,2021-07-29_22h50.25.071,Simcolourproject_2stim_asymm_v5,2020.2.10,MacIntel,60,61025ae37ef11b136ea224fe,,,,,,,,,2301,-32.296875,-59.2265625,1,0,0,response5disk,,3,-25.80859375,-7.09765625,1,0,0,rectangle,-25.80859375,-7.09765625,1,0,0,-25.80859375,-7.09765625,1,0,0,0,133,133,140,1,,,,,,,,
,,,,,,,,,,,,,FF,,,,,,,,1.6,,,,,,,,,,,,,,,,,,,,,,610339d9df9af20e59c4c686,610368b2c1a5986f00de04fa,2021-07-29_22h50.25.071,Simcolourproject_2stim_asymm_v5,2020.2.10,MacIntel,60,61025ae37ef11b136ea224fe,,,,,,,,,202,78.203125,-57.18359375,1,0,0,response3disk,,5,15.75390625,-10.5078125,1,0,0,rectangle,15.75390625,-10.5078125,1,0,0,15.75390625,-10.5078125,1,0,0,0,134,134,123,1,,,,,,,,
,,,,,,,,,,,,,FF,,,,,,,,1.1321,,,,,,,,,,,,,,,,,,,,,,610339d9df9af20e59c4c686,610368b2c1a5986f00de04fa,2021-07-29_22h50.25.071,Simcolourproject_2stim_asymm_v5,2020.2.10,MacIntel,60,61025ae37ef11b136ea224fe,,,,,,,,,683,103.6171875,42.2421875,1,0,0,response1disk,,6,23.8984375,4.20703125,1,0,0,rectangle,23.8984375,4.20703125,1,0,0,23.8984375,4.20703125,1,0,0,0,135,135,131,1,,,,,,,,
,,,,,,,,,,,,,FF,,,,,,,,0.8834,,,,,,,,,,,,,,,,,,,,,,610339d9df9af20e59c4c686,610368b2c1a5986f00de04fa,2021-07-29_22h50.25.071,Simcolourproject_2stim_asymm_v5,2020.2.10,MacIntel,60,61025ae37ef11b136ea224fe,,,,,,,,,1633,28.3984375,59.5859375,1,0,0,response1disk,,7,21.58984375,9.98828125,1,0,0,rectangle,21.58984375,9.98828125,1,0,0,21.58984375,9.98828125,1,0,0,0,136,136,0,1,,,,,,,,
,,,,,,,,,,,,,FF,,,,,,,,0.8499,,,,,,,,,,,,,,,,,,,,,,610339d9df9af20e59c4c686,610368b2c1a5986f00de04fa,2021-07-29_22h50.25.071,Simcolourproject_2stim_asymm_v5,2020.2.10,MacIntel,60,61025ae37ef11b136ea224fe,,,,,,,,,3692,19.59375,64.44140625,1,0,0,response1disk,,7,20.14453125,11.39453125,1,0,0,rectangle,20.14453125,11.39453125,1,0,0,20.14453125,11.39453125,1,0,0,0,137,137,108,1,,,,,,,,
,,,,,,,,,,,,,FF,,,,,,,,0.8172,,,,,,,,,,,,,,,,,,,,,,610339d9df9af20e59c4c686,610368b2c1a5986f00de04fa,2021-07-29_22h50.25.071,Simcolourproject_2stim_asymm_v5,2020.2.10,MacIntel,60,61025ae37ef11b136ea224fe,,,,,,,,,3810,-17.95703125,65.734375,1,0,0,response7disk,,0,-10.23828125,7.453125,1,0,0,rectangle,-10.23828125,7.453125,1,0,0,-10.23828125,7.453125,1,0,0,0,138,138,148,1,,,,,,,,
,,,,,,,,,,,,,FF,,,,,,,,1.2334,,,,,,,,,,,,,,,,,,,,,,610339d9df9af20e59c4c686,610368b2c1a5986f00de04fa,2021-07-29_22h50.25.071,Simcolourproject_2stim_asymm_v5,2020.2.10,MacIntel,60,61025ae37ef11b136ea224fe,,,,,,,,,2571,85.4140625,56.37109375,1,0,0,response1disk,,6,15.2578125,0.45703125,1,0,0,rectangle,15.2578125,0.45703125,1,0,0,15.2578125,0.45703125,1,0,0,0,139,139,34,1,,,,,,,,
,,,,,,,,,,,,,FF,,,,,,,,0.9348,,,,,,,,,,,,,,,,,,,,,,610339d9df9af20e59c4c686,610368b2c1a5986f00de04fa,2021-07-29_22h50.25.071,Simcolourproject_2stim_asymm_v5,2020.2.10,MacIntel,60,61025ae37ef11b136ea224fe,,,,,,,,,3938,-55,24.99609375,1,0,0,response7disk,,1,-16.16015625,5.234375,1,0,0,rectangle,-16.16015625,5.234375,1,0,0,-16.16015625,5.234375,1,0,0,0,140,140,76,1,,,,,,,,
,,,,,,,,,,,,,FF,,,,,,,,0.8841,,,,,,,,,,,,,,,,,,,,,,610339d9df9af20e59c4c686,610368b2c1a5986f00de04fa,2021-07-29_22h50.25.071,Simcolourproject_2stim_asymm_v5,2020.2.10,MacIntel,60,61025ae37ef11b136ea224fe,,,,,,,,,292,76.3359375,24.15625,1,0,0,response1disk,,6,12.03125,5.12890625,1,0,0,rectangle,12.03125,5.12890625,1,0,0,12.03125,5.12890625,1,0,0,0,141,141,7,1,,,,,,,,
,,,,,,,,,,,,,FF,,,,,,,,0.8504,,,,,,,,,,,,,,,,,,,,,,610339d9df9af20e59c4c686,610368b2c1a5986f00de04fa,2021-07-29_22h50.25.071,Simcolourproject_2stim_asymm_v5,2020.2.10,MacIntel,60,61025ae37ef11b136ea224fe,,,,,,,,,2102,-16.89453125,-70.19140625,1,0,0,response5disk,,3,9.97265625,7.61328125,1,0,0,rectangle,40.01171875,-62.546875,1,0,0,-5.328125,-9.9609375,1,0,0,0,142,142,118,1,,response3disk_3,TRUE,4,4,"[181,196,255,247,13,54,149,119,18,234,53,193,203,16,198,275,149,143,203,308]",1.2846,rectangle
,,,,,,,,,,,,,FF,,,,,,,,0.7684,,,,,,,,,,,,,,,,,,,,,,610339d9df9af20e59c4c686,610368b2c1a5986f00de04fa,2021-07-29_22h50.25.071,Simcolourproject_2stim_asymm_v5,2020.2.10,MacIntel,60,61025ae37ef11b136ea224fe,,,,,,,,,3258,-19.9453125,-113.6953125,1,0,0,response5disk,,3,2.8984375,14.765625,1,0,0,rectangle,2.8984375,14.765625,1,0,0,2.8984375,14.765625,1,0,0,0,143,143,16,1,,,,,,,,
,,,,,,,,,,,,,FF,,,,,,,,1.1671,,,,,,,,,,,,,,,,,,,,,,610339d9df9af20e59c4c686,610368b2c1a5986f00de04fa,2021-07-29_22h50.25.071,Simcolourproject_2stim_asymm_v5,2020.2.10,MacIntel,60,61025ae37ef11b136ea224fe,,,,,,,,,3191,82.14453125,-43.69921875,1,0,0,response3disk,,5,12.234375,-13.5859375,1,0,0,rectangle,12.234375,-13.5859375,1,0,0,12.234375,-13.5859375,1,0,0,0,144,144,3,1,,,,,,,,
,,,,,,,,,,,,,FF,,,,,,,,0.8679,,,,,,,,,,,,,,,,,,,,,,610339d9df9af20e59c4c686,610368b2c1a5986f00de04fa,2021-07-29_22h50.25.071,Simcolourproject_2stim_asymm_v5,2020.2.10,MacIntel,60,61025ae37ef11b136ea224fe,,,,,,,,,2857,99.85546875,32.77734375,1,0,0,response1disk,,6,27.0078125,2.5390625,1,0,0,rectangle,27.0078125,2.5390625,1,0,0,27.0078125,2.5390625,1,0,0,0,145,145,6,1,,,,,,,,
,,,,,,,,,,,,,FF,,,,,,,,1.2994,,,,,,,,,,,,,,,,,,,,,,610339d9df9af20e59c4c686,610368b2c1a5986f00de04fa,2021-07-29_22h50.25.071,Simcolourproject_2stim_asymm_v5,2020.2.10,MacIntel,60,61025ae37ef11b136ea224fe,,,,,,,,,2521,42.21875,78.83203125,1,0,0,response1disk,,7,25.01953125,-1.5234375,1,0,0,rectangle,25.01953125,-1.5234375,1,0,0,25.01953125,-1.5234375,1,0,0,0,146,146,151,1,,,,,,,,
,,,,,,,,,,,,,FF,,,,,,,,2.4321,,,,,,,,,,,,,,,,,,,,,,610339d9df9af20e59c4c686,610368b2c1a5986f00de04fa,2021-07-29_22h50.25.071,Simcolourproject_2stim_asymm_v5,2020.2.10,MacIntel,60,61025ae37ef11b136ea224fe,,,,,,,,,2997,-46.3203125,-67.4453125,1,0,0,response5disk,,3,33.17578125,9.75390625,1,0,0,rectangle,33.17578125,9.75390625,1,0,0,33.17578125,9.75390625,1,0,0,0,147,147,55,1,,,,,,,,
,,,,,,,,,,,,,FF,,,,,,,,2.1505,,,,,,,,,,,,,,,,,,,,,,610339d9df9af20e59c4c686,610368b2c1a5986f00de04fa,2021-07-29_22h50.25.071,Simcolourproject_2stim_asymm_v5,2020.2.10,MacIntel,60,61025ae37ef11b136ea224fe,,,,,,,,,1486,77.1640625,39.87109375,1,0,0,response1disk,,6,18.28125,8.8828125,1,0,0,rectangle,90.6171875,51.9140625,1,0,0,10.671875,4.09765625,1,0,0,0,148,148,1,1,,response1disk_3,TRUE,6,6,"[181,196,255,247,13,54,149,119,18,234,53,193,203,16,198,275,149,143,203,308]",1.6333,rectangle
,,,,,,,,,,,,,FF,,,,,,,,1.2346,,,,,,,,,,,,,,,,,,,,,,610339d9df9af20e59c4c686,610368b2c1a5986f00de04fa,2021-07-29_22h50.25.071,Simcolourproject_2stim_asymm_v5,2020.2.10,MacIntel,60,61025ae37ef11b136ea224fe,,,,,,,,,2110,22.59375,-83.4375,1,0,0,response3disk,,4,-7.5234375,-11.24609375,1,0,0,rectangle,-7.5234375,-11.24609375,1,0,0,-7.5234375,-11.24609375,1,0,0,0,149,149,81,1,,,,,,,,
,,,,,,,,,,,,,FF,,,,,,,,0.9655,,,,,,,,,,,,,,,,,,,,,,610339d9df9af20e59c4c686,610368b2c1a5986f00de04fa,2021-07-29_22h50.25.071,Simcolourproject_2stim_asymm_v5,2020.2.10,MacIntel,60,61025ae37ef11b136ea224fe,,,,,,,,,98,-77.86328125,-38.0859375,1,0,0,response5disk,,2,3.07421875,-4.84765625,1,0,0,rectangle,3.07421875,-4.84765625,1,0,0,3.07421875,-4.84765625,1,0,0,0,150,150,27,1,,,,,,,,
,,,,,,,,,,,,,FF,,,,,,,,1.0163,,,,,,,,,,,,,,,,,,,,,,610339d9df9af20e59c4c686,610368b2c1a5986f00de04fa,2021-07-29_22h50.25.071,Simcolourproject_2stim_asymm_v5,2020.2.10,MacIntel,60,61025ae37ef11b136ea224fe,,,,,,,,,1182,62.53515625,47.02734375,1,0,0,response1disk,,6,11.72265625,-2.0390625,1,0,0,rectangle,11.72265625,-2.0390625,1,0,0,11.72265625,-2.0390625,1,0,0,0,151,151,85,1,,,,,,,,
,,,,,,,,,,,,,FF,,,,,,,,0.9153,,,,,,,,,,,,,,,,,,,,,,610339d9df9af20e59c4c686,610368b2c1a5986f00de04fa,2021-07-29_22h50.25.071,Simcolourproject_2stim_asymm_v5,2020.2.10,MacIntel,60,61025ae37ef11b136ea224fe,,,,,,,,,1578,29.03125,-58.4921875,1,0,0,response3disk,,4,0.55078125,-13.58984375,1,0,0,rectangle,0.55078125,-13.58984375,1,0,0,0.55078125,-13.58984375,1,0,0,0,152,152,64,1,,,,,,,,
,,,,,,,,,,,,,FF,,,,,,,,1.1004,,,,,,,,,,,,,,,,,,,,,,610339d9df9af20e59c4c686,610368b2c1a5986f00de04fa,2021-07-29_22h50.25.071,Simcolourproject_2stim_asymm_v5,2020.2.10,MacIntel,60,61025ae37ef11b136ea224fe,,,,,,,,,332,102.4101563,50.82421875,1,0,0,response1disk,,6,12.47265625,1.68359375,1,0,0,rectangle,12.47265625,1.68359375,1,0,0,12.47265625,1.68359375,1,0,0,0,153,153,53,1,,,,,,,,
,,,,,,,,,,,,,FF,,,,,,,,0.916,,,,,,,,,,,,,,,,,,,,,,610339d9df9af20e59c4c686,610368b2c1a5986f00de04fa,2021-07-29_22h50.25.071,Simcolourproject_2stim_asymm_v5,2020.2.10,MacIntel,60,61025ae37ef11b136ea224fe,,,,,,,,,4189,-36.0078125,-60.390625,1,0,0,response5disk,,3,-8.62890625,-6.6640625,1,0,0,rectangle,-8.62890625,-6.6640625,1,0,0,-8.62890625,-6.6640625,1,0,0,0,154,154,57,1,,,,,,,,
,,,,,,,,,,,,,FF,,,,,,,,0.9329,,,,,,,,,,,,,,,,,,,,,,610339d9df9af20e59c4c686,610368b2c1a5986f00de04fa,2021-07-29_22h50.25.071,Simcolourproject_2stim_asymm_v5,2020.2.10,MacIntel,60,61025ae37ef11b136ea224fe,,,,,,,,,3823,61.203125,35.90234375,1,0,0,response1disk,,6,18.6484375,-1.015625,1,0,0,rectangle,18.6484375,-1.015625,1,0,0,18.6484375,-1.015625,1,0,0,0,155,155,113,1,,,,,,,,
,,,,,,,,,,,,,FF,,,,,,,,0.9005,,,,,,,,,,,,,,,,,,,,,,610339d9df9af20e59c4c686,610368b2c1a5986f00de04fa,2021-07-29_22h50.25.071,Simcolourproject_2stim_asymm_v5,2020.2.10,MacIntel,60,61025ae37ef11b136ea224fe,,,,,,,,,1100,32.6953125,66.29296875,1,0,0,response1disk,,7,15.08984375,1.37109375,1,0,0,rectangle,15.08984375,1.37109375,1,0,0,15.08984375,1.37109375,1,0,0,0,156,156,92,1,,,,,,,,
,,,,,,,,,,,,,FF,,,,,,,,1.1662,,,,,,,,,,,,,,,,,,,,,,610339d9df9af20e59c4c686,610368b2c1a5986f00de04fa,2021-07-29_22h50.25.071,Simcolourproject_2stim_asymm_v5,2020.2.10,MacIntel,60,61025ae37ef11b136ea224fe,,,,,,,,,3339,-26.88671875,-63.44140625,1,0,0,response5disk,,3,2.0859375,-4.94921875,1,0,0,rectangle,2.0859375,-4.94921875,1,0,0,2.0859375,-4.94921875,1,0,0,0,157,157,130,1,,,,,,,,
,,,,,,,,,,,,,FF,,,,,,,,0.8823,,,,,,,,,,,,,,,,,,,,,,610339d9df9af20e59c4c686,610368b2c1a5986f00de04fa,2021-07-29_22h50.25.071,Simcolourproject_2stim_asymm_v5,2020.2.10,MacIntel,60,61025ae37ef11b136ea224fe,,,,,,,,,4144,-24.4453125,-58.84375,1,0,0,response5disk,,3,-13.94921875,-0.77734375,1,0,0,rectangle,-13.94921875,-0.77734375,1,0,0,-13.94921875,-0.77734375,1,0,0,0,158,158,155,1,,,,,,,,
,,,,,,,,,,,,,FF,,,,,,,,0.7656,,,,,,,,,,,,,,,,,,,,,,610339d9df9af20e59c4c686,610368b2c1a5986f00de04fa,2021-07-29_22h50.25.071,Simcolourproject_2stim_asymm_v5,2020.2.10,MacIntel,60,61025ae37ef11b136ea224fe,,,,,,,,,2706,73.91796875,50.12890625,1,0,0,response1disk,,6,18.38671875,4.91015625,1,0,0,rectangle,18.38671875,4.91015625,1,0,0,18.38671875,4.91015625,1,0,0,0,159,159,133,1,,,,,,,,
,,,,,,,,,,,,,FF,,,,,,,,1.0654,,,,,,,,,,,,,,,,,,,,,,610339d9df9af20e59c4c686,610368b2c1a5986f00de04fa,2021-07-29_22h50.25.071,Simcolourproject_2stim_asymm_v5,2020.2.10,MacIntel,60,61025ae37ef11b136ea224fe,,,,,,,,,1028,58.03125,89.328125,1,0,0,response1disk,,7,25.421875,6.60546875,1,0,0,rectangle,25.421875,6.60546875,1,0,0,25.421875,6.60546875,1,0,0,1,0,160,141,1,,,,,,,,
,,,,,,,,,,,,,FF,,,,,,,,0.7502,,,,,,,,,,,,,,,,,,,,,,610339d9df9af20e59c4c686,610368b2c1a5986f00de04fa,2021-07-29_22h50.25.071,Simcolourproject_2stim_asymm_v5,2020.2.10,MacIntel,60,61025ae37ef11b136ea224fe,,,,,,,,,1445,-41.38671875,63.8515625,1,0,0,response7disk,,0,-8.0703125,-5.6328125,1,0,0,rectangle,-8.0703125,-5.6328125,1,0,0,-8.0703125,-5.6328125,1,0,0,1,1,161,122,1,,,,,,,,
,,,,,,,,,,,,,FF,,,,,,,,0.8009,,,,,,,,,,,,,,,,,,,,,,610339d9df9af20e59c4c686,610368b2c1a5986f00de04fa,2021-07-29_22h50.25.071,Simcolourproject_2stim_asymm_v5,2020.2.10,MacIntel,60,61025ae37ef11b136ea224fe,,,,,,,,,2363,-68.953125,25.203125,1,0,0,response7disk,,1,-3.5078125,-12.84375,1,0,0,rectangle,-3.5078125,-12.84375,1,0,0,-3.5078125,-12.84375,1,0,0,1,2,162,42,1,,,,,,,,
,,,,,,,,,,,,,FF,,,,,,,,0.9504,,,,,,,,,,,,,,,,,,,,,,610339d9df9af20e59c4c686,610368b2c1a5986f00de04fa,2021-07-29_22h50.25.071,Simcolourproject_2stim_asymm_v5,2020.2.10,MacIntel,60,61025ae37ef11b136ea224fe,,,,,,,,,3352,57.609375,76.01171875,1,0,0,response1disk,,7,16.1484375,9.73046875,1,0,0,rectangle,16.1484375,9.73046875,1,0,0,16.1484375,9.73046875,1,0,0,1,3,163,115,1,,,,,,,,
,,,,,,,,,,,,,FF,,,,,,,,0.9154,,,,,,,,,,,,,,,,,,,,,,610339d9df9af20e59c4c686,610368b2c1a5986f00de04fa,2021-07-29_22h50.25.071,Simcolourproject_2stim_asymm_v5,2020.2.10,MacIntel,60,61025ae37ef11b136ea224fe,,,,,,,,,435,-31.33203125,-70.36328125,1,0,0,response5disk,,3,4.30078125,12.6328125,1,0,0,rectangle,4.30078125,12.6328125,1,0,0,4.30078125,12.6328125,1,0,0,1,4,164,62,1,,,,,,,,
,,,,,,,,,,,,,FF,,,,,,,,0.8487,,,,,,,,,,,,,,,,,,,,,,610339d9df9af20e59c4c686,610368b2c1a5986f00de04fa,2021-07-29_22h50.25.071,Simcolourproject_2stim_asymm_v5,2020.2.10,MacIntel,60,61025ae37ef11b136ea224fe,,,,,,,,,2676,-21.7265625,-62.58984375,1,0,0,response5disk,,3,8.77734375,-9.6953125,1,0,0,rectangle,8.77734375,-9.6953125,1,0,0,8.77734375,-9.6953125,1,0,0,1,5,165,58,1,,,,,,,,
,,,,,,,,,,,,,FF,,,,,,,,2.2503,,,,,,,,,,,,,,,,,,,,,,610339d9df9af20e59c4c686,610368b2c1a5986f00de04fa,2021-07-29_22h50.25.071,Simcolourproject_2stim_asymm_v5,2020.2.10,MacIntel,60,61025ae37ef11b136ea224fe,,,,,,,,,3435,-52.375,-88.41796875,1,0,0,response5disk,,3,-10.44921875,-12.953125,1,0,0,rectangle,-10.44921875,-12.953125,1,0,0,-10.44921875,-12.953125,1,0,0,1,6,166,53,1,,,,,,,,
,,,,,,,,,,,,,FF,,,,,,,,0.8163,,,,,,,,,,,,,,,,,,,,,,610339d9df9af20e59c4c686,610368b2c1a5986f00de04fa,2021-07-29_22h50.25.071,Simcolourproject_2stim_asymm_v5,2020.2.10,MacIntel,60,61025ae37ef11b136ea224fe,,,,,,,,,1161,41.6953125,78.4609375,1,0,0,response1disk,,7,24.34765625,3.33203125,1,0,0,rectangle,24.34765625,3.33203125,1,0,0,24.34765625,3.33203125,1,0,0,1,7,167,44,1,,,,,,,,
,,,,,,,,,,,,,FF,,,,,,,,1.2854,,,,,,,,,,,,,,,,,,,,,,610339d9df9af20e59c4c686,610368b2c1a5986f00de04fa,2021-07-29_22h50.25.071,Simcolourproject_2stim_asymm_v5,2020.2.10,MacIntel,60,61025ae37ef11b136ea224fe,,,,,,,,,2222,93.453125,-51.0390625,1,0,0,response3disk,,5,15.8515625,-10.8828125,1,0,0,rectangle,15.8515625,-10.8828125,1,0,0,15.8515625,-10.8828125,1,0,0,1,8,168,157,1,,,,,,,,
,,,,,,,,,,,,,FF,,,,,,,,1.0832,,,,,,,,,,,,,,,,,,,,,,610339d9df9af20e59c4c686,610368b2c1a5986f00de04fa,2021-07-29_22h50.25.071,Simcolourproject_2stim_asymm_v5,2020.2.10,MacIntel,60,61025ae37ef11b136ea224fe,,,,,,,,,2152,61.59375,-69.7109375,1,0,0,response3disk,,4,10.87109375,-3.578125,1,0,0,rectangle,10.87109375,-3.578125,1,0,0,10.87109375,-3.578125,1,0,0,1,9,169,24,1,,,,,,,,
,,,,,,,,,,,,,FF,,,,,,,,1.0833,,,,,,,,,,,,,,,,,,,,,,610339d9df9af20e59c4c686,610368b2c1a5986f00de04fa,2021-07-29_22h50.25.071,Simcolourproject_2stim_asymm_v5,2020.2.10,MacIntel,60,61025ae37ef11b136ea224fe,,,,,,,,,2424,55.78125,-74.99609375,1,0,0,response3disk,,4,-13.53515625,-0.62109375,1,0,0,rectangle,-13.53515625,-0.62109375,1,0,0,-13.53515625,-0.62109375,1,0,0,1,10,170,137,1,,,,,,,,
,,,,,,,,,,,,,FF,,,,,,,,1.3829,,,,,,,,,,,,,,,,,,,,,,610339d9df9af20e59c4c686,610368b2c1a5986f00de04fa,2021-07-29_22h50.25.071,Simcolourproject_2stim_asymm_v5,2020.2.10,MacIntel,60,61025ae37ef11b136ea224fe,,,,,,,,,2537,98.32421875,36.2890625,1,0,0,response1disk,,6,1.6875,-13.05859375,1,0,0,rectangle,1.6875,-13.05859375,1,0,0,1.6875,-13.05859375,1,0,0,1,11,171,139,1,,,,,,,,
,,,,,,,,,,,,,FF,,,,,,,,0.833,,,,,,,,,,,,,,,,,,,,,,610339d9df9af20e59c4c686,610368b2c1a5986f00de04fa,2021-07-29_22h50.25.071,Simcolourproject_2stim_asymm_v5,2020.2.10,MacIntel,60,61025ae37ef11b136ea224fe,,,,,,,,,654,47.31640625,-61.5859375,1,0,0,response3disk,,4,22.6640625,-1.64453125,1,0,0,rectangle,22.6640625,-1.64453125,1,0,0,22.6640625,-1.64453125,1,0,0,1,12,172,31,1,,,,,,,,
,,,,,,,,,,,,,FF,,,,,,,,1.5839,,,,,,,,,,,,,,,,,,,,,,610339d9df9af20e59c4c686,610368b2c1a5986f00de04fa,2021-07-29_22h50.25.071,Simcolourproject_2stim_asymm_v5,2020.2.10,MacIntel,60,61025ae37ef11b136ea224fe,,,,,,,,,2892,41.9765625,-62.8046875,1,0,0,response3disk,,4,11.171875,-0.37890625,1,0,0,rectangle,11.171875,-0.37890625,1,0,0,11.171875,-0.37890625,1,0,0,1,13,173,111,1,,,,,,,,
,,,,,,,,,,,,,FF,,,,,,,,0.9491,,,,,,,,,,,,,,,,,,,,,,610339d9df9af20e59c4c686,610368b2c1a5986f00de04fa,2021-07-29_22h50.25.071,Simcolourproject_2stim_asymm_v5,2020.2.10,MacIntel,60,61025ae37ef11b136ea224fe,,,,,,,,,3953,64.4453125,35.89453125,1,0,0,response1disk,,6,24.80859375,-3.15625,1,0,0,rectangle,24.80859375,-3.15625,1,0,0,24.80859375,-3.15625,1,0,0,1,14,174,52,1,,,,,,,,
,,,,,,,,,,,,,FF,,,,,,,,1.0332,,,,,,,,,,,,,,,,,,,,,,610339d9df9af20e59c4c686,610368b2c1a5986f00de04fa,2021-07-29_22h50.25.071,Simcolourproject_2stim_asymm_v5,2020.2.10,MacIntel,60,61025ae37ef11b136ea224fe,,,,,,,,,4081,87.08203125,-32.33203125,1,0,0,response3disk,,5,23.78125,-6.671875,1,0,0,rectangle,23.78125,-6.671875,1,0,0,23.78125,-6.671875,1,0,0,1,15,175,36,1,,,,,,,,
,,,,,,,,,,,,,FF,,,,,,,,2.5992,,,,,,,,,,,,,,,,,,,,,,610339d9df9af20e59c4c686,610368b2c1a5986f00de04fa,2021-07-29_22h50.25.071,Simcolourproject_2stim_asymm_v5,2020.2.10,MacIntel,60,61025ae37ef11b136ea224fe,,,,,,,,,2182,49.828125,-36.84765625,1,0,0,response3disk,,5,2.4375,-2.2578125,1,0,0,rectangle,2.4375,-2.2578125,1,0,0,2.4375,-2.2578125,1,0,0,1,16,176,154,1,,,,,,,,
,,,,,,,,,,,,,FF,,,,,,,,0.8174,,,,,,,,,,,,,,,,,,,,,,610339d9df9af20e59c4c686,610368b2c1a5986f00de04fa,2021-07-29_22h50.25.071,Simcolourproject_2stim_asymm_v5,2020.2.10,MacIntel,60,61025ae37ef11b136ea224fe,,,,,,,,,1354,-24.31640625,-74.26953125,1,0,0,response5disk,,3,-12.4453125,-6.29296875,1,0,0,rectangle,-12.4453125,-6.29296875,1,0,0,-12.4453125,-6.29296875,1,0,0,1,17,177,72,1,,,,,,,,
,,,,,,,,,,,,,FF,,,,,,,,8.3006,,,,,,,,,,,,,,,,,,,,,,610339d9df9af20e59c4c686,610368b2c1a5986f00de04fa,2021-07-29_22h50.25.071,Simcolourproject_2stim_asymm_v5,2020.2.10,MacIntel,60,61025ae37ef11b136ea224fe,,,,,,,,,2416,108.6289063,-32.1640625,1,0,0,response3disk,,5,20.83203125,3.703125,1,0,0,rectangle,20.83203125,3.703125,1,0,0,20.83203125,3.703125,1,0,0,1,18,178,9,1,,,,,,,,
,,,,,,,,,,,,,FF,,,,,,,,2.382,,,,,,,,,,,,,,,,,,,,,,610339d9df9af20e59c4c686,610368b2c1a5986f00de04fa,2021-07-29_22h50.25.071,Simcolourproject_2stim_asymm_v5,2020.2.10,MacIntel,60,61025ae37ef11b136ea224fe,,,,,,,,,1004,83.3671875,41.96484375,1,0,0,response1disk,,6,9.38671875,5.0078125,1,0,0,rectangle,9.38671875,5.0078125,1,0,0,9.38671875,5.0078125,1,0,0,1,19,179,134,1,,,,,,,,
,,,,,,,,,,,,,FF,,,,,,,,1.0512,,,,,,,,,,,,,,,,,,,,,,610339d9df9af20e59c4c686,610368b2c1a5986f00de04fa,2021-07-29_22h50.25.071,Simcolourproject_2stim_asymm_v5,2020.2.10,MacIntel,60,61025ae37ef11b136ea224fe,,,,,,,,,1931,75.3125,-46.14453125,1,0,0,response3disk,,5,13.30859375,-4.1953125,1,0,0,rectangle,45.22265625,-104.0234375,1,0,0,12.34765625,11.83984375,1,0,0,1,20,180,16,1,,response3disk_3,TRUE,4,4,"[181,196,255,247,13,54,149,119,18,234,53,193,203,16,198,275,149,143,203,308]",1.3338,rectangle
,,,,,,,,,,,,,FF,,,,,,,,0.8832,,,,,,,,,,,,,,,,,,,,,,610339d9df9af20e59c4c686,610368b2c1a5986f00de04fa,2021-07-29_22h50.25.071,Simcolourproject_2stim_asymm_v5,2020.2.10,MacIntel,60,61025ae37ef11b136ea224fe,,,,,,,,,4035,47.7890625,-82.67578125,1,0,0,response3disk,,4,-6.98828125,0.5859375,1,0,0,rectangle,-6.98828125,0.5859375,1,0,0,-6.98828125,0.5859375,1,0,0,1,21,181,146,1,,,,,,,,
,,,,,,,,,,,,,FF,,,,,,,,0.8997,,,,,,,,,,,,,,,,,,,,,,610339d9df9af20e59c4c686,610368b2c1a5986f00de04fa,2021-07-29_22h50.25.071,Simcolourproject_2stim_asymm_v5,2020.2.10,MacIntel,60,61025ae37ef11b136ea224fe,,,,,,,,,1482,80.71875,47.53125,1,0,0,response1disk,,6,25.3828125,0.08203125,1,0,0,rectangle,25.3828125,0.08203125,1,0,0,25.3828125,0.08203125,1,0,0,1,22,182,80,1,,,,,,,,
,,,,,,,,,,,,,FF,,,,,,,,1.3332,,,,,,,,,,,,,,,,,,,,,,610339d9df9af20e59c4c686,610368b2c1a5986f00de04fa,2021-07-29_22h50.25.071,Simcolourproject_2stim_asymm_v5,2020.2.10,MacIntel,60,61025ae37ef11b136ea224fe,,,,,,,,,1547,92.25,-56.1328125,1,0,0,response3disk,,5,17.28515625,-0.1484375,1,0,0,rectangle,17.28515625,-0.1484375,1,0,0,17.28515625,-0.1484375,1,0,0,1,23,183,94,1,,,,,,,,
,,,,,,,,,,,,,FF,,,,,,,,5.7667,,,,,,,,,,,,,,,,,,,,,,610339d9df9af20e59c4c686,610368b2c1a5986f00de04fa,2021-07-29_22h50.25.071,Simcolourproject_2stim_asymm_v5,2020.2.10,MacIntel,60,61025ae37ef11b136ea224fe,,,,,,,,,1268,79.02734375,-38.23828125,1,0,0,response3disk,,5,-2.35546875,-13.46484375,1,0,0,rectangle,-2.35546875,-13.46484375,1,0,0,-2.35546875,-13.46484375,1,0,0,1,24,184,23,1,,,,,,,,
,,,,,,,,,,,,,FF,,,,,,,,0.8488,,,,,,,,,,,,,,,,,,,,,,610339d9df9af20e59c4c686,610368b2c1a5986f00de04fa,2021-07-29_22h50.25.071,Simcolourproject_2stim_asymm_v5,2020.2.10,MacIntel,60,61025ae37ef11b136ea224fe,,,,,,,,,2194,84.4296875,36.4140625,1,0,0,response1disk,,6,26.125,11.35546875,1,0,0,rectangle,26.125,11.35546875,1,0,0,26.125,11.35546875,1,0,0,1,25,185,47,1,,,,,,,,
,,,,,,,,,,,,,FF,,,,,,,,0.9166,,,,,,,,,,,,,,,,,,,,,,610339d9df9af20e59c4c686,610368b2c1a5986f00de04fa,2021-07-29_22h50.25.071,Simcolourproject_2stim_asymm_v5,2020.2.10,MacIntel,60,61025ae37ef11b136ea224fe,,,,,,,,,4116,56.85546875,-44.57421875,1,0,0,response3disk,,5,1.95703125,-1.6640625,1,0,0,rectangle,1.95703125,-1.6640625,1,0,0,1.95703125,-1.6640625,1,0,0,1,26,186,61,1,,,,,,,,
,,,,,,,,,,,,,FF,,,,,,,,0.9669,,,,,,,,,,,,,,,,,,,,,,610339d9df9af20e59c4c686,610368b2c1a5986f00de04fa,2021-07-29_22h50.25.071,Simcolourproject_2stim_asymm_v5,2020.2.10,MacIntel,60,61025ae37ef11b136ea224fe,,,,,,,,,3101,31.203125,-77.0703125,1,0,0,response3disk,,4,0.13671875,-4.3203125,1,0,0,rectangle,0.13671875,-4.3203125,1,0,0,0.13671875,-4.3203125,1,0,0,1,27,187,125,1,,,,,,,,
,,,,,,,,,,,,,FF,,,,,,,,0.7843,,,,,,,,,,,,,,,,,,,,,,610339d9df9af20e59c4c686,610368b2c1a5986f00de04fa,2021-07-29_22h50.25.071,Simcolourproject_2stim_asymm_v5,2020.2.10,MacIntel,60,61025ae37ef11b136ea224fe,,,,,,,,,3621,38.3359375,68.40625,1,0,0,response1disk,,7,20.9765625,-13.4296875,1,0,0,rectangle,20.9765625,-13.4296875,1,0,0,20.9765625,-13.4296875,1,0,0,1,28,188,151,1,,,,,,,,
,,,,,,,,,,,,,FF,,,,,,,,0.8478,,,,,,,,,,,,,,,,,,,,,,610339d9df9af20e59c4c686,610368b2c1a5986f00de04fa,2021-07-29_22h50.25.071,Simcolourproject_2stim_asymm_v5,2020.2.10,MacIntel,60,61025ae37ef11b136ea224fe,,,,,,,,,1130,81.66015625,35.63671875,1,0,0,response1disk,,6,21.08984375,-5.37109375,1,0,0,rectangle,21.08984375,-5.37109375,1,0,0,21.08984375,-5.37109375,1,0,0,1,29,189,18,1,,,,,,,,
,,,,,,,,,,,,,FF,,,,,,,,0.9168,,,,,,,,,,,,,,,,,,,,,,610339d9df9af20e59c4c686,610368b2c1a5986f00de04fa,2021-07-29_22h50.25.071,Simcolourproject_2stim_asymm_v5,2020.2.10,MacIntel,60,61025ae37ef11b136ea224fe,,,,,,,,,76,29.21875,-68.1171875,1,0,0,response3disk,,4,-10.4296875,3.03125,1,0,0,rectangle,-10.4296875,3.03125,1,0,0,-10.4296875,3.03125,1,0,0,1,30,190,4,1,,,,,,,,
,,,,,,,,,,,,,FF,,,,,,,,1.7663,,,,,,,,,,,,,,,,,,,,,,610339d9df9af20e59c4c686,610368b2c1a5986f00de04fa,2021-07-29_22h50.25.071,Simcolourproject_2stim_asymm_v5,2020.2.10,MacIntel,60,61025ae37ef11b136ea224fe,,,,,,,,,3598,102.6835938,-40.90234375,1,0,0,response3disk,,5,-4.19921875,4.44140625,1,0,0,rectangle,-4.19921875,4.44140625,1,0,0,-4.19921875,4.44140625,1,0,0,1,31,191,17,1,,,,,,,,
,,,,,,,,,,,,,FF,,,,,,,,1.0666,,,,,,,,,,,,,,,,,,,,,,610339d9df9af20e59c4c686,610368b2c1a5986f00de04fa,2021-07-29_22h50.25.071,Simcolourproject_2stim_asymm_v5,2020.2.10,MacIntel,60,61025ae37ef11b136ea224fe,,,,,,,,,1559,84.6171875,73.66796875,1,0,0,response1disk,,6,17.5234375,6.703125,1,0,0,rectangle,56.44140625,88.109375,1,0,0,-10.62109375,-1.046875,1,0,0,1,32,192,92,1,,response1disk_3,TRUE,7,7,"[181,196,255,247,13,54,149,119,18,234,53,193,203,16,198,275,149,143,203,308]",1.7991,rectangle
,,,,,,,,,,,,,FF,,,,,,,,0.8675,,,,,,,,,,,,,,,,,,,,,,610339d9df9af20e59c4c686,610368b2c1a5986f00de04fa,2021-07-29_22h50.25.071,Simcolourproject_2stim_asymm_v5,2020.2.10,MacIntel,60,61025ae37ef11b136ea224fe,,,,,,,,,3321,100.8554688,42.7265625,1,0,0,response1disk,,6,9.58203125,-5.51953125,1,0,0,rectangle,9.58203125,-5.51953125,1,0,0,9.58203125,-5.51953125,1,0,0,1,33,193,30,1,,,,,,,,
,,,,,,,,,,,,,FF,,,,,,,,0.766,,,,,,,,,,,,,,,,,,,,,,610339d9df9af20e59c4c686,610368b2c1a5986f00de04fa,2021-07-29_22h50.25.071,Simcolourproject_2stim_asymm_v5,2020.2.10,MacIntel,60,61025ae37ef11b136ea224fe,,,,,,,,,1150,30.91015625,-67.97265625,1,0,0,response3disk,,4,8.328125,13.50390625,1,0,0,rectangle,8.328125,13.50390625,1,0,0,8.328125,13.50390625,1,0,0,1,34,194,34,1,,,,,,,,
,,,,,,,,,,,,,FF,,,,,,,,0.9014,,,,,,,,,,,,,,,,,,,,,,610339d9df9af20e59c4c686,610368b2c1a5986f00de04fa,2021-07-29_22h50.25.071,Simcolourproject_2stim_asymm_v5,2020.2.10,MacIntel,60,61025ae37ef11b136ea224fe,,,,,,,,,3390,-68.15234375,33.7421875,1,0,0,response7disk,,1,1.67578125,-16.359375,1,0,0,rectangle,55.3046875,-68.83203125,1,0,0,-14.87890625,8.64453125,1,0,0,1,35,195,38,1,,response3disk_3,TRUE,4,4,"[181,196,255,247,13,54,149,119,18,234,53,193,203,16,198,275,149,143,203,308]",1.2333,rectangle
,,,,,,,,,,,,,FF,,,,,,,,0.7305,,,,,,,,,,,,,,,,,,,,,,610339d9df9af20e59c4c686,610368b2c1a5986f00de04fa,2021-07-29_22h50.25.071,Simcolourproject_2stim_asymm_v5,2020.2.10,MacIntel,60,61025ae37ef11b136ea224fe,,,,,,,,,905,93.15234375,-41.828125,1,0,0,response3disk,,5,33.34375,-7.7109375,1,0,0,rectangle,33.34375,-7.7109375,1,0,0,33.34375,-7.7109375,1,0,0,1,36,196,35,1,,,,,,,,
,,,,,,,,,,,,,FF,,,,,,,,0.8327,,,,,,,,,,,,,,,,,,,,,,610339d9df9af20e59c4c686,610368b2c1a5986f00de04fa,2021-07-29_22h50.25.071,Simcolourproject_2stim_asymm_v5,2020.2.10,MacIntel,60,61025ae37ef11b136ea224fe,,,,,,,,,493,93.28515625,28.83203125,1,0,0,response1disk,,6,0.015625,6.7890625,1,0,0,rectangle,-43.65625,73.890625,1,0,0,0.98046875,-3.046875,1,0,0,1,37,197,135,1,,response7disk_3,TRUE,0,0,"[181,196,255,247,13,54,149,119,18,234,53,193,203,16,198,275,149,143,203,308]",2.1669,rectangle
,,,,,,,,,,,,,FF,,,,,,,,1.2155,,,,,,,,,,,,,,,,,,,,,,610339d9df9af20e59c4c686,610368b2c1a5986f00de04fa,2021-07-29_22h50.25.071,Simcolourproject_2stim_asymm_v5,2020.2.10,MacIntel,60,61025ae37ef11b136ea224fe,,,,,,,,,377,73.12109375,-41.0390625,1,0,0,response3disk,,5,-3.421875,5.5546875,1,0,0,rectangle,-3.421875,5.5546875,1,0,0,-3.421875,5.5546875,1,0,0,1,38,198,133,1,,,,,,,,
,,,,,,,,,,,,,FF,,,,,,,,0.8333,,,,,,,,,,,,,,,,,,,,,,610339d9df9af20e59c4c686,610368b2c1a5986f00de04fa,2021-07-29_22h50.25.071,Simcolourproject_2stim_asymm_v5,2020.2.10,MacIntel,60,61025ae37ef11b136ea224fe,,,,,,,,,1502,50.11328125,63.58984375,1,0,0,response1disk,,7,26.44140625,13.19140625,1,0,0,rectangle,26.44140625,13.19140625,1,0,0,26.44140625,13.19140625,1,0,0,1,39,199,110,1,,,,,,,,
,,,,,,,,,,,,,FF,,,,,,,,0.8676,,,,,,,,,,,,,,,,,,,,,,610339d9df9af20e59c4c686,610368b2c1a5986f00de04fa,2021-07-29_22h50.25.071,Simcolourproject_2stim_asymm_v5,2020.2.10,MacIntel,60,61025ae37ef11b136ea224fe,,,,,,,,,3098,-82.41015625,41.63671875,1,0,0,response7disk,,1,-20.75390625,-0.37109375,1,0,0,rectangle,-20.75390625,-0.37109375,1,0,0,-20.75390625,-0.37109375,1,0,0,1,40,200,3,1,,,,,,,,
,,,,,,,,,,,,,FF,,,,,,,,1.2168,,,,,,,,,,,,,,,,,,,,,,610339d9df9af20e59c4c686,610368b2c1a5986f00de04fa,2021-07-29_22h50.25.071,Simcolourproject_2stim_asymm_v5,2020.2.10,MacIntel,60,61025ae37ef11b136ea224fe,,,,,,,,,3822,88.58203125,-57.90234375,1,0,0,response3disk,,5,12.14453125,0.30078125,1,0,0,rectangle,12.14453125,0.30078125,1,0,0,12.14453125,0.30078125,1,0,0,1,41,201,56,1,,,,,,,,
,,,,,,,,,,,,,FF,,,,,,,,1.0656,,,,,,,,,,,,,,,,,,,,,,610339d9df9af20e59c4c686,610368b2c1a5986f00de04fa,2021-07-29_22h50.25.071,Simcolourproject_2stim_asymm_v5,2020.2.10,MacIntel,60,61025ae37ef11b136ea224fe,,,,,,,,,1135,-38.890625,-73.1796875,1,0,0,response5disk,,3,-5.3984375,-0.06640625,1,0,0,rectangle,-76.09375,-44.81640625,1,0,0,-2.046875,0.81640625,1,0,0,1,42,202,32,1,,response5disk_3,TRUE,2,2,"[181,196,255,247,13,54,149,119,18,234,53,193,203,16,198,275,149,143,203,308]",1.7668,rectangle
,,,,,,,,,,,,,FF,,,,,,,,0.8,,,,,,,,,,,,,,,,,,,,,,610339d9df9af20e59c4c686,610368b2c1a5986f00de04fa,2021-07-29_22h50.25.071,Simcolourproject_2stim_asymm_v5,2020.2.10,MacIntel,60,61025ae37ef11b136ea224fe,,,,,,,,,393,57.12890625,-70.47265625,1,0,0,response3disk,,4,17.078125,-2.8515625,1,0,0,rectangle,17.078125,-2.8515625,1,0,0,17.078125,-2.8515625,1,0,0,1,43,203,107,1,,,,,,,,
,,,,,,,,,,,,,FF,,,,,,,,0.7493,,,,,,,,,,,,,,,,,,,,,,610339d9df9af20e59c4c686,610368b2c1a5986f00de04fa,2021-07-29_22h50.25.071,Simcolourproject_2stim_asymm_v5,2020.2.10,MacIntel,60,61025ae37ef11b136ea224fe,,,,,,,,,675,38.3515625,88.203125,1,0,0,response1disk,,7,14.12890625,-1.17578125,1,0,0,rectangle,14.12890625,-1.17578125,1,0,0,14.12890625,-1.17578125,1,0,0,1,44,204,74,1,,,,,,,,
,,,,,,,,,,,,,FF,,,,,,,,0.9498,,,,,,,,,,,,,,,,,,,,,,610339d9df9af20e59c4c686,610368b2c1a5986f00de04fa,2021-07-29_22h50.25.071,Simcolourproject_2stim_asymm_v5,2020.2.10,MacIntel,60,61025ae37ef11b136ea224fe,,,,,,,,,2315,78.53515625,-51.9375,1,0,0,response3disk,,5,12.76171875,0.9296875,1,0,0,rectangle,12.76171875,0.9296875,1,0,0,12.76171875,0.9296875,1,0,0,1,45,205,126,1,,,,,,,,
,,,,,,,,,,,,,FF,,,,,,,,0.7661,,,,,,,,,,,,,,,,,,,,,,610339d9df9af20e59c4c686,610368b2c1a5986f00de04fa,2021-07-29_22h50.25.071,Simcolourproject_2stim_asymm_v5,2020.2.10,MacIntel,60,61025ae37ef11b136ea224fe,,,,,,,,,1723,56.87890625,33.89453125,1,0,0,response1disk,,6,-0.20703125,-5.42578125,1,0,0,rectangle,-0.20703125,-5.42578125,1,0,0,-0.20703125,-5.42578125,1,0,0,1,46,206,77,1,,,,,,,,
,,,,,,,,,,,,,FF,,,,,,,,0.9836,,,,,,,,,,,,,,,,,,,,,,610339d9df9af20e59c4c686,610368b2c1a5986f00de04fa,2021-07-29_22h50.25.071,Simcolourproject_2stim_asymm_v5,2020.2.10,MacIntel,60,61025ae37ef11b136ea224fe,,,,,,,,,2650,79.640625,-33.03515625,1,0,0,response3disk,,5,19.4296875,3.94921875,1,0,0,rectangle,19.4296875,3.94921875,1,0,0,19.4296875,3.94921875,1,0,0,1,47,207,65,1,,,,,,,,
,,,,,,,,,,,,,FF,,,,,,,,1.0834,,,,,,,,,,,,,,,,,,,,,,610339d9df9af20e59c4c686,610368b2c1a5986f00de04fa,2021-07-29_22h50.25.071,Simcolourproject_2stim_asymm_v5,2020.2.10,MacIntel,60,61025ae37ef11b136ea224fe,,,,,,,,,658,71.39453125,35.84375,1,0,0,response1disk,,6,22.93359375,3.20703125,1,0,0,rectangle,22.93359375,3.20703125,1,0,0,22.93359375,3.20703125,1,0,0,1,48,208,57,1,,,,,,,,
,,,,,,,,,,,,,FF,,,,,,,,1.5672,,,,,,,,,,,,,,,,,,,,,,610339d9df9af20e59c4c686,610368b2c1a5986f00de04fa,2021-07-29_22h50.25.071,Simcolourproject_2stim_asymm_v5,2020.2.10,MacIntel,60,61025ae37ef11b136ea224fe,,,,,,,,,4242,24.58203125,83.625,1,0,0,response1disk,,7,15.765625,7.11328125,1,0,0,rectangle,15.765625,7.11328125,1,0,0,15.765625,7.11328125,1,0,0,1,49,209,119,1,,,,,,,,
,,,,,,,,,,,,,FF,,,,,,,,0.9507,,,,,,,,,,,,,,,,,,,,,,610339d9df9af20e59c4c686,610368b2c1a5986f00de04fa,2021-07-29_22h50.25.071,Simcolourproject_2stim_asymm_v5,2020.2.10,MacIntel,60,61025ae37ef11b136ea224fe,,,,,,,,,2377,75.765625,-38.65234375,1,0,0,response3disk,,5,24.22265625,-4.046875,1,0,0,rectangle,24.22265625,-4.046875,1,0,0,24.22265625,-4.046875,1,0,0,1,50,210,87,1,,,,,,,,
,,,,,,,,,,,,,FF,,,,,,,,0.7494,,,,,,,,,,,,,,,,,,,,,,610339d9df9af20e59c4c686,610368b2c1a5986f00de04fa,2021-07-29_22h50.25.071,Simcolourproject_2stim_asymm_v5,2020.2.10,MacIntel,60,61025ae37ef11b136ea224fe,,,,,,,,,2558,54.609375,29.95703125,1,0,0,response1disk,,6,20.06640625,-2.62890625,1,0,0,rectangle,20.06640625,-2.62890625,1,0,0,20.06640625,-2.62890625,1,0,0,1,51,211,144,1,,,,,,,,
,,,,,,,,,,,,,FF,,,,,,,,0.7358,,,,,,,,,,,,,,,,,,,,,,610339d9df9af20e59c4c686,610368b2c1a5986f00de04fa,2021-07-29_22h50.25.071,Simcolourproject_2stim_asymm_v5,2020.2.10,MacIntel,60,61025ae37ef11b136ea224fe,,,,,,,,,4080,39.015625,-66.54296875,1,0,0,response3disk,,4,3.21484375,2.98828125,1,0,0,rectangle,3.21484375,2.98828125,1,0,0,3.21484375,2.98828125,1,0,0,1,52,212,68,1,,,,,,,,
,,,,,,,,,,,,,FF,,,,,,,,1.0838,,,,,,,,,,,,,,,,,,,,,,610339d9df9af20e59c4c686,610368b2c1a5986f00de04fa,2021-07-29_22h50.25.071,Simcolourproject_2stim_asymm_v5,2020.2.10,MacIntel,60,61025ae37ef11b136ea224fe,,,,,,,,,3161,67.234375,-45.13671875,1,0,0,response3disk,,5,12.92578125,-0.1875,1,0,0,rectangle,12.92578125,-0.1875,1,0,0,12.92578125,-0.1875,1,0,0,1,53,213,48,1,,,,,,,,
,,,,,,,,,,,,,FF,,,,,,,,0.7,,,,,,,,,,,,,,,,,,,,,,610339d9df9af20e59c4c686,610368b2c1a5986f00de04fa,2021-07-29_22h50.25.071,Simcolourproject_2stim_asymm_v5,2020.2.10,MacIntel,60,61025ae37ef11b136ea224fe,,,,,,,,,3632,72.9296875,-45.734375,1,0,0,response3disk,,5,31.73046875,-4.71484375,1,0,0,rectangle,31.73046875,-4.71484375,1,0,0,31.73046875,-4.71484375,1,0,0,1,54,214,158,1,,,,,,,,
,,,,,,,,,,,,,FF,,,,,,,,1.068,,,,,,,,,,,,,,,,,,,,,,610339d9df9af20e59c4c686,610368b2c1a5986f00de04fa,2021-07-29_22h50.25.071,Simcolourproject_2stim_asymm_v5,2020.2.10,MacIntel,60,61025ae37ef11b136ea224fe,,,,,,,,,2534,40.55078125,-56.03125,1,0,0,response3disk,,4,19.23046875,-13.48828125,1,0,0,rectangle,19.23046875,-13.48828125,1,0,0,19.23046875,-13.48828125,1,0,0,1,55,215,12,1,,,,,,,,
,,,,,,,,,,,,,FF,,,,,,,,1.0346,,,,,,,,,,,,,,,,,,,,,,610339d9df9af20e59c4c686,610368b2c1a5986f00de04fa,2021-07-29_22h50.25.071,Simcolourproject_2stim_asymm_v5,2020.2.10,MacIntel,60,61025ae37ef11b136ea224fe,,,,,,,,,1026,70.62890625,-48.08203125,1,0,0,response3disk,,5,13.609375,-3.51953125,1,0,0,rectangle,13.609375,-3.51953125,1,0,0,13.609375,-3.51953125,1,0,0,1,56,216,93,1,,,,,,,,
,,,,,,,,,,,,,FF,,,,,,,,1.5172,,,,,,,,,,,,,,,,,,,,,,610339d9df9af20e59c4c686,610368b2c1a5986f00de04fa,2021-07-29_22h50.25.071,Simcolourproject_2stim_asymm_v5,2020.2.10,MacIntel,60,61025ae37ef11b136ea224fe,,,,,,,,,2827,85.37890625,-47.71484375,1,0,0,response3disk,,5,10.15625,11.36328125,1,0,0,rectangle,10.15625,11.36328125,1,0,0,10.15625,11.36328125,1,0,0,1,57,217,136,1,,,,,,,,
,,,,,,,,,,,,,FF,,,,,,,,0.7986,,,,,,,,,,,,,,,,,,,,,,610339d9df9af20e59c4c686,610368b2c1a5986f00de04fa,2021-07-29_22h50.25.071,Simcolourproject_2stim_asymm_v5,2020.2.10,MacIntel,60,61025ae37ef11b136ea224fe,,,,,,,,,263,-76.82421875,-30.55078125,1,0,0,response5disk,,2,-25.171875,-1.56640625,1,0,0,rectangle,-25.171875,-1.56640625,1,0,0,-25.171875,-1.56640625,1,0,0,1,58,218,108,1,,,,,,,,
,,,,,,,,,,,,,FF,,,,,,,,0.6344,,,,,,,,,,,,,,,,,,,,,,610339d9df9af20e59c4c686,610368b2c1a5986f00de04fa,2021-07-29_22h50.25.071,Simcolourproject_2stim_asymm_v5,2020.2.10,MacIntel,60,61025ae37ef11b136ea224fe,,,,,,,,,1159,-58.609375,-26.671875,1,0,0,response5disk,,2,-13.8203125,-2.71875,1,0,0,rectangle,-13.8203125,-2.71875,1,0,0,-13.8203125,-2.71875,1,0,0,1,59,219,114,1,,,,,,,,
,,,,,,,,,,,,,FF,,,,,,,,0.8837,,,,,,,,,,,,,,,,,,,,,,610339d9df9af20e59c4c686,610368b2c1a5986f00de04fa,2021-07-29_22h50.25.071,Simcolourproject_2stim_asymm_v5,2020.2.10,MacIntel,60,61025ae37ef11b136ea224fe,,,,,,,,,1146,33.7890625,-69.05859375,1,0,0,response3disk,,4,10.52734375,2.0078125,1,0,0,rectangle,10.52734375,2.0078125,1,0,0,10.52734375,2.0078125,1,0,0,1,60,220,11,1,,,,,,,,
,,,,,,,,,,,,,FF,,,,,,,,0.6685,,,,,,,,,,,,,,,,,,,,,,610339d9df9af20e59c4c686,610368b2c1a5986f00de04fa,2021-07-29_22h50.25.071,Simcolourproject_2stim_asymm_v5,2020.2.10,MacIntel,60,61025ae37ef11b136ea224fe,,,,,,,,,1637,86.74609375,-48.17578125,1,0,0,response3disk,,5,20.87109375,6.25,1,0,0,rectangle,20.87109375,6.25,1,0,0,20.87109375,6.25,1,0,0,1,61,221,10,1,,,,,,,,
,,,,,,,,,,,,,FF,,,,,,,,0.8835,,,,,,,,,,,,,,,,,,,,,,610339d9df9af20e59c4c686,610368b2c1a5986f00de04fa,2021-07-29_22h50.25.071,Simcolourproject_2stim_asymm_v5,2020.2.10,MacIntel,60,61025ae37ef11b136ea224fe,,,,,,,,,1002,85.9453125,33.7734375,1,0,0,response1disk,,6,-12.86328125,-1.60546875,1,0,0,rectangle,-12.86328125,-1.60546875,1,0,0,-12.86328125,-1.60546875,1,0,0,1,62,222,152,1,,,,,,,,
,,,,,,,,,,,,,FF,,,,,,,,0.7641,,,,,,,,,,,,,,,,,,,,,,610339d9df9af20e59c4c686,610368b2c1a5986f00de04fa,2021-07-29_22h50.25.071,Simcolourproject_2stim_asymm_v5,2020.2.10,MacIntel,60,61025ae37ef11b136ea224fe,,,,,,,,,2124,72.73828125,44.5234375,1,0,0,response1disk,,6,21.28125,8.41015625,1,0,0,rectangle,21.28125,8.41015625,1,0,0,21.28125,8.41015625,1,0,0,1,63,223,70,1,,,,,,,,
,,,,,,,,,,,,,FF,,,,,,,,2.1686,,,,,,,,,,,,,,,,,,,,,,610339d9df9af20e59c4c686,610368b2c1a5986f00de04fa,2021-07-29_22h50.25.071,Simcolourproject_2stim_asymm_v5,2020.2.10,MacIntel,60,61025ae37ef11b136ea224fe,,,,,,,,,1881,79.95703125,-35.8828125,1,0,0,response3disk,,5,20.5703125,6.96484375,1,0,0,rectangle,20.5703125,6.96484375,1,0,0,20.5703125,6.96484375,1,0,0,1,64,224,95,1,,,,,,,,
,,,,,,,,,,,,,FF,,,,,,,,1.0524,,,,,,,,,,,,,,,,,,,,,,610339d9df9af20e59c4c686,610368b2c1a5986f00de04fa,2021-07-29_22h50.25.071,Simcolourproject_2stim_asymm_v5,2020.2.10,MacIntel,60,61025ae37ef11b136ea224fe,,,,,,,,,2286,58.5,-42.19140625,1,0,0,response3disk,,5,3.4453125,10.08984375,1,0,0,rectangle,3.4453125,10.08984375,1,0,0,3.4453125,10.08984375,1,0,0,1,65,225,64,1,,,,,,,,
,,,,,,,,,,,,,FF,,,,,,,,1.7837,,,,,,,,,,,,,,,,,,,,,,610339d9df9af20e59c4c686,610368b2c1a5986f00de04fa,2021-07-29_22h50.25.071,Simcolourproject_2stim_asymm_v5,2020.2.10,MacIntel,60,61025ae37ef11b136ea224fe,,,,,,,,,899,72.734375,-32.296875,1,0,0,response3disk,,5,16.38671875,15.88671875,1,0,0,rectangle,16.38671875,15.88671875,1,0,0,16.38671875,15.88671875,1,0,0,1,66,226,6,1,,,,,,,,
,,,,,,,,,,,,,FF,,,,,,,,0.9335,,,,,,,,,,,,,,,,,,,,,,610339d9df9af20e59c4c686,610368b2c1a5986f00de04fa,2021-07-29_22h50.25.071,Simcolourproject_2stim_asymm_v5,2020.2.10,MacIntel,60,61025ae37ef11b136ea224fe,,,,,,,,,2701,29.9453125,84.9765625,1,0,0,response1disk,,7,29.9453125,7.921875,1,0,0,rectangle,29.9453125,7.921875,1,0,0,29.9453125,7.921875,1,0,0,1,67,227,15,1,,,,,,,,
,,,,,,,,,,,,,FF,,,,,,,,0.8321,,,,,,,,,,,,,,,,,,,,,,610339d9df9af20e59c4c686,610368b2c1a5986f00de04fa,2021-07-29_22h50.25.071,Simcolourproject_2stim_asymm_v5,2020.2.10,MacIntel,60,61025ae37ef11b136ea224fe,,,,,,,,,1263,37.66796875,59.61328125,1,0,0,response1disk,,7,12.53515625,-6.19921875,1,0,0,rectangle,12.53515625,-6.19921875,1,0,0,12.53515625,-6.19921875,1,0,0,1,68,228,105,1,,,,,,,,
,,,,,,,,,,,,,FF,,,,,,,,0.917,,,,,,,,,,,,,,,,,,,,,,610339d9df9af20e59c4c686,610368b2c1a5986f00de04fa,2021-07-29_22h50.25.071,Simcolourproject_2stim_asymm_v5,2020.2.10,MacIntel,60,61025ae37ef11b136ea224fe,,,,,,,,,553,-26.796875,-47.359375,1,0,0,response5disk,,3,-13.59765625,-1.99609375,1,0,0,rectangle,-13.59765625,-1.99609375,1,0,0,-13.59765625,-1.99609375,1,0,0,1,69,229,63,1,,,,,,,,
,,,,,,,,,,,,,FF,,,,,,,,0.9483,,,,,,,,,,,,,,,,,,,,,,610339d9df9af20e59c4c686,610368b2c1a5986f00de04fa,2021-07-29_22h50.25.071,Simcolourproject_2stim_asymm_v5,2020.2.10,MacIntel,60,61025ae37ef11b136ea224fe,,,,,,,,,457,-21.171875,-46.5390625,1,0,0,response5disk,,3,-8.83203125,-6.63671875,1,0,0,rectangle,-8.83203125,-6.63671875,1,0,0,-8.83203125,-6.63671875,1,0,0,1,70,230,99,1,,,,,,,,
,,,,,,,,,,,,,FF,,,,,,,,0.9655,,,,,,,,,,,,,,,,,,,,,,610339d9df9af20e59c4c686,610368b2c1a5986f00de04fa,2021-07-29_22h50.25.071,Simcolourproject_2stim_asymm_v5,2020.2.10,MacIntel,60,61025ae37ef11b136ea224fe,,,,,,,,,3959,28.45703125,67.46484375,1,0,0,response1disk,,7,18.47265625,-2.79296875,1,0,0,rectangle,18.47265625,-2.79296875,1,0,0,18.47265625,-2.79296875,1,0,0,1,71,231,39,1,,,,,,,,
,,,,,,,,,,,,,FF,,,,,,,,1.0666,,,,,,,,,,,,,,,,,,,,,,610339d9df9af20e59c4c686,610368b2c1a5986f00de04fa,2021-07-29_22h50.25.071,Simcolourproject_2stim_asymm_v5,2020.2.10,MacIntel,60,61025ae37ef11b136ea224fe,,,,,,,,,3800,39.26171875,50.1171875,1,0,0,response1disk,,7,17.65625,1.27734375,1,0,0,rectangle,17.65625,1.27734375,1,0,0,17.65625,1.27734375,1,0,0,1,72,232,102,1,,,,,,,,
,,,,,,,,,,,,,FF,,,,,,,,1.335,,,,,,,,,,,,,,,,,,,,,,610339d9df9af20e59c4c686,610368b2c1a5986f00de04fa,2021-07-29_22h50.25.071,Simcolourproject_2stim_asymm_v5,2020.2.10,MacIntel,60,61025ae37ef11b136ea224fe,,,,,,,,,2742,92.5546875,-39.53125,1,0,0,response3disk,,5,18.25,4.48828125,1,0,0,rectangle,101.3007813,42.75,1,0,0,9.58203125,2.9765625,1,0,0,1,73,233,140,1,,response1disk_3,TRUE,6,6,"[181,196,255,247,13,54,149,119,18,234,53,193,203,16,198,275,149,143,203,308]",1.8667,rectangle
,,,,,,,,,,,,,FF,,,,,,,,0.7168,,,,,,,,,,,,,,,,,,,,,,610339d9df9af20e59c4c686,610368b2c1a5986f00de04fa,2021-07-29_22h50.25.071,Simcolourproject_2stim_asymm_v5,2020.2.10,MacIntel,60,61025ae37ef11b136ea224fe,,,,,,,,,3833,25.50390625,49.0234375,1,0,0,response1disk,,7,23.0859375,6.6484375,1,0,0,rectangle,23.0859375,6.6484375,1,0,0,23.0859375,6.6484375,1,0,0,1,74,234,118,1,,,,,,,,
,,,,,,,,,,,,,FF,,,,,,,,0.9502,,,,,,,,,,,,,,,,,,,,,,610339d9df9af20e59c4c686,610368b2c1a5986f00de04fa,2021-07-29_22h50.25.071,Simcolourproject_2stim_asymm_v5,2020.2.10,MacIntel,60,61025ae37ef11b136ea224fe,,,,,,,,,4018,60.453125,35.56640625,1,0,0,response1disk,,6,20.96484375,5.4140625,1,0,0,rectangle,20.96484375,5.4140625,1,0,0,20.96484375,5.4140625,1,0,0,1,75,235,120,1,,,,,,,,
,,,,,,,,,,,,,FF,,,,,,,,0.7334,,,,,,,,,,,,,,,,,,,,,,610339d9df9af20e59c4c686,610368b2c1a5986f00de04fa,2021-07-29_22h50.25.071,Simcolourproject_2stim_asymm_v5,2020.2.10,MacIntel,60,61025ae37ef11b136ea224fe,,,,,,,,,1492,51.72265625,76.19921875,1,0,0,response1disk,,7,23.1328125,10.953125,1,0,0,rectangle,23.1328125,10.953125,1,0,0,23.1328125,10.953125,1,0,0,1,76,236,89,1,,,,,,,,
,,,,,,,,,,,,,FF,,,,,,,,1.0997,,,,,,,,,,,,,,,,,,,,,,610339d9df9af20e59c4c686,610368b2c1a5986f00de04fa,2021-07-29_22h50.25.071,Simcolourproject_2stim_asymm_v5,2020.2.10,MacIntel,60,61025ae37ef11b136ea224fe,,,,,,,,,1718,89.15234375,38.69140625,1,0,0,response1disk,,6,16.49609375,0.59765625,1,0,0,rectangle,16.49609375,0.59765625,1,0,0,16.49609375,0.59765625,1,0,0,1,77,237,84,1,,,,,,,,
,,,,,,,,,,,,,FF,,,,,,,,0.8994,,,,,,,,,,,,,,,,,,,,,,610339d9df9af20e59c4c686,610368b2c1a5986f00de04fa,2021-07-29_22h50.25.071,Simcolourproject_2stim_asymm_v5,2020.2.10,MacIntel,60,61025ae37ef11b136ea224fe,,,,,,,,,1427,93.6171875,-43.55078125,1,0,0,response3disk,,5,21.125,-6.45703125,1,0,0,rectangle,21.125,-6.45703125,1,0,0,21.125,-6.45703125,1,0,0,1,78,238,132,1,,,,,,,,
,,,,,,,,,,,,,FF,,,,,,,,1.1827,,,,,,,,,,,,,,,,,,,,,,610339d9df9af20e59c4c686,610368b2c1a5986f00de04fa,2021-07-29_22h50.25.071,Simcolourproject_2stim_asymm_v5,2020.2.10,MacIntel,60,61025ae37ef11b136ea224fe,,,,,,,,,4326,-42.93359375,71.1328125,1,0,0,response7disk,,0,-9.33984375,4.2109375,1,0,0,rectangle,-9.33984375,4.2109375,1,0,0,-9.33984375,4.2109375,1,0,0,1,79,239,66,1,,,,,,,,
,,,,,,,,,,,,,FF,,,,,,,,1.3995,,,,,,,,,,,,,,,,,,,,,,610339d9df9af20e59c4c686,610368b2c1a5986f00de04fa,2021-07-29_22h50.25.071,Simcolourproject_2stim_asymm_v5,2020.2.10,MacIntel,60,61025ae37ef11b136ea224fe,,,,,,,,,1541,79.59375,-54.57421875,1,0,0,response3disk,,5,14.828125,-8.17578125,1,0,0,rectangle,14.828125,-8.17578125,1,0,0,14.828125,-8.17578125,1,0,0,1,80,240,25,1,,,,,,,,
,,,,,,,,,,,,,FF,,,,,,,,1.0842,,,,,,,,,,,,,,,,,,,,,,610339d9df9af20e59c4c686,610368b2c1a5986f00de04fa,2021-07-29_22h50.25.071,Simcolourproject_2stim_asymm_v5,2020.2.10,MacIntel,60,61025ae37ef11b136ea224fe,,,,,,,,,1621,46.05078125,-73.75390625,1,0,0,response3disk,,4,2.21875,2.34765625,1,0,0,rectangle,2.21875,2.34765625,1,0,0,2.21875,2.34765625,1,0,0,1,81,241,1,1,,,,,,,,
,,,,,,,,,,,,,FF,,,,,,,,0.7006,,,,,,,,,,,,,,,,,,,,,,610339d9df9af20e59c4c686,610368b2c1a5986f00de04fa,2021-07-29_22h50.25.071,Simcolourproject_2stim_asymm_v5,2020.2.10,MacIntel,60,61025ae37ef11b136ea224fe,,,,,,,,,2480,-28.765625,90.75390625,1,0,0,response7disk,,0,3.97265625,-3.7265625,1,0,0,rectangle,3.97265625,-3.7265625,1,0,0,3.97265625,-3.7265625,1,0,0,1,82,242,104,1,,,,,,,,
,,,,,,,,,,,,,FF,,,,,,,,0.8816,,,,,,,,,,,,,,,,,,,,,,610339d9df9af20e59c4c686,610368b2c1a5986f00de04fa,2021-07-29_22h50.25.071,Simcolourproject_2stim_asymm_v5,2020.2.10,MacIntel,60,61025ae37ef11b136ea224fe,,,,,,,,,2484,-28.63671875,-59.85546875,1,0,0,response5disk,,3,-18.3828125,-6.79296875,1,0,0,rectangle,-18.3828125,-6.79296875,1,0,0,-18.3828125,-6.79296875,1,0,0,1,83,243,121,1,,,,,,,,
,,,,,,,,,,,,,FF,,,,,,,,0.9338,,,,,,,,,,,,,,,,,,,,,,610339d9df9af20e59c4c686,610368b2c1a5986f00de04fa,2021-07-29_22h50.25.071,Simcolourproject_2stim_asymm_v5,2020.2.10,MacIntel,60,61025ae37ef11b136ea224fe,,,,,,,,,2678,-19.29296875,-68.21875,1,0,0,response5disk,,3,-13.12890625,-3.1171875,1,0,0,rectangle,-13.12890625,-3.1171875,1,0,0,-13.12890625,-3.1171875,1,0,0,1,84,244,22,1,,,,,,,,
,,,,,,,,,,,,,FF,,,,,,,,1.7347,,,,,,,,,,,,,,,,,,,,,,610339d9df9af20e59c4c686,610368b2c1a5986f00de04fa,2021-07-29_22h50.25.071,Simcolourproject_2stim_asymm_v5,2020.2.10,MacIntel,60,61025ae37ef11b136ea224fe,,,,,,,,,2951,85.921875,-43.2421875,1,0,0,response3disk,,5,17.91796875,-13.62890625,1,0,0,rectangle,17.91796875,-13.62890625,1,0,0,17.91796875,-13.62890625,1,0,0,1,85,245,142,1,,,,,,,,
,,,,,,,,,,,,,FF,,,,,,,,1.2504,,,,,,,,,,,,,,,,,,,,,,610339d9df9af20e59c4c686,610368b2c1a5986f00de04fa,2021-07-29_22h50.25.071,Simcolourproject_2stim_asymm_v5,2020.2.10,MacIntel,60,61025ae37ef11b136ea224fe,,,,,,,,,1190,68.234375,-34.484375,1,0,0,response3disk,,5,14.44921875,-13.6015625,1,0,0,rectangle,50.46875,88.2109375,1,0,0,4.4375,4.2109375,1,0,0,1,86,246,59,1,,response1disk_3,TRUE,7,7,"[181,196,255,247,13,54,149,119,18,234,53,193,203,16,198,275,149,143,203,308]",1.4681,rectangle
,,,,,,,,,,,,,FF,,,,,,,,0.8837,,,,,,,,,,,,,,,,,,,,,,610339d9df9af20e59c4c686,610368b2c1a5986f00de04fa,2021-07-29_22h50.25.071,Simcolourproject_2stim_asymm_v5,2020.2.10,MacIntel,60,61025ae37ef11b136ea224fe,,,,,,,,,1052,-42.078125,-76.21484375,1,0,0,response5disk,,3,-10.62890625,0.19140625,1,0,0,rectangle,-10.62890625,0.19140625,1,0,0,-10.62890625,0.19140625,1,0,0,1,87,247,43,1,,,,,,,,
