key_resp.keys,key_resp.rt,key_resp_14.keys,key_resp_14.rt,key_resp_15.keys,key_resp_15.rt,key_resp_17.keys,key_resp_17.rt,key_resp_9.keys,key_resp_9.rt,key_resp_10.keys,key_resp_10.rt,practice_comparison,Ecc,mouse_5.x,mouse_5.y,mouse_5.leftButton,mouse_5.midButton,mouse_5.rightButton,mouse_5.clicked_name,pracsimilarity,response_time,mouse_10.x,mouse_10.y,mouse_10.leftButton,mouse_10.midButton,mouse_10.rightButton,mouse_10.clicked_name,mouse_7.x,mouse_7.y,mouse_7.leftButton,mouse_7.midButton,mouse_7.rightButton,mouse_6.x,mouse_6.y,mouse_6.leftButton,mouse_6.midButton,mouse_6.rightButton,duringprac.thisRepN,duringprac.thisTrialN,duringprac.thisN,duringprac.thisIndex,duringprac.ran,participant,session,date,expName,psychopyVersion,OS,frameRate,study_id,mouse_7.clicked_name,catchpracsimilarity,catch_response_time,catchnumberprac,catchtrialorderprac,mouse_6.clicked_name,key_resp_22.keys,key_resp_22.rt,realcomparison,mouse.x,mouse.y,mouse.leftButton,mouse.midButton,mouse.rightButton,mouse.clicked_name,Colour2,similarity,mouse_2.x,mouse_2.y,mouse_2.leftButton,mouse_2.midButton,mouse_2.rightButton,mouse_2.clicked_name,mouse_3.x,mouse_3.y,mouse_3.leftButton,mouse_3.midButton,mouse_3.rightButton,mouse_11.x,mouse_11.y,mouse_11.leftButton,mouse_11.midButton,mouse_11.rightButton,trials_2.thisRepN,trials_2.thisTrialN,trials_2.thisN,trials_2.thisIndex,trials_2.ran,Colour1,mouse_3.clicked_name,catchornah,catchsimilarity,catchnumber,catchtrialorder,catchRT,mouse_11.clicked_name
space,4.0282,space,6.7294,space,25.2492,space,4.7298,space,0.7859,space,2.8062,102,PF,-43.03466797,-85.55560303,1,0,0,response5disk_5,3,5.3512,1.994567871,-7.239257813,1,0,0,rectangle_8,1.994567871,-7.239257813,1,0,0,1.994567871,-7.239257813,1,0,0,0,0,0,6,1,6103172048a198940b193018,610367998d2d09ec85bb0ae8,2021-07-29_22h45.14.502,Simcolourproject_2stim_asymm_v5,2020.2.10,MacIntel,60,61025ae37ef11b136ea224fe,,,,,,,,,,,,,,,,,,,,,,,,,,,,,,,,,,,,,,,,,,,,,,
,,,,,,,,,,,,47,PF,74.46295166,35.72412109,1,0,0,response1disk_5,6,1.9859,0.342346191,-4.032226563,1,0,0,rectangle_8,-37.16900635,-100.5198364,1,0,0,-1.709899902,-0.607116699,1,0,0,0,1,1,2,1,6103172048a198940b193018,610367998d2d09ec85bb0ae8,2021-07-29_22h45.14.502,Simcolourproject_2stim_asymm_v5,2020.2.10,MacIntel,60,61025ae37ef11b136ea224fe,response5disk_7,3,2.2701,3,"[2,5]",rectangle_4,,,,,,,,,,,,,,,,,,,,,,,,,,,,,,,,,,,,,,,,
,,,,,,,,,,,,160,PF,-93.31549072,-50.43341064,1,0,0,response5disk_5,2,1.3909,6.213928223,1.328491211,1,0,0,rectangle_8,6.213928223,1.328491211,1,0,0,6.213928223,1.328491211,1,0,0,0,2,2,1,1,6103172048a198940b193018,610367998d2d09ec85bb0ae8,2021-07-29_22h45.14.502,Simcolourproject_2stim_asymm_v5,2020.2.10,MacIntel,60,61025ae37ef11b136ea224fe,,,,,,,,,,,,,,,,,,,,,,,,,,,,,,,,,,,,,,,,,,,,,,
,,,,,,,,,,,,49,FF,34.42602539,-64.89028931,1,0,0,response3disk_5,4,1.4165,-0.05871582,-3.916320801,1,0,0,rectangle_8,-0.05871582,-3.916320801,1,0,0,-0.05871582,-3.916320801,1,0,0,0,3,3,5,1,6103172048a198940b193018,610367998d2d09ec85bb0ae8,2021-07-29_22h45.14.502,Simcolourproject_2stim_asymm_v5,2020.2.10,MacIntel,60,61025ae37ef11b136ea224fe,,,,,,,,,,,,,,,,,,,,,,,,,,,,,,,,,,,,,,,,,,,,,,
,,,,,,,,,,,,109,PF,71.68536377,18.18283081,1,0,0,response1disk_5,6,1.6986,1.874267578,-3.054077148,1,0,0,rectangle_8,-18.324646,-61.72265625,1,0,0,2.402526855,-9.476379395,1,0,0,0,4,4,4,1,6103172048a198940b193018,610367998d2d09ec85bb0ae8,2021-07-29_22h45.14.502,Simcolourproject_2stim_asymm_v5,2020.2.10,MacIntel,60,61025ae37ef11b136ea224fe,response5disk_7,3,1.516,3,"[2,5]",rectangle_4,,,,,,,,,,,,,,,,,,,,,,,,,,,,,,,,,,,,,,,,
,,,,,,,,,,,,6,FF,-52.12823486,26.11846924,1,0,0,response7disk_5,1,1.0668,12.36584473,9.934997559,1,0,0,rectangle_8,12.36584473,9.934997559,1,0,0,12.36584473,9.934997559,1,0,0,0,5,5,0,1,6103172048a198940b193018,610367998d2d09ec85bb0ae8,2021-07-29_22h45.14.502,Simcolourproject_2stim_asymm_v5,2020.2.10,MacIntel,60,61025ae37ef11b136ea224fe,,,,,,,,,,,,,,,,,,,,,,,,,,,,,,,,,,,,,,,,,,,,,,
,,,,,,,,,,,,109,FF,97.8303833,-73.75039673,1,0,0,response3disk_5,5,1.9843,-1.516845703,-5.920471191,1,0,0,rectangle_8,-1.516845703,-5.920471191,1,0,0,-1.516845703,-5.920471191,1,0,0,0,6,6,3,1,6103172048a198940b193018,610367998d2d09ec85bb0ae8,2021-07-29_22h45.14.502,Simcolourproject_2stim_asymm_v5,2020.2.10,MacIntel,60,61025ae37ef11b136ea224fe,,,,,,,,,,,,,,,,,,,,,,,,,,,,,,,,,,,,,,,,,,,,,,
,,,,,,,,,,,,,FF,,,,,,,,1.2669,,,,,,,,,,,,,,,,,,,,,,6103172048a198940b193018,610367998d2d09ec85bb0ae8,2021-07-29_22h45.14.502,Simcolourproject_2stim_asymm_v5,2020.2.10,MacIntel,60,61025ae37ef11b136ea224fe,,,,,,,space,22.1425,1470,-52.98602295,-33.47888184,1,0,0,response5disk,,2,5.524658203,1.220214844,1,0,0,rectangle,5.524658203,1.220214844,1,0,0,5.524658203,1.220214844,1,0,0,0,0,0,0,1,,,,,,,,
,,,,,,,,,,,,,FF,,,,,,,,1.2172,,,,,,,,,,,,,,,,,,,,,,6103172048a198940b193018,610367998d2d09ec85bb0ae8,2021-07-29_22h45.14.502,Simcolourproject_2stim_asymm_v5,2020.2.10,MacIntel,60,61025ae37ef11b136ea224fe,,,,,,,,,1242,45.03717041,-64.1383667,1,0,0,response3disk,,4,7.341491699,3.132202148,1,0,0,rectangle,7.341491699,3.132202148,1,0,0,7.341491699,3.132202148,1,0,0,0,1,1,97,1,,,,,,,,
,,,,,,,,,,,,,FF,,,,,,,,1.5662,,,,,,,,,,,,,,,,,,,,,,6103172048a198940b193018,610367998d2d09ec85bb0ae8,2021-07-29_22h45.14.502,Simcolourproject_2stim_asymm_v5,2020.2.10,MacIntel,60,61025ae37ef11b136ea224fe,,,,,,,,,2336,65.16082764,-49.20962524,1,0,0,response3disk,,5,12.82556152,-12.52935791,1,0,0,rectangle,12.82556152,-12.52935791,1,0,0,12.82556152,-12.52935791,1,0,0,0,2,2,133,1,,,,,,,,
,,,,,,,,,,,,,FF,,,,,,,,1.1331,,,,,,,,,,,,,,,,,,,,,,6103172048a198940b193018,610367998d2d09ec85bb0ae8,2021-07-29_22h45.14.502,Simcolourproject_2stim_asymm_v5,2020.2.10,MacIntel,60,61025ae37ef11b136ea224fe,,,,,,,,,4035,-44.61846924,-66.40985107,1,0,0,response5disk,,3,-5.942810059,-12.69024658,1,0,0,rectangle,-5.942810059,-12.69024658,1,0,0,-5.942810059,-12.69024658,1,0,0,0,3,3,32,1,,,,,,,,
,,,,,,,,,,,,,FF,,,,,,,,1.231,,,,,,,,,,,,,,,,,,,,,,6103172048a198940b193018,610367998d2d09ec85bb0ae8,2021-07-29_22h45.14.502,Simcolourproject_2stim_asymm_v5,2020.2.10,MacIntel,60,61025ae37ef11b136ea224fe,,,,,,,,,3769,37.87298584,-62.13287354,1,0,0,response3disk,,4,1.434814453,11.92855835,1,0,0,rectangle,1.434814453,11.92855835,1,0,0,1.434814453,11.92855835,1,0,0,0,4,4,90,1,,,,,,,,
,,,,,,,,,,,,,FF,,,,,,,,1.4492,,,,,,,,,,,,,,,,,,,,,,6103172048a198940b193018,610367998d2d09ec85bb0ae8,2021-07-29_22h45.14.502,Simcolourproject_2stim_asymm_v5,2020.2.10,MacIntel,60,61025ae37ef11b136ea224fe,,,,,,,,,2198,69.27789307,18.34695435,1,0,0,response1disk,,6,12.597229,-1.224456787,1,0,0,rectangle,12.597229,-1.224456787,1,0,0,12.597229,-1.224456787,1,0,0,0,5,5,28,1,,,,,,,,
,,,,,,,,,,,,,FF,,,,,,,,1.6172,,,,,,,,,,,,,,,,,,,,,,6103172048a198940b193018,610367998d2d09ec85bb0ae8,2021-07-29_22h45.14.502,Simcolourproject_2stim_asymm_v5,2020.2.10,MacIntel,60,61025ae37ef11b136ea224fe,,,,,,,,,2887,-92.65081787,50.06738281,1,0,0,response7disk,,1,4.975463867,-3.76171875,1,0,0,rectangle,4.975463867,-3.76171875,1,0,0,4.975463867,-3.76171875,1,0,0,0,6,6,17,1,,,,,,,,
,,,,,,,,,,,,,FF,,,,,,,,1.0666,,,,,,,,,,,,,,,,,,,,,,6103172048a198940b193018,610367998d2d09ec85bb0ae8,2021-07-29_22h45.14.502,Simcolourproject_2stim_asymm_v5,2020.2.10,MacIntel,60,61025ae37ef11b136ea224fe,,,,,,,,,495,78.91656494,-49.65240479,1,0,0,response3disk,,5,23.76159668,-5.171081543,1,0,0,rectangle,23.76159668,-5.171081543,1,0,0,23.76159668,-5.171081543,1,0,0,0,7,7,56,1,,,,,,,,
,,,,,,,,,,,,,FF,,,,,,,,3.2001,,,,,,,,,,,,,,,,,,,,,,6103172048a198940b193018,610367998d2d09ec85bb0ae8,2021-07-29_22h45.14.502,Simcolourproject_2stim_asymm_v5,2020.2.10,MacIntel,60,61025ae37ef11b136ea224fe,,,,,,,,,3816,60.75604248,-34.01580811,1,0,0,response3disk,,5,-1.359680176,2.238342285,1,0,0,rectangle,-1.359680176,2.238342285,1,0,0,-1.359680176,2.238342285,1,0,0,0,8,8,145,1,,,,,,,,
,,,,,,,,,,,,,FF,,,,,,,,0.9335,,,,,,,,,,,,,,,,,,,,,,6103172048a198940b193018,610367998d2d09ec85bb0ae8,2021-07-29_22h45.14.502,Simcolourproject_2stim_asymm_v5,2020.2.10,MacIntel,60,61025ae37ef11b136ea224fe,,,,,,,,,1770,31.95172119,-59.849823,1,0,0,response3disk,,4,7.366516113,-1.227722168,1,0,0,rectangle,7.366516113,-1.227722168,1,0,0,7.366516113,-1.227722168,1,0,0,0,9,9,59,1,,,,,,,,
,,,,,,,,,,,,,FF,,,,,,,,1.6149,,,,,,,,,,,,,,,,,,,,,,6103172048a198940b193018,610367998d2d09ec85bb0ae8,2021-07-29_22h45.14.502,Simcolourproject_2stim_asymm_v5,2020.2.10,MacIntel,60,61025ae37ef11b136ea224fe,,,,,,,,,993,-67.57818604,-52.02557373,1,0,0,response5disk,,2,2.576965332,-4.217468262,1,0,0,rectangle,2.576965332,-4.217468262,1,0,0,2.576965332,-4.217468262,1,0,0,0,10,10,24,1,,,,,,,,
,,,,,,,,,,,,,FF,,,,,,,,1.0658,,,,,,,,,,,,,,,,,,,,,,6103172048a198940b193018,610367998d2d09ec85bb0ae8,2021-07-29_22h45.14.502,Simcolourproject_2stim_asymm_v5,2020.2.10,MacIntel,60,61025ae37ef11b136ea224fe,,,,,,,,,446,71.58276367,-20.53961182,1,0,0,response3disk,,5,21.3916626,0.097961426,1,0,0,rectangle,21.3916626,0.097961426,1,0,0,21.3916626,0.097961426,1,0,0,0,11,11,51,1,,,,,,,,
,,,,,,,,,,,,,FF,,,,,,,,0.9999,,,,,,,,,,,,,,,,,,,,,,6103172048a198940b193018,610367998d2d09ec85bb0ae8,2021-07-29_22h45.14.502,Simcolourproject_2stim_asymm_v5,2020.2.10,MacIntel,60,61025ae37ef11b136ea224fe,,,,,,,,,343,-64.57495117,-39.08508301,1,0,0,response5disk,,2,4.017883301,0.051025391,1,0,0,rectangle,4.017883301,0.051025391,1,0,0,4.017883301,0.051025391,1,0,0,0,12,12,44,1,,,,,,,,
,,,,,,,,,,,,,FF,,,,,,,,1.3852,,,,,,,,,,,,,,,,,,,,,,6103172048a198940b193018,610367998d2d09ec85bb0ae8,2021-07-29_22h45.14.502,Simcolourproject_2stim_asymm_v5,2020.2.10,MacIntel,60,61025ae37ef11b136ea224fe,,,,,,,,,407,61.72869873,-44.9732666,1,0,0,response3disk,,5,14.0980835,4.093017578,1,0,0,rectangle,14.0980835,4.093017578,1,0,0,14.0980835,4.093017578,1,0,0,0,13,13,141,1,,,,,,,,
,,,,,,,,,,,,,FF,,,,,,,,1.0342,,,,,,,,,,,,,,,,,,,,,,6103172048a198940b193018,610367998d2d09ec85bb0ae8,2021-07-29_22h45.14.502,Simcolourproject_2stim_asymm_v5,2020.2.10,MacIntel,60,61025ae37ef11b136ea224fe,,,,,,,,,3084,-28.10211182,-63.77227783,1,0,0,response5disk,,3,-12.65844727,-3.394195557,1,0,0,rectangle,-12.65844727,-3.394195557,1,0,0,-12.65844727,-3.394195557,1,0,0,0,14,14,40,1,,,,,,,,
,,,,,,,,,,,,,FF,,,,,,,,0.8522,,,,,,,,,,,,,,,,,,,,,,6103172048a198940b193018,610367998d2d09ec85bb0ae8,2021-07-29_22h45.14.502,Simcolourproject_2stim_asymm_v5,2020.2.10,MacIntel,60,61025ae37ef11b136ea224fe,,,,,,,,,1760,-49.25531006,-28.18515015,1,0,0,response5disk,,2,-11.04284668,-6.456176758,1,0,0,rectangle,-11.04284668,-6.456176758,1,0,0,-11.04284668,-6.456176758,1,0,0,0,15,15,155,1,,,,,,,,
,,,,,,,,,,,,,FF,,,,,,,,0.7667,,,,,,,,,,,,,,,,,,,,,,6103172048a198940b193018,610367998d2d09ec85bb0ae8,2021-07-29_22h45.14.502,Simcolourproject_2stim_asymm_v5,2020.2.10,MacIntel,60,61025ae37ef11b136ea224fe,,,,,,,,,3533,24.70129395,-61.3739624,1,0,0,response3disk,,4,5.354187012,-3.997680664,1,0,0,rectangle,5.354187012,-3.997680664,1,0,0,5.354187012,-3.997680664,1,0,0,0,16,16,15,1,,,,,,,,
,,,,,,,,,,,,,FF,,,,,,,,3.0002,,,,,,,,,,,,,,,,,,,,,,6103172048a198940b193018,610367998d2d09ec85bb0ae8,2021-07-29_22h45.14.502,Simcolourproject_2stim_asymm_v5,2020.2.10,MacIntel,60,61025ae37ef11b136ea224fe,,,,,,,,,3053,-48.28619385,-28.00561523,1,0,0,response5disk,,2,-9.41583252,-7.333679199,1,0,0,rectangle,-9.41583252,-7.333679199,1,0,0,-9.41583252,-7.333679199,1,0,0,0,17,17,132,1,,,,,,,,
,,,,,,,,,,,,,FF,,,,,,,,1.067,,,,,,,,,,,,,,,,,,,,,,6103172048a198940b193018,610367998d2d09ec85bb0ae8,2021-07-29_22h45.14.502,Simcolourproject_2stim_asymm_v5,2020.2.10,MacIntel,60,61025ae37ef11b136ea224fe,,,,,,,,,1619,33.96398926,-84.64129639,1,0,0,response3disk,,4,8.711791992,-5.292236328,1,0,0,rectangle,8.711791992,-5.292236328,1,0,0,8.711791992,-5.292236328,1,0,0,0,18,18,57,1,,,,,,,,
,,,,,,,,,,,,,FF,,,,,,,,0.6667,,,,,,,,,,,,,,,,,,,,,,6103172048a198940b193018,610367998d2d09ec85bb0ae8,2021-07-29_22h45.14.502,Simcolourproject_2stim_asymm_v5,2020.2.10,MacIntel,60,61025ae37ef11b136ea224fe,,,,,,,,,2207,59.40386963,-36.65921021,1,0,0,response3disk,,5,13.98980713,-5.043548584,1,0,0,rectangle,13.98980713,-5.043548584,1,0,0,13.98980713,-5.043548584,1,0,0,0,19,19,75,1,,,,,,,,
,,,,,,,,,,,,,FF,,,,,,,,1.1655,,,,,,,,,,,,,,,,,,,,,,6103172048a198940b193018,610367998d2d09ec85bb0ae8,2021-07-29_22h45.14.502,Simcolourproject_2stim_asymm_v5,2020.2.10,MacIntel,60,61025ae37ef11b136ea224fe,,,,,,,,,3281,-22.12878418,-60.11242676,1,0,0,response5disk,,3,-1.47052002,-11.71514893,1,0,0,rectangle,-1.47052002,-11.71514893,1,0,0,-1.47052002,-11.71514893,1,0,0,0,20,20,53,1,,,,,,,,
,,,,,,,,,,,,,FF,,,,,,,,0.9686,,,,,,,,,,,,,,,,,,,,,,6103172048a198940b193018,610367998d2d09ec85bb0ae8,2021-07-29_22h45.14.502,Simcolourproject_2stim_asymm_v5,2020.2.10,MacIntel,60,61025ae37ef11b136ea224fe,,,,,,,,,1859,31.81414795,-64.94815063,1,0,0,response3disk,,4,7.406738281,-2.02456665,1,0,0,rectangle,7.406738281,-2.02456665,1,0,0,7.406738281,-2.02456665,1,0,0,0,21,21,101,1,,,,,,,,
,,,,,,,,,,,,,FF,,,,,,,,1.0014,,,,,,,,,,,,,,,,,,,,,,6103172048a198940b193018,610367998d2d09ec85bb0ae8,2021-07-29_22h45.14.502,Simcolourproject_2stim_asymm_v5,2020.2.10,MacIntel,60,61025ae37ef11b136ea224fe,,,,,,,,,3826,59.46923828,-39.42669678,1,0,0,response3disk,,5,-14.50811768,-4.032318115,1,0,0,rectangle,-14.50811768,-4.032318115,1,0,0,-14.50811768,-4.032318115,1,0,0,0,22,22,139,1,,,,,,,,
,,,,,,,,,,,,,FF,,,,,,,,0.9159,,,,,,,,,,,,,,,,,,,,,,6103172048a198940b193018,610367998d2d09ec85bb0ae8,2021-07-29_22h45.14.502,Simcolourproject_2stim_asymm_v5,2020.2.10,MacIntel,60,61025ae37ef11b136ea224fe,,,,,,,,,2305,-57.22180176,-42.53323364,1,0,0,response5disk,,2,-15.18054199,-9.836608887,1,0,0,rectangle,-15.18054199,-9.836608887,1,0,0,-15.18054199,-9.836608887,1,0,0,0,23,23,159,1,,,,,,,,
,,,,,,,,,,,,,FF,,,,,,,,1.1168,,,,,,,,,,,,,,,,,,,,,,6103172048a198940b193018,610367998d2d09ec85bb0ae8,2021-07-29_22h45.14.502,Simcolourproject_2stim_asymm_v5,2020.2.10,MacIntel,60,61025ae37ef11b136ea224fe,,,,,,,,,1249,29.60168457,-77.85910034,1,0,0,response3disk,,4,2.13848877,-9.253234863,1,0,0,rectangle,-20.86096191,78.17398071,1,0,0,-4.054077148,1.074523926,1,0,0,0,24,24,26,1,,response7disk_3,TRUE,0,0,"[199,217,96,259,259,120,125,109,105,25,258,149,241,117,29,45,121,39,74,166]",2.4011,rectangle
,,,,,,,,,,,,,FF,,,,,,,,0.5834,,,,,,,,,,,,,,,,,,,,,,6103172048a198940b193018,610367998d2d09ec85bb0ae8,2021-07-29_22h45.14.502,Simcolourproject_2stim_asymm_v5,2020.2.10,MacIntel,60,61025ae37ef11b136ea224fe,,,,,,,,,3264,43.32098389,-76.9520874,1,0,0,response3disk,,4,3.275878906,-10.17120361,1,0,0,rectangle,3.275878906,-10.17120361,1,0,0,3.275878906,-10.17120361,1,0,0,0,25,25,87,1,,,,,,,,
,,,,,,,,,,,,,FF,,,,,,,,0.8496,,,,,,,,,,,,,,,,,,,,,,6103172048a198940b193018,610367998d2d09ec85bb0ae8,2021-07-29_22h45.14.502,Simcolourproject_2stim_asymm_v5,2020.2.10,MacIntel,60,61025ae37ef11b136ea224fe,,,,,,,,,528,-59.07098389,-27.74902344,1,0,0,response5disk,,2,5.8984375,-12.50146484,1,0,0,rectangle,5.8984375,-12.50146484,1,0,0,5.8984375,-12.50146484,1,0,0,0,26,26,65,1,,,,,,,,
,,,,,,,,,,,,,FF,,,,,,,,0.734,,,,,,,,,,,,,,,,,,,,,,6103172048a198940b193018,610367998d2d09ec85bb0ae8,2021-07-29_22h45.14.502,Simcolourproject_2stim_asymm_v5,2020.2.10,MacIntel,60,61025ae37ef11b136ea224fe,,,,,,,,,283,33.62512207,-68.91894531,1,0,0,response3disk,,4,19.16326904,-10.3572998,1,0,0,rectangle,19.16326904,-10.3572998,1,0,0,19.16326904,-10.3572998,1,0,0,0,27,27,46,1,,,,,,,,
,,,,,,,,,,,,,FF,,,,,,,,1.0326,,,,,,,,,,,,,,,,,,,,,,6103172048a198940b193018,610367998d2d09ec85bb0ae8,2021-07-29_22h45.14.502,Simcolourproject_2stim_asymm_v5,2020.2.10,MacIntel,60,61025ae37ef11b136ea224fe,,,,,,,,,3658,87.46386719,-24.11828613,1,0,0,response3disk,,5,19.00421143,3.814849854,1,0,0,rectangle,83.57745361,-47.10992432,1,0,0,12.02032471,0.64944458,1,0,0,0,28,28,108,1,,response3disk_3,TRUE,5,5,"[199,217,96,259,259,120,125,109,105,25,258,149,241,117,29,45,121,39,74,166]",1.5498,rectangle
,,,,,,,,,,,,,FF,,,,,,,,0.849,,,,,,,,,,,,,,,,,,,,,,6103172048a198940b193018,610367998d2d09ec85bb0ae8,2021-07-29_22h45.14.502,Simcolourproject_2stim_asymm_v5,2020.2.10,MacIntel,60,61025ae37ef11b136ea224fe,,,,,,,,,1356,-16.77874756,-66.13562012,1,0,0,response5disk,,3,-14.37268066,-10.26898193,1,0,0,rectangle,-14.37268066,-10.26898193,1,0,0,-14.37268066,-10.26898193,1,0,0,0,29,29,72,1,,,,,,,,
,,,,,,,,,,,,,FF,,,,,,,,0.5999,,,,,,,,,,,,,,,,,,,,,,6103172048a198940b193018,610367998d2d09ec85bb0ae8,2021-07-29_22h45.14.502,Simcolourproject_2stim_asymm_v5,2020.2.10,MacIntel,60,61025ae37ef11b136ea224fe,,,,,,,,,212,-50.83660889,-29.91229248,1,0,0,response5disk,,2,-16.4520874,-11.24740601,1,0,0,rectangle,-16.4520874,-11.24740601,1,0,0,-16.4520874,-11.24740601,1,0,0,0,30,30,147,1,,,,,,,,
,,,,,,,,,,,,,FF,,,,,,,,0.95,,,,,,,,,,,,,,,,,,,,,,6103172048a198940b193018,610367998d2d09ec85bb0ae8,2021-07-29_22h45.14.502,Simcolourproject_2stim_asymm_v5,2020.2.10,MacIntel,60,61025ae37ef11b136ea224fe,,,,,,,,,1414,-51.31750488,-29.22860718,1,0,0,response5disk,,2,-11.20355225,-10.44989014,1,0,0,rectangle,-11.20355225,-10.44989014,1,0,0,-11.20355225,-10.44989014,1,0,0,0,31,31,49,1,,,,,,,,
,,,,,,,,,,,,,FF,,,,,,,,0.7508,,,,,,,,,,,,,,,,,,,,,,6103172048a198940b193018,610367998d2d09ec85bb0ae8,2021-07-29_22h45.14.502,Simcolourproject_2stim_asymm_v5,2020.2.10,MacIntel,60,61025ae37ef11b136ea224fe,,,,,,,,,34,18.19897461,-75.25665283,1,0,0,response3disk,,4,-3.295043945,-14.88031006,1,0,0,rectangle,-3.295043945,-14.88031006,1,0,0,-3.295043945,-14.88031006,1,0,0,0,32,32,111,1,,,,,,,,
,,,,,,,,,,,,,FF,,,,,,,,0.8167,,,,,,,,,,,,,,,,,,,,,,6103172048a198940b193018,610367998d2d09ec85bb0ae8,2021-07-29_22h45.14.502,Simcolourproject_2stim_asymm_v5,2020.2.10,MacIntel,60,61025ae37ef11b136ea224fe,,,,,,,,,1449,-53.07250977,-38.68023682,1,0,0,response5disk,,2,0.272521973,-9.091369629,1,0,0,rectangle,0.272521973,-9.091369629,1,0,0,0.272521973,-9.091369629,1,0,0,0,33,33,146,1,,,,,,,,
,,,,,,,,,,,,,FF,,,,,,,,1.0331,,,,,,,,,,,,,,,,,,,,,,6103172048a198940b193018,610367998d2d09ec85bb0ae8,2021-07-29_22h45.14.502,Simcolourproject_2stim_asymm_v5,2020.2.10,MacIntel,60,61025ae37ef11b136ea224fe,,,,,,,,,1037,28.50854492,-78.53961182,1,0,0,response3disk,,4,11.23620605,-6.10369873,1,0,0,rectangle,11.23620605,-6.10369873,1,0,0,11.23620605,-6.10369873,1,0,0,0,34,34,67,1,,,,,,,,
,,,,,,,,,,,,,FF,,,,,,,,1.5998,,,,,,,,,,,,,,,,,,,,,,6103172048a198940b193018,610367998d2d09ec85bb0ae8,2021-07-29_22h45.14.502,Simcolourproject_2stim_asymm_v5,2020.2.10,MacIntel,60,61025ae37ef11b136ea224fe,,,,,,,,,3672,-77.15917969,38.28869629,1,0,0,response7disk,,1,19.25946045,-12.08648682,1,0,0,rectangle,19.25946045,-12.08648682,1,0,0,19.25946045,-12.08648682,1,0,0,0,35,35,20,1,,,,,,,,
,,,,,,,,,,,,,FF,,,,,,,,5.1027,,,,,,,,,,,,,,,,,,,,,,6103172048a198940b193018,610367998d2d09ec85bb0ae8,2021-07-29_22h45.14.502,Simcolourproject_2stim_asymm_v5,2020.2.10,MacIntel,60,61025ae37ef11b136ea224fe,,,,,,,,,4316,35.36108398,-71.62338257,1,0,0,response3disk,,4,-12.34454346,-3.030426025,1,0,0,rectangle,-12.34454346,-3.030426025,1,0,0,-12.34454346,-3.030426025,1,0,0,0,36,36,64,1,,,,,,,,
,,,,,,,,,,,,,FF,,,,,,,,0.8333,,,,,,,,,,,,,,,,,,,,,,6103172048a198940b193018,610367998d2d09ec85bb0ae8,2021-07-29_22h45.14.502,Simcolourproject_2stim_asymm_v5,2020.2.10,MacIntel,60,61025ae37ef11b136ea224fe,,,,,,,,,3058,-69.72406006,-30.70504761,1,0,0,response5disk,,2,-2.962036133,-13.66192627,1,0,0,rectangle,-2.962036133,-13.66192627,1,0,0,-2.962036133,-13.66192627,1,0,0,0,37,37,124,1,,,,,,,,
,,,,,,,,,,,,,FF,,,,,,,,0.7842,,,,,,,,,,,,,,,,,,,,,,6103172048a198940b193018,610367998d2d09ec85bb0ae8,2021-07-29_22h45.14.502,Simcolourproject_2stim_asymm_v5,2020.2.10,MacIntel,60,61025ae37ef11b136ea224fe,,,,,,,,,113,39.34460449,-73.1875,1,0,0,response3disk,,4,10.84161377,3.536804199,1,0,0,rectangle,-32.50714111,-66.87802124,1,0,0,-0.103637695,-3.303649902,1,0,0,0,38,38,98,1,,response5disk_3,TRUE,3,3,"[199,217,96,259,259,120,125,109,105,25,258,149,241,117,29,45,121,39,74,166]",1.334,rectangle
,,,,,,,,,,,,,FF,,,,,,,,0.7663,,,,,,,,,,,,,,,,,,,,,,6103172048a198940b193018,610367998d2d09ec85bb0ae8,2021-07-29_22h45.14.502,Simcolourproject_2stim_asymm_v5,2020.2.10,MacIntel,60,61025ae37ef11b136ea224fe,,,,,,,,,2342,75.2612915,-83.50357056,1,0,0,response3disk,,4,5.887817383,3.89630127,1,0,0,rectangle,5.887817383,3.89630127,1,0,0,5.887817383,3.89630127,1,0,0,0,39,39,129,1,,,,,,,,
,,,,,,,,,,,,,FF,,,,,,,,1.4834,,,,,,,,,,,,,,,,,,,,,,6103172048a198940b193018,610367998d2d09ec85bb0ae8,2021-07-29_22h45.14.502,Simcolourproject_2stim_asymm_v5,2020.2.10,MacIntel,60,61025ae37ef11b136ea224fe,,,,,,,,,1171,38.04083252,-68.59790039,1,0,0,response3disk,,4,15.7489624,-8.507019043,1,0,0,rectangle,15.7489624,-8.507019043,1,0,0,15.7489624,-8.507019043,1,0,0,0,40,40,6,1,,,,,,,,
,,,,,,,,,,,,,FF,,,,,,,,0.8671,,,,,,,,,,,,,,,,,,,,,,6103172048a198940b193018,610367998d2d09ec85bb0ae8,2021-07-29_22h45.14.502,Simcolourproject_2stim_asymm_v5,2020.2.10,MacIntel,60,61025ae37ef11b136ea224fe,,,,,,,,,2976,-52.58087158,-83.45809937,1,0,0,response5disk,,3,5.526550293,6.452453613,1,0,0,rectangle,5.526550293,6.452453613,1,0,0,5.526550293,6.452453613,1,0,0,0,41,41,158,1,,,,,,,,
,,,,,,,,,,,,,FF,,,,,,,,0.9672,,,,,,,,,,,,,,,,,,,,,,6103172048a198940b193018,610367998d2d09ec85bb0ae8,2021-07-29_22h45.14.502,Simcolourproject_2stim_asymm_v5,2020.2.10,MacIntel,60,61025ae37ef11b136ea224fe,,,,,,,,,1543,-52.16339111,-74.3046875,1,0,0,response5disk,,3,4.731140137,13.16833496,1,0,0,rectangle,4.731140137,13.16833496,1,0,0,4.731140137,13.16833496,1,0,0,0,42,42,134,1,,,,,,,,
,,,,,,,,,,,,,FF,,,,,,,,0.6335,,,,,,,,,,,,,,,,,,,,,,6103172048a198940b193018,610367998d2d09ec85bb0ae8,2021-07-29_22h45.14.502,Simcolourproject_2stim_asymm_v5,2020.2.10,MacIntel,60,61025ae37ef11b136ea224fe,,,,,,,,,2840,-30.90795898,-66.7979126,1,0,0,response5disk,,3,-8.222412109,-5.709686279,1,0,0,rectangle,-8.222412109,-5.709686279,1,0,0,-8.222412109,-5.709686279,1,0,0,0,43,43,62,1,,,,,,,,
,,,,,,,,,,,,,FF,,,,,,,,0.7355,,,,,,,,,,,,,,,,,,,,,,6103172048a198940b193018,610367998d2d09ec85bb0ae8,2021-07-29_22h45.14.502,Simcolourproject_2stim_asymm_v5,2020.2.10,MacIntel,60,61025ae37ef11b136ea224fe,,,,,,,,,3682,-59.33441162,-29.7434082,1,0,0,response5disk,,2,6.018493652,-0.839752197,1,0,0,rectangle,-36.40490723,-78.79815674,1,0,0,0.290283203,0.244873047,1,0,0,0,44,44,122,1,,response5disk_3,TRUE,3,3,"[199,217,96,259,259,120,125,109,105,25,258,149,241,117,29,45,121,39,74,166]",1.1998,rectangle
,,,,,,,,,,,,,FF,,,,,,,,1.0683,,,,,,,,,,,,,,,,,,,,,,6103172048a198940b193018,610367998d2d09ec85bb0ae8,2021-07-29_22h45.14.502,Simcolourproject_2stim_asymm_v5,2020.2.10,MacIntel,60,61025ae37ef11b136ea224fe,,,,,,,,,811,-61.80206299,-34.06469727,1,0,0,response5disk,,2,-14.57189941,-14.64849854,1,0,0,rectangle,-14.57189941,-14.64849854,1,0,0,-14.57189941,-14.64849854,1,0,0,0,45,45,10,1,,,,,,,,
,,,,,,,,,,,,,FF,,,,,,,,1.0501,,,,,,,,,,,,,,,,,,,,,,6103172048a198940b193018,610367998d2d09ec85bb0ae8,2021-07-29_22h45.14.502,Simcolourproject_2stim_asymm_v5,2020.2.10,MacIntel,60,61025ae37ef11b136ea224fe,,,,,,,,,3671,-37.77954102,53.30969238,1,0,0,response7disk,,0,-1.573425293,4.121826172,1,0,0,rectangle,-1.573425293,4.121826172,1,0,0,-1.573425293,4.121826172,1,0,0,0,46,46,106,1,,,,,,,,
,,,,,,,,,,,,,FF,,,,,,,,1.1993,,,,,,,,,,,,,,,,,,,,,,6103172048a198940b193018,610367998d2d09ec85bb0ae8,2021-07-29_22h45.14.502,Simcolourproject_2stim_asymm_v5,2020.2.10,MacIntel,60,61025ae37ef11b136ea224fe,,,,,,,,,1664,98.58221436,-29.40887451,1,0,0,response3disk,,5,23.94586182,-2.30255127,1,0,0,rectangle,23.94586182,-2.30255127,1,0,0,23.94586182,-2.30255127,1,0,0,0,47,47,25,1,,,,,,,,
,,,,,,,,,,,,,FF,,,,,,,,0.6852,,,,,,,,,,,,,,,,,,,,,,6103172048a198940b193018,610367998d2d09ec85bb0ae8,2021-07-29_22h45.14.502,Simcolourproject_2stim_asymm_v5,2020.2.10,MacIntel,60,61025ae37ef11b136ea224fe,,,,,,,,,4079,91.56329346,-28.44793701,1,0,0,response3disk,,5,33.37969971,-7.67010498,1,0,0,rectangle,33.37969971,-7.67010498,1,0,0,33.37969971,-7.67010498,1,0,0,0,48,48,151,1,,,,,,,,
,,,,,,,,,,,,,FF,,,,,,,,1.2819,,,,,,,,,,,,,,,,,,,,,,6103172048a198940b193018,610367998d2d09ec85bb0ae8,2021-07-29_22h45.14.502,Simcolourproject_2stim_asymm_v5,2020.2.10,MacIntel,60,61025ae37ef11b136ea224fe,,,,,,,,,2375,24.15582275,-78.51519775,1,0,0,response3disk,,4,2.280700684,6.764282227,1,0,0,rectangle,2.280700684,6.764282227,1,0,0,2.280700684,6.764282227,1,0,0,0,49,49,126,1,,,,,,,,
,,,,,,,,,,,,,FF,,,,,,,,0.7333,,,,,,,,,,,,,,,,,,,,,,6103172048a198940b193018,610367998d2d09ec85bb0ae8,2021-07-29_22h45.14.502,Simcolourproject_2stim_asymm_v5,2020.2.10,MacIntel,60,61025ae37ef11b136ea224fe,,,,,,,,,1246,-33.90869141,-83.59240723,1,0,0,response5disk,,3,1.703613281,-7.211791992,1,0,0,rectangle,1.703613281,-7.211791992,1,0,0,1.703613281,-7.211791992,1,0,0,0,50,50,4,1,,,,,,,,
,,,,,,,,,,,,,FF,,,,,,,,0.5501,,,,,,,,,,,,,,,,,,,,,,6103172048a198940b193018,610367998d2d09ec85bb0ae8,2021-07-29_22h45.14.502,Simcolourproject_2stim_asymm_v5,2020.2.10,MacIntel,60,61025ae37ef11b136ea224fe,,,,,,,,,3987,-54.98986816,-37.42425537,1,0,0,response5disk,,2,-2.200622559,-11.79663086,1,0,0,rectangle,-2.200622559,-11.79663086,1,0,0,-2.200622559,-11.79663086,1,0,0,0,51,51,1,1,,,,,,,,
,,,,,,,,,,,,,FF,,,,,,,,0.9998,,,,,,,,,,,,,,,,,,,,,,6103172048a198940b193018,610367998d2d09ec85bb0ae8,2021-07-29_22h45.14.502,Simcolourproject_2stim_asymm_v5,2020.2.10,MacIntel,60,61025ae37ef11b136ea224fe,,,,,,,,,3576,69.82788086,-79.87304688,1,0,0,response3disk,,4,13.93225098,-4.131286621,1,0,0,rectangle,13.93225098,-4.131286621,1,0,0,13.93225098,-4.131286621,1,0,0,0,52,52,110,1,,,,,,,,
,,,,,,,,,,,,,FF,,,,,,,,0.6651,,,,,,,,,,,,,,,,,,,,,,6103172048a198940b193018,610367998d2d09ec85bb0ae8,2021-07-29_22h45.14.502,Simcolourproject_2stim_asymm_v5,2020.2.10,MacIntel,60,61025ae37ef11b136ea224fe,,,,,,,,,1821,-67.21893311,-26.69921875,1,0,0,response5disk,,2,-6.461853027,9.661682129,1,0,0,rectangle,-6.461853027,9.661682129,1,0,0,-6.461853027,9.661682129,1,0,0,0,53,53,93,1,,,,,,,,
,,,,,,,,,,,,,FF,,,,,,,,1.0827,,,,,,,,,,,,,,,,,,,,,,6103172048a198940b193018,610367998d2d09ec85bb0ae8,2021-07-29_22h45.14.502,Simcolourproject_2stim_asymm_v5,2020.2.10,MacIntel,60,61025ae37ef11b136ea224fe,,,,,,,,,1221,-35.4407959,-75.17443848,1,0,0,response5disk,,3,-6.981628418,-6.952026367,1,0,0,rectangle,-6.981628418,-6.952026367,1,0,0,-6.981628418,-6.952026367,1,0,0,0,54,54,95,1,,,,,,,,
,,,,,,,,,,,,,FF,,,,,,,,0.882,,,,,,,,,,,,,,,,,,,,,,6103172048a198940b193018,610367998d2d09ec85bb0ae8,2021-07-29_22h45.14.502,Simcolourproject_2stim_asymm_v5,2020.2.10,MacIntel,60,61025ae37ef11b136ea224fe,,,,,,,,,80,-43.00085449,-71.72912598,1,0,0,response5disk,,3,-0.490844727,1.596130371,1,0,0,rectangle,-0.490844727,1.596130371,1,0,0,-0.490844727,1.596130371,1,0,0,0,55,55,69,1,,,,,,,,
,,,,,,,,,,,,,FF,,,,,,,,0.8499,,,,,,,,,,,,,,,,,,,,,,6103172048a198940b193018,610367998d2d09ec85bb0ae8,2021-07-29_22h45.14.502,Simcolourproject_2stim_asymm_v5,2020.2.10,MacIntel,60,61025ae37ef11b136ea224fe,,,,,,,,,1672,53.51239014,-92.83740234,1,0,0,response3disk,,4,2.853820801,13.68487549,1,0,0,rectangle,2.853820801,13.68487549,1,0,0,2.853820801,13.68487549,1,0,0,0,56,56,78,1,,,,,,,,
,,,,,,,,,,,,,FF,,,,,,,,0.7836,,,,,,,,,,,,,,,,,,,,,,6103172048a198940b193018,610367998d2d09ec85bb0ae8,2021-07-29_22h45.14.502,Simcolourproject_2stim_asymm_v5,2020.2.10,MacIntel,60,61025ae37ef11b136ea224fe,,,,,,,,,2894,35.10845947,-47.43572998,1,0,0,response3disk,,4,17.7053833,7.510528564,1,0,0,rectangle,17.7053833,7.510528564,1,0,0,17.7053833,7.510528564,1,0,0,0,57,57,114,1,,,,,,,,
,,,,,,,,,,,,,FF,,,,,,,,1.35,,,,,,,,,,,,,,,,,,,,,,6103172048a198940b193018,610367998d2d09ec85bb0ae8,2021-07-29_22h45.14.502,Simcolourproject_2stim_asymm_v5,2020.2.10,MacIntel,60,61025ae37ef11b136ea224fe,,,,,,,,,4158,-52.621521,-67.45593262,1,0,0,response5disk,,3,2.252990723,6.661804199,1,0,0,rectangle,2.252990723,6.661804199,1,0,0,2.252990723,6.661804199,1,0,0,0,58,58,88,1,,,,,,,,
,,,,,,,,,,,,,FF,,,,,,,,0.683,,,,,,,,,,,,,,,,,,,,,,6103172048a198940b193018,610367998d2d09ec85bb0ae8,2021-07-29_22h45.14.502,Simcolourproject_2stim_asymm_v5,2020.2.10,MacIntel,60,61025ae37ef11b136ea224fe,,,,,,,,,1117,41.11224365,-85.24554443,1,0,0,response3disk,,4,3.064575195,3.273162842,1,0,0,rectangle,3.064575195,3.273162842,1,0,0,3.064575195,3.273162842,1,0,0,0,59,59,21,1,,,,,,,,
,,,,,,,,,,,,,FF,,,,,,,,0.5996,,,,,,,,,,,,,,,,,,,,,,6103172048a198940b193018,610367998d2d09ec85bb0ae8,2021-07-29_22h45.14.502,Simcolourproject_2stim_asymm_v5,2020.2.10,MacIntel,60,61025ae37ef11b136ea224fe,,,,,,,,,3679,28.534729,-77.21438599,1,0,0,response3disk,,4,7.093505859,-4.419006348,1,0,0,rectangle,7.093505859,-4.419006348,1,0,0,7.093505859,-4.419006348,1,0,0,0,60,60,117,1,,,,,,,,
,,,,,,,,,,,,,FF,,,,,,,,1.1484,,,,,,,,,,,,,,,,,,,,,,6103172048a198940b193018,610367998d2d09ec85bb0ae8,2021-07-29_22h45.14.502,Simcolourproject_2stim_asymm_v5,2020.2.10,MacIntel,60,61025ae37ef11b136ea224fe,,,,,,,,,2477,-70.76605225,-38.14093018,1,0,0,response5disk,,2,-8.167663574,-10.71734619,1,0,0,rectangle,-8.167663574,-10.71734619,1,0,0,-8.167663574,-10.71734619,1,0,0,0,61,61,94,1,,,,,,,,
,,,,,,,,,,,,,FF,,,,,,,,1.1496,,,,,,,,,,,,,,,,,,,,,,6103172048a198940b193018,610367998d2d09ec85bb0ae8,2021-07-29_22h45.14.502,Simcolourproject_2stim_asymm_v5,2020.2.10,MacIntel,60,61025ae37ef11b136ea224fe,,,,,,,,,4352,-38.79400635,74.16278076,1,0,0,response7disk,,0,-12.24383545,-2.682098389,1,0,0,rectangle,-12.24383545,-2.682098389,1,0,0,-12.24383545,-2.682098389,1,0,0,0,62,62,125,1,,,,,,,,
,,,,,,,,,,,,,FF,,,,,,,,2.4983,,,,,,,,,,,,,,,,,,,,,,6103172048a198940b193018,610367998d2d09ec85bb0ae8,2021-07-29_22h45.14.502,Simcolourproject_2stim_asymm_v5,2020.2.10,MacIntel,60,61025ae37ef11b136ea224fe,,,,,,,,,447,72.36431885,-47.13946533,1,0,0,response3disk,,5,7.303100586,3.126525879,1,0,0,rectangle,7.303100586,3.126525879,1,0,0,7.303100586,3.126525879,1,0,0,0,63,63,13,1,,,,,,,,
,,,,,,,,,,,,,FF,,,,,,,,1.082,,,,,,,,,,,,,,,,,,,,,,6103172048a198940b193018,610367998d2d09ec85bb0ae8,2021-07-29_22h45.14.502,Simcolourproject_2stim_asymm_v5,2020.2.10,MacIntel,60,61025ae37ef11b136ea224fe,,,,,,,,,2675,-43.48553467,-67.22009277,1,0,0,response5disk,,3,-14.55792236,0.643493652,1,0,0,rectangle,-14.55792236,0.643493652,1,0,0,-14.55792236,0.643493652,1,0,0,0,64,64,39,1,,,,,,,,
,,,,,,,,,,,,,FF,,,,,,,,1.0165,,,,,,,,,,,,,,,,,,,,,,6103172048a198940b193018,610367998d2d09ec85bb0ae8,2021-07-29_22h45.14.502,Simcolourproject_2stim_asymm_v5,2020.2.10,MacIntel,60,61025ae37ef11b136ea224fe,,,,,,,,,3693,-53.26104736,-25.92626953,1,0,0,response5disk,,2,-3.062316895,-4.101745605,1,0,0,rectangle,-3.062316895,-4.101745605,1,0,0,-3.062316895,-4.101745605,1,0,0,0,65,65,99,1,,,,,,,,
,,,,,,,,,,,,,FF,,,,,,,,0.6506,,,,,,,,,,,,,,,,,,,,,,6103172048a198940b193018,610367998d2d09ec85bb0ae8,2021-07-29_22h45.14.502,Simcolourproject_2stim_asymm_v5,2020.2.10,MacIntel,60,61025ae37ef11b136ea224fe,,,,,,,,,1883,-50.14703369,-25.8092041,1,0,0,response5disk,,2,-7.229187012,-3.38168335,1,0,0,rectangle,-7.229187012,-3.38168335,1,0,0,-7.229187012,-3.38168335,1,0,0,0,66,66,23,1,,,,,,,,
,,,,,,,,,,,,,FF,,,,,,,,0.6811,,,,,,,,,,,,,,,,,,,,,,6103172048a198940b193018,610367998d2d09ec85bb0ae8,2021-07-29_22h45.14.502,Simcolourproject_2stim_asymm_v5,2020.2.10,MacIntel,60,61025ae37ef11b136ea224fe,,,,,,,,,3506,20.3371582,-59.8381958,1,0,0,response3disk,,4,8.382995605,11.50714111,1,0,0,rectangle,8.382995605,11.50714111,1,0,0,8.382995605,11.50714111,1,0,0,0,67,67,81,1,,,,,,,,
,,,,,,,,,,,,,FF,,,,,,,,0.8832,,,,,,,,,,,,,,,,,,,,,,6103172048a198940b193018,610367998d2d09ec85bb0ae8,2021-07-29_22h45.14.502,Simcolourproject_2stim_asymm_v5,2020.2.10,MacIntel,60,61025ae37ef11b136ea224fe,,,,,,,,,176,81.27026367,44.53146362,1,0,0,response1disk,,6,9.166564941,4.362792969,1,0,0,rectangle,9.166564941,4.362792969,1,0,0,9.166564941,4.362792969,1,0,0,0,68,68,153,1,,,,,,,,
,,,,,,,,,,,,,FF,,,,,,,,0.8985,,,,,,,,,,,,,,,,,,,,,,6103172048a198940b193018,610367998d2d09ec85bb0ae8,2021-07-29_22h45.14.502,Simcolourproject_2stim_asymm_v5,2020.2.10,MacIntel,60,61025ae37ef11b136ea224fe,,,,,,,,,1958,-54.47393799,26.17498779,1,0,0,response7disk,,1,7.932250977,-8.678527832,1,0,0,rectangle,7.932250977,-8.678527832,1,0,0,7.932250977,-8.678527832,1,0,0,0,69,69,36,1,,,,,,,,
,,,,,,,,,,,,,FF,,,,,,,,0.8668,,,,,,,,,,,,,,,,,,,,,,6103172048a198940b193018,610367998d2d09ec85bb0ae8,2021-07-29_22h45.14.502,Simcolourproject_2stim_asymm_v5,2020.2.10,MacIntel,60,61025ae37ef11b136ea224fe,,,,,,,,,583,21.9909668,-59.2019043,1,0,0,response3disk,,4,2.498657227,7.725738525,1,0,0,rectangle,2.498657227,7.725738525,1,0,0,2.498657227,7.725738525,1,0,0,0,70,70,74,1,,,,,,,,
,,,,,,,,,,,,,FF,,,,,,,,1.1135,,,,,,,,,,,,,,,,,,,,,,6103172048a198940b193018,610367998d2d09ec85bb0ae8,2021-07-29_22h45.14.502,Simcolourproject_2stim_asymm_v5,2020.2.10,MacIntel,60,61025ae37ef11b136ea224fe,,,,,,,,,3592,-67.88458252,37.64382935,1,0,0,response7disk,,1,16.94421387,-6.35144043,1,0,0,rectangle,16.94421387,-6.35144043,1,0,0,16.94421387,-6.35144043,1,0,0,0,71,71,68,1,,,,,,,,
,,,,,,,,,,,,,FF,,,,,,,,1.0334,,,,,,,,,,,,,,,,,,,,,,6103172048a198940b193018,610367998d2d09ec85bb0ae8,2021-07-29_22h45.14.502,Simcolourproject_2stim_asymm_v5,2020.2.10,MacIntel,60,61025ae37ef11b136ea224fe,,,,,,,,,1856,-60.24707031,-33.20028687,1,0,0,response5disk,,2,-0.14630127,-4.174804688,1,0,0,rectangle,-0.14630127,-4.174804688,1,0,0,-0.14630127,-4.174804688,1,0,0,0,72,72,66,1,,,,,,,,
,,,,,,,,,,,,,FF,,,,,,,,0.5334,,,,,,,,,,,,,,,,,,,,,,6103172048a198940b193018,610367998d2d09ec85bb0ae8,2021-07-29_22h45.14.502,Simcolourproject_2stim_asymm_v5,2020.2.10,MacIntel,60,61025ae37ef11b136ea224fe,,,,,,,,,1768,-18.02935791,-42.46923828,1,0,0,response5disk,,3,0.727050781,3.983032227,1,0,0,rectangle,-30.83868408,85.30212402,1,0,0,-3.596862793,2.012237549,1,0,0,0,73,73,71,1,,response7disk_3,TRUE,0,0,"[199,217,96,259,259,120,125,109,105,25,258,149,241,117,29,45,121,39,74,166]",1.3152,rectangle
,,,,,,,,,,,,,FF,,,,,,,,0.6834,,,,,,,,,,,,,,,,,,,,,,6103172048a198940b193018,610367998d2d09ec85bb0ae8,2021-07-29_22h45.14.502,Simcolourproject_2stim_asymm_v5,2020.2.10,MacIntel,60,61025ae37ef11b136ea224fe,,,,,,,,,4146,-55.12554932,30.99224854,1,0,0,response7disk,,1,-7.508117676,-1.77432251,1,0,0,rectangle,-7.508117676,-1.77432251,1,0,0,-7.508117676,-1.77432251,1,0,0,0,74,74,140,1,,,,,,,,
,,,,,,,,,,,,,FF,,,,,,,,0.666,,,,,,,,,,,,,,,,,,,,,,6103172048a198940b193018,610367998d2d09ec85bb0ae8,2021-07-29_22h45.14.502,Simcolourproject_2stim_asymm_v5,2020.2.10,MacIntel,60,61025ae37ef11b136ea224fe,,,,,,,,,3311,19.54846191,-66.62298584,1,0,0,response3disk,,4,1.332397461,-1.656799316,1,0,0,rectangle,1.332397461,-1.656799316,1,0,0,1.332397461,-1.656799316,1,0,0,0,75,75,152,1,,,,,,,,
,,,,,,,,,,,,,FF,,,,,,,,0.8482,,,,,,,,,,,,,,,,,,,,,,6103172048a198940b193018,610367998d2d09ec85bb0ae8,2021-07-29_22h45.14.502,Simcolourproject_2stim_asymm_v5,2020.2.10,MacIntel,60,61025ae37ef11b136ea224fe,,,,,,,,,1885,-50.76977539,-29.54693604,1,0,0,response5disk,,2,12.3684082,5.392913818,1,0,0,rectangle,12.3684082,5.392913818,1,0,0,12.3684082,5.392913818,1,0,0,0,76,76,120,1,,,,,,,,
,,,,,,,,,,,,,FF,,,,,,,,0.8488,,,,,,,,,,,,,,,,,,,,,,6103172048a198940b193018,610367998d2d09ec85bb0ae8,2021-07-29_22h45.14.502,Simcolourproject_2stim_asymm_v5,2020.2.10,MacIntel,60,61025ae37ef11b136ea224fe,,,,,,,,,707,71.70782471,-24.49450684,1,0,0,response3disk,,5,3.90435791,4.122039795,1,0,0,rectangle,3.90435791,4.122039795,1,0,0,3.90435791,4.122039795,1,0,0,0,77,77,82,1,,,,,,,,
,,,,,,,,,,,,,FF,,,,,,,,0.8139,,,,,,,,,,,,,,,,,,,,,,6103172048a198940b193018,610367998d2d09ec85bb0ae8,2021-07-29_22h45.14.502,Simcolourproject_2stim_asymm_v5,2020.2.10,MacIntel,60,61025ae37ef11b136ea224fe,,,,,,,,,1320,31.69598389,-84.25723267,1,0,0,response3disk,,4,-0.683898926,10.62353516,1,0,0,rectangle,-0.683898926,10.62353516,1,0,0,-0.683898926,10.62353516,1,0,0,0,78,78,113,1,,,,,,,,
,,,,,,,,,,,,,FF,,,,,,,,1.1981,,,,,,,,,,,,,,,,,,,,,,6103172048a198940b193018,610367998d2d09ec85bb0ae8,2021-07-29_22h45.14.502,Simcolourproject_2stim_asymm_v5,2020.2.10,MacIntel,60,61025ae37ef11b136ea224fe,,,,,,,,,1607,-60.48052979,-40.5949707,1,0,0,response5disk,,2,-5.112854004,-7.28692627,1,0,0,rectangle,-5.112854004,-7.28692627,1,0,0,-5.112854004,-7.28692627,1,0,0,0,79,79,138,1,,,,,,,,
,,,,,,,,,,,,,FF,,,,,,,,0.7681,,,,,,,,,,,,,,,,,,,,,,6103172048a198940b193018,610367998d2d09ec85bb0ae8,2021-07-29_22h45.14.502,Simcolourproject_2stim_asymm_v5,2020.2.10,MacIntel,60,61025ae37ef11b136ea224fe,,,,,,,,,2576,55.12542725,-51.37539673,1,0,0,response3disk,,5,0.529907227,1.813476563,1,0,0,rectangle,0.529907227,1.813476563,1,0,0,0.529907227,1.813476563,1,0,0,0,80,80,115,1,,,,,,,,
,,,,,,,,,,,,,FF,,,,,,,,1.5826,,,,,,,,,,,,,,,,,,,,,,6103172048a198940b193018,610367998d2d09ec85bb0ae8,2021-07-29_22h45.14.502,Simcolourproject_2stim_asymm_v5,2020.2.10,MacIntel,60,61025ae37ef11b136ea224fe,,,,,,,,,4086,44.02960205,59.44833374,1,0,0,response1disk,,7,-5.848999023,-7.122772217,1,0,0,rectangle,-5.848999023,-7.122772217,1,0,0,-5.848999023,-7.122772217,1,0,0,0,81,81,150,1,,,,,,,,
,,,,,,,,,,,,,FF,,,,,,,,14.4012,,,,,,,,,,,,,,,,,,,,,,6103172048a198940b193018,610367998d2d09ec85bb0ae8,2021-07-29_22h45.14.502,Simcolourproject_2stim_asymm_v5,2020.2.10,MacIntel,60,61025ae37ef11b136ea224fe,,,,,,,,,496,-29.15026855,-52.22570801,1,0,0,response5disk,,3,-10.64367676,-5.434082031,1,0,0,rectangle,-10.64367676,-5.434082031,1,0,0,-10.64367676,-5.434082031,1,0,0,0,82,82,130,1,,,,,,,,
,,,,,,,,,,,,,FF,,,,,,,,43.2136,,,,,,,,,,,,,,,,,,,,,,6103172048a198940b193018,610367998d2d09ec85bb0ae8,2021-07-29_22h45.14.502,Simcolourproject_2stim_asymm_v5,2020.2.10,MacIntel,60,61025ae37ef11b136ea224fe,,,,,,,,,4029,-45.28851318,-16.27496338,1,0,0,response5disk,,2,-12.38409424,-11.34863281,1,0,0,rectangle,-12.38409424,-11.34863281,1,0,0,-12.38409424,-11.34863281,1,0,0,0,83,83,77,1,,,,,,,,
,,,,,,,,,,,,,FF,,,,,,,,0.7332,,,,,,,,,,,,,,,,,,,,,,6103172048a198940b193018,610367998d2d09ec85bb0ae8,2021-07-29_22h45.14.502,Simcolourproject_2stim_asymm_v5,2020.2.10,MacIntel,60,61025ae37ef11b136ea224fe,,,,,,,,,1645,48.19219971,-35.15673828,1,0,0,response3disk,,5,7.396179199,6.17956543,1,0,0,rectangle,7.396179199,6.17956543,1,0,0,7.396179199,6.17956543,1,0,0,0,84,84,63,1,,,,,,,,
,,,,,,,,,,,,,FF,,,,,,,,0.9668,,,,,,,,,,,,,,,,,,,,,,6103172048a198940b193018,610367998d2d09ec85bb0ae8,2021-07-29_22h45.14.502,Simcolourproject_2stim_asymm_v5,2020.2.10,MacIntel,60,61025ae37ef11b136ea224fe,,,,,,,,,3956,86.80316162,20.34204102,1,0,0,response1disk,,6,20.68487549,6.408172607,1,0,0,rectangle,20.68487549,6.408172607,1,0,0,20.68487549,6.408172607,1,0,0,0,85,85,76,1,,,,,,,,
,,,,,,,,,,,,,FF,,,,,,,,0.5839,,,,,,,,,,,,,,,,,,,,,,6103172048a198940b193018,610367998d2d09ec85bb0ae8,2021-07-29_22h45.14.502,Simcolourproject_2stim_asymm_v5,2020.2.10,MacIntel,60,61025ae37ef11b136ea224fe,,,,,,,,,917,49.81384277,-36.12207031,1,0,0,response3disk,,5,9.085693359,-13.56658936,1,0,0,rectangle,9.085693359,-13.56658936,1,0,0,9.085693359,-13.56658936,1,0,0,0,86,86,118,1,,,,,,,,
,,,,,,,,,,,,,FF,,,,,,,,0.834,,,,,,,,,,,,,,,,,,,,,,6103172048a198940b193018,610367998d2d09ec85bb0ae8,2021-07-29_22h45.14.502,Simcolourproject_2stim_asymm_v5,2020.2.10,MacIntel,60,61025ae37ef11b136ea224fe,,,,,,,,,3235,-39.10931396,-52.26312256,1,0,0,response5disk,,3,-3.679504395,-2.554443359,1,0,0,rectangle,-3.679504395,-2.554443359,1,0,0,-3.679504395,-2.554443359,1,0,0,0,87,87,102,1,,,,,,,,
,,,,,,,,,,,,,FF,,,,,,,,0.4677,,,,,,,,,,,,,,,,,,,,,,6103172048a198940b193018,610367998d2d09ec85bb0ae8,2021-07-29_22h45.14.502,Simcolourproject_2stim_asymm_v5,2020.2.10,MacIntel,60,61025ae37ef11b136ea224fe,,,,,,,,,3002,-48.56665039,-32.22875977,1,0,0,response5disk,,2,-8.164672852,3.728027344,1,0,0,rectangle,-8.164672852,3.728027344,1,0,0,-8.164672852,3.728027344,1,0,0,0,88,88,52,1,,,,,,,,
,,,,,,,,,,,,,FF,,,,,,,,1.4175,,,,,,,,,,,,,,,,,,,,,,6103172048a198940b193018,610367998d2d09ec85bb0ae8,2021-07-29_22h45.14.502,Simcolourproject_2stim_asymm_v5,2020.2.10,MacIntel,60,61025ae37ef11b136ea224fe,,,,,,,,,3454,35.48077393,-53.85229492,1,0,0,response3disk,,4,3.621887207,4.803833008,1,0,0,rectangle,3.621887207,4.803833008,1,0,0,3.621887207,4.803833008,1,0,0,0,89,89,135,1,,,,,,,,
,,,,,,,,,,,,,FF,,,,,,,,1.0694,,,,,,,,,,,,,,,,,,,,,,6103172048a198940b193018,610367998d2d09ec85bb0ae8,2021-07-29_22h45.14.502,Simcolourproject_2stim_asymm_v5,2020.2.10,MacIntel,60,61025ae37ef11b136ea224fe,,,,,,,,,1283,-59.03900146,-33.92471313,1,0,0,response5disk,,2,-12.19921875,-10.25088501,1,0,0,rectangle,-12.19921875,-10.25088501,1,0,0,-12.19921875,-10.25088501,1,0,0,0,90,90,27,1,,,,,,,,
,,,,,,,,,,,,,FF,,,,,,,,0.583,,,,,,,,,,,,,,,,,,,,,,6103172048a198940b193018,610367998d2d09ec85bb0ae8,2021-07-29_22h45.14.502,Simcolourproject_2stim_asymm_v5,2020.2.10,MacIntel,60,61025ae37ef11b136ea224fe,,,,,,,,,2274,24.65808105,-39.52362061,1,0,0,response3disk,,4,13.40795898,-3.756622314,1,0,0,rectangle,13.40795898,-3.756622314,1,0,0,13.40795898,-3.756622314,1,0,0,0,91,91,143,1,,,,,,,,
,,,,,,,,,,,,,FF,,,,,,,,0.6184,,,,,,,,,,,,,,,,,,,,,,6103172048a198940b193018,610367998d2d09ec85bb0ae8,2021-07-29_22h45.14.502,Simcolourproject_2stim_asymm_v5,2020.2.10,MacIntel,60,61025ae37ef11b136ea224fe,,,,,,,,,307,64.62969971,-25.7913208,1,0,0,response3disk,,5,9.181091309,-1.27255249,1,0,0,rectangle,9.181091309,-1.27255249,1,0,0,9.181091309,-1.27255249,1,0,0,0,92,92,80,1,,,,,,,,
,,,,,,,,,,,,,FF,,,,,,,,0.7672,,,,,,,,,,,,,,,,,,,,,,6103172048a198940b193018,610367998d2d09ec85bb0ae8,2021-07-29_22h45.14.502,Simcolourproject_2stim_asymm_v5,2020.2.10,MacIntel,60,61025ae37ef11b136ea224fe,,,,,,,,,1757,-56.85839844,21.51000977,1,0,0,response7disk,,1,15.68231201,-13.37463379,1,0,0,rectangle,15.68231201,-13.37463379,1,0,0,15.68231201,-13.37463379,1,0,0,0,93,93,22,1,,,,,,,,
,,,,,,,,,,,,,FF,,,,,,,,0.6345,,,,,,,,,,,,,,,,,,,,,,6103172048a198940b193018,610367998d2d09ec85bb0ae8,2021-07-29_22h45.14.502,Simcolourproject_2stim_asymm_v5,2020.2.10,MacIntel,60,61025ae37ef11b136ea224fe,,,,,,,,,2267,64.62701416,-39.91546631,1,0,0,response3disk,,5,11.09246826,-1.897094727,1,0,0,rectangle,11.09246826,-1.897094727,1,0,0,11.09246826,-1.897094727,1,0,0,0,94,94,47,1,,,,,,,,
,,,,,,,,,,,,,FF,,,,,,,,0.8638,,,,,,,,,,,,,,,,,,,,,,6103172048a198940b193018,610367998d2d09ec85bb0ae8,2021-07-29_22h45.14.502,Simcolourproject_2stim_asymm_v5,2020.2.10,MacIntel,60,61025ae37ef11b136ea224fe,,,,,,,,,3296,-52.73138428,-25.14840698,1,0,0,response5disk,,2,3.50604248,-3.344177246,1,0,0,rectangle,-47.41430664,75.38555908,1,0,0,-4.763061523,3.554870605,1,0,0,0,95,95,89,1,,response7disk_3,TRUE,0,0,"[199,217,96,259,259,120,125,109,105,25,258,149,241,117,29,45,121,39,74,166]",1.6504,rectangle
,,,,,,,,,,,,,FF,,,,,,,,1.0342,,,,,,,,,,,,,,,,,,,,,,6103172048a198940b193018,610367998d2d09ec85bb0ae8,2021-07-29_22h45.14.502,Simcolourproject_2stim_asymm_v5,2020.2.10,MacIntel,60,61025ae37ef11b136ea224fe,,,,,,,,,3200,-48.63745117,-55.89154053,1,0,0,response5disk,,3,0.963256836,13.13195801,1,0,0,rectangle,0.963256836,13.13195801,1,0,0,0.963256836,13.13195801,1,0,0,0,96,96,148,1,,,,,,,,
,,,,,,,,,,,,,FF,,,,,,,,1.1654,,,,,,,,,,,,,,,,,,,,,,6103172048a198940b193018,610367998d2d09ec85bb0ae8,2021-07-29_22h45.14.502,Simcolourproject_2stim_asymm_v5,2020.2.10,MacIntel,60,61025ae37ef11b136ea224fe,,,,,,,,,619,-97.60528564,25.93475342,1,0,0,response7disk,,1,10.67175293,-15.09088135,1,0,0,rectangle,10.67175293,-15.09088135,1,0,0,10.67175293,-15.09088135,1,0,0,0,97,97,41,1,,,,,,,,
,,,,,,,,,,,,,FF,,,,,,,,0.748,,,,,,,,,,,,,,,,,,,,,,6103172048a198940b193018,610367998d2d09ec85bb0ae8,2021-07-29_22h45.14.502,Simcolourproject_2stim_asymm_v5,2020.2.10,MacIntel,60,61025ae37ef11b136ea224fe,,,,,,,,,4285,51.46520996,-30.72436523,1,0,0,response3disk,,5,17.5322876,5.366027832,1,0,0,rectangle,17.5322876,5.366027832,1,0,0,17.5322876,5.366027832,1,0,0,0,98,98,35,1,,,,,,,,
,,,,,,,,,,,,,FF,,,,,,,,1.1664,,,,,,,,,,,,,,,,,,,,,,6103172048a198940b193018,610367998d2d09ec85bb0ae8,2021-07-29_22h45.14.502,Simcolourproject_2stim_asymm_v5,2020.2.10,MacIntel,60,61025ae37ef11b136ea224fe,,,,,,,,,1118,-50.84960938,-31.8024292,1,0,0,response5disk,,2,-2.502197266,-10.91387939,1,0,0,rectangle,-2.502197266,-10.91387939,1,0,0,-2.502197266,-10.91387939,1,0,0,0,99,99,92,1,,,,,,,,
,,,,,,,,,,,,,FF,,,,,,,,0.6694,,,,,,,,,,,,,,,,,,,,,,6103172048a198940b193018,610367998d2d09ec85bb0ae8,2021-07-29_22h45.14.502,Simcolourproject_2stim_asymm_v5,2020.2.10,MacIntel,60,61025ae37ef11b136ea224fe,,,,,,,,,37,-61.56451416,37.0453186,1,0,0,response7disk,,1,0.477478027,-4.206176758,1,0,0,rectangle,0.477478027,-4.206176758,1,0,0,0.477478027,-4.206176758,1,0,0,0,100,100,16,1,,,,,,,,
,,,,,,,,,,,,,FF,,,,,,,,0.7831,,,,,,,,,,,,,,,,,,,,,,6103172048a198940b193018,610367998d2d09ec85bb0ae8,2021-07-29_22h45.14.502,Simcolourproject_2stim_asymm_v5,2020.2.10,MacIntel,60,61025ae37ef11b136ea224fe,,,,,,,,,1114,26.918396,-78.54971313,1,0,0,response3disk,,4,-5.699401855,12.34609985,1,0,0,rectangle,-5.699401855,12.34609985,1,0,0,-5.699401855,12.34609985,1,0,0,0,101,101,79,1,,,,,,,,
,,,,,,,,,,,,,FF,,,,,,,,0.866,,,,,,,,,,,,,,,,,,,,,,6103172048a198940b193018,610367998d2d09ec85bb0ae8,2021-07-29_22h45.14.502,Simcolourproject_2stim_asymm_v5,2020.2.10,MacIntel,60,61025ae37ef11b136ea224fe,,,,,,,,,1223,-86.39440918,-28.85693359,1,0,0,response5disk,,2,-17.17169189,-10.10888672,1,0,0,rectangle,-17.17169189,-10.10888672,1,0,0,-17.17169189,-10.10888672,1,0,0,0,102,102,84,1,,,,,,,,
,,,,,,,,,,,,,FF,,,,,,,,0.7543,,,,,,,,,,,,,,,,,,,,,,6103172048a198940b193018,610367998d2d09ec85bb0ae8,2021-07-29_22h45.14.502,Simcolourproject_2stim_asymm_v5,2020.2.10,MacIntel,60,61025ae37ef11b136ea224fe,,,,,,,,,3186,79.91882324,-41.52026367,1,0,0,response3disk,,5,1.678771973,5.537231445,1,0,0,rectangle,1.678771973,5.537231445,1,0,0,1.678771973,5.537231445,1,0,0,0,103,103,121,1,,,,,,,,
,,,,,,,,,,,,,FF,,,,,,,,0.9661,,,,,,,,,,,,,,,,,,,,,,6103172048a198940b193018,610367998d2d09ec85bb0ae8,2021-07-29_22h45.14.502,Simcolourproject_2stim_asymm_v5,2020.2.10,MacIntel,60,61025ae37ef11b136ea224fe,,,,,,,,,4324,63.9697876,75.54125977,1,0,0,response1disk,,7,-11.19854736,-1.712432861,1,0,0,rectangle,18.56903076,-79.64581299,1,0,0,-5.186096191,6.533325195,1,0,0,0,104,104,61,1,,response3disk_3,TRUE,4,4,"[199,217,96,259,259,120,125,109,105,25,258,149,241,117,29,45,121,39,74,166]",1.5155,rectangle
,,,,,,,,,,,,,FF,,,,,,,,0.6984,,,,,,,,,,,,,,,,,,,,,,6103172048a198940b193018,610367998d2d09ec85bb0ae8,2021-07-29_22h45.14.502,Simcolourproject_2stim_asymm_v5,2020.2.10,MacIntel,60,61025ae37ef11b136ea224fe,,,,,,,,,2991,-54.04168701,-20.08056641,1,0,0,response5disk,,2,-12.62115479,-7.326049805,1,0,0,rectangle,-12.62115479,-7.326049805,1,0,0,-12.62115479,-7.326049805,1,0,0,0,105,105,96,1,,,,,,,,
,,,,,,,,,,,,,FF,,,,,,,,1.0995,,,,,,,,,,,,,,,,,,,,,,6103172048a198940b193018,610367998d2d09ec85bb0ae8,2021-07-29_22h45.14.502,Simcolourproject_2stim_asymm_v5,2020.2.10,MacIntel,60,61025ae37ef11b136ea224fe,,,,,,,,,2680,37.96429443,-63.04486084,1,0,0,response3disk,,4,7.656555176,5.402526855,1,0,0,rectangle,7.656555176,5.402526855,1,0,0,7.656555176,5.402526855,1,0,0,0,106,106,104,1,,,,,,,,
,,,,,,,,,,,,,FF,,,,,,,,1.2332,,,,,,,,,,,,,,,,,,,,,,6103172048a198940b193018,610367998d2d09ec85bb0ae8,2021-07-29_22h45.14.502,Simcolourproject_2stim_asymm_v5,2020.2.10,MacIntel,60,61025ae37ef11b136ea224fe,,,,,,,,,1343,-68.48114014,-37.84088135,1,0,0,response5disk,,2,-2.040039063,-0.257202148,1,0,0,rectangle,-2.040039063,-0.257202148,1,0,0,-2.040039063,-0.257202148,1,0,0,0,107,107,86,1,,,,,,,,
,,,,,,,,,,,,,FF,,,,,,,,2.3492,,,,,,,,,,,,,,,,,,,,,,6103172048a198940b193018,610367998d2d09ec85bb0ae8,2021-07-29_22h45.14.502,Simcolourproject_2stim_asymm_v5,2020.2.10,MacIntel,60,61025ae37ef11b136ea224fe,,,,,,,,,1216,-60.74023438,-27.53900146,1,0,0,response5disk,,2,-1.041931152,4.521697998,1,0,0,rectangle,-82.34429932,-37.14013672,1,0,0,2.28137207,1.293884277,1,0,0,0,108,108,58,1,,response5disk_3,TRUE,2,2,"[199,217,96,259,259,120,125,109,105,25,258,149,241,117,29,45,121,39,74,166]",1.384,rectangle
,,,,,,,,,,,,,FF,,,,,,,,0.716,,,,,,,,,,,,,,,,,,,,,,6103172048a198940b193018,610367998d2d09ec85bb0ae8,2021-07-29_22h45.14.502,Simcolourproject_2stim_asymm_v5,2020.2.10,MacIntel,60,61025ae37ef11b136ea224fe,,,,,,,,,1478,91.96923828,-54.83300781,1,0,0,response3disk,,5,29.33111572,-5.493408203,1,0,0,rectangle,29.33111572,-5.493408203,1,0,0,29.33111572,-5.493408203,1,0,0,0,109,109,3,1,,,,,,,,
,,,,,,,,,,,,,FF,,,,,,,,0.8658,,,,,,,,,,,,,,,,,,,,,,6103172048a198940b193018,610367998d2d09ec85bb0ae8,2021-07-29_22h45.14.502,Simcolourproject_2stim_asymm_v5,2020.2.10,MacIntel,60,61025ae37ef11b136ea224fe,,,,,,,,,2977,-35.19830322,-63.73300171,1,0,0,response5disk,,3,-4.075256348,-2.268188477,1,0,0,rectangle,-4.075256348,-2.268188477,1,0,0,-4.075256348,-2.268188477,1,0,0,0,110,110,34,1,,,,,,,,
,,,,,,,,,,,,,FF,,,,,,,,0.6843,,,,,,,,,,,,,,,,,,,,,,6103172048a198940b193018,610367998d2d09ec85bb0ae8,2021-07-29_22h45.14.502,Simcolourproject_2stim_asymm_v5,2020.2.10,MacIntel,60,61025ae37ef11b136ea224fe,,,,,,,,,2609,-65.90087891,-32.65896606,1,0,0,response5disk,,2,-1.461364746,2.778198242,1,0,0,rectangle,-1.461364746,2.778198242,1,0,0,-1.461364746,2.778198242,1,0,0,0,111,111,142,1,,,,,,,,
,,,,,,,,,,,,,FF,,,,,,,,0.9835,,,,,,,,,,,,,,,,,,,,,,6103172048a198940b193018,610367998d2d09ec85bb0ae8,2021-07-29_22h45.14.502,Simcolourproject_2stim_asymm_v5,2020.2.10,MacIntel,60,61025ae37ef11b136ea224fe,,,,,,,,,1150,-70.0536499,26.91369629,1,0,0,response7disk,,1,-3.073791504,-12.34851074,1,0,0,rectangle,-3.073791504,-12.34851074,1,0,0,-3.073791504,-12.34851074,1,0,0,0,112,112,2,1,,,,,,,,
,,,,,,,,,,,,,FF,,,,,,,,0.9335,,,,,,,,,,,,,,,,,,,,,,6103172048a198940b193018,610367998d2d09ec85bb0ae8,2021-07-29_22h45.14.502,Simcolourproject_2stim_asymm_v5,2020.2.10,MacIntel,60,61025ae37ef11b136ea224fe,,,,,,,,,1083,32.88189697,-50.4644165,1,0,0,response3disk,,4,4.627197266,2.406433105,1,0,0,rectangle,4.627197266,2.406433105,1,0,0,4.627197266,2.406433105,1,0,0,0,113,113,73,1,,,,,,,,
,,,,,,,,,,,,,FF,,,,,,,,1.9671,,,,,,,,,,,,,,,,,,,,,,6103172048a198940b193018,610367998d2d09ec85bb0ae8,2021-07-29_22h45.14.502,Simcolourproject_2stim_asymm_v5,2020.2.10,MacIntel,60,61025ae37ef11b136ea224fe,,,,,,,,,1778,-48.25262451,-31.39105225,1,0,0,response5disk,,2,-11.5612793,-11.78341675,1,0,0,rectangle,-11.5612793,-11.78341675,1,0,0,-11.5612793,-11.78341675,1,0,0,0,114,114,157,1,,,,,,,,
,,,,,,,,,,,,,FF,,,,,,,,0.5833,,,,,,,,,,,,,,,,,,,,,,6103172048a198940b193018,610367998d2d09ec85bb0ae8,2021-07-29_22h45.14.502,Simcolourproject_2stim_asymm_v5,2020.2.10,MacIntel,60,61025ae37ef11b136ea224fe,,,,,,,,,3061,-56.21838379,-33.18585205,1,0,0,response5disk,,2,-4.355529785,-10.52575684,1,0,0,rectangle,-4.355529785,-10.52575684,1,0,0,-4.355529785,-10.52575684,1,0,0,0,115,115,149,1,,,,,,,,
,,,,,,,,,,,,,FF,,,,,,,,2.333,,,,,,,,,,,,,,,,,,,,,,6103172048a198940b193018,610367998d2d09ec85bb0ae8,2021-07-29_22h45.14.502,Simcolourproject_2stim_asymm_v5,2020.2.10,MacIntel,60,61025ae37ef11b136ea224fe,,,,,,,,,286,-102.1852417,-70.13745117,1,0,0,response5disk,,2,0.237976074,9.972595215,1,0,0,rectangle,50.62854004,-88.50476074,1,0,0,9.859130859,5.74697876,1,0,0,0,116,116,7,1,,response3disk_3,TRUE,4,4,"[199,217,96,259,259,120,125,109,105,25,258,149,241,117,29,45,121,39,74,166]",1.2333,rectangle
,,,,,,,,,,,,,FF,,,,,,,,0.8663,,,,,,,,,,,,,,,,,,,,,,6103172048a198940b193018,610367998d2d09ec85bb0ae8,2021-07-29_22h45.14.502,Simcolourproject_2stim_asymm_v5,2020.2.10,MacIntel,60,61025ae37ef11b136ea224fe,,,,,,,,,4178,90.2701416,-26.43359375,1,0,0,response3disk,,5,31.38818359,0.906768799,1,0,0,rectangle,31.38818359,0.906768799,1,0,0,31.38818359,0.906768799,1,0,0,0,117,117,11,1,,,,,,,,
,,,,,,,,,,,,,FF,,,,,,,,1.1196,,,,,,,,,,,,,,,,,,,,,,6103172048a198940b193018,610367998d2d09ec85bb0ae8,2021-07-29_22h45.14.502,Simcolourproject_2stim_asymm_v5,2020.2.10,MacIntel,60,61025ae37ef11b136ea224fe,,,,,,,,,2667,-33.86376953,70.64892578,1,0,0,response7disk,,0,7.143249512,-8.178588867,1,0,0,rectangle,7.143249512,-8.178588867,1,0,0,7.143249512,-8.178588867,1,0,0,0,118,118,5,1,,,,,,,,
,,,,,,,,,,,,,FF,,,,,,,,0.6996,,,,,,,,,,,,,,,,,,,,,,6103172048a198940b193018,610367998d2d09ec85bb0ae8,2021-07-29_22h45.14.502,Simcolourproject_2stim_asymm_v5,2020.2.10,MacIntel,60,61025ae37ef11b136ea224fe,,,,,,,,,2312,-45.57080078,-27.22747803,1,0,0,response5disk,,2,1.729736328,-0.445800781,1,0,0,rectangle,-30.94610596,73.76959229,1,0,0,-9.387634277,1.515136719,1,0,0,0,119,119,30,1,,response7disk_3,TRUE,0,0,"[199,217,96,259,259,120,125,109,105,25,258,149,241,117,29,45,121,39,74,166]",1.3155,rectangle
,,,,,,,,,,,,,FF,,,,,,,,0.8994,,,,,,,,,,,,,,,,,,,,,,6103172048a198940b193018,610367998d2d09ec85bb0ae8,2021-07-29_22h45.14.502,Simcolourproject_2stim_asymm_v5,2020.2.10,MacIntel,60,61025ae37ef11b136ea224fe,,,,,,,,,2785,36.6461792,-91.55175781,1,0,0,response3disk,,4,12.2833252,-8.149230957,1,0,0,rectangle,83.13415527,-45.43807983,1,0,0,19.91082764,-3.710266113,1,0,0,0,120,120,31,1,,response3disk_3,TRUE,5,5,"[199,217,96,259,259,120,125,109,105,25,258,149,241,117,29,45,121,39,74,166]",1.1825,rectangle
,,,,,,,,,,,,,FF,,,,,,,,0.9345,,,,,,,,,,,,,,,,,,,,,,6103172048a198940b193018,610367998d2d09ec85bb0ae8,2021-07-29_22h45.14.502,Simcolourproject_2stim_asymm_v5,2020.2.10,MacIntel,60,61025ae37ef11b136ea224fe,,,,,,,,,200,-19.70532227,-80.74740601,1,0,0,response5disk,,3,0.517028809,-1.832214355,1,0,0,rectangle,0.517028809,-1.832214355,1,0,0,0.517028809,-1.832214355,1,0,0,0,121,121,45,1,,,,,,,,
,,,,,,,,,,,,,FF,,,,,,,,1.0857,,,,,,,,,,,,,,,,,,,,,,6103172048a198940b193018,610367998d2d09ec85bb0ae8,2021-07-29_22h45.14.502,Simcolourproject_2stim_asymm_v5,2020.2.10,MacIntel,60,61025ae37ef11b136ea224fe,,,,,,,,,196,-70.64178467,-24.76507568,1,0,0,response5disk,,2,-12.4140625,2.395751953,1,0,0,rectangle,-12.4140625,2.395751953,1,0,0,-12.4140625,2.395751953,1,0,0,0,122,122,14,1,,,,,,,,
,,,,,,,,,,,,,FF,,,,,,,,0.9,,,,,,,,,,,,,,,,,,,,,,6103172048a198940b193018,610367998d2d09ec85bb0ae8,2021-07-29_22h45.14.502,Simcolourproject_2stim_asymm_v5,2020.2.10,MacIntel,60,61025ae37ef11b136ea224fe,,,,,,,,,703,93.05181885,-51.99481201,1,0,0,response3disk,,5,19.03967285,7.968688965,1,0,0,rectangle,19.03967285,7.968688965,1,0,0,19.03967285,7.968688965,1,0,0,0,123,123,33,1,,,,,,,,
,,,,,,,,,,,,,FF,,,,,,,,0.749,,,,,,,,,,,,,,,,,,,,,,6103172048a198940b193018,610367998d2d09ec85bb0ae8,2021-07-29_22h45.14.502,Simcolourproject_2stim_asymm_v5,2020.2.10,MacIntel,60,61025ae37ef11b136ea224fe,,,,,,,,,2919,-85.5725708,-26.27496338,1,0,0,response5disk,,2,-0.971618652,3.77520752,1,0,0,rectangle,-98.63977051,32.17303467,1,0,0,-2.196594238,2.988769531,1,0,0,0,124,124,107,1,,response7disk_3,TRUE,1,1,"[199,217,96,259,259,120,125,109,105,25,258,149,241,117,29,45,121,39,74,166]",1.3854,rectangle
,,,,,,,,,,,,,FF,,,,,,,,0.8841,,,,,,,,,,,,,,,,,,,,,,6103172048a198940b193018,610367998d2d09ec85bb0ae8,2021-07-29_22h45.14.502,Simcolourproject_2stim_asymm_v5,2020.2.10,MacIntel,60,61025ae37ef11b136ea224fe,,,,,,,,,1025,47.29785156,-65.65585327,1,0,0,response3disk,,4,10.73815918,-0.451599121,1,0,0,rectangle,10.73815918,-0.451599121,1,0,0,10.73815918,-0.451599121,1,0,0,0,125,125,131,1,,,,,,,,
,,,,,,,,,,,,,FF,,,,,,,,0.6826,,,,,,,,,,,,,,,,,,,,,,6103172048a198940b193018,610367998d2d09ec85bb0ae8,2021-07-29_22h45.14.502,Simcolourproject_2stim_asymm_v5,2020.2.10,MacIntel,60,61025ae37ef11b136ea224fe,,,,,,,,,1149,101.291687,-37.97613525,1,0,0,response3disk,,5,21.20513916,3.220458984,1,0,0,rectangle,21.20513916,3.220458984,1,0,0,21.20513916,3.220458984,1,0,0,0,126,126,119,1,,,,,,,,
,,,,,,,,,,,,,FF,,,,,,,,0.5353,,,,,,,,,,,,,,,,,,,,,,6103172048a198940b193018,610367998d2d09ec85bb0ae8,2021-07-29_22h45.14.502,Simcolourproject_2stim_asymm_v5,2020.2.10,MacIntel,60,61025ae37ef11b136ea224fe,,,,,,,,,2758,63.67266846,33.01419067,1,0,0,response1disk,,6,-6.258728027,-3.762084961,1,0,0,rectangle,-6.258728027,-3.762084961,1,0,0,-6.258728027,-3.762084961,1,0,0,0,127,127,100,1,,,,,,,,
,,,,,,,,,,,,,FF,,,,,,,,1.0664,,,,,,,,,,,,,,,,,,,,,,6103172048a198940b193018,610367998d2d09ec85bb0ae8,2021-07-29_22h45.14.502,Simcolourproject_2stim_asymm_v5,2020.2.10,MacIntel,60,61025ae37ef11b136ea224fe,,,,,,,,,1845,24.17749023,-77.44622803,1,0,0,response3disk,,4,10.94769287,-6.735412598,1,0,0,rectangle,10.94769287,-6.735412598,1,0,0,10.94769287,-6.735412598,1,0,0,0,128,128,83,1,,,,,,,,
,,,,,,,,,,,,,FF,,,,,,,,1.5834,,,,,,,,,,,,,,,,,,,,,,6103172048a198940b193018,610367998d2d09ec85bb0ae8,2021-07-29_22h45.14.502,Simcolourproject_2stim_asymm_v5,2020.2.10,MacIntel,60,61025ae37ef11b136ea224fe,,,,,,,,,564,44.78930664,69.5255127,1,0,0,response1disk,,7,8.690490723,-5.87097168,1,0,0,rectangle,8.690490723,-5.87097168,1,0,0,8.690490723,-5.87097168,1,0,0,0,129,129,123,1,,,,,,,,
,,,,,,,,,,,,,FF,,,,,,,,0.9505,,,,,,,,,,,,,,,,,,,,,,6103172048a198940b193018,610367998d2d09ec85bb0ae8,2021-07-29_22h45.14.502,Simcolourproject_2stim_asymm_v5,2020.2.10,MacIntel,60,61025ae37ef11b136ea224fe,,,,,,,,,4185,30.8203125,57.65356445,1,0,0,response1disk,,7,-0.287963867,2.694641113,1,0,0,rectangle,-0.287963867,2.694641113,1,0,0,-0.287963867,2.694641113,1,0,0,0,130,130,136,1,,,,,,,,
,,,,,,,,,,,,,FF,,,,,,,,0.8999,,,,,,,,,,,,,,,,,,,,,,6103172048a198940b193018,610367998d2d09ec85bb0ae8,2021-07-29_22h45.14.502,Simcolourproject_2stim_asymm_v5,2020.2.10,MacIntel,60,61025ae37ef11b136ea224fe,,,,,,,,,1366,-53.48059082,-25.07824707,1,0,0,response5disk,,2,-13.31030273,-5.30871582,1,0,0,rectangle,-13.31030273,-5.30871582,1,0,0,-13.31030273,-5.30871582,1,0,0,0,131,131,60,1,,,,,,,,
,,,,,,,,,,,,,FF,,,,,,,,0.8854,,,,,,,,,,,,,,,,,,,,,,6103172048a198940b193018,610367998d2d09ec85bb0ae8,2021-07-29_22h45.14.502,Simcolourproject_2stim_asymm_v5,2020.2.10,MacIntel,60,61025ae37ef11b136ea224fe,,,,,,,,,2739,41.75128174,-62.00195313,1,0,0,response3disk,,4,6.992919922,6.382171631,1,0,0,rectangle,6.992919922,6.382171631,1,0,0,6.992919922,6.382171631,1,0,0,0,132,132,48,1,,,,,,,,
,,,,,,,,,,,,,FF,,,,,,,,0.6007,,,,,,,,,,,,,,,,,,,,,,6103172048a198940b193018,610367998d2d09ec85bb0ae8,2021-07-29_22h45.14.502,Simcolourproject_2stim_asymm_v5,2020.2.10,MacIntel,60,61025ae37ef11b136ea224fe,,,,,,,,,3380,54.22424316,-30.73898315,1,0,0,response3disk,,5,20.40802002,-2.297973633,1,0,0,rectangle,20.40802002,-2.297973633,1,0,0,20.40802002,-2.297973633,1,0,0,0,133,133,43,1,,,,,,,,
,,,,,,,,,,,,,FF,,,,,,,,0.717,,,,,,,,,,,,,,,,,,,,,,6103172048a198940b193018,610367998d2d09ec85bb0ae8,2021-07-29_22h45.14.502,Simcolourproject_2stim_asymm_v5,2020.2.10,MacIntel,60,61025ae37ef11b136ea224fe,,,,,,,,,1581,44.50762939,-35.6640625,1,0,0,response3disk,,5,7.76965332,-12.64788818,1,0,0,rectangle,7.76965332,-12.64788818,1,0,0,7.76965332,-12.64788818,1,0,0,0,134,134,103,1,,,,,,,,
,,,,,,,,,,,,,FF,,,,,,,,0.9494,,,,,,,,,,,,,,,,,,,,,,6103172048a198940b193018,610367998d2d09ec85bb0ae8,2021-07-29_22h45.14.502,Simcolourproject_2stim_asymm_v5,2020.2.10,MacIntel,60,61025ae37ef11b136ea224fe,,,,,,,,,1779,-52.14056396,-60.99206543,1,0,0,response5disk,,3,-3.663452148,4.906005859,1,0,0,rectangle,-3.663452148,4.906005859,1,0,0,-3.663452148,4.906005859,1,0,0,0,135,135,19,1,,,,,,,,
,,,,,,,,,,,,,FF,,,,,,,,0.8666,,,,,,,,,,,,,,,,,,,,,,6103172048a198940b193018,610367998d2d09ec85bb0ae8,2021-07-29_22h45.14.502,Simcolourproject_2stim_asymm_v5,2020.2.10,MacIntel,60,61025ae37ef11b136ea224fe,,,,,,,,,239,-40.70269775,-59.80230713,1,0,0,response5disk,,3,2.727539063,-4.917236328,1,0,0,rectangle,2.727539063,-4.917236328,1,0,0,2.727539063,-4.917236328,1,0,0,0,136,136,85,1,,,,,,,,
,,,,,,,,,,,,,FF,,,,,,,,0.5982,,,,,,,,,,,,,,,,,,,,,,6103172048a198940b193018,610367998d2d09ec85bb0ae8,2021-07-29_22h45.14.502,Simcolourproject_2stim_asymm_v5,2020.2.10,MacIntel,60,61025ae37ef11b136ea224fe,,,,,,,,,3537,-29.6484375,-50.87802124,1,0,0,response5disk,,3,-0.49798584,1.920288086,1,0,0,rectangle,-0.49798584,1.920288086,1,0,0,-0.49798584,1.920288086,1,0,0,0,137,137,91,1,,,,,,,,
,,,,,,,,,,,,,FF,,,,,,,,1.7476,,,,,,,,,,,,,,,,,,,,,,6103172048a198940b193018,610367998d2d09ec85bb0ae8,2021-07-29_22h45.14.502,Simcolourproject_2stim_asymm_v5,2020.2.10,MacIntel,60,61025ae37ef11b136ea224fe,,,,,,,,,3191,-73.3739624,-38.85272217,1,0,0,response5disk,,2,-3.745361328,-9.737731934,1,0,0,rectangle,-3.745361328,-9.737731934,1,0,0,-3.745361328,-9.737731934,1,0,0,0,138,138,38,1,,,,,,,,
,,,,,,,,,,,,,FF,,,,,,,,0.8517,,,,,,,,,,,,,,,,,,,,,,6103172048a198940b193018,610367998d2d09ec85bb0ae8,2021-07-29_22h45.14.502,Simcolourproject_2stim_asymm_v5,2020.2.10,MacIntel,60,61025ae37ef11b136ea224fe,,,,,,,,,590,60.77215576,-26.24285889,1,0,0,response3disk,,5,-1.607177734,-0.237060547,1,0,0,rectangle,-1.607177734,-0.237060547,1,0,0,-1.607177734,-0.237060547,1,0,0,0,139,139,18,1,,,,,,,,
,,,,,,,,,,,,,FF,,,,,,,,0.5823,,,,,,,,,,,,,,,,,,,,,,6103172048a198940b193018,610367998d2d09ec85bb0ae8,2021-07-29_22h45.14.502,Simcolourproject_2stim_asymm_v5,2020.2.10,MacIntel,60,61025ae37ef11b136ea224fe,,,,,,,,,3697,60.62750244,27.8850708,1,0,0,response1disk,,6,2.994262695,10.00085449,1,0,0,rectangle,2.994262695,10.00085449,1,0,0,2.994262695,10.00085449,1,0,0,0,140,140,55,1,,,,,,,,
,,,,,,,,,,,,,FF,,,,,,,,1.0497,,,,,,,,,,,,,,,,,,,,,,6103172048a198940b193018,610367998d2d09ec85bb0ae8,2021-07-29_22h45.14.502,Simcolourproject_2stim_asymm_v5,2020.2.10,MacIntel,60,61025ae37ef11b136ea224fe,,,,,,,,,3198,-49.02557373,-75.13391113,1,0,0,response5disk,,3,-3.745483398,7.35949707,1,0,0,rectangle,-3.745483398,7.35949707,1,0,0,-3.745483398,7.35949707,1,0,0,0,141,141,12,1,,,,,,,,
,,,,,,,,,,,,,FF,,,,,,,,0.8332,,,,,,,,,,,,,,,,,,,,,,6103172048a198940b193018,610367998d2d09ec85bb0ae8,2021-07-29_22h45.14.502,Simcolourproject_2stim_asymm_v5,2020.2.10,MacIntel,60,61025ae37ef11b136ea224fe,,,,,,,,,1861,68.81811523,-26.28277588,1,0,0,response3disk,,5,14.40325928,-3.038787842,1,0,0,rectangle,14.40325928,-3.038787842,1,0,0,14.40325928,-3.038787842,1,0,0,0,142,142,42,1,,,,,,,,
,,,,,,,,,,,,,FF,,,,,,,,1.3835,,,,,,,,,,,,,,,,,,,,,,6103172048a198940b193018,610367998d2d09ec85bb0ae8,2021-07-29_22h45.14.502,Simcolourproject_2stim_asymm_v5,2020.2.10,MacIntel,60,61025ae37ef11b136ea224fe,,,,,,,,,1256,-42.6138916,-65.6885376,1,0,0,response5disk,,3,-3.286254883,-0.700744629,1,0,0,rectangle,-3.286254883,-0.700744629,1,0,0,-3.286254883,-0.700744629,1,0,0,0,143,143,137,1,,,,,,,,
,,,,,,,,,,,,,FF,,,,,,,,0.8662,,,,,,,,,,,,,,,,,,,,,,6103172048a198940b193018,610367998d2d09ec85bb0ae8,2021-07-29_22h45.14.502,Simcolourproject_2stim_asymm_v5,2020.2.10,MacIntel,60,61025ae37ef11b136ea224fe,,,,,,,,,3250,-63.97784424,-16.61383057,1,0,0,response5disk,,2,-13.47802734,1.27053833,1,0,0,rectangle,-13.47802734,1.27053833,1,0,0,-13.47802734,1.27053833,1,0,0,0,144,144,70,1,,,,,,,,
,,,,,,,,,,,,,FF,,,,,,,,1.4695,,,,,,,,,,,,,,,,,,,,,,6103172048a198940b193018,610367998d2d09ec85bb0ae8,2021-07-29_22h45.14.502,Simcolourproject_2stim_asymm_v5,2020.2.10,MacIntel,60,61025ae37ef11b136ea224fe,,,,,,,,,1068,41.3190918,-24.90631104,1,0,0,response3disk,,5,10.652771,-9.04309082,1,0,0,rectangle,10.652771,-9.04309082,1,0,0,10.652771,-9.04309082,1,0,0,0,145,145,29,1,,,,,,,,
,,,,,,,,,,,,,FF,,,,,,,,1.5001,,,,,,,,,,,,,,,,,,,,,,6103172048a198940b193018,610367998d2d09ec85bb0ae8,2021-07-29_22h45.14.502,Simcolourproject_2stim_asymm_v5,2020.2.10,MacIntel,60,61025ae37ef11b136ea224fe,,,,,,,,,2623,62.86395264,-76.74487305,1,0,0,response3disk,,4,18.8269043,1.603393555,1,0,0,rectangle,18.8269043,1.603393555,1,0,0,18.8269043,1.603393555,1,0,0,0,146,146,54,1,,,,,,,,
,,,,,,,,,,,,,FF,,,,,,,,1.3337,,,,,,,,,,,,,,,,,,,,,,6103172048a198940b193018,610367998d2d09ec85bb0ae8,2021-07-29_22h45.14.502,Simcolourproject_2stim_asymm_v5,2020.2.10,MacIntel,60,61025ae37ef11b136ea224fe,,,,,,,,,4016,82.26525879,21.95077515,1,0,0,response1disk,,6,-6.617248535,-8.830322266,1,0,0,rectangle,-6.617248535,-8.830322266,1,0,0,-6.617248535,-8.830322266,1,0,0,0,147,147,154,1,,,,,,,,
,,,,,,,,,,,,,FF,,,,,,,,1.2809,,,,,,,,,,,,,,,,,,,,,,6103172048a198940b193018,610367998d2d09ec85bb0ae8,2021-07-29_22h45.14.502,Simcolourproject_2stim_asymm_v5,2020.2.10,MacIntel,60,61025ae37ef11b136ea224fe,,,,,,,,,3696,42.70141602,65.81884766,1,0,0,response1disk,,7,10.79626465,5.366882324,1,0,0,rectangle,-66.38800049,-44.63165283,1,0,0,5.472473145,-2.589111328,1,0,0,0,148,148,105,1,,response5disk_3,TRUE,2,2,"[199,217,96,259,259,120,125,109,105,25,258,149,241,117,29,45,121,39,74,166]",1.2154,rectangle
,,,,,,,,,,,,,FF,,,,,,,,0.6861,,,,,,,,,,,,,,,,,,,,,,6103172048a198940b193018,610367998d2d09ec85bb0ae8,2021-07-29_22h45.14.502,Simcolourproject_2stim_asymm_v5,2020.2.10,MacIntel,60,61025ae37ef11b136ea224fe,,,,,,,,,2082,57.84460449,-25.96478271,1,0,0,response3disk,,5,24.24987793,-1.448852539,1,0,0,rectangle,24.24987793,-1.448852539,1,0,0,24.24987793,-1.448852539,1,0,0,0,149,149,37,1,,,,,,,,
,,,,,,,,,,,,,FF,,,,,,,,71.3509,,,,,,,,,,,,,,,,,,,,,,6103172048a198940b193018,610367998d2d09ec85bb0ae8,2021-07-29_22h45.14.502,Simcolourproject_2stim_asymm_v5,2020.2.10,MacIntel,60,61025ae37ef11b136ea224fe,,,,,,,,,1961,-97.41516113,-49.52874756,1,0,0,response5disk,,2,-17.93414307,-1.718261719,1,0,0,rectangle,-17.93414307,-1.718261719,1,0,0,-17.93414307,-1.718261719,1,0,0,0,150,150,156,1,,,,,,,,
,,,,,,,,,,,,,FF,,,,,,,,0.8337,,,,,,,,,,,,,,,,,,,,,,6103172048a198940b193018,610367998d2d09ec85bb0ae8,2021-07-29_22h45.14.502,Simcolourproject_2stim_asymm_v5,2020.2.10,MacIntel,60,61025ae37ef11b136ea224fe,,,,,,,,,3567,-82.99829102,-44.64923096,1,0,0,response5disk,,2,-15.3302002,-4.302612305,1,0,0,rectangle,-15.3302002,-4.302612305,1,0,0,-15.3302002,-4.302612305,1,0,0,0,151,151,8,1,,,,,,,,
,,,,,,,,,,,,,FF,,,,,,,,0.8666,,,,,,,,,,,,,,,,,,,,,,6103172048a198940b193018,610367998d2d09ec85bb0ae8,2021-07-29_22h45.14.502,Simcolourproject_2stim_asymm_v5,2020.2.10,MacIntel,60,61025ae37ef11b136ea224fe,,,,,,,,,3517,-69.09259033,-20.15847778,1,0,0,response5disk,,2,-32.11975098,-14.80975342,1,0,0,rectangle,-32.11975098,-14.80975342,1,0,0,-32.11975098,-14.80975342,1,0,0,0,152,152,109,1,,,,,,,,
,,,,,,,,,,,,,FF,,,,,,,,0.8167,,,,,,,,,,,,,,,,,,,,,,6103172048a198940b193018,610367998d2d09ec85bb0ae8,2021-07-29_22h45.14.502,Simcolourproject_2stim_asymm_v5,2020.2.10,MacIntel,60,61025ae37ef11b136ea224fe,,,,,,,,,1651,43.54901123,-65.88739014,1,0,0,response3disk,,4,11.18505859,-13.29214478,1,0,0,rectangle,11.18505859,-13.29214478,1,0,0,11.18505859,-13.29214478,1,0,0,0,153,153,9,1,,,,,,,,
,,,,,,,,,,,,,FF,,,,,,,,0.7012,,,,,,,,,,,,,,,,,,,,,,6103172048a198940b193018,610367998d2d09ec85bb0ae8,2021-07-29_22h45.14.502,Simcolourproject_2stim_asymm_v5,2020.2.10,MacIntel,60,61025ae37ef11b136ea224fe,,,,,,,,,1406,-54.36383057,-76.82119751,1,0,0,response5disk,,3,0.787963867,2.85723877,1,0,0,rectangle,0.787963867,2.85723877,1,0,0,0.787963867,2.85723877,1,0,0,0,154,154,112,1,,,,,,,,
,,,,,,,,,,,,,FF,,,,,,,,0.8819,,,,,,,,,,,,,,,,,,,,,,6103172048a198940b193018,610367998d2d09ec85bb0ae8,2021-07-29_22h45.14.502,Simcolourproject_2stim_asymm_v5,2020.2.10,MacIntel,60,61025ae37ef11b136ea224fe,,,,,,,,,2084,77.4152832,-35.39599609,1,0,0,response3disk,,5,13.82879639,-7.051361084,1,0,0,rectangle,13.82879639,-7.051361084,1,0,0,13.82879639,-7.051361084,1,0,0,0,155,155,128,1,,,,,,,,
,,,,,,,,,,,,,FF,,,,,,,,0.8182,,,,,,,,,,,,,,,,,,,,,,6103172048a198940b193018,610367998d2d09ec85bb0ae8,2021-07-29_22h45.14.502,Simcolourproject_2stim_asymm_v5,2020.2.10,MacIntel,60,61025ae37ef11b136ea224fe,,,,,,,,,3579,-44.16027832,-22.59289551,1,0,0,response5disk,,2,9.317077637,-4.962036133,1,0,0,rectangle,9.317077637,-4.962036133,1,0,0,9.317077637,-4.962036133,1,0,0,0,156,156,50,1,,,,,,,,
,,,,,,,,,,,,,FF,,,,,,,,0.8188,,,,,,,,,,,,,,,,,,,,,,6103172048a198940b193018,610367998d2d09ec85bb0ae8,2021-07-29_22h45.14.502,Simcolourproject_2stim_asymm_v5,2020.2.10,MacIntel,60,61025ae37ef11b136ea224fe,,,,,,,,,944,79.3848877,-48.80981445,1,0,0,response3disk,,5,-2.942016602,7.813964844,1,0,0,rectangle,-2.942016602,7.813964844,1,0,0,-2.942016602,7.813964844,1,0,0,0,157,157,127,1,,,,,,,,
,,,,,,,,,,,,,FF,,,,,,,,0.783,,,,,,,,,,,,,,,,,,,,,,6103172048a198940b193018,610367998d2d09ec85bb0ae8,2021-07-29_22h45.14.502,Simcolourproject_2stim_asymm_v5,2020.2.10,MacIntel,60,61025ae37ef11b136ea224fe,,,,,,,,,3844,-72.99291992,-28.51004028,1,0,0,response5disk,,2,-13.84472656,-3.135681152,1,0,0,rectangle,-13.84472656,-3.135681152,1,0,0,-13.84472656,-3.135681152,1,0,0,0,158,158,144,1,,,,,,,,
,,,,,,,,,,,,,FF,,,,,,,,1.0998,,,,,,,,,,,,,,,,,,,,,,6103172048a198940b193018,610367998d2d09ec85bb0ae8,2021-07-29_22h45.14.502,Simcolourproject_2stim_asymm_v5,2020.2.10,MacIntel,60,61025ae37ef11b136ea224fe,,,,,,,,,2138,52.04547119,-56.44198608,1,0,0,response3disk,,4,19.34442139,-13.22174072,1,0,0,rectangle,19.34442139,-13.22174072,1,0,0,19.34442139,-13.22174072,1,0,0,0,159,159,116,1,,,,,,,,
,,,,,,,,,,,,,FF,,,,,,,,1.1001,,,,,,,,,,,,,,,,,,,,,,6103172048a198940b193018,610367998d2d09ec85bb0ae8,2021-07-29_22h45.14.502,Simcolourproject_2stim_asymm_v5,2020.2.10,MacIntel,60,61025ae37ef11b136ea224fe,,,,,,,,,1470,-30.83843994,-98.86645508,1,0,0,response5disk,,3,9.665283203,-8.097961426,1,0,0,rectangle,9.665283203,-8.097961426,1,0,0,9.665283203,-8.097961426,1,0,0,1,0,160,21,1,,,,,,,,
,,,,,,,,,,,,,FF,,,,,,,,0.7671,,,,,,,,,,,,,,,,,,,,,,6103172048a198940b193018,610367998d2d09ec85bb0ae8,2021-07-29_22h45.14.502,Simcolourproject_2stim_asymm_v5,2020.2.10,MacIntel,60,61025ae37ef11b136ea224fe,,,,,,,,,1242,-83.98291016,-48.59832764,1,0,0,response5disk,,2,-3.838989258,-3.262176514,1,0,0,rectangle,-3.838989258,-3.262176514,1,0,0,-3.838989258,-3.262176514,1,0,0,1,1,161,33,1,,,,,,,,
,,,,,,,,,,,,,FF,,,,,,,,1.0811,,,,,,,,,,,,,,,,,,,,,,6103172048a198940b193018,610367998d2d09ec85bb0ae8,2021-07-29_22h45.14.502,Simcolourproject_2stim_asymm_v5,2020.2.10,MacIntel,60,61025ae37ef11b136ea224fe,,,,,,,,,2336,-28.4309082,-73.26568604,1,0,0,response5disk,,3,4.033569336,8.103393555,1,0,0,rectangle,4.033569336,8.103393555,1,0,0,4.033569336,8.103393555,1,0,0,1,2,162,100,1,,,,,,,,
,,,,,,,,,,,,,FF,,,,,,,,0.7828,,,,,,,,,,,,,,,,,,,,,,6103172048a198940b193018,610367998d2d09ec85bb0ae8,2021-07-29_22h45.14.502,Simcolourproject_2stim_asymm_v5,2020.2.10,MacIntel,60,61025ae37ef11b136ea224fe,,,,,,,,,4035,33.98944092,-44.83218384,1,0,0,response3disk,,4,8.953857422,7.529541016,1,0,0,rectangle,8.953857422,7.529541016,1,0,0,8.953857422,7.529541016,1,0,0,1,3,163,103,1,,,,,,,,
,,,,,,,,,,,,,FF,,,,,,,,0.9641,,,,,,,,,,,,,,,,,,,,,,6103172048a198940b193018,610367998d2d09ec85bb0ae8,2021-07-29_22h45.14.502,Simcolourproject_2stim_asymm_v5,2020.2.10,MacIntel,60,61025ae37ef11b136ea224fe,,,,,,,,,3769,-34.05084229,-49.93600464,1,0,0,response5disk,,3,-2.839050293,7.302154541,1,0,0,rectangle,-2.839050293,7.302154541,1,0,0,-2.839050293,7.302154541,1,0,0,1,4,164,57,1,,,,,,,,
,,,,,,,,,,,,,FF,,,,,,,,0.6523,,,,,,,,,,,,,,,,,,,,,,6103172048a198940b193018,610367998d2d09ec85bb0ae8,2021-07-29_22h45.14.502,Simcolourproject_2stim_asymm_v5,2020.2.10,MacIntel,60,61025ae37ef11b136ea224fe,,,,,,,,,2198,59.27490234,-46.09082031,1,0,0,response3disk,,5,14.83953857,-12.86434937,1,0,0,rectangle,-74.84234619,-37.27142334,1,0,0,1.413574219,-7.10925293,1,0,0,1,5,165,87,1,,response5disk_3,TRUE,2,2,"[199,217,96,259,259,120,125,109,105,25,258,149,241,117,29,45,121,39,74,166]",1.7498,rectangle
,,,,,,,,,,,,,FF,,,,,,,,1.0816,,,,,,,,,,,,,,,,,,,,,,6103172048a198940b193018,610367998d2d09ec85bb0ae8,2021-07-29_22h45.14.502,Simcolourproject_2stim_asymm_v5,2020.2.10,MacIntel,60,61025ae37ef11b136ea224fe,,,,,,,,,2887,-77.30389404,23.3190918,1,0,0,response7disk,,1,-4.340637207,1.962890625,1,0,0,rectangle,-4.340637207,1.962890625,1,0,0,-4.340637207,1.962890625,1,0,0,1,6,166,147,1,,,,,,,,
,,,,,,,,,,,,,FF,,,,,,,,1.0186,,,,,,,,,,,,,,,,,,,,,,6103172048a198940b193018,610367998d2d09ec85bb0ae8,2021-07-29_22h45.14.502,Simcolourproject_2stim_asymm_v5,2020.2.10,MacIntel,60,61025ae37ef11b136ea224fe,,,,,,,,,495,24.48120117,-45.44512939,1,0,0,response3disk,,4,7.340209961,-13.42590332,1,0,0,rectangle,7.340209961,-13.42590332,1,0,0,7.340209961,-13.42590332,1,0,0,1,7,167,25,1,,,,,,,,
,,,,,,,,,,,,,FF,,,,,,,,0.8836,,,,,,,,,,,,,,,,,,,,,,6103172048a198940b193018,610367998d2d09ec85bb0ae8,2021-07-29_22h45.14.502,Simcolourproject_2stim_asymm_v5,2020.2.10,MacIntel,60,61025ae37ef11b136ea224fe,,,,,,,,,3816,-65.93933105,-32.3949585,1,0,0,response5disk,,2,1.412109375,-1.177978516,1,0,0,rectangle,1.412109375,-1.177978516,1,0,0,1.412109375,-1.177978516,1,0,0,1,8,168,16,1,,,,,,,,
,,,,,,,,,,,,,FF,,,,,,,,1.3992,,,,,,,,,,,,,,,,,,,,,,6103172048a198940b193018,610367998d2d09ec85bb0ae8,2021-07-29_22h45.14.502,Simcolourproject_2stim_asymm_v5,2020.2.10,MacIntel,60,61025ae37ef11b136ea224fe,,,,,,,,,1770,40.27471924,-49.65582275,1,0,0,response3disk,,4,14.88153076,13.02728271,1,0,0,rectangle,14.88153076,13.02728271,1,0,0,14.88153076,13.02728271,1,0,0,1,9,169,126,1,,,,,,,,
,,,,,,,,,,,,,FF,,,,,,,,1.0669,,,,,,,,,,,,,,,,,,,,,,6103172048a198940b193018,610367998d2d09ec85bb0ae8,2021-07-29_22h45.14.502,Simcolourproject_2stim_asymm_v5,2020.2.10,MacIntel,60,61025ae37ef11b136ea224fe,,,,,,,,,993,73.70983887,-46.76431274,1,0,0,response3disk,,5,23.0246582,-5.772064209,1,0,0,rectangle,23.0246582,-5.772064209,1,0,0,23.0246582,-5.772064209,1,0,0,1,10,170,22,1,,,,,,,,
,,,,,,,,,,,,,FF,,,,,,,,0.7999,,,,,,,,,,,,,,,,,,,,,,6103172048a198940b193018,610367998d2d09ec85bb0ae8,2021-07-29_22h45.14.502,Simcolourproject_2stim_asymm_v5,2020.2.10,MacIntel,60,61025ae37ef11b136ea224fe,,,,,,,,,446,61.60296631,36.02770996,1,0,0,response1disk,,6,-15.79956055,-1.478210449,1,0,0,rectangle,-15.79956055,-1.478210449,1,0,0,-15.79956055,-1.478210449,1,0,0,1,11,171,32,1,,,,,,,,
,,,,,,,,,,,,,FF,,,,,,,,1.117,,,,,,,,,,,,,,,,,,,,,,6103172048a198940b193018,610367998d2d09ec85bb0ae8,2021-07-29_22h45.14.502,Simcolourproject_2stim_asymm_v5,2020.2.10,MacIntel,60,61025ae37ef11b136ea224fe,,,,,,,,,343,-50.23577881,-82.44561768,1,0,0,response5disk,,3,3.448425293,-9.309753418,1,0,0,rectangle,3.448425293,-9.309753418,1,0,0,3.448425293,-9.309753418,1,0,0,1,12,172,90,1,,,,,,,,
,,,,,,,,,,,,,FF,,,,,,,,0.9333,,,,,,,,,,,,,,,,,,,,,,6103172048a198940b193018,610367998d2d09ec85bb0ae8,2021-07-29_22h45.14.502,Simcolourproject_2stim_asymm_v5,2020.2.10,MacIntel,60,61025ae37ef11b136ea224fe,,,,,,,,,407,27.32427979,-52.16519165,1,0,0,response3disk,,4,9.62890625,7.963806152,1,0,0,rectangle,9.62890625,7.963806152,1,0,0,9.62890625,7.963806152,1,0,0,1,13,173,45,1,,,,,,,,
,,,,,,,,,,,,,FF,,,,,,,,0.7493,,,,,,,,,,,,,,,,,,,,,,6103172048a198940b193018,610367998d2d09ec85bb0ae8,2021-07-29_22h45.14.502,Simcolourproject_2stim_asymm_v5,2020.2.10,MacIntel,60,61025ae37ef11b136ea224fe,,,,,,,,,3084,-36.14086914,-52.98822021,1,0,0,response5disk,,3,-16.62982178,-10.27813721,1,0,0,rectangle,-16.62982178,-10.27813721,1,0,0,-16.62982178,-10.27813721,1,0,0,1,14,174,154,1,,,,,,,,
,,,,,,,,,,,,,FF,,,,,,,,0.8017,,,,,,,,,,,,,,,,,,,,,,6103172048a198940b193018,610367998d2d09ec85bb0ae8,2021-07-29_22h45.14.502,Simcolourproject_2stim_asymm_v5,2020.2.10,MacIntel,60,61025ae37ef11b136ea224fe,,,,,,,,,1760,-51.9440918,-29.05654907,1,0,0,response5disk,,2,-3.293823242,-3.056182861,1,0,0,rectangle,-3.293823242,-3.056182861,1,0,0,-3.293823242,-3.056182861,1,0,0,1,15,175,156,1,,,,,,,,
,,,,,,,,,,,,,FF,,,,,,,,0.5999,,,,,,,,,,,,,,,,,,,,,,6103172048a198940b193018,610367998d2d09ec85bb0ae8,2021-07-29_22h45.14.502,Simcolourproject_2stim_asymm_v5,2020.2.10,MacIntel,60,61025ae37ef11b136ea224fe,,,,,,,,,3533,59.46582031,-22.08493042,1,0,0,response3disk,,5,20.75323486,-0.739746094,1,0,0,rectangle,20.75323486,-0.739746094,1,0,0,20.75323486,-0.739746094,1,0,0,1,16,176,39,1,,,,,,,,
,,,,,,,,,,,,,FF,,,,,,,,1.5171,,,,,,,,,,,,,,,,,,,,,,6103172048a198940b193018,610367998d2d09ec85bb0ae8,2021-07-29_22h45.14.502,Simcolourproject_2stim_asymm_v5,2020.2.10,MacIntel,60,61025ae37ef11b136ea224fe,,,,,,,,,3053,-22.28955078,-61.25820923,1,0,0,response5disk,,3,1.111633301,4.753326416,1,0,0,rectangle,1.111633301,4.753326416,1,0,0,1.111633301,4.753326416,1,0,0,1,17,177,122,1,,,,,,,,
,,,,,,,,,,,,,FF,,,,,,,,1.0025,,,,,,,,,,,,,,,,,,,,,,6103172048a198940b193018,610367998d2d09ec85bb0ae8,2021-07-29_22h45.14.502,Simcolourproject_2stim_asymm_v5,2020.2.10,MacIntel,60,61025ae37ef11b136ea224fe,,,,,,,,,1619,67.96368408,-38.99447632,1,0,0,response3disk,,5,17.48181152,-1.670196533,1,0,0,rectangle,17.48181152,-1.670196533,1,0,0,17.48181152,-1.670196533,1,0,0,1,18,178,58,1,,,,,,,,
,,,,,,,,,,,,,FF,,,,,,,,1.3818,,,,,,,,,,,,,,,,,,,,,,6103172048a198940b193018,610367998d2d09ec85bb0ae8,2021-07-29_22h45.14.502,Simcolourproject_2stim_asymm_v5,2020.2.10,MacIntel,60,61025ae37ef11b136ea224fe,,,,,,,,,2207,51.37585449,-98.93951416,1,0,0,response3disk,,4,6.637329102,-10.35583496,1,0,0,rectangle,6.637329102,-10.35583496,1,0,0,6.637329102,-10.35583496,1,0,0,1,19,179,68,1,,,,,,,,
,,,,,,,,,,,,,FF,,,,,,,,1.0502,,,,,,,,,,,,,,,,,,,,,,6103172048a198940b193018,610367998d2d09ec85bb0ae8,2021-07-29_22h45.14.502,Simcolourproject_2stim_asymm_v5,2020.2.10,MacIntel,60,61025ae37ef11b136ea224fe,,,,,,,,,3281,110.4497681,54.29962158,1,0,0,response1disk,,6,9.969543457,-6.834106445,1,0,0,rectangle,9.969543457,-6.834106445,1,0,0,9.969543457,-6.834106445,1,0,0,1,20,180,38,1,,,,,,,,
,,,,,,,,,,,,,FF,,,,,,,,1.0175,,,,,,,,,,,,,,,,,,,,,,6103172048a198940b193018,610367998d2d09ec85bb0ae8,2021-07-29_22h45.14.502,Simcolourproject_2stim_asymm_v5,2020.2.10,MacIntel,60,61025ae37ef11b136ea224fe,,,,,,,,,1859,-55.206604,-69.15829468,1,0,0,response5disk,,3,-16.87530518,2.529541016,1,0,0,rectangle,-16.87530518,2.529541016,1,0,0,-16.87530518,2.529541016,1,0,0,1,21,181,47,1,,,,,,,,
,,,,,,,,,,,,,FF,,,,,,,,0.5834,,,,,,,,,,,,,,,,,,,,,,6103172048a198940b193018,610367998d2d09ec85bb0ae8,2021-07-29_22h45.14.502,Simcolourproject_2stim_asymm_v5,2020.2.10,MacIntel,60,61025ae37ef11b136ea224fe,,,,,,,,,3826,44.8571167,-38.64025879,1,0,0,response3disk,,5,6.695373535,-6.032989502,1,0,0,rectangle,6.695373535,-6.032989502,1,0,0,6.695373535,-6.032989502,1,0,0,1,22,182,120,1,,,,,,,,
,,,,,,,,,,,,,FF,,,,,,,,0.7651,,,,,,,,,,,,,,,,,,,,,,6103172048a198940b193018,610367998d2d09ec85bb0ae8,2021-07-29_22h45.14.502,Simcolourproject_2stim_asymm_v5,2020.2.10,MacIntel,60,61025ae37ef11b136ea224fe,,,,,,,,,2305,35.00946045,-64.2689209,1,0,0,response3disk,,4,18.58868408,-7.751647949,1,0,0,rectangle,18.58868408,-7.751647949,1,0,0,18.58868408,-7.751647949,1,0,0,1,23,183,112,1,,,,,,,,
,,,,,,,,,,,,,FF,,,,,,,,1.4344,,,,,,,,,,,,,,,,,,,,,,6103172048a198940b193018,610367998d2d09ec85bb0ae8,2021-07-29_22h45.14.502,Simcolourproject_2stim_asymm_v5,2020.2.10,MacIntel,60,61025ae37ef11b136ea224fe,,,,,,,,,1249,71.03283691,-41.75561523,1,0,0,response3disk,,5,18.43182373,-4.294921875,1,0,0,rectangle,18.43182373,-4.294921875,1,0,0,18.43182373,-4.294921875,1,0,0,1,24,184,148,1,,,,,,,,
,,,,,,,,,,,,,FF,,,,,,,,0.9147,,,,,,,,,,,,,,,,,,,,,,6103172048a198940b193018,610367998d2d09ec85bb0ae8,2021-07-29_22h45.14.502,Simcolourproject_2stim_asymm_v5,2020.2.10,MacIntel,60,61025ae37ef11b136ea224fe,,,,,,,,,3264,39.08111572,-52.08526611,1,0,0,response3disk,,4,12.29528809,-0.087402344,1,0,0,rectangle,12.29528809,-0.087402344,1,0,0,12.29528809,-0.087402344,1,0,0,1,25,185,3,1,,,,,,,,
,,,,,,,,,,,,,FF,,,,,,,,0.9813,,,,,,,,,,,,,,,,,,,,,,6103172048a198940b193018,610367998d2d09ec85bb0ae8,2021-07-29_22h45.14.502,Simcolourproject_2stim_asymm_v5,2020.2.10,MacIntel,60,61025ae37ef11b136ea224fe,,,,,,,,,528,-33.55926514,-44.56665039,1,0,0,response5disk,,3,-14.73846436,-5.8934021,1,0,0,rectangle,-14.73846436,-5.8934021,1,0,0,-14.73846436,-5.8934021,1,0,0,1,26,186,26,1,,,,,,,,
,,,,,,,,,,,,,FF,,,,,,,,0.6841,,,,,,,,,,,,,,,,,,,,,,6103172048a198940b193018,610367998d2d09ec85bb0ae8,2021-07-29_22h45.14.502,Simcolourproject_2stim_asymm_v5,2020.2.10,MacIntel,60,61025ae37ef11b136ea224fe,,,,,,,,,283,52.10009766,-63.81311035,1,0,0,response3disk,,4,18.25878906,0.551147461,1,0,0,rectangle,18.25878906,0.551147461,1,0,0,18.25878906,0.551147461,1,0,0,1,27,187,19,1,,,,,,,,
,,,,,,,,,,,,,FF,,,,,,,,0.5476,,,,,,,,,,,,,,,,,,,,,,6103172048a198940b193018,610367998d2d09ec85bb0ae8,2021-07-29_22h45.14.502,Simcolourproject_2stim_asymm_v5,2020.2.10,MacIntel,60,61025ae37ef11b136ea224fe,,,,,,,,,3658,53.85852051,-20.41467285,1,0,0,response3disk,,5,13.3303833,2.224395752,1,0,0,rectangle,13.3303833,2.224395752,1,0,0,13.3303833,2.224395752,1,0,0,1,28,188,20,1,,,,,,,,
,,,,,,,,,,,,,FF,,,,,,,,1.5811,,,,,,,,,,,,,,,,,,,,,,6103172048a198940b193018,610367998d2d09ec85bb0ae8,2021-07-29_22h45.14.502,Simcolourproject_2stim_asymm_v5,2020.2.10,MacIntel,60,61025ae37ef11b136ea224fe,,,,,,,,,1356,38.44573975,-60.63751221,1,0,0,response3disk,,4,17.89196777,-11.74975586,1,0,0,rectangle,17.89196777,-11.74975586,1,0,0,17.89196777,-11.74975586,1,0,0,1,29,189,110,1,,,,,,,,
,,,,,,,,,,,,,FF,,,,,,,,0.8679,,,,,,,,,,,,,,,,,,,,,,6103172048a198940b193018,610367998d2d09ec85bb0ae8,2021-07-29_22h45.14.502,Simcolourproject_2stim_asymm_v5,2020.2.10,MacIntel,60,61025ae37ef11b136ea224fe,,,,,,,,,212,-35.44775391,-66.99859619,1,0,0,response5disk,,3,-8.209350586,-8.42401123,1,0,0,rectangle,-8.209350586,-8.42401123,1,0,0,-8.209350586,-8.42401123,1,0,0,1,30,190,107,1,,,,,,,,
,,,,,,,,,,,,,FF,,,,,,,,0.6168,,,,,,,,,,,,,,,,,,,,,,6103172048a198940b193018,610367998d2d09ec85bb0ae8,2021-07-29_22h45.14.502,Simcolourproject_2stim_asymm_v5,2020.2.10,MacIntel,60,61025ae37ef11b136ea224fe,,,,,,,,,1414,69.29772949,-40.56845093,1,0,0,response3disk,,5,12.29730225,-12.63867188,1,0,0,rectangle,12.29730225,-12.63867188,1,0,0,12.29730225,-12.63867188,1,0,0,1,31,191,89,1,,,,,,,,
,,,,,,,,,,,,,FF,,,,,,,,0.9161,,,,,,,,,,,,,,,,,,,,,,6103172048a198940b193018,610367998d2d09ec85bb0ae8,2021-07-29_22h45.14.502,Simcolourproject_2stim_asymm_v5,2020.2.10,MacIntel,60,61025ae37ef11b136ea224fe,,,,,,,,,34,37.46636963,-50.82495117,1,0,0,response3disk,,4,22.0378418,-0.41293335,1,0,0,rectangle,22.0378418,-0.41293335,1,0,0,22.0378418,-0.41293335,1,0,0,1,32,192,146,1,,,,,,,,
,,,,,,,,,,,,,FF,,,,,,,,1.0353,,,,,,,,,,,,,,,,,,,,,,6103172048a198940b193018,610367998d2d09ec85bb0ae8,2021-07-29_22h45.14.502,Simcolourproject_2stim_asymm_v5,2020.2.10,MacIntel,60,61025ae37ef11b136ea224fe,,,,,,,,,1449,50.55255127,-29.86880493,1,0,0,response3disk,,5,9.008422852,3.726989746,1,0,0,rectangle,9.008422852,3.726989746,1,0,0,9.008422852,3.726989746,1,0,0,1,33,193,79,1,,,,,,,,
,,,,,,,,,,,,,FF,,,,,,,,0.985,,,,,,,,,,,,,,,,,,,,,,6103172048a198940b193018,610367998d2d09ec85bb0ae8,2021-07-29_22h45.14.502,Simcolourproject_2stim_asymm_v5,2020.2.10,MacIntel,60,61025ae37ef11b136ea224fe,,,,,,,,,1037,34.70922852,-51.33752441,1,0,0,response3disk,,4,15.74169922,-8.301940918,1,0,0,rectangle,15.74169922,-8.301940918,1,0,0,15.74169922,-8.301940918,1,0,0,1,34,194,52,1,,,,,,,,
,,,,,,,,,,,,,FF,,,,,,,,0.9501,,,,,,,,,,,,,,,,,,,,,,6103172048a198940b193018,610367998d2d09ec85bb0ae8,2021-07-29_22h45.14.502,Simcolourproject_2stim_asymm_v5,2020.2.10,MacIntel,60,61025ae37ef11b136ea224fe,,,,,,,,,3672,-72.11236572,31.07553101,1,0,0,response7disk,,1,9.50402832,-2.691101074,1,0,0,rectangle,9.50402832,-2.691101074,1,0,0,9.50402832,-2.691101074,1,0,0,1,35,195,10,1,,,,,,,,
,,,,,,,,,,,,,FF,,,,,,,,0.903,,,,,,,,,,,,,,,,,,,,,,6103172048a198940b193018,610367998d2d09ec85bb0ae8,2021-07-29_22h45.14.502,Simcolourproject_2stim_asymm_v5,2020.2.10,MacIntel,60,61025ae37ef11b136ea224fe,,,,,,,,,4316,-40.17919922,73.30194092,1,0,0,response7disk,,0,3.762939453,-0.842926025,1,0,0,rectangle,3.762939453,-0.842926025,1,0,0,3.762939453,-0.842926025,1,0,0,1,36,196,93,1,,,,,,,,
,,,,,,,,,,,,,FF,,,,,,,,0.7216,,,,,,,,,,,,,,,,,,,,,,6103172048a198940b193018,610367998d2d09ec85bb0ae8,2021-07-29_22h45.14.502,Simcolourproject_2stim_asymm_v5,2020.2.10,MacIntel,60,61025ae37ef11b136ea224fe,,,,,,,,,3058,41.46343994,-58.95178223,1,0,0,response3disk,,4,11.89300537,-8.000946045,1,0,0,rectangle,11.89300537,-8.000946045,1,0,0,11.89300537,-8.000946045,1,0,0,1,37,197,6,1,,,,,,,,
,,,,,,,,,,,,,FF,,,,,,,,1.3836,,,,,,,,,,,,,,,,,,,,,,6103172048a198940b193018,610367998d2d09ec85bb0ae8,2021-07-29_22h45.14.502,Simcolourproject_2stim_asymm_v5,2020.2.10,MacIntel,60,61025ae37ef11b136ea224fe,,,,,,,,,113,35.27087402,-53.07232666,1,0,0,response3disk,,4,18.3527832,2.517211914,1,0,0,rectangle,92.82348633,25.41995239,1,0,0,-1.586914063,0.001953125,1,0,0,1,38,198,96,1,,response1disk_3,TRUE,6,6,"[199,217,96,259,259,120,125,109,105,25,258,149,241,117,29,45,121,39,74,166]",1.4997,rectangle
,,,,,,,,,,,,,FF,,,,,,,,0.6481,,,,,,,,,,,,,,,,,,,,,,6103172048a198940b193018,610367998d2d09ec85bb0ae8,2021-07-29_22h45.14.502,Simcolourproject_2stim_asymm_v5,2020.2.10,MacIntel,60,61025ae37ef11b136ea224fe,,,,,,,,,2342,58.9152832,-40.6661377,1,0,0,response3disk,,5,5.598510742,-4.381408691,1,0,0,rectangle,5.598510742,-4.381408691,1,0,0,5.598510742,-4.381408691,1,0,0,1,39,199,98,1,,,,,,,,
,,,,,,,,,,,,,FF,,,,,,,,1.9168,,,,,,,,,,,,,,,,,,,,,,6103172048a198940b193018,610367998d2d09ec85bb0ae8,2021-07-29_22h45.14.502,Simcolourproject_2stim_asymm_v5,2020.2.10,MacIntel,60,61025ae37ef11b136ea224fe,,,,,,,,,1171,66.31054688,48.29656982,1,0,0,response1disk,,6,16.48022461,2.740905762,1,0,0,rectangle,16.48022461,2.740905762,1,0,0,16.48022461,2.740905762,1,0,0,1,40,200,8,1,,,,,,,,
,,,,,,,,,,,,,FF,,,,,,,,0.818,,,,,,,,,,,,,,,,,,,,,,6103172048a198940b193018,610367998d2d09ec85bb0ae8,2021-07-29_22h45.14.502,Simcolourproject_2stim_asymm_v5,2020.2.10,MacIntel,60,61025ae37ef11b136ea224fe,,,,,,,,,2976,44.93389893,-34.72839355,1,0,0,response3disk,,5,12.57562256,-10.60385132,1,0,0,rectangle,12.57562256,-10.60385132,1,0,0,12.57562256,-10.60385132,1,0,0,1,41,201,108,1,,,,,,,,
,,,,,,,,,,,,,FF,,,,,,,,0.8508,,,,,,,,,,,,,,,,,,,,,,6103172048a198940b193018,610367998d2d09ec85bb0ae8,2021-07-29_22h45.14.502,Simcolourproject_2stim_asymm_v5,2020.2.10,MacIntel,60,61025ae37ef11b136ea224fe,,,,,,,,,1543,41.80700684,-36.49371338,1,0,0,response3disk,,5,-4.106445313,-9.158538818,1,0,0,rectangle,-4.106445313,-9.158538818,1,0,0,-4.106445313,-9.158538818,1,0,0,1,42,202,46,1,,,,,,,,
,,,,,,,,,,,,,FF,,,,,,,,0.7007,,,,,,,,,,,,,,,,,,,,,,6103172048a198940b193018,610367998d2d09ec85bb0ae8,2021-07-29_22h45.14.502,Simcolourproject_2stim_asymm_v5,2020.2.10,MacIntel,60,61025ae37ef11b136ea224fe,,,,,,,,,2840,46.89501953,-22.55691528,1,0,0,response3disk,,5,15.08062744,-8.987915039,1,0,0,rectangle,15.08062744,-8.987915039,1,0,0,15.08062744,-8.987915039,1,0,0,1,43,203,124,1,,,,,,,,
,,,,,,,,,,,,,FF,,,,,,,,0.8317,,,,,,,,,,,,,,,,,,,,,,6103172048a198940b193018,610367998d2d09ec85bb0ae8,2021-07-29_22h45.14.502,Simcolourproject_2stim_asymm_v5,2020.2.10,MacIntel,60,61025ae37ef11b136ea224fe,,,,,,,,,3682,-36.0880127,-72.9180603,1,0,0,response5disk,,3,-0.238830566,-0.501159668,1,0,0,rectangle,-0.238830566,-0.501159668,1,0,0,-0.238830566,-0.501159668,1,0,0,1,44,204,140,1,,,,,,,,
,,,,,,,,,,,,,FF,,,,,,,,1.0167,,,,,,,,,,,,,,,,,,,,,,6103172048a198940b193018,610367998d2d09ec85bb0ae8,2021-07-29_22h45.14.502,Simcolourproject_2stim_asymm_v5,2020.2.10,MacIntel,60,61025ae37ef11b136ea224fe,,,,,,,,,811,-45.62182617,-61.37457275,1,0,0,response5disk,,3,-18.90966797,-1.059753418,1,0,0,rectangle,-18.90966797,-1.059753418,1,0,0,-18.90966797,-1.059753418,1,0,0,1,45,205,48,1,,,,,,,,
,,,,,,,,,,,,,FF,,,,,,,,1.35,,,,,,,,,,,,,,,,,,,,,,6103172048a198940b193018,610367998d2d09ec85bb0ae8,2021-07-29_22h45.14.502,Simcolourproject_2stim_asymm_v5,2020.2.10,MacIntel,60,61025ae37ef11b136ea224fe,,,,,,,,,3671,-44.29669189,83.43572998,1,0,0,response7disk,,0,-2.391967773,11.75042725,1,0,0,rectangle,-2.391967773,11.75042725,1,0,0,-2.391967773,11.75042725,1,0,0,1,46,206,77,1,,,,,,,,
,,,,,,,,,,,,,FF,,,,,,,,0.9501,,,,,,,,,,,,,,,,,,,,,,6103172048a198940b193018,610367998d2d09ec85bb0ae8,2021-07-29_22h45.14.502,Simcolourproject_2stim_asymm_v5,2020.2.10,MacIntel,60,61025ae37ef11b136ea224fe,,,,,,,,,1664,58.71789551,-49.2387085,1,0,0,response3disk,,5,17.83691406,-10.80328369,1,0,0,rectangle,17.83691406,-10.80328369,1,0,0,17.83691406,-10.80328369,1,0,0,1,47,207,114,1,,,,,,,,
,,,,,,,,,,,,,FF,,,,,,,,0.9657,,,,,,,,,,,,,,,,,,,,,,6103172048a198940b193018,610367998d2d09ec85bb0ae8,2021-07-29_22h45.14.502,Simcolourproject_2stim_asymm_v5,2020.2.10,MacIntel,60,61025ae37ef11b136ea224fe,,,,,,,,,4079,95.79150391,51.20947266,1,0,0,response1disk,,6,13.25866699,12.72061157,1,0,0,rectangle,13.25866699,12.72061157,1,0,0,13.25866699,12.72061157,1,0,0,1,48,208,80,1,,,,,,,,
,,,,,,,,,,,,,FF,,,,,,,,1.1504,,,,,,,,,,,,,,,,,,,,,,6103172048a198940b193018,610367998d2d09ec85bb0ae8,2021-07-29_22h45.14.502,Simcolourproject_2stim_asymm_v5,2020.2.10,MacIntel,60,61025ae37ef11b136ea224fe,,,,,,,,,2375,-38.92718506,-73.05944824,1,0,0,response5disk,,3,-5.300354004,-4.308044434,1,0,0,rectangle,-5.300354004,-4.308044434,1,0,0,-5.300354004,-4.308044434,1,0,0,1,49,209,97,1,,,,,,,,
,,,,,,,,,,,,,FF,,,,,,,,0.616,,,,,,,,,,,,,,,,,,,,,,6103172048a198940b193018,610367998d2d09ec85bb0ae8,2021-07-29_22h45.14.502,Simcolourproject_2stim_asymm_v5,2020.2.10,MacIntel,60,61025ae37ef11b136ea224fe,,,,,,,,,1246,30.01397705,-51.20175171,1,0,0,response3disk,,4,14.07611084,-14.7298584,1,0,0,rectangle,14.07611084,-14.7298584,1,0,0,14.07611084,-14.7298584,1,0,0,1,50,210,12,1,,,,,,,,
,,,,,,,,,,,,,FF,,,,,,,,0.8165,,,,,,,,,,,,,,,,,,,,,,6103172048a198940b193018,610367998d2d09ec85bb0ae8,2021-07-29_22h45.14.502,Simcolourproject_2stim_asymm_v5,2020.2.10,MacIntel,60,61025ae37ef11b136ea224fe,,,,,,,,,3987,43.36279297,-25.01473999,1,0,0,response3disk,,5,11.94683838,-8.382904053,1,0,0,rectangle,11.94683838,-8.382904053,1,0,0,11.94683838,-8.382904053,1,0,0,1,51,211,85,1,,,,,,,,
,,,,,,,,,,,,,FF,,,,,,,,1.0335,,,,,,,,,,,,,,,,,,,,,,6103172048a198940b193018,610367998d2d09ec85bb0ae8,2021-07-29_22h45.14.502,Simcolourproject_2stim_asymm_v5,2020.2.10,MacIntel,60,61025ae37ef11b136ea224fe,,,,,,,,,3576,38.97235107,92.13397217,1,0,0,response1disk,,7,12.13397217,5.761260986,1,0,0,rectangle,12.13397217,5.761260986,1,0,0,12.13397217,5.761260986,1,0,0,1,52,212,4,1,,,,,,,,
,,,,,,,,,,,,,FF,,,,,,,,0.6662,,,,,,,,,,,,,,,,,,,,,,6103172048a198940b193018,610367998d2d09ec85bb0ae8,2021-07-29_22h45.14.502,Simcolourproject_2stim_asymm_v5,2020.2.10,MacIntel,60,61025ae37ef11b136ea224fe,,,,,,,,,1821,-63.45111084,-40.22583008,1,0,0,response5disk,,2,2.962463379,5.588897705,1,0,0,rectangle,2.962463379,5.588897705,1,0,0,2.962463379,5.588897705,1,0,0,1,53,213,74,1,,,,,,,,
,,,,,,,,,,,,,FF,,,,,,,,1.6332,,,,,,,,,,,,,,,,,,,,,,6103172048a198940b193018,610367998d2d09ec85bb0ae8,2021-07-29_22h45.14.502,Simcolourproject_2stim_asymm_v5,2020.2.10,MacIntel,60,61025ae37ef11b136ea224fe,,,,,,,,,1221,-73.53601074,39.44433594,1,0,0,response7disk,,1,3.761413574,7.649047852,1,0,0,rectangle,3.761413574,7.649047852,1,0,0,3.761413574,7.649047852,1,0,0,1,54,214,144,1,,,,,,,,
,,,,,,,,,,,,,FF,,,,,,,,0.8685,,,,,,,,,,,,,,,,,,,,,,6103172048a198940b193018,610367998d2d09ec85bb0ae8,2021-07-29_22h45.14.502,Simcolourproject_2stim_asymm_v5,2020.2.10,MacIntel,60,61025ae37ef11b136ea224fe,,,,,,,,,80,52.22290039,-75.96496582,1,0,0,response3disk,,4,7.151550293,6.079528809,1,0,0,rectangle,7.151550293,6.079528809,1,0,0,7.151550293,6.079528809,1,0,0,1,55,215,115,1,,,,,,,,
,,,,,,,,,,,,,FF,,,,,,,,1.4334,,,,,,,,,,,,,,,,,,,,,,6103172048a198940b193018,610367998d2d09ec85bb0ae8,2021-07-29_22h45.14.502,Simcolourproject_2stim_asymm_v5,2020.2.10,MacIntel,60,61025ae37ef11b136ea224fe,,,,,,,,,1672,-51.79455566,-41.02050781,1,0,0,response5disk,,2,1.889770508,-1.048858643,1,0,0,rectangle,80.93157959,-41.49603271,1,0,0,25.74676514,-3.051971436,1,0,0,1,56,216,70,1,,response3disk_3,TRUE,5,5,"[199,217,96,259,259,120,125,109,105,25,258,149,241,117,29,45,121,39,74,166]",1.2644,rectangle
,,,,,,,,,,,,,FF,,,,,,,,1.6193,,,,,,,,,,,,,,,,,,,,,,6103172048a198940b193018,610367998d2d09ec85bb0ae8,2021-07-29_22h45.14.502,Simcolourproject_2stim_asymm_v5,2020.2.10,MacIntel,60,61025ae37ef11b136ea224fe,,,,,,,,,2894,-73.91027832,-55.51931763,1,0,0,response5disk,,2,17.40161133,-11.88702393,1,0,0,rectangle,17.40161133,-11.88702393,1,0,0,17.40161133,-11.88702393,1,0,0,1,57,217,105,1,,,,,,,,
,,,,,,,,,,,,,FF,,,,,,,,1.1342,,,,,,,,,,,,,,,,,,,,,,6103172048a198940b193018,610367998d2d09ec85bb0ae8,2021-07-29_22h45.14.502,Simcolourproject_2stim_asymm_v5,2020.2.10,MacIntel,60,61025ae37ef11b136ea224fe,,,,,,,,,4158,-30.16027832,-88.53445435,1,0,0,response5disk,,3,-1.544372559,3.732879639,1,0,0,rectangle,-1.544372559,3.732879639,1,0,0,-1.544372559,3.732879639,1,0,0,1,58,218,31,1,,,,,,,,
,,,,,,,,,,,,,FF,,,,,,,,0.7,,,,,,,,,,,,,,,,,,,,,,6103172048a198940b193018,610367998d2d09ec85bb0ae8,2021-07-29_22h45.14.502,Simcolourproject_2stim_asymm_v5,2020.2.10,MacIntel,60,61025ae37ef11b136ea224fe,,,,,,,,,1117,45.86010742,-65.06616211,1,0,0,response3disk,,4,-21.0927124,-3.315429688,1,0,0,rectangle,-21.0927124,-3.315429688,1,0,0,-21.0927124,-3.315429688,1,0,0,1,59,219,134,1,,,,,,,,
,,,,,,,,,,,,,FF,,,,,,,,0.9488,,,,,,,,,,,,,,,,,,,,,,6103172048a198940b193018,610367998d2d09ec85bb0ae8,2021-07-29_22h45.14.502,Simcolourproject_2stim_asymm_v5,2020.2.10,MacIntel,60,61025ae37ef11b136ea224fe,,,,,,,,,3679,-67.41265869,-35.00012207,1,0,0,response5disk,,2,-11.43927002,-4.54800415,1,0,0,rectangle,-11.43927002,-4.54800415,1,0,0,-11.43927002,-4.54800415,1,0,0,1,60,220,53,1,,,,,,,,
,,,,,,,,,,,,,FF,,,,,,,,0.8005,,,,,,,,,,,,,,,,,,,,,,6103172048a198940b193018,610367998d2d09ec85bb0ae8,2021-07-29_22h45.14.502,Simcolourproject_2stim_asymm_v5,2020.2.10,MacIntel,60,61025ae37ef11b136ea224fe,,,,,,,,,2477,50.32086182,-38.94827271,1,0,0,response3disk,,5,10.72613525,5.944122314,1,0,0,rectangle,10.72613525,5.944122314,1,0,0,10.72613525,5.944122314,1,0,0,1,61,221,91,1,,,,,,,,
,,,,,,,,,,,,,FF,,,,,,,,0.97,,,,,,,,,,,,,,,,,,,,,,6103172048a198940b193018,610367998d2d09ec85bb0ae8,2021-07-29_22h45.14.502,Simcolourproject_2stim_asymm_v5,2020.2.10,MacIntel,60,61025ae37ef11b136ea224fe,,,,,,,,,4352,-28.93530273,57.74160767,1,0,0,response7disk,,0,-13.20013428,9.809082031,1,0,0,rectangle,-13.20013428,9.809082031,1,0,0,-13.20013428,9.809082031,1,0,0,1,62,222,7,1,,,,,,,,
,,,,,,,,,,,,,FF,,,,,,,,0.8829,,,,,,,,,,,,,,,,,,,,,,6103172048a198940b193018,610367998d2d09ec85bb0ae8,2021-07-29_22h45.14.502,Simcolourproject_2stim_asymm_v5,2020.2.10,MacIntel,60,61025ae37ef11b136ea224fe,,,,,,,,,447,44.12524414,-55.68371582,1,0,0,response3disk,,4,18.66687012,7.242858887,1,0,0,rectangle,18.66687012,7.242858887,1,0,0,18.66687012,7.242858887,1,0,0,1,63,223,78,1,,,,,,,,
,,,,,,,,,,,,,FF,,,,,,,,0.6158,,,,,,,,,,,,,,,,,,,,,,6103172048a198940b193018,610367998d2d09ec85bb0ae8,2021-07-29_22h45.14.502,Simcolourproject_2stim_asymm_v5,2020.2.10,MacIntel,60,61025ae37ef11b136ea224fe,,,,,,,,,2675,-37.86950684,-61.03509521,1,0,0,response5disk,,3,-0.378173828,-8.304931641,1,0,0,rectangle,-0.378173828,-8.304931641,1,0,0,-0.378173828,-8.304931641,1,0,0,1,64,224,81,1,,,,,,,,
,,,,,,,,,,,,,FF,,,,,,,,0.5825,,,,,,,,,,,,,,,,,,,,,,6103172048a198940b193018,610367998d2d09ec85bb0ae8,2021-07-29_22h45.14.502,Simcolourproject_2stim_asymm_v5,2020.2.10,MacIntel,60,61025ae37ef11b136ea224fe,,,,,,,,,3693,63.40411377,-36.53829956,1,0,0,response3disk,,5,20.60687256,-6.388000488,1,0,0,rectangle,20.60687256,-6.388000488,1,0,0,20.60687256,-6.388000488,1,0,0,1,65,225,94,1,,,,,,,,
,,,,,,,,,,,,,FF,,,,,,,,1.0692,,,,,,,,,,,,,,,,,,,,,,6103172048a198940b193018,610367998d2d09ec85bb0ae8,2021-07-29_22h45.14.502,Simcolourproject_2stim_asymm_v5,2020.2.10,MacIntel,60,61025ae37ef11b136ea224fe,,,,,,,,,1883,58.35778809,-53.30859375,1,0,0,response3disk,,5,-7.926757813,-2.908050537,1,0,0,rectangle,-7.926757813,-2.908050537,1,0,0,-7.926757813,-2.908050537,1,0,0,1,66,226,37,1,,,,,,,,
,,,,,,,,,,,,,FF,,,,,,,,1.0842,,,,,,,,,,,,,,,,,,,,,,6103172048a198940b193018,610367998d2d09ec85bb0ae8,2021-07-29_22h45.14.502,Simcolourproject_2stim_asymm_v5,2020.2.10,MacIntel,60,61025ae37ef11b136ea224fe,,,,,,,,,3506,-95.18328857,27.28118896,1,0,0,response7disk,,1,7.262817383,-9.093933105,1,0,0,rectangle,7.262817383,-9.093933105,1,0,0,7.262817383,-9.093933105,1,0,0,1,67,227,135,1,,,,,,,,
,,,,,,,,,,,,,FF,,,,,,,,0.8003,,,,,,,,,,,,,,,,,,,,,,6103172048a198940b193018,610367998d2d09ec85bb0ae8,2021-07-29_22h45.14.502,Simcolourproject_2stim_asymm_v5,2020.2.10,MacIntel,60,61025ae37ef11b136ea224fe,,,,,,,,,176,44.16534424,64.13397217,1,0,0,response1disk,,7,16.2019043,-0.158416748,1,0,0,rectangle,16.2019043,-0.158416748,1,0,0,16.2019043,-0.158416748,1,0,0,1,68,228,104,1,,,,,,,,
,,,,,,,,,,,,,FF,,,,,,,,0.8657,,,,,,,,,,,,,,,,,,,,,,6103172048a198940b193018,610367998d2d09ec85bb0ae8,2021-07-29_22h45.14.502,Simcolourproject_2stim_asymm_v5,2020.2.10,MacIntel,60,61025ae37ef11b136ea224fe,,,,,,,,,1958,-28.85467529,62.04193115,1,0,0,response7disk,,0,-8.294677734,0.846435547,1,0,0,rectangle,-8.294677734,0.846435547,1,0,0,-8.294677734,0.846435547,1,0,0,1,69,229,155,1,,,,,,,,
,,,,,,,,,,,,,FF,,,,,,,,0.6338,,,,,,,,,,,,,,,,,,,,,,6103172048a198940b193018,610367998d2d09ec85bb0ae8,2021-07-29_22h45.14.502,Simcolourproject_2stim_asymm_v5,2020.2.10,MacIntel,60,61025ae37ef11b136ea224fe,,,,,,,,,583,53.17523193,-28.74020386,1,0,0,response3disk,,5,12.1307373,6.332641602,1,0,0,rectangle,12.1307373,6.332641602,1,0,0,12.1307373,6.332641602,1,0,0,1,70,230,138,1,,,,,,,,
,,,,,,,,,,,,,FF,,,,,,,,0.7019,,,,,,,,,,,,,,,,,,,,,,6103172048a198940b193018,610367998d2d09ec85bb0ae8,2021-07-29_22h45.14.502,Simcolourproject_2stim_asymm_v5,2020.2.10,MacIntel,60,61025ae37ef11b136ea224fe,,,,,,,,,3592,-64.29504395,-23.68222046,1,0,0,response5disk,,2,-8.395263672,-6.50378418,1,0,0,rectangle,-8.395263672,-6.50378418,1,0,0,-8.395263672,-6.50378418,1,0,0,1,71,231,118,1,,,,,,,,
,,,,,,,,,,,,,FF,,,,,,,,0.6835,,,,,,,,,,,,,,,,,,,,,,6103172048a198940b193018,610367998d2d09ec85bb0ae8,2021-07-29_22h45.14.502,Simcolourproject_2stim_asymm_v5,2020.2.10,MacIntel,60,61025ae37ef11b136ea224fe,,,,,,,,,1856,42.13006592,-28.6050415,1,0,0,response3disk,,5,1.984924316,6.334838867,1,0,0,rectangle,1.984924316,6.334838867,1,0,0,1.984924316,6.334838867,1,0,0,1,72,232,123,1,,,,,,,,
,,,,,,,,,,,,,FF,,,,,,,,0.7822,,,,,,,,,,,,,,,,,,,,,,6103172048a198940b193018,610367998d2d09ec85bb0ae8,2021-07-29_22h45.14.502,Simcolourproject_2stim_asymm_v5,2020.2.10,MacIntel,60,61025ae37ef11b136ea224fe,,,,,,,,,1768,-26.24151611,-63.74365234,1,0,0,response5disk,,3,-14.34875488,-6.359375,1,0,0,rectangle,-14.34875488,-6.359375,1,0,0,-14.34875488,-6.359375,1,0,0,1,73,233,14,1,,,,,,,,
,,,,,,,,,,,,,FF,,,,,,,,1.4326,,,,,,,,,,,,,,,,,,,,,,6103172048a198940b193018,610367998d2d09ec85bb0ae8,2021-07-29_22h45.14.502,Simcolourproject_2stim_asymm_v5,2020.2.10,MacIntel,60,61025ae37ef11b136ea224fe,,,,,,,,,4146,-74.45697021,47.2310791,1,0,0,response7disk,,1,-13.59680176,13.47595215,1,0,0,rectangle,-13.59680176,13.47595215,1,0,0,-13.59680176,13.47595215,1,0,0,1,74,234,137,1,,,,,,,,
,,,,,,,,,,,,,FF,,,,,,,,0.9999,,,,,,,,,,,,,,,,,,,,,,6103172048a198940b193018,610367998d2d09ec85bb0ae8,2021-07-29_22h45.14.502,Simcolourproject_2stim_asymm_v5,2020.2.10,MacIntel,60,61025ae37ef11b136ea224fe,,,,,,,,,3311,21.628479,-39.57385254,1,0,0,response3disk,,4,5.607116699,-6.831970215,1,0,0,rectangle,5.607116699,-6.831970215,1,0,0,5.607116699,-6.831970215,1,0,0,1,75,235,88,1,,,,,,,,
,,,,,,,,,,,,,FF,,,,,,,,0.8857,,,,,,,,,,,,,,,,,,,,,,6103172048a198940b193018,610367998d2d09ec85bb0ae8,2021-07-29_22h45.14.502,Simcolourproject_2stim_asymm_v5,2020.2.10,MacIntel,60,61025ae37ef11b136ea224fe,,,,,,,,,1885,110.0460205,-41.84057617,1,0,0,response3disk,,5,9.931762695,0.402313232,1,0,0,rectangle,9.931762695,0.402313232,1,0,0,9.931762695,0.402313232,1,0,0,1,76,236,15,1,,,,,,,,
,,,,,,,,,,,,,FF,,,,,,,,0.7173,,,,,,,,,,,,,,,,,,,,,,6103172048a198940b193018,610367998d2d09ec85bb0ae8,2021-07-29_22h45.14.502,Simcolourproject_2stim_asymm_v5,2020.2.10,MacIntel,60,61025ae37ef11b136ea224fe,,,,,,,,,707,30.6295166,48.98468018,1,0,0,response1disk,,7,26.08001709,-5.513763428,1,0,0,rectangle,26.08001709,-5.513763428,1,0,0,26.08001709,-5.513763428,1,0,0,1,77,237,62,1,,,,,,,,
,,,,,,,,,,,,,FF,,,,,,,,0.5833,,,,,,,,,,,,,,,,,,,,,,6103172048a198940b193018,610367998d2d09ec85bb0ae8,2021-07-29_22h45.14.502,Simcolourproject_2stim_asymm_v5,2020.2.10,MacIntel,60,61025ae37ef11b136ea224fe,,,,,,,,,1320,66.42120361,-56.01116943,1,0,0,response3disk,,5,7.461364746,-4.551513672,1,0,0,rectangle,7.461364746,-4.551513672,1,0,0,7.461364746,-4.551513672,1,0,0,1,78,238,75,1,,,,,,,,
,,,,,,,,,,,,,FF,,,,,,,,0.8492,,,,,,,,,,,,,,,,,,,,,,6103172048a198940b193018,610367998d2d09ec85bb0ae8,2021-07-29_22h45.14.502,Simcolourproject_2stim_asymm_v5,2020.2.10,MacIntel,60,61025ae37ef11b136ea224fe,,,,,,,,,1607,-49.90887451,-72.13150024,1,0,0,response5disk,,3,-6.648254395,-10.07958984,1,0,0,rectangle,-6.648254395,-10.07958984,1,0,0,-6.648254395,-10.07958984,1,0,0,1,79,239,159,1,,,,,,,,
