key_resp.keys,key_resp.rt,key_resp_14.keys,key_resp_14.rt,key_resp_15.keys,key_resp_15.rt,key_resp_17.keys,key_resp_17.rt,key_resp_9.keys,key_resp_9.rt,key_resp_10.keys,key_resp_10.rt,practice_comparison,Ecc,mouse_5.x,mouse_5.y,mouse_5.leftButton,mouse_5.midButton,mouse_5.rightButton,mouse_5.clicked_name,pracsimilarity,response_time,mouse_10.x,mouse_10.y,mouse_10.leftButton,mouse_10.midButton,mouse_10.rightButton,mouse_10.clicked_name,mouse_7.x,mouse_7.y,mouse_7.leftButton,mouse_7.midButton,mouse_7.rightButton,mouse_6.x,mouse_6.y,mouse_6.leftButton,mouse_6.midButton,mouse_6.rightButton,duringprac.thisRepN,duringprac.thisTrialN,duringprac.thisN,duringprac.thisIndex,duringprac.ran,participant,session,date,expName,psychopyVersion,OS,frameRate,study_id,mouse_7.clicked_name,catchpracsimilarity,catch_response_time,catchnumberprac,catchtrialorderprac,mouse_6.clicked_name,key_resp_22.keys,key_resp_22.rt,realcomparison,mouse.x,mouse.y,mouse.leftButton,mouse.midButton,mouse.rightButton,mouse.clicked_name,Colour2,similarity,mouse_2.x,mouse_2.y,mouse_2.leftButton,mouse_2.midButton,mouse_2.rightButton,mouse_2.clicked_name,mouse_3.x,mouse_3.y,mouse_3.leftButton,mouse_3.midButton,mouse_3.rightButton,mouse_3.clicked_name,catchornah,catchsimilarity,catchnumber,catchtrialorder,catchRT,mouse_11.x,mouse_11.y,mouse_11.leftButton,mouse_11.midButton,mouse_11.rightButton,mouse_11.clicked_name,trials_2.thisRepN,trials_2.thisTrialN,trials_2.thisN,trials_2.thisIndex,trials_2.ran,Colour1
space,1.0641,space,15.892,space,22.6231,space,8.2283,space,1.8973,space,3.7674,111,PF,45.5,80,1,0,0,response1disk_5,7,5.9959,-9.5,8.5,1,0,0,rectangle_8,-9.5,8.5,1,0,0,-9.5,8.5,1,0,0,0,0,0,2,1,61033994adbe0652d3c39b71,6103688e1e1a3fc0e8201608,2021-07-29_21h51.25.400,Simcolourproject_2stim_asymm_v5,2020.2.10,Win32,60,61025ae37ef11b136ea224fe,,,,,,,,,,,,,,,,,,,,,,,,,,,,,,,,,,,,,,,,,,,,,,
,,,,,,,,,,,,140,FF,-26,-63.5,1,0,0,response5disk_5,3,2.8424,5.5,2,1,0,0,rectangle_8,-71.5,-39.5,1,0,0,13.5,4,1,0,0,0,1,1,5,1,61033994adbe0652d3c39b71,6103688e1e1a3fc0e8201608,2021-07-29_21h51.25.400,Simcolourproject_2stim_asymm_v5,2020.2.10,Win32,60,61025ae37ef11b136ea224fe,response5disk_7,2,3.2177,2,"[2,5]",rectangle_4,,,,,,,,,,,,,,,,,,,,,,,,,,,,,,,,,,,,,,,,
,,,,,,,,,,,,123,PF,89,-35.5,1,0,0,response3disk_5,5,5.7312,-13,-2,1,0,0,rectangle_8,-13,-2,1,0,0,-13,-2,1,0,0,0,2,2,6,1,61033994adbe0652d3c39b71,6103688e1e1a3fc0e8201608,2021-07-29_21h51.25.400,Simcolourproject_2stim_asymm_v5,2020.2.10,Win32,60,61025ae37ef11b136ea224fe,,,,,,,,,,,,,,,,,,,,,,,,,,,,,,,,,,,,,,,,,,,,,,
,,,,,,,,,,,,91,FF,20,65,1,0,0,response1disk_5,7,1.7652,1,-8.5,1,0,0,rectangle_8,1,-8.5,1,0,0,1,-8.5,1,0,0,0,3,3,3,1,61033994adbe0652d3c39b71,6103688e1e1a3fc0e8201608,2021-07-29_21h51.25.400,Simcolourproject_2stim_asymm_v5,2020.2.10,Win32,60,61025ae37ef11b136ea224fe,,,,,,,,,,,,,,,,,,,,,,,,,,,,,,,,,,,,,,,,,,,,,,
,,,,,,,,,,,,97,PF,27.5,85.5,1,0,0,response1disk_5,7,0.966,-2,-3,1,0,0,rectangle_8,-74,-40,1,0,0,5,8.5,1,0,0,0,4,4,1,1,61033994adbe0652d3c39b71,6103688e1e1a3fc0e8201608,2021-07-29_21h51.25.400,Simcolourproject_2stim_asymm_v5,2020.2.10,Win32,60,61025ae37ef11b136ea224fe,response5disk_7,2,2.3088,2,"[2,5]",rectangle_4,,,,,,,,,,,,,,,,,,,,,,,,,,,,,,,,,,,,,,,,
,,,,,,,,,,,,13,PF,-81.5,43.5,1,0,0,response7disk_5,1,1.2826,-10,-0.5,1,0,0,rectangle_8,-10,-0.5,1,0,0,-10,-0.5,1,0,0,0,5,5,4,1,61033994adbe0652d3c39b71,6103688e1e1a3fc0e8201608,2021-07-29_21h51.25.400,Simcolourproject_2stim_asymm_v5,2020.2.10,Win32,60,61025ae37ef11b136ea224fe,,,,,,,,,,,,,,,,,,,,,,,,,,,,,,,,,,,,,,,,,,,,,,
,,,,,,,,,,,,51,FF,84.5,-56.5,1,0,0,response3disk_5,5,2.0494,-12,3.5,1,0,0,rectangle_8,-12,3.5,1,0,0,-12,3.5,1,0,0,0,6,6,0,1,61033994adbe0652d3c39b71,6103688e1e1a3fc0e8201608,2021-07-29_21h51.25.400,Simcolourproject_2stim_asymm_v5,2020.2.10,Win32,60,61025ae37ef11b136ea224fe,,,,,,,,,,,,,,,,,,,,,,,,,,,,,,,,,,,,,,,,,,,,,,
,,,,,,,,,,,,,FF,,,,,,,,2.5639,,,,,,,,,,,,,,,,,,,,,,61033994adbe0652d3c39b71,6103688e1e1a3fc0e8201608,2021-07-29_21h51.25.400,Simcolourproject_2stim_asymm_v5,2020.2.10,Win32,60,61025ae37ef11b136ea224fe,,,,,,,space,2.7042,2472,27.5,-82,1,0,0,response3disk,,4,8,9.5,1,0,0,rectangle,-25.5,90.5,1,0,0,response7disk_3,TRUE,0,0,"[1,133,196,9,237,220,289,221,32,145,169,213,180,175,64,60,272,293,245,168]",2.1975,-7.5,4,1,0,0,rectangle,0,0,0,55,1,
,,,,,,,,,,,,,FF,,,,,,,,1.178,,,,,,,,,,,,,,,,,,,,,,61033994adbe0652d3c39b71,6103688e1e1a3fc0e8201608,2021-07-29_21h51.25.400,Simcolourproject_2stim_asymm_v5,2020.2.10,Win32,60,61025ae37ef11b136ea224fe,,,,,,,,,1720,42,64.5,1,0,0,response1disk,,7,0,2.5,1,0,0,rectangle,0,2.5,1,0,0,,,,,,,0,2.5,1,0,0,,0,1,1,49,1,
,,,,,,,,,,,,,FF,,,,,,,,1.5008,,,,,,,,,,,,,,,,,,,,,,61033994adbe0652d3c39b71,6103688e1e1a3fc0e8201608,2021-07-29_21h51.25.400,Simcolourproject_2stim_asymm_v5,2020.2.10,Win32,60,61025ae37ef11b136ea224fe,,,,,,,,,1795,34.5,90.5,1,0,0,response1disk,,7,-5,-1,1,0,0,rectangle,-5,-1,1,0,0,,,,,,,-5,-1,1,0,0,,0,2,2,95,1,
,,,,,,,,,,,,,FF,,,,,,,,1.3318,,,,,,,,,,,,,,,,,,,,,,61033994adbe0652d3c39b71,6103688e1e1a3fc0e8201608,2021-07-29_21h51.25.400,Simcolourproject_2stim_asymm_v5,2020.2.10,Win32,60,61025ae37ef11b136ea224fe,,,,,,,,,1922,47,95.5,1,0,0,response1disk,,7,13,4.5,1,0,0,rectangle,13,4.5,1,0,0,,,,,,,13,4.5,1,0,0,,0,3,3,29,1,
,,,,,,,,,,,,,FF,,,,,,,,1.2159,,,,,,,,,,,,,,,,,,,,,,61033994adbe0652d3c39b71,6103688e1e1a3fc0e8201608,2021-07-29_21h51.25.400,Simcolourproject_2stim_asymm_v5,2020.2.10,Win32,60,61025ae37ef11b136ea224fe,,,,,,,,,1589,88,-38,1,0,0,response3disk,,5,-4,-7.5,1,0,0,rectangle,-4,-7.5,1,0,0,,,,,,,-4,-7.5,1,0,0,,0,4,4,94,1,
,,,,,,,,,,,,,FF,,,,,,,,1.116,,,,,,,,,,,,,,,,,,,,,,61033994adbe0652d3c39b71,6103688e1e1a3fc0e8201608,2021-07-29_21h51.25.400,Simcolourproject_2stim_asymm_v5,2020.2.10,Win32,60,61025ae37ef11b136ea224fe,,,,,,,,,2484,66.5,-30,1,0,0,response3disk,,5,-10,-2,1,0,0,rectangle,-10,-2,1,0,0,,,,,,,-10,-2,1,0,0,,0,5,5,114,1,
,,,,,,,,,,,,,FF,,,,,,,,1.0369,,,,,,,,,,,,,,,,,,,,,,61033994adbe0652d3c39b71,6103688e1e1a3fc0e8201608,2021-07-29_21h51.25.400,Simcolourproject_2stim_asymm_v5,2020.2.10,Win32,60,61025ae37ef11b136ea224fe,,,,,,,,,3484,-31.5,-61,1,0,0,response5disk,,3,-3,7.5,1,0,0,rectangle,-3,7.5,1,0,0,,,,,,,-3,7.5,1,0,0,,0,6,6,5,1,
,,,,,,,,,,,,,FF,,,,,,,,1.1992,,,,,,,,,,,,,,,,,,,,,,61033994adbe0652d3c39b71,6103688e1e1a3fc0e8201608,2021-07-29_21h51.25.400,Simcolourproject_2stim_asymm_v5,2020.2.10,Win32,60,61025ae37ef11b136ea224fe,,,,,,,,,3039,-84.5,-25,1,0,0,response5disk,,2,-8,0.5,1,0,0,rectangle,-8,0.5,1,0,0,,,,,,,-8,0.5,1,0,0,,0,7,7,4,1,
,,,,,,,,,,,,,FF,,,,,,,,1.0044,,,,,,,,,,,,,,,,,,,,,,61033994adbe0652d3c39b71,6103688e1e1a3fc0e8201608,2021-07-29_21h51.25.400,Simcolourproject_2stim_asymm_v5,2020.2.10,Win32,60,61025ae37ef11b136ea224fe,,,,,,,,,3206,43.5,-65,1,0,0,response3disk,,4,-12,12.5,1,0,0,rectangle,24,104,1,0,0,response1disk_3,TRUE,7,7,"[1,133,196,9,237,220,289,221,32,145,169,213,180,175,64,60,272,293,245,168]",1.8642,19,9.5,1,0,0,rectangle,0,8,8,141,1,
,,,,,,,,,,,,,FF,,,,,,,,0.8833,,,,,,,,,,,,,,,,,,,,,,61033994adbe0652d3c39b71,6103688e1e1a3fc0e8201608,2021-07-29_21h51.25.400,Simcolourproject_2stim_asymm_v5,2020.2.10,Win32,60,61025ae37ef11b136ea224fe,,,,,,,,,3582,53.5,100.5,1,0,0,response1disk,,7,10,-2.5,1,0,0,rectangle,10,-2.5,1,0,0,,,,,,,10,-2.5,1,0,0,,0,9,9,25,1,
,,,,,,,,,,,,,FF,,,,,,,,1.1322,,,,,,,,,,,,,,,,,,,,,,61033994adbe0652d3c39b71,6103688e1e1a3fc0e8201608,2021-07-29_21h51.25.400,Simcolourproject_2stim_asymm_v5,2020.2.10,Win32,60,61025ae37ef11b136ea224fe,,,,,,,,,2233,-45.5,36,1,0,0,response7disk,,1,11,10,1,0,0,rectangle,11,10,1,0,0,,,,,,,11,10,1,0,0,,0,10,10,109,1,
,,,,,,,,,,,,,FF,,,,,,,,0.833,,,,,,,,,,,,,,,,,,,,,,61033994adbe0652d3c39b71,6103688e1e1a3fc0e8201608,2021-07-29_21h51.25.400,Simcolourproject_2stim_asymm_v5,2020.2.10,Win32,60,61025ae37ef11b136ea224fe,,,,,,,,,656,91,31,1,0,0,response1disk,,6,6.5,10.5,1,0,0,rectangle,6.5,10.5,1,0,0,,,,,,,6.5,10.5,1,0,0,,0,11,11,92,1,
,,,,,,,,,,,,,FF,,,,,,,,1.5531,,,,,,,,,,,,,,,,,,,,,,61033994adbe0652d3c39b71,6103688e1e1a3fc0e8201608,2021-07-29_21h51.25.400,Simcolourproject_2stim_asymm_v5,2020.2.10,Win32,60,61025ae37ef11b136ea224fe,,,,,,,,,1736,55.5,-89,1,0,0,response3disk,,4,7,-11.5,1,0,0,rectangle,7,-11.5,1,0,0,,,,,,,7,-11.5,1,0,0,,0,12,12,93,1,
,,,,,,,,,,,,,FF,,,,,,,,0.8994,,,,,,,,,,,,,,,,,,,,,,61033994adbe0652d3c39b71,6103688e1e1a3fc0e8201608,2021-07-29_21h51.25.400,Simcolourproject_2stim_asymm_v5,2020.2.10,Win32,60,61025ae37ef11b136ea224fe,,,,,,,,,2098,-96,47,1,0,0,response7disk,,1,-3,1.5,1,0,0,rectangle,-3,1.5,1,0,0,,,,,,,-3,1.5,1,0,0,,0,13,13,91,1,
,,,,,,,,,,,,,FF,,,,,,,,1.0506,,,,,,,,,,,,,,,,,,,,,,61033994adbe0652d3c39b71,6103688e1e1a3fc0e8201608,2021-07-29_21h51.25.400,Simcolourproject_2stim_asymm_v5,2020.2.10,Win32,60,61025ae37ef11b136ea224fe,,,,,,,,,1678,-24,-52.5,1,0,0,response5disk,,3,-5,-3,1,0,0,rectangle,-5,-3,1,0,0,,,,,,,-5,-3,1,0,0,,0,14,14,26,1,
,,,,,,,,,,,,,FF,,,,,,,,1.9695,,,,,,,,,,,,,,,,,,,,,,61033994adbe0652d3c39b71,6103688e1e1a3fc0e8201608,2021-07-29_21h51.25.400,Simcolourproject_2stim_asymm_v5,2020.2.10,Win32,60,61025ae37ef11b136ea224fe,,,,,,,,,2087,-44,-80.5,1,0,0,response5disk,,3,-12.5,-1,1,0,0,rectangle,-12.5,-1,1,0,0,,,,,,,-12.5,-1,1,0,0,,0,15,15,86,1,
,,,,,,,,,,,,,FF,,,,,,,,1.216,,,,,,,,,,,,,,,,,,,,,,61033994adbe0652d3c39b71,6103688e1e1a3fc0e8201608,2021-07-29_21h51.25.400,Simcolourproject_2stim_asymm_v5,2020.2.10,Win32,60,61025ae37ef11b136ea224fe,,,,,,,,,1169,58,93.5,1,0,0,response1disk,,7,-4.5,-1.5,1,0,0,rectangle,-4.5,-1.5,1,0,0,,,,,,,-4.5,-1.5,1,0,0,,0,16,16,34,1,
,,,,,,,,,,,,,FF,,,,,,,,1.0371,,,,,,,,,,,,,,,,,,,,,,61033994adbe0652d3c39b71,6103688e1e1a3fc0e8201608,2021-07-29_21h51.25.400,Simcolourproject_2stim_asymm_v5,2020.2.10,Win32,60,61025ae37ef11b136ea224fe,,,,,,,,,2323,51.5,-113,1,0,0,response3disk,,4,4.5,-5,1,0,0,rectangle,4.5,-5,1,0,0,,,,,,,4.5,-5,1,0,0,,0,17,17,107,1,
,,,,,,,,,,,,,FF,,,,,,,,2.7138,,,,,,,,,,,,,,,,,,,,,,61033994adbe0652d3c39b71,6103688e1e1a3fc0e8201608,2021-07-29_21h51.25.400,Simcolourproject_2stim_asymm_v5,2020.2.10,Win32,60,61025ae37ef11b136ea224fe,,,,,,,,,4198,87,-41,1,0,0,response3disk,,5,-1,-6.5,1,0,0,rectangle,-1,-6.5,1,0,0,,,,,,,-1,-6.5,1,0,0,,0,18,18,17,1,
,,,,,,,,,,,,,FF,,,,,,,,1.8316,,,,,,,,,,,,,,,,,,,,,,61033994adbe0652d3c39b71,6103688e1e1a3fc0e8201608,2021-07-29_21h51.25.400,Simcolourproject_2stim_asymm_v5,2020.2.10,Win32,60,61025ae37ef11b136ea224fe,,,,,,,,,1882,72.5,-49.5,1,0,0,response3disk,,5,9,-9,1,0,0,rectangle,9,-9,1,0,0,,,,,,,9,-9,1,0,0,,0,19,19,112,1,
,,,,,,,,,,,,,FF,,,,,,,,1.2151,,,,,,,,,,,,,,,,,,,,,,61033994adbe0652d3c39b71,6103688e1e1a3fc0e8201608,2021-07-29_21h51.25.400,Simcolourproject_2stim_asymm_v5,2020.2.10,Win32,60,61025ae37ef11b136ea224fe,,,,,,,,,1895,-74.5,-42.5,1,0,0,response5disk,,2,-3.5,-8.5,1,0,0,rectangle,-3.5,-8.5,1,0,0,,,,,,,-3.5,-8.5,1,0,0,,0,20,20,100,1,
,,,,,,,,,,,,,FF,,,,,,,,0.9201,,,,,,,,,,,,,,,,,,,,,,61033994adbe0652d3c39b71,6103688e1e1a3fc0e8201608,2021-07-29_21h51.25.400,Simcolourproject_2stim_asymm_v5,2020.2.10,Win32,60,61025ae37ef11b136ea224fe,,,,,,,,,2729,-75,-27.5,1,0,0,response5disk,,2,11.5,5.5,1,0,0,rectangle,11.5,5.5,1,0,0,,,,,,,11.5,5.5,1,0,0,,0,21,21,153,1,
,,,,,,,,,,,,,FF,,,,,,,,0.965,,,,,,,,,,,,,,,,,,,,,,61033994adbe0652d3c39b71,6103688e1e1a3fc0e8201608,2021-07-29_21h51.25.400,Simcolourproject_2stim_asymm_v5,2020.2.10,Win32,60,61025ae37ef11b136ea224fe,,,,,,,,,2594,54.5,-63.5,1,0,0,response3disk,,4,29,10,1,0,0,rectangle,29,10,1,0,0,,,,,,,29,10,1,0,0,,0,22,22,145,1,
,,,,,,,,,,,,,FF,,,,,,,,0.6996,,,,,,,,,,,,,,,,,,,,,,61033994adbe0652d3c39b71,6103688e1e1a3fc0e8201608,2021-07-29_21h51.25.400,Simcolourproject_2stim_asymm_v5,2020.2.10,Win32,60,61025ae37ef11b136ea224fe,,,,,,,,,1422,35,52,1,0,0,response1disk,,7,16.5,-4,1,0,0,rectangle,16.5,-4,1,0,0,,,,,,,16.5,-4,1,0,0,,0,23,23,50,1,
,,,,,,,,,,,,,FF,,,,,,,,2.1683,,,,,,,,,,,,,,,,,,,,,,61033994adbe0652d3c39b71,6103688e1e1a3fc0e8201608,2021-07-29_21h51.25.400,Simcolourproject_2stim_asymm_v5,2020.2.10,Win32,60,61025ae37ef11b136ea224fe,,,,,,,,,4183,-70.5,-21,1,0,0,response5disk,,2,-14.5,-2.5,1,0,0,rectangle,-14.5,-2.5,1,0,0,,,,,,,-14.5,-2.5,1,0,0,,0,24,24,46,1,
,,,,,,,,,,,,,FF,,,,,,,,0.8002,,,,,,,,,,,,,,,,,,,,,,61033994adbe0652d3c39b71,6103688e1e1a3fc0e8201608,2021-07-29_21h51.25.400,Simcolourproject_2stim_asymm_v5,2020.2.10,Win32,60,61025ae37ef11b136ea224fe,,,,,,,,,3768,29.5,65.5,1,0,0,response1disk,,7,-3.5,-2,1,0,0,rectangle,-3.5,-2,1,0,0,,,,,,,-3.5,-2,1,0,0,,0,25,25,36,1,
,,,,,,,,,,,,,FF,,,,,,,,0.8824,,,,,,,,,,,,,,,,,,,,,,61033994adbe0652d3c39b71,6103688e1e1a3fc0e8201608,2021-07-29_21h51.25.400,Simcolourproject_2stim_asymm_v5,2020.2.10,Win32,60,61025ae37ef11b136ea224fe,,,,,,,,,3459,31,92.5,1,0,0,response1disk,,7,19,10,1,0,0,rectangle,19,10,1,0,0,,,,,,,19,10,1,0,0,,0,26,26,75,1,
,,,,,,,,,,,,,FF,,,,,,,,0.7652,,,,,,,,,,,,,,,,,,,,,,61033994adbe0652d3c39b71,6103688e1e1a3fc0e8201608,2021-07-29_21h51.25.400,Simcolourproject_2stim_asymm_v5,2020.2.10,Win32,60,61025ae37ef11b136ea224fe,,,,,,,,,2158,56,27,1,0,0,response1disk,,6,11.5,3,1,0,0,rectangle,11.5,3,1,0,0,,,,,,,11.5,3,1,0,0,,0,27,27,12,1,
,,,,,,,,,,,,,FF,,,,,,,,1.4818,,,,,,,,,,,,,,,,,,,,,,61033994adbe0652d3c39b71,6103688e1e1a3fc0e8201608,2021-07-29_21h51.25.400,Simcolourproject_2stim_asymm_v5,2020.2.10,Win32,60,61025ae37ef11b136ea224fe,,,,,,,,,1662,-36,-83.5,1,0,0,response5disk,,3,-6,6,1,0,0,rectangle,-6,6,1,0,0,,,,,,,-6,6,1,0,0,,0,28,28,108,1,
,,,,,,,,,,,,,FF,,,,,,,,1.2319,,,,,,,,,,,,,,,,,,,,,,61033994adbe0652d3c39b71,6103688e1e1a3fc0e8201608,2021-07-29_21h51.25.400,Simcolourproject_2stim_asymm_v5,2020.2.10,Win32,60,61025ae37ef11b136ea224fe,,,,,,,,,897,27.5,-47.5,1,0,0,response3disk,,4,1.5,-0.5,1,0,0,rectangle,1.5,-0.5,1,0,0,,,,,,,1.5,-0.5,1,0,0,,0,29,29,33,1,
,,,,,,,,,,,,,FF,,,,,,,,0.7493,,,,,,,,,,,,,,,,,,,,,,61033994adbe0652d3c39b71,6103688e1e1a3fc0e8201608,2021-07-29_21h51.25.400,Simcolourproject_2stim_asymm_v5,2020.2.10,Win32,60,61025ae37ef11b136ea224fe,,,,,,,,,4334,34.5,61.5,1,0,0,response1disk,,7,7,-1.5,1,0,0,rectangle,7,-1.5,1,0,0,,,,,,,7,-1.5,1,0,0,,0,30,30,19,1,
,,,,,,,,,,,,,FF,,,,,,,,1.7313,,,,,,,,,,,,,,,,,,,,,,61033994adbe0652d3c39b71,6103688e1e1a3fc0e8201608,2021-07-29_21h51.25.400,Simcolourproject_2stim_asymm_v5,2020.2.10,Win32,60,61025ae37ef11b136ea224fe,,,,,,,,,3559,-78,-34.5,1,0,0,response5disk,,2,3.5,-5,1,0,0,rectangle,21,76.5,1,0,0,response1disk_3,TRUE,7,7,"[1,133,196,9,237,220,289,221,32,145,169,213,180,175,64,60,272,293,245,168]",1.6483,23,8.5,1,0,0,rectangle,0,31,31,136,1,
,,,,,,,,,,,,,FF,,,,,,,,1.5649,,,,,,,,,,,,,,,,,,,,,,61033994adbe0652d3c39b71,6103688e1e1a3fc0e8201608,2021-07-29_21h51.25.400,Simcolourproject_2stim_asymm_v5,2020.2.10,Win32,60,61025ae37ef11b136ea224fe,,,,,,,,,3444,53,100.5,1,0,0,response1disk,,7,4.5,3.5,1,0,0,rectangle,4.5,3.5,1,0,0,,,,,,,4.5,3.5,1,0,0,,0,32,32,18,1,
,,,,,,,,,,,,,FF,,,,,,,,1.5816,,,,,,,,,,,,,,,,,,,,,,61033994adbe0652d3c39b71,6103688e1e1a3fc0e8201608,2021-07-29_21h51.25.400,Simcolourproject_2stim_asymm_v5,2020.2.10,Win32,60,61025ae37ef11b136ea224fe,,,,,,,,,1351,26.5,42.5,1,0,0,response1disk,,7,9,3,1,0,0,rectangle,9,3,1,0,0,,,,,,,9,3,1,0,0,,0,33,33,78,1,
,,,,,,,,,,,,,FF,,,,,,,,1.2318,,,,,,,,,,,,,,,,,,,,,,61033994adbe0652d3c39b71,6103688e1e1a3fc0e8201608,2021-07-29_21h51.25.400,Simcolourproject_2stim_asymm_v5,2020.2.10,Win32,60,61025ae37ef11b136ea224fe,,,,,,,,,563,23.5,-90.5,1,0,0,response3disk,,4,0,9,1,0,0,rectangle,0,9,1,0,0,,,,,,,0,9,1,0,0,,0,34,34,88,1,
,,,,,,,,,,,,,FF,,,,,,,,0.9323,,,,,,,,,,,,,,,,,,,,,,61033994adbe0652d3c39b71,6103688e1e1a3fc0e8201608,2021-07-29_21h51.25.400,Simcolourproject_2stim_asymm_v5,2020.2.10,Win32,60,61025ae37ef11b136ea224fe,,,,,,,,,3950,-29,-68,1,0,0,response5disk,,3,-12,-0.5,1,0,0,rectangle,-12,-0.5,1,0,0,,,,,,,-12,-0.5,1,0,0,,0,35,35,57,1,
,,,,,,,,,,,,,FF,,,,,,,,0.7992,,,,,,,,,,,,,,,,,,,,,,61033994adbe0652d3c39b71,6103688e1e1a3fc0e8201608,2021-07-29_21h51.25.400,Simcolourproject_2stim_asymm_v5,2020.2.10,Win32,60,61025ae37ef11b136ea224fe,,,,,,,,,2517,50,91.5,1,0,0,response1disk,,7,-4.5,-6,1,0,0,rectangle,-4.5,-6,1,0,0,,,,,,,-4.5,-6,1,0,0,,0,36,36,53,1,
,,,,,,,,,,,,,FF,,,,,,,,1.2153,,,,,,,,,,,,,,,,,,,,,,61033994adbe0652d3c39b71,6103688e1e1a3fc0e8201608,2021-07-29_21h51.25.400,Simcolourproject_2stim_asymm_v5,2020.2.10,Win32,60,61025ae37ef11b136ea224fe,,,,,,,,,1467,62.5,37.5,1,0,0,response1disk,,6,2.5,7.5,1,0,0,rectangle,2.5,7.5,1,0,0,,,,,,,2.5,7.5,1,0,0,,0,37,37,47,1,
,,,,,,,,,,,,,FF,,,,,,,,1.0157,,,,,,,,,,,,,,,,,,,,,,61033994adbe0652d3c39b71,6103688e1e1a3fc0e8201608,2021-07-29_21h51.25.400,Simcolourproject_2stim_asymm_v5,2020.2.10,Win32,60,61025ae37ef11b136ea224fe,,,,,,,,,1874,62.5,25.5,1,0,0,response1disk,,6,10,4.5,1,0,0,rectangle,10,4.5,1,0,0,,,,,,,10,4.5,1,0,0,,0,38,38,121,1,
,,,,,,,,,,,,,FF,,,,,,,,1.6484,,,,,,,,,,,,,,,,,,,,,,61033994adbe0652d3c39b71,6103688e1e1a3fc0e8201608,2021-07-29_21h51.25.400,Simcolourproject_2stim_asymm_v5,2020.2.10,Win32,60,61025ae37ef11b136ea224fe,,,,,,,,,4362,-42.5,73,1,0,0,response7disk,,0,-20.5,7.5,1,0,0,rectangle,-20.5,7.5,1,0,0,,,,,,,-20.5,7.5,1,0,0,,0,39,39,143,1,
,,,,,,,,,,,,,FF,,,,,,,,1.0155,,,,,,,,,,,,,,,,,,,,,,61033994adbe0652d3c39b71,6103688e1e1a3fc0e8201608,2021-07-29_21h51.25.400,Simcolourproject_2stim_asymm_v5,2020.2.10,Win32,60,61025ae37ef11b136ea224fe,,,,,,,,,2425,-63.5,-111.5,1,0,0,response5disk,,3,-14,2,1,0,0,rectangle,-14,2,1,0,0,,,,,,,-14,2,1,0,0,,0,40,40,147,1,
,,,,,,,,,,,,,FF,,,,,,,,1.6978,,,,,,,,,,,,,,,,,,,,,,61033994adbe0652d3c39b71,6103688e1e1a3fc0e8201608,2021-07-29_21h51.25.400,Simcolourproject_2stim_asymm_v5,2020.2.10,Win32,60,61025ae37ef11b136ea224fe,,,,,,,,,4127,38.5,-78,1,0,0,response3disk,,4,20,-7.5,1,0,0,rectangle,20,-7.5,1,0,0,,,,,,,20,-7.5,1,0,0,,0,41,41,42,1,
,,,,,,,,,,,,,FF,,,,,,,,0.7826,,,,,,,,,,,,,,,,,,,,,,61033994adbe0652d3c39b71,6103688e1e1a3fc0e8201608,2021-07-29_21h51.25.400,Simcolourproject_2stim_asymm_v5,2020.2.10,Win32,60,61025ae37ef11b136ea224fe,,,,,,,,,2405,36,48,1,0,0,response1disk,,7,4,-11.5,1,0,0,rectangle,4,-11.5,1,0,0,,,,,,,4,-11.5,1,0,0,,0,42,42,64,1,
,,,,,,,,,,,,,FF,,,,,,,,1.5482,,,,,,,,,,,,,,,,,,,,,,61033994adbe0652d3c39b71,6103688e1e1a3fc0e8201608,2021-07-29_21h51.25.400,Simcolourproject_2stim_asymm_v5,2020.2.10,Win32,60,61025ae37ef11b136ea224fe,,,,,,,,,2649,78.5,46.5,1,0,0,response1disk,,6,-2,14,1,0,0,rectangle,-2,14,1,0,0,,,,,,,-2,14,1,0,0,,0,43,43,140,1,
,,,,,,,,,,,,,FF,,,,,,,,1.2654,,,,,,,,,,,,,,,,,,,,,,61033994adbe0652d3c39b71,6103688e1e1a3fc0e8201608,2021-07-29_21h51.25.400,Simcolourproject_2stim_asymm_v5,2020.2.10,Win32,60,61025ae37ef11b136ea224fe,,,,,,,,,3638,64,-38.5,1,0,0,response3disk,,5,-10,4,1,0,0,rectangle,-10,4,1,0,0,,,,,,,-10,4,1,0,0,,0,44,44,72,1,
,,,,,,,,,,,,,FF,,,,,,,,1.8145,,,,,,,,,,,,,,,,,,,,,,61033994adbe0652d3c39b71,6103688e1e1a3fc0e8201608,2021-07-29_21h51.25.400,Simcolourproject_2stim_asymm_v5,2020.2.10,Win32,60,61025ae37ef11b136ea224fe,,,,,,,,,3643,113,-70.5,1,0,0,response3disk,,5,24,11.5,1,0,0,rectangle,24,11.5,1,0,0,,,,,,,24,11.5,1,0,0,,0,45,45,41,1,
,,,,,,,,,,,,,FF,,,,,,,,1.4817,,,,,,,,,,,,,,,,,,,,,,61033994adbe0652d3c39b71,6103688e1e1a3fc0e8201608,2021-07-29_21h51.25.400,Simcolourproject_2stim_asymm_v5,2020.2.10,Win32,60,61025ae37ef11b136ea224fe,,,,,,,,,3349,94.5,28.5,1,0,0,response1disk,,6,-7.5,5.5,1,0,0,rectangle,-7.5,5.5,1,0,0,,,,,,,-7.5,5.5,1,0,0,,0,46,46,40,1,
,,,,,,,,,,,,,FF,,,,,,,,0.7824,,,,,,,,,,,,,,,,,,,,,,61033994adbe0652d3c39b71,6103688e1e1a3fc0e8201608,2021-07-29_21h51.25.400,Simcolourproject_2stim_asymm_v5,2020.2.10,Win32,60,61025ae37ef11b136ea224fe,,,,,,,,,1029,25.5,71,1,0,0,response1disk,,7,-4.5,6,1,0,0,rectangle,-4.5,6,1,0,0,,,,,,,-4.5,6,1,0,0,,0,47,47,81,1,
,,,,,,,,,,,,,FF,,,,,,,,2.0644,,,,,,,,,,,,,,,,,,,,,,61033994adbe0652d3c39b71,6103688e1e1a3fc0e8201608,2021-07-29_21h51.25.400,Simcolourproject_2stim_asymm_v5,2020.2.10,Win32,60,61025ae37ef11b136ea224fe,,,,,,,,,2875,23,78,1,0,0,response1disk,,7,-12,8.5,1,0,0,rectangle,-12,8.5,1,0,0,,,,,,,-12,8.5,1,0,0,,0,48,48,67,1,
,,,,,,,,,,,,,FF,,,,,,,,1.1986,,,,,,,,,,,,,,,,,,,,,,61033994adbe0652d3c39b71,6103688e1e1a3fc0e8201608,2021-07-29_21h51.25.400,Simcolourproject_2stim_asymm_v5,2020.2.10,Win32,60,61025ae37ef11b136ea224fe,,,,,,,,,1829,36.5,-73.5,1,0,0,response3disk,,4,4,4,1,0,0,rectangle,4,4,1,0,0,,,,,,,4,4,1,0,0,,0,49,49,117,1,
,,,,,,,,,,,,,FF,,,,,,,,1.1655,,,,,,,,,,,,,,,,,,,,,,61033994adbe0652d3c39b71,6103688e1e1a3fc0e8201608,2021-07-29_21h51.25.400,Simcolourproject_2stim_asymm_v5,2020.2.10,Win32,60,61025ae37ef11b136ea224fe,,,,,,,,,918,61,100.5,1,0,0,response1disk,,7,5,6.5,1,0,0,rectangle,5,6.5,1,0,0,,,,,,,5,6.5,1,0,0,,0,50,50,80,1,
,,,,,,,,,,,,,FF,,,,,,,,1.3152,,,,,,,,,,,,,,,,,,,,,,61033994adbe0652d3c39b71,6103688e1e1a3fc0e8201608,2021-07-29_21h51.25.400,Simcolourproject_2stim_asymm_v5,2020.2.10,Win32,60,61025ae37ef11b136ea224fe,,,,,,,,,2402,-29.5,-61.5,1,0,0,response5disk,,3,-2.5,7.5,1,0,0,rectangle,-2.5,7.5,1,0,0,,,,,,,-2.5,7.5,1,0,0,,0,51,51,6,1,
,,,,,,,,,,,,,FF,,,,,,,,0.7826,,,,,,,,,,,,,,,,,,,,,,61033994adbe0652d3c39b71,6103688e1e1a3fc0e8201608,2021-07-29_21h51.25.400,Simcolourproject_2stim_asymm_v5,2020.2.10,Win32,60,61025ae37ef11b136ea224fe,,,,,,,,,3972,-37.5,-63.5,1,0,0,response5disk,,3,-14.5,-1.5,1,0,0,rectangle,-14.5,-1.5,1,0,0,,,,,,,-14.5,-1.5,1,0,0,,0,52,52,155,1,
,,,,,,,,,,,,,FF,,,,,,,,0.999,,,,,,,,,,,,,,,,,,,,,,61033994adbe0652d3c39b71,6103688e1e1a3fc0e8201608,2021-07-29_21h51.25.400,Simcolourproject_2stim_asymm_v5,2020.2.10,Win32,60,61025ae37ef11b136ea224fe,,,,,,,,,169,-59.5,-27,1,0,0,response5disk,,2,9,-1,1,0,0,rectangle,9,-1,1,0,0,,,,,,,9,-1,1,0,0,,0,53,53,113,1,
,,,,,,,,,,,,,FF,,,,,,,,0.666,,,,,,,,,,,,,,,,,,,,,,61033994adbe0652d3c39b71,6103688e1e1a3fc0e8201608,2021-07-29_21h51.25.400,Simcolourproject_2stim_asymm_v5,2020.2.10,Win32,60,61025ae37ef11b136ea224fe,,,,,,,,,2523,41,71,1,0,0,response1disk,,7,6.5,12,1,0,0,rectangle,6.5,12,1,0,0,,,,,,,6.5,12,1,0,0,,0,54,54,106,1,
,,,,,,,,,,,,,FF,,,,,,,,0.9159,,,,,,,,,,,,,,,,,,,,,,61033994adbe0652d3c39b71,6103688e1e1a3fc0e8201608,2021-07-29_21h51.25.400,Simcolourproject_2stim_asymm_v5,2020.2.10,Win32,60,61025ae37ef11b136ea224fe,,,,,,,,,944,41.5,85,1,0,0,response1disk,,7,2.5,-3.5,1,0,0,rectangle,2.5,-3.5,1,0,0,,,,,,,2.5,-3.5,1,0,0,,0,55,55,148,1,
,,,,,,,,,,,,,FF,,,,,,,,0.9988,,,,,,,,,,,,,,,,,,,,,,61033994adbe0652d3c39b71,6103688e1e1a3fc0e8201608,2021-07-29_21h51.25.400,Simcolourproject_2stim_asymm_v5,2020.2.10,Win32,60,61025ae37ef11b136ea224fe,,,,,,,,,2985,30.5,-97.5,1,0,0,response3disk,,4,-7,-5.5,1,0,0,rectangle,-7,-5.5,1,0,0,,,,,,,-7,-5.5,1,0,0,,0,56,56,97,1,
,,,,,,,,,,,,,FF,,,,,,,,0.7992,,,,,,,,,,,,,,,,,,,,,,61033994adbe0652d3c39b71,6103688e1e1a3fc0e8201608,2021-07-29_21h51.25.400,Simcolourproject_2stim_asymm_v5,2020.2.10,Win32,60,61025ae37ef11b136ea224fe,,,,,,,,,2271,34,83,1,0,0,response1disk,,7,5,2.5,1,0,0,rectangle,5,2.5,1,0,0,,,,,,,5,2.5,1,0,0,,0,57,57,96,1,
,,,,,,,,,,,,,FF,,,,,,,,0.6662,,,,,,,,,,,,,,,,,,,,,,61033994adbe0652d3c39b71,6103688e1e1a3fc0e8201608,2021-07-29_21h51.25.400,Simcolourproject_2stim_asymm_v5,2020.2.10,Win32,60,61025ae37ef11b136ea224fe,,,,,,,,,1163,36,57,1,0,0,response1disk,,7,2.5,5,1,0,0,rectangle,2.5,5,1,0,0,,,,,,,2.5,5,1,0,0,,0,58,58,123,1,
,,,,,,,,,,,,,FF,,,,,,,,1.7313,,,,,,,,,,,,,,,,,,,,,,61033994adbe0652d3c39b71,6103688e1e1a3fc0e8201608,2021-07-29_21h51.25.400,Simcolourproject_2stim_asymm_v5,2020.2.10,Win32,60,61025ae37ef11b136ea224fe,,,,,,,,,2048,84.5,-41.5,1,0,0,response3disk,,5,-13.5,0,1,0,0,rectangle,-26,-85.5,1,0,0,response5disk_3,TRUE,3,3,"[1,133,196,9,237,220,289,221,32,145,169,213,180,175,64,60,272,293,245,168]",2.2972,-10,-3.5,1,0,0,rectangle,0,59,59,45,1,
,,,,,,,,,,,,,FF,,,,,,,,3.1298,,,,,,,,,,,,,,,,,,,,,,61033994adbe0652d3c39b71,6103688e1e1a3fc0e8201608,2021-07-29_21h51.25.400,Simcolourproject_2stim_asymm_v5,2020.2.10,Win32,60,61025ae37ef11b136ea224fe,,,,,,,,,2570,81,30,1,0,0,response1disk,,6,-4.5,4.5,1,0,0,rectangle,-4.5,4.5,1,0,0,,,,,,,-4.5,4.5,1,0,0,,0,60,60,133,1,
,,,,,,,,,,,,,FF,,,,,,,,1.498,,,,,,,,,,,,,,,,,,,,,,61033994adbe0652d3c39b71,6103688e1e1a3fc0e8201608,2021-07-29_21h51.25.400,Simcolourproject_2stim_asymm_v5,2020.2.10,Win32,60,61025ae37ef11b136ea224fe,,,,,,,,,2938,-31,-67.5,1,0,0,response5disk,,3,-7.5,-3.5,1,0,0,rectangle,-7.5,-3.5,1,0,0,,,,,,,-7.5,-3.5,1,0,0,,0,61,61,39,1,
,,,,,,,,,,,,,FF,,,,,,,,0.6992,,,,,,,,,,,,,,,,,,,,,,61033994adbe0652d3c39b71,6103688e1e1a3fc0e8201608,2021-07-29_21h51.25.400,Simcolourproject_2stim_asymm_v5,2020.2.10,Win32,60,61025ae37ef11b136ea224fe,,,,,,,,,321,35.5,105,1,0,0,response1disk,,7,-1.5,1,1,0,0,rectangle,-1.5,1,1,0,0,,,,,,,-1.5,1,1,0,0,,0,62,62,73,1,
,,,,,,,,,,,,,FF,,,,,,,,1.2154,,,,,,,,,,,,,,,,,,,,,,61033994adbe0652d3c39b71,6103688e1e1a3fc0e8201608,2021-07-29_21h51.25.400,Simcolourproject_2stim_asymm_v5,2020.2.10,Win32,60,61025ae37ef11b136ea224fe,,,,,,,,,3778,-61,-45,1,0,0,response5disk,,2,-2.5,-5,1,0,0,rectangle,-22,66.5,1,0,0,response7disk_3,TRUE,0,0,"[1,133,196,9,237,220,289,221,32,145,169,213,180,175,64,60,272,293,245,168]",1.3984,-6,-4,1,0,0,rectangle,0,63,63,151,1,
,,,,,,,,,,,,,FF,,,,,,,,0.7324,,,,,,,,,,,,,,,,,,,,,,61033994adbe0652d3c39b71,6103688e1e1a3fc0e8201608,2021-07-29_21h51.25.400,Simcolourproject_2stim_asymm_v5,2020.2.10,Win32,60,61025ae37ef11b136ea224fe,,,,,,,,,2364,-59.5,-82.5,1,0,0,response5disk,,3,-14,-1.5,1,0,0,rectangle,-14,-1.5,1,0,0,,,,,,,-14,-1.5,1,0,0,,0,64,64,56,1,
,,,,,,,,,,,,,FF,,,,,,,,0.7656,,,,,,,,,,,,,,,,,,,,,,61033994adbe0652d3c39b71,6103688e1e1a3fc0e8201608,2021-07-29_21h51.25.400,Simcolourproject_2stim_asymm_v5,2020.2.10,Win32,60,61025ae37ef11b136ea224fe,,,,,,,,,3594,-28.5,-36,1,0,0,response5disk,,3,-12.5,-6,1,0,0,rectangle,-12.5,-6,1,0,0,,,,,,,-12.5,-6,1,0,0,,0,65,65,101,1,
,,,,,,,,,,,,,FF,,,,,,,,1.049,,,,,,,,,,,,,,,,,,,,,,61033994adbe0652d3c39b71,6103688e1e1a3fc0e8201608,2021-07-29_21h51.25.400,Simcolourproject_2stim_asymm_v5,2020.2.10,Win32,60,61025ae37ef11b136ea224fe,,,,,,,,,2381,39,90,1,0,0,response1disk,,7,-11,-3,1,0,0,rectangle,-11,-3,1,0,0,,,,,,,-11,-3,1,0,0,,0,66,66,126,1,
,,,,,,,,,,,,,FF,,,,,,,,0.6826,,,,,,,,,,,,,,,,,,,,,,61033994adbe0652d3c39b71,6103688e1e1a3fc0e8201608,2021-07-29_21h51.25.400,Simcolourproject_2stim_asymm_v5,2020.2.10,Win32,60,61025ae37ef11b136ea224fe,,,,,,,,,3725,78,28.5,1,0,0,response1disk,,6,-16,-6.5,1,0,0,rectangle,-16,-6.5,1,0,0,,,,,,,-16,-6.5,1,0,0,,0,67,67,122,1,
,,,,,,,,,,,,,FF,,,,,,,,0.4823,,,,,,,,,,,,,,,,,,,,,,61033994adbe0652d3c39b71,6103688e1e1a3fc0e8201608,2021-07-29_21h51.25.400,Simcolourproject_2stim_asymm_v5,2020.2.10,Win32,60,61025ae37ef11b136ea224fe,,,,,,,,,2126,18,41.5,1,0,0,response1disk,,7,-4.5,-1.5,1,0,0,rectangle,-4.5,-1.5,1,0,0,,,,,,,-4.5,-1.5,1,0,0,,0,68,68,11,1,
,,,,,,,,,,,,,FF,,,,,,,,1.2984,,,,,,,,,,,,,,,,,,,,,,61033994adbe0652d3c39b71,6103688e1e1a3fc0e8201608,2021-07-29_21h51.25.400,Simcolourproject_2stim_asymm_v5,2020.2.10,Win32,60,61025ae37ef11b136ea224fe,,,,,,,,,4306,-42,-87.5,1,0,0,response5disk,,3,-11.5,-14,1,0,0,rectangle,-11.5,-14,1,0,0,,,,,,,-11.5,-14,1,0,0,,0,69,69,0,1,
,,,,,,,,,,,,,FF,,,,,,,,0.7322,,,,,,,,,,,,,,,,,,,,,,61033994adbe0652d3c39b71,6103688e1e1a3fc0e8201608,2021-07-29_21h51.25.400,Simcolourproject_2stim_asymm_v5,2020.2.10,Win32,60,61025ae37ef11b136ea224fe,,,,,,,,,3542,36.5,77.5,1,0,0,response1disk,,7,-12,-4,1,0,0,rectangle,-12,-4,1,0,0,,,,,,,-12,-4,1,0,0,,0,70,70,31,1,
,,,,,,,,,,,,,FF,,,,,,,,1.0989,,,,,,,,,,,,,,,,,,,,,,61033994adbe0652d3c39b71,6103688e1e1a3fc0e8201608,2021-07-29_21h51.25.400,Simcolourproject_2stim_asymm_v5,2020.2.10,Win32,60,61025ae37ef11b136ea224fe,,,,,,,,,3880,41,-100,1,0,0,response3disk,,4,7.5,-9,1,0,0,rectangle,7.5,-9,1,0,0,,,,,,,7.5,-9,1,0,0,,0,71,71,9,1,
,,,,,,,,,,,,,FF,,,,,,,,0.5826,,,,,,,,,,,,,,,,,,,,,,61033994adbe0652d3c39b71,6103688e1e1a3fc0e8201608,2021-07-29_21h51.25.400,Simcolourproject_2stim_asymm_v5,2020.2.10,Win32,60,61025ae37ef11b136ea224fe,,,,,,,,,3834,26.5,58.5,1,0,0,response1disk,,7,-18,-1.5,1,0,0,rectangle,-18,-1.5,1,0,0,,,,,,,-18,-1.5,1,0,0,,0,72,72,154,1,
,,,,,,,,,,,,,FF,,,,,,,,0.6158,,,,,,,,,,,,,,,,,,,,,,61033994adbe0652d3c39b71,6103688e1e1a3fc0e8201608,2021-07-29_21h51.25.400,Simcolourproject_2stim_asymm_v5,2020.2.10,Win32,60,61025ae37ef11b136ea224fe,,,,,,,,,1905,74.5,24,1,0,0,response1disk,,6,7.5,-10,1,0,0,rectangle,7.5,-10,1,0,0,,,,,,,7.5,-10,1,0,0,,0,73,73,102,1,
,,,,,,,,,,,,,FF,,,,,,,,0.7492,,,,,,,,,,,,,,,,,,,,,,61033994adbe0652d3c39b71,6103688e1e1a3fc0e8201608,2021-07-29_21h51.25.400,Simcolourproject_2stim_asymm_v5,2020.2.10,Win32,60,61025ae37ef11b136ea224fe,,,,,,,,,2907,61,-35.5,1,0,0,response3disk,,5,-1.5,-3.5,1,0,0,rectangle,-1.5,-3.5,1,0,0,,,,,,,-1.5,-3.5,1,0,0,,0,74,74,157,1,
,,,,,,,,,,,,,FF,,,,,,,,0.7659,,,,,,,,,,,,,,,,,,,,,,61033994adbe0652d3c39b71,6103688e1e1a3fc0e8201608,2021-07-29_21h51.25.400,Simcolourproject_2stim_asymm_v5,2020.2.10,Win32,60,61025ae37ef11b136ea224fe,,,,,,,,,1400,39.5,107.5,1,0,0,response1disk,,7,-3,0.5,1,0,0,rectangle,-3,0.5,1,0,0,,,,,,,-3,0.5,1,0,0,,0,75,75,61,1,
,,,,,,,,,,,,,FF,,,,,,,,0.6993,,,,,,,,,,,,,,,,,,,,,,61033994adbe0652d3c39b71,6103688e1e1a3fc0e8201608,2021-07-29_21h51.25.400,Simcolourproject_2stim_asymm_v5,2020.2.10,Win32,60,61025ae37ef11b136ea224fe,,,,,,,,,474,35.5,71,1,0,0,response1disk,,7,-13,3.5,1,0,0,rectangle,-13,3.5,1,0,0,,,,,,,-13,3.5,1,0,0,,0,76,76,104,1,
,,,,,,,,,,,,,FF,,,,,,,,1.0988,,,,,,,,,,,,,,,,,,,,,,61033994adbe0652d3c39b71,6103688e1e1a3fc0e8201608,2021-07-29_21h51.25.400,Simcolourproject_2stim_asymm_v5,2020.2.10,Win32,60,61025ae37ef11b136ea224fe,,,,,,,,,3203,-27,-63,1,0,0,response5disk,,3,-18,-11.5,1,0,0,rectangle,-18,-11.5,1,0,0,,,,,,,-18,-11.5,1,0,0,,0,77,77,128,1,
,,,,,,,,,,,,,FF,,,,,,,,0.8658,,,,,,,,,,,,,,,,,,,,,,61033994adbe0652d3c39b71,6103688e1e1a3fc0e8201608,2021-07-29_21h51.25.400,Simcolourproject_2stim_asymm_v5,2020.2.10,Win32,60,61025ae37ef11b136ea224fe,,,,,,,,,275,26.5,71,1,0,0,response1disk,,7,8,11.5,1,0,0,rectangle,8,11.5,1,0,0,,,,,,,8,11.5,1,0,0,,0,78,78,30,1,
,,,,,,,,,,,,,FF,,,,,,,,1.5982,,,,,,,,,,,,,,,,,,,,,,61033994adbe0652d3c39b71,6103688e1e1a3fc0e8201608,2021-07-29_21h51.25.400,Simcolourproject_2stim_asymm_v5,2020.2.10,Win32,60,61025ae37ef11b136ea224fe,,,,,,,,,3109,70.5,40.5,1,0,0,response1disk,,6,-4.5,4,1,0,0,rectangle,-4.5,4,1,0,0,,,,,,,-4.5,4,1,0,0,,0,79,79,144,1,
,,,,,,,,,,,,,FF,,,,,,,,0.716,,,,,,,,,,,,,,,,,,,,,,61033994adbe0652d3c39b71,6103688e1e1a3fc0e8201608,2021-07-29_21h51.25.400,Simcolourproject_2stim_asymm_v5,2020.2.10,Win32,60,61025ae37ef11b136ea224fe,,,,,,,,,106,76,35.5,1,0,0,response1disk,,6,-11,2,1,0,0,rectangle,-11,2,1,0,0,,,,,,,-11,2,1,0,0,,0,80,80,139,1,
,,,,,,,,,,,,,FF,,,,,,,,1.0989,,,,,,,,,,,,,,,,,,,,,,61033994adbe0652d3c39b71,6103688e1e1a3fc0e8201608,2021-07-29_21h51.25.400,Simcolourproject_2stim_asymm_v5,2020.2.10,Win32,60,61025ae37ef11b136ea224fe,,,,,,,,,3116,36,76,1,0,0,response1disk,,7,-9.5,-2.5,1,0,0,rectangle,-9.5,-2.5,1,0,0,,,,,,,-9.5,-2.5,1,0,0,,0,81,81,77,1,
,,,,,,,,,,,,,FF,,,,,,,,0.716,,,,,,,,,,,,,,,,,,,,,,61033994adbe0652d3c39b71,6103688e1e1a3fc0e8201608,2021-07-29_21h51.25.400,Simcolourproject_2stim_asymm_v5,2020.2.10,Win32,60,61025ae37ef11b136ea224fe,,,,,,,,,1568,58,108.5,1,0,0,response1disk,,7,10,10,1,0,0,rectangle,10,10,1,0,0,,,,,,,10,10,1,0,0,,0,82,82,87,1,
,,,,,,,,,,,,,FF,,,,,,,,0.5496,,,,,,,,,,,,,,,,,,,,,,61033994adbe0652d3c39b71,6103688e1e1a3fc0e8201608,2021-07-29_21h51.25.400,Simcolourproject_2stim_asymm_v5,2020.2.10,Win32,60,61025ae37ef11b136ea224fe,,,,,,,,,3308,37.5,54.5,1,0,0,response1disk,,7,12.5,12.5,1,0,0,rectangle,12.5,12.5,1,0,0,,,,,,,12.5,12.5,1,0,0,,0,83,83,24,1,
,,,,,,,,,,,,,FF,,,,,,,,0.816,,,,,,,,,,,,,,,,,,,,,,61033994adbe0652d3c39b71,6103688e1e1a3fc0e8201608,2021-07-29_21h51.25.400,Simcolourproject_2stim_asymm_v5,2020.2.10,Win32,60,61025ae37ef11b136ea224fe,,,,,,,,,2474,33.5,-110,1,0,0,response3disk,,4,-18,6.5,1,0,0,rectangle,-18,6.5,1,0,0,,,,,,,-18,6.5,1,0,0,,0,84,84,70,1,
,,,,,,,,,,,,,FF,,,,,,,,1.465,,,,,,,,,,,,,,,,,,,,,,61033994adbe0652d3c39b71,6103688e1e1a3fc0e8201608,2021-07-29_21h51.25.400,Simcolourproject_2stim_asymm_v5,2020.2.10,Win32,60,61025ae37ef11b136ea224fe,,,,,,,,,1724,32.5,-42,1,0,0,response3disk,,4,-4.5,4,1,0,0,rectangle,-4.5,4,1,0,0,,,,,,,-4.5,4,1,0,0,,0,85,85,156,1,
,,,,,,,,,,,,,FF,,,,,,,,0.6493,,,,,,,,,,,,,,,,,,,,,,61033994adbe0652d3c39b71,6103688e1e1a3fc0e8201608,2021-07-29_21h51.25.400,Simcolourproject_2stim_asymm_v5,2020.2.10,Win32,60,61025ae37ef11b136ea224fe,,,,,,,,,3132,33,60,1,0,0,response1disk,,7,5.5,10,1,0,0,rectangle,5.5,10,1,0,0,,,,,,,5.5,10,1,0,0,,0,86,86,52,1,
,,,,,,,,,,,,,FF,,,,,,,,1.1155,,,,,,,,,,,,,,,,,,,,,,61033994adbe0652d3c39b71,6103688e1e1a3fc0e8201608,2021-07-29_21h51.25.400,Simcolourproject_2stim_asymm_v5,2020.2.10,Win32,60,61025ae37ef11b136ea224fe,,,,,,,,,3392,-73.5,-49.5,1,0,0,response5disk,,2,7,-14,1,0,0,rectangle,7,-14,1,0,0,,,,,,,7,-14,1,0,0,,0,87,87,60,1,
,,,,,,,,,,,,,FF,,,,,,,,0.9988,,,,,,,,,,,,,,,,,,,,,,61033994adbe0652d3c39b71,6103688e1e1a3fc0e8201608,2021-07-29_21h51.25.400,Simcolourproject_2stim_asymm_v5,2020.2.10,Win32,60,61025ae37ef11b136ea224fe,,,,,,,,,4057,34,-88,1,0,0,response3disk,,4,0,5,1,0,0,rectangle,0,5,1,0,0,,,,,,,0,5,1,0,0,,0,88,88,90,1,
,,,,,,,,,,,,,FF,,,,,,,,0.666,,,,,,,,,,,,,,,,,,,,,,61033994adbe0652d3c39b71,6103688e1e1a3fc0e8201608,2021-07-29_21h51.25.400,Simcolourproject_2stim_asymm_v5,2020.2.10,Win32,60,61025ae37ef11b136ea224fe,,,,,,,,,3795,15.5,39,1,0,0,response1disk,,7,-7.5,-1,1,0,0,rectangle,-7.5,-1,1,0,0,,,,,,,-7.5,-1,1,0,0,,0,89,89,138,1,
,,,,,,,,,,,,,FF,,,,,,,,0.5994,,,,,,,,,,,,,,,,,,,,,,61033994adbe0652d3c39b71,6103688e1e1a3fc0e8201608,2021-07-29_21h51.25.400,Simcolourproject_2stim_asymm_v5,2020.2.10,Win32,60,61025ae37ef11b136ea224fe,,,,,,,,,3864,35.5,69,1,0,0,response1disk,,7,6,6.5,1,0,0,rectangle,6,6.5,1,0,0,,,,,,,6,6.5,1,0,0,,0,90,90,159,1,
,,,,,,,,,,,,,FF,,,,,,,,1.0656,,,,,,,,,,,,,,,,,,,,,,61033994adbe0652d3c39b71,6103688e1e1a3fc0e8201608,2021-07-29_21h51.25.400,Simcolourproject_2stim_asymm_v5,2020.2.10,Win32,60,61025ae37ef11b136ea224fe,,,,,,,,,2874,51.5,-63,1,0,0,response3disk,,4,-0.5,-6.5,1,0,0,rectangle,-0.5,-6.5,1,0,0,,,,,,,-0.5,-6.5,1,0,0,,0,91,91,51,1,
,,,,,,,,,,,,,FF,,,,,,,,0.5162,,,,,,,,,,,,,,,,,,,,,,61033994adbe0652d3c39b71,6103688e1e1a3fc0e8201608,2021-07-29_21h51.25.400,Simcolourproject_2stim_asymm_v5,2020.2.10,Win32,60,61025ae37ef11b136ea224fe,,,,,,,,,588,47,52.5,1,0,0,response1disk,,7,4.5,2.5,1,0,0,rectangle,4.5,2.5,1,0,0,,,,,,,4.5,2.5,1,0,0,,0,92,92,2,1,
,,,,,,,,,,,,,FF,,,,,,,,1.3317,,,,,,,,,,,,,,,,,,,,,,61033994adbe0652d3c39b71,6103688e1e1a3fc0e8201608,2021-07-29_21h51.25.400,Simcolourproject_2stim_asymm_v5,2020.2.10,Win32,60,61025ae37ef11b136ea224fe,,,,,,,,,2668,57,-65.5,1,0,0,response3disk,,4,5.5,3,1,0,0,rectangle,5.5,3,1,0,0,,,,,,,5.5,3,1,0,0,,0,93,93,27,1,
,,,,,,,,,,,,,FF,,,,,,,,0.5495,,,,,,,,,,,,,,,,,,,,,,61033994adbe0652d3c39b71,6103688e1e1a3fc0e8201608,2021-07-29_21h51.25.400,Simcolourproject_2stim_asymm_v5,2020.2.10,Win32,60,61025ae37ef11b136ea224fe,,,,,,,,,2278,52,80.5,1,0,0,response1disk,,7,2,9.5,1,0,0,rectangle,2,9.5,1,0,0,,,,,,,2,9.5,1,0,0,,0,94,94,129,1,
,,,,,,,,,,,,,FF,,,,,,,,0.7661,,,,,,,,,,,,,,,,,,,,,,61033994adbe0652d3c39b71,6103688e1e1a3fc0e8201608,2021-07-29_21h51.25.400,Simcolourproject_2stim_asymm_v5,2020.2.10,Win32,60,61025ae37ef11b136ea224fe,,,,,,,,,1552,47.5,20,1,0,0,response1disk,,6,-16,-2.5,1,0,0,rectangle,-16,-2.5,1,0,0,,,,,,,-16,-2.5,1,0,0,,0,95,95,16,1,
,,,,,,,,,,,,,FF,,,,,,,,0.832,,,,,,,,,,,,,,,,,,,,,,61033994adbe0652d3c39b71,6103688e1e1a3fc0e8201608,2021-07-29_21h51.25.400,Simcolourproject_2stim_asymm_v5,2020.2.10,Win32,60,61025ae37ef11b136ea224fe,,,,,,,,,818,63,36.5,1,0,0,response1disk,,6,-21,-13.5,1,0,0,rectangle,-21,-13.5,1,0,0,,,,,,,-21,-13.5,1,0,0,,0,96,96,118,1,
,,,,,,,,,,,,,FF,,,,,,,,0.7159,,,,,,,,,,,,,,,,,,,,,,61033994adbe0652d3c39b71,6103688e1e1a3fc0e8201608,2021-07-29_21h51.25.400,Simcolourproject_2stim_asymm_v5,2020.2.10,Win32,60,61025ae37ef11b136ea224fe,,,,,,,,,3415,33.5,74.5,1,0,0,response1disk,,7,4,6,1,0,0,rectangle,4,6,1,0,0,,,,,,,4,6,1,0,0,,0,97,97,1,1,
,,,,,,,,,,,,,FF,,,,,,,,0.5661,,,,,,,,,,,,,,,,,,,,,,61033994adbe0652d3c39b71,6103688e1e1a3fc0e8201608,2021-07-29_21h51.25.400,Simcolourproject_2stim_asymm_v5,2020.2.10,Win32,60,61025ae37ef11b136ea224fe,,,,,,,,,2972,46.5,71.5,1,0,0,response1disk,,7,1.5,-4.5,1,0,0,rectangle,1.5,-4.5,1,0,0,,,,,,,1.5,-4.5,1,0,0,,0,98,98,71,1,
,,,,,,,,,,,,,FF,,,,,,,,0.483,,,,,,,,,,,,,,,,,,,,,,61033994adbe0652d3c39b71,6103688e1e1a3fc0e8201608,2021-07-29_21h51.25.400,Simcolourproject_2stim_asymm_v5,2020.2.10,Win32,60,61025ae37ef11b136ea224fe,,,,,,,,,584,48.5,70,1,0,0,response1disk,,7,6.5,4,1,0,0,rectangle,6.5,4,1,0,0,,,,,,,6.5,4,1,0,0,,0,99,99,43,1,
,,,,,,,,,,,,,FF,,,,,,,,0.8327,,,,,,,,,,,,,,,,,,,,,,61033994adbe0652d3c39b71,6103688e1e1a3fc0e8201608,2021-07-29_21h51.25.400,Simcolourproject_2stim_asymm_v5,2020.2.10,Win32,60,61025ae37ef11b136ea224fe,,,,,,,,,367,-43,-86.5,1,0,0,response5disk,,3,2,10,1,0,0,rectangle,2,10,1,0,0,,,,,,,2,10,1,0,0,,0,100,100,10,1,
,,,,,,,,,,,,,FF,,,,,,,,1.2157,,,,,,,,,,,,,,,,,,,,,,61033994adbe0652d3c39b71,6103688e1e1a3fc0e8201608,2021-07-29_21h51.25.400,Simcolourproject_2stim_asymm_v5,2020.2.10,Win32,60,61025ae37ef11b136ea224fe,,,,,,,,,3611,21,-55.5,1,0,0,response3disk,,4,-16,2,1,0,0,rectangle,-16,2,1,0,0,,,,,,,-16,2,1,0,0,,0,101,101,15,1,
,,,,,,,,,,,,,FF,,,,,,,,1.7646,,,,,,,,,,,,,,,,,,,,,,61033994adbe0652d3c39b71,6103688e1e1a3fc0e8201608,2021-07-29_21h51.25.400,Simcolourproject_2stim_asymm_v5,2020.2.10,Win32,60,61025ae37ef11b136ea224fe,,,,,,,,,2465,73,36.5,1,0,0,response1disk,,6,6.5,-0.5,1,0,0,rectangle,6.5,-0.5,1,0,0,,,,,,,6.5,-0.5,1,0,0,,0,102,102,35,1,
,,,,,,,,,,,,,FF,,,,,,,,1.0991,,,,,,,,,,,,,,,,,,,,,,61033994adbe0652d3c39b71,6103688e1e1a3fc0e8201608,2021-07-29_21h51.25.400,Simcolourproject_2stim_asymm_v5,2020.2.10,Win32,60,61025ae37ef11b136ea224fe,,,,,,,,,3066,34,-96,1,0,0,response3disk,,4,-7.5,0,1,0,0,rectangle,-7.5,0,1,0,0,,,,,,,-7.5,0,1,0,0,,0,103,103,152,1,
,,,,,,,,,,,,,FF,,,,,,,,0.9823,,,,,,,,,,,,,,,,,,,,,,61033994adbe0652d3c39b71,6103688e1e1a3fc0e8201608,2021-07-29_21h51.25.400,Simcolourproject_2stim_asymm_v5,2020.2.10,Win32,60,61025ae37ef11b136ea224fe,,,,,,,,,2295,-73.5,-53,1,0,0,response5disk,,2,4,7.5,1,0,0,rectangle,4,7.5,1,0,0,,,,,,,4,7.5,1,0,0,,0,104,104,85,1,
,,,,,,,,,,,,,FF,,,,,,,,0.9157,,,,,,,,,,,,,,,,,,,,,,61033994adbe0652d3c39b71,6103688e1e1a3fc0e8201608,2021-07-29_21h51.25.400,Simcolourproject_2stim_asymm_v5,2020.2.10,Win32,60,61025ae37ef11b136ea224fe,,,,,,,,,355,-72,-43.5,1,0,0,response5disk,,2,-15.5,-2,1,0,0,rectangle,-15.5,-2,1,0,0,,,,,,,-15.5,-2,1,0,0,,0,105,105,127,1,
,,,,,,,,,,,,,FF,,,,,,,,0.7159,,,,,,,,,,,,,,,,,,,,,,61033994adbe0652d3c39b71,6103688e1e1a3fc0e8201608,2021-07-29_21h51.25.400,Simcolourproject_2stim_asymm_v5,2020.2.10,Win32,60,61025ae37ef11b136ea224fe,,,,,,,,,2189,34.5,48,1,0,0,response1disk,,7,5,-4.5,1,0,0,rectangle,5,-4.5,1,0,0,,,,,,,5,-4.5,1,0,0,,0,106,106,69,1,
,,,,,,,,,,,,,FF,,,,,,,,1.3151,,,,,,,,,,,,,,,,,,,,,,61033994adbe0652d3c39b71,6103688e1e1a3fc0e8201608,2021-07-29_21h51.25.400,Simcolourproject_2stim_asymm_v5,2020.2.10,Win32,60,61025ae37ef11b136ea224fe,,,,,,,,,2882,106,-49,1,0,0,response3disk,,5,-0.5,-10.5,1,0,0,rectangle,-0.5,-10.5,1,0,0,,,,,,,-0.5,-10.5,1,0,0,,0,107,107,21,1,
,,,,,,,,,,,,,FF,,,,,,,,0.8158,,,,,,,,,,,,,,,,,,,,,,61033994adbe0652d3c39b71,6103688e1e1a3fc0e8201608,2021-07-29_21h51.25.400,Simcolourproject_2stim_asymm_v5,2020.2.10,Win32,60,61025ae37ef11b136ea224fe,,,,,,,,,3788,67.5,-50.5,1,0,0,response3disk,,5,-8,12,1,0,0,rectangle,-8,12,1,0,0,,,,,,,-8,12,1,0,0,,0,108,108,82,1,
,,,,,,,,,,,,,FF,,,,,,,,0.8823,,,,,,,,,,,,,,,,,,,,,,61033994adbe0652d3c39b71,6103688e1e1a3fc0e8201608,2021-07-29_21h51.25.400,Simcolourproject_2stim_asymm_v5,2020.2.10,Win32,60,61025ae37ef11b136ea224fe,,,,,,,,,1691,62.5,-38,1,0,0,response3disk,,5,-32,13,1,0,0,rectangle,-32,13,1,0,0,,,,,,,-32,13,1,0,0,,0,109,109,146,1,
,,,,,,,,,,,,,FF,,,,,,,,0.9989,,,,,,,,,,,,,,,,,,,,,,61033994adbe0652d3c39b71,6103688e1e1a3fc0e8201608,2021-07-29_21h51.25.400,Simcolourproject_2stim_asymm_v5,2020.2.10,Win32,60,61025ae37ef11b136ea224fe,,,,,,,,,1190,77,56,1,0,0,response1disk,,6,2.5,1.5,1,0,0,rectangle,2.5,1.5,1,0,0,,,,,,,2.5,1.5,1,0,0,,0,110,110,89,1,
,,,,,,,,,,,,,FF,,,,,,,,0.6498,,,,,,,,,,,,,,,,,,,,,,61033994adbe0652d3c39b71,6103688e1e1a3fc0e8201608,2021-07-29_21h51.25.400,Simcolourproject_2stim_asymm_v5,2020.2.10,Win32,60,61025ae37ef11b136ea224fe,,,,,,,,,2267,34.5,80,1,0,0,response1disk,,7,7.5,3,1,0,0,rectangle,7.5,3,1,0,0,,,,,,,7.5,3,1,0,0,,0,111,111,137,1,
,,,,,,,,,,,,,FF,,,,,,,,0.8825,,,,,,,,,,,,,,,,,,,,,,61033994adbe0652d3c39b71,6103688e1e1a3fc0e8201608,2021-07-29_21h51.25.400,Simcolourproject_2stim_asymm_v5,2020.2.10,Win32,60,61025ae37ef11b136ea224fe,,,,,,,,,4016,53.5,66,1,0,0,response1disk,,7,2,-5.5,1,0,0,rectangle,2,-5.5,1,0,0,,,,,,,2,-5.5,1,0,0,,0,112,112,120,1,
,,,,,,,,,,,,,FF,,,,,,,,0.9823,,,,,,,,,,,,,,,,,,,,,,61033994adbe0652d3c39b71,6103688e1e1a3fc0e8201608,2021-07-29_21h51.25.400,Simcolourproject_2stim_asymm_v5,2020.2.10,Win32,60,61025ae37ef11b136ea224fe,,,,,,,,,374,55.5,-41.5,1,0,0,response3disk,,5,-7,-9.5,1,0,0,rectangle,-7,-9.5,1,0,0,,,,,,,-7,-9.5,1,0,0,,0,113,113,68,1,
,,,,,,,,,,,,,FF,,,,,,,,0.566,,,,,,,,,,,,,,,,,,,,,,61033994adbe0652d3c39b71,6103688e1e1a3fc0e8201608,2021-07-29_21h51.25.400,Simcolourproject_2stim_asymm_v5,2020.2.10,Win32,60,61025ae37ef11b136ea224fe,,,,,,,,,2004,30.5,72,1,0,0,response1disk,,7,15,10.5,1,0,0,rectangle,15,10.5,1,0,0,,,,,,,15,10.5,1,0,0,,0,114,114,103,1,
,,,,,,,,,,,,,FF,,,,,,,,1.4485,,,,,,,,,,,,,,,,,,,,,,61033994adbe0652d3c39b71,6103688e1e1a3fc0e8201608,2021-07-29_21h51.25.400,Simcolourproject_2stim_asymm_v5,2020.2.10,Win32,60,61025ae37ef11b136ea224fe,,,,,,,,,1782,71.5,-22,1,0,0,response3disk,,5,13.5,1,1,0,0,rectangle,13.5,1,1,0,0,,,,,,,13.5,1,1,0,0,,0,115,115,116,1,
,,,,,,,,,,,,,FF,,,,,,,,0.4497,,,,,,,,,,,,,,,,,,,,,,61033994adbe0652d3c39b71,6103688e1e1a3fc0e8201608,2021-07-29_21h51.25.400,Simcolourproject_2stim_asymm_v5,2020.2.10,Win32,60,61025ae37ef11b136ea224fe,,,,,,,,,1014,35.5,49,1,0,0,response1disk,,7,6.5,4.5,1,0,0,rectangle,6.5,4.5,1,0,0,,,,,,,6.5,4.5,1,0,0,,0,116,116,63,1,
,,,,,,,,,,,,,FF,,,,,,,,0.6662,,,,,,,,,,,,,,,,,,,,,,61033994adbe0652d3c39b71,6103688e1e1a3fc0e8201608,2021-07-29_21h51.25.400,Simcolourproject_2stim_asymm_v5,2020.2.10,Win32,60,61025ae37ef11b136ea224fe,,,,,,,,,1704,32.5,44,1,0,0,response1disk,,7,5,5,1,0,0,rectangle,5,5,1,0,0,,,,,,,5,5,1,0,0,,0,117,117,131,1,
,,,,,,,,,,,,,FF,,,,,,,,0.4494,,,,,,,,,,,,,,,,,,,,,,61033994adbe0652d3c39b71,6103688e1e1a3fc0e8201608,2021-07-29_21h51.25.400,Simcolourproject_2stim_asymm_v5,2020.2.10,Win32,60,61025ae37ef11b136ea224fe,,,,,,,,,1391,24.5,43.5,1,0,0,response1disk,,7,-6,-0.5,1,0,0,rectangle,-6,-0.5,1,0,0,,,,,,,-6,-0.5,1,0,0,,0,118,118,66,1,
,,,,,,,,,,,,,FF,,,,,,,,0.6827,,,,,,,,,,,,,,,,,,,,,,61033994adbe0652d3c39b71,6103688e1e1a3fc0e8201608,2021-07-29_21h51.25.400,Simcolourproject_2stim_asymm_v5,2020.2.10,Win32,60,61025ae37ef11b136ea224fe,,,,,,,,,2336,40,38,1,0,0,response1disk,,6,15.5,2,1,0,0,rectangle,15.5,2,1,0,0,,,,,,,15.5,2,1,0,0,,0,119,119,22,1,
,,,,,,,,,,,,,FF,,,,,,,,0.7992,,,,,,,,,,,,,,,,,,,,,,61033994adbe0652d3c39b71,6103688e1e1a3fc0e8201608,2021-07-29_21h51.25.400,Simcolourproject_2stim_asymm_v5,2020.2.10,Win32,60,61025ae37ef11b136ea224fe,,,,,,,,,666,27,59,1,0,0,response1disk,,7,1.5,-0.5,1,0,0,rectangle,1.5,-0.5,1,0,0,,,,,,,1.5,-0.5,1,0,0,,0,120,120,38,1,
,,,,,,,,,,,,,FF,,,,,,,,0.5329,,,,,,,,,,,,,,,,,,,,,,61033994adbe0652d3c39b71,6103688e1e1a3fc0e8201608,2021-07-29_21h51.25.400,Simcolourproject_2stim_asymm_v5,2020.2.10,Win32,60,61025ae37ef11b136ea224fe,,,,,,,,,3566,31.5,75.5,1,0,0,response1disk,,7,22,-6.5,1,0,0,rectangle,22,-6.5,1,0,0,,,,,,,22,-6.5,1,0,0,,0,121,121,48,1,
,,,,,,,,,,,,,FF,,,,,,,,0.8486,,,,,,,,,,,,,,,,,,,,,,61033994adbe0652d3c39b71,6103688e1e1a3fc0e8201608,2021-07-29_21h51.25.400,Simcolourproject_2stim_asymm_v5,2020.2.10,Win32,60,61025ae37ef11b136ea224fe,,,,,,,,,3569,24,-61,1,0,0,response3disk,,4,6,-1.5,1,0,0,rectangle,6,-1.5,1,0,0,,,,,,,6,-1.5,1,0,0,,0,122,122,7,1,
,,,,,,,,,,,,,FF,,,,,,,,0.7824,,,,,,,,,,,,,,,,,,,,,,61033994adbe0652d3c39b71,6103688e1e1a3fc0e8201608,2021-07-29_21h51.25.400,Simcolourproject_2stim_asymm_v5,2020.2.10,Win32,60,61025ae37ef11b136ea224fe,,,,,,,,,983,21.5,39,1,0,0,response1disk,,7,11.5,8.5,1,0,0,rectangle,11.5,8.5,1,0,0,,,,,,,11.5,8.5,1,0,0,,0,123,123,32,1,
,,,,,,,,,,,,,FF,,,,,,,,0.733,,,,,,,,,,,,,,,,,,,,,,61033994adbe0652d3c39b71,6103688e1e1a3fc0e8201608,2021-07-29_21h51.25.400,Simcolourproject_2stim_asymm_v5,2020.2.10,Win32,60,61025ae37ef11b136ea224fe,,,,,,,,,2751,21,50.5,1,0,0,response1disk,,7,9,13,1,0,0,rectangle,9,13,1,0,0,,,,,,,9,13,1,0,0,,0,124,124,83,1,
,,,,,,,,,,,,,FF,,,,,,,,1.049,,,,,,,,,,,,,,,,,,,,,,61033994adbe0652d3c39b71,6103688e1e1a3fc0e8201608,2021-07-29_21h51.25.400,Simcolourproject_2stim_asymm_v5,2020.2.10,Win32,60,61025ae37ef11b136ea224fe,,,,,,,,,2918,19.5,62.5,1,0,0,response1disk,,7,-1.5,-4,1,0,0,rectangle,-1.5,-4,1,0,0,,,,,,,-1.5,-4,1,0,0,,0,125,125,74,1,
,,,,,,,,,,,,,FF,,,,,,,,0.6494,,,,,,,,,,,,,,,,,,,,,,61033994adbe0652d3c39b71,6103688e1e1a3fc0e8201608,2021-07-29_21h51.25.400,Simcolourproject_2stim_asymm_v5,2020.2.10,Win32,60,61025ae37ef11b136ea224fe,,,,,,,,,1843,27,52.5,1,0,0,response1disk,,7,-2.5,3.5,1,0,0,rectangle,-2.5,3.5,1,0,0,,,,,,,-2.5,3.5,1,0,0,,0,126,126,62,1,
,,,,,,,,,,,,,FF,,,,,,,,1.1819,,,,,,,,,,,,,,,,,,,,,,61033994adbe0652d3c39b71,6103688e1e1a3fc0e8201608,2021-07-29_21h51.25.400,Simcolourproject_2stim_asymm_v5,2020.2.10,Win32,60,61025ae37ef11b136ea224fe,,,,,,,,,1759,42,-79,1,0,0,response3disk,,4,-14,-1,1,0,0,rectangle,-14,-1,1,0,0,,,,,,,-14,-1,1,0,0,,0,127,127,132,1,
,,,,,,,,,,,,,FF,,,,,,,,0.5826,,,,,,,,,,,,,,,,,,,,,,61033994adbe0652d3c39b71,6103688e1e1a3fc0e8201608,2021-07-29_21h51.25.400,Simcolourproject_2stim_asymm_v5,2020.2.10,Win32,60,61025ae37ef11b136ea224fe,,,,,,,,,4023,-25.5,-52.5,1,0,0,response5disk,,3,2,11.5,1,0,0,rectangle,2,11.5,1,0,0,,,,,,,2,11.5,1,0,0,,0,128,128,13,1,
,,,,,,,,,,,,,FF,,,,,,,,0.6493,,,,,,,,,,,,,,,,,,,,,,61033994adbe0652d3c39b71,6103688e1e1a3fc0e8201608,2021-07-29_21h51.25.400,Simcolourproject_2stim_asymm_v5,2020.2.10,Win32,60,61025ae37ef11b136ea224fe,,,,,,,,,267,24,60,1,0,0,response1disk,,7,-4,5,1,0,0,rectangle,-4,5,1,0,0,,,,,,,-4,5,1,0,0,,0,129,129,44,1,
,,,,,,,,,,,,,FF,,,,,,,,1.2988,,,,,,,,,,,,,,,,,,,,,,61033994adbe0652d3c39b71,6103688e1e1a3fc0e8201608,2021-07-29_21h51.25.400,Simcolourproject_2stim_asymm_v5,2020.2.10,Win32,60,61025ae37ef11b136ea224fe,,,,,,,,,2753,31.5,64.5,1,0,0,response1disk,,7,11.5,7.5,1,0,0,rectangle,11.5,7.5,1,0,0,,,,,,,11.5,7.5,1,0,0,,0,130,130,158,1,
,,,,,,,,,,,,,FF,,,,,,,,1.3985,,,,,,,,,,,,,,,,,,,,,,61033994adbe0652d3c39b71,6103688e1e1a3fc0e8201608,2021-07-29_21h51.25.400,Simcolourproject_2stim_asymm_v5,2020.2.10,Win32,60,61025ae37ef11b136ea224fe,,,,,,,,,44,93,-31,1,0,0,response3disk,,5,-26.5,9.5,1,0,0,rectangle,-26.5,9.5,1,0,0,,,,,,,-26.5,9.5,1,0,0,,0,131,131,111,1,
,,,,,,,,,,,,,FF,,,,,,,,1.2485,,,,,,,,,,,,,,,,,,,,,,61033994adbe0652d3c39b71,6103688e1e1a3fc0e8201608,2021-07-29_21h51.25.400,Simcolourproject_2stim_asymm_v5,2020.2.10,Win32,60,61025ae37ef11b136ea224fe,,,,,,,,,3483,88.5,44,1,0,0,response1disk,,6,15,-0.5,1,0,0,rectangle,-100.5,53,1,0,0,response7disk_3,TRUE,1,1,"[1,133,196,9,237,220,289,221,32,145,169,213,180,175,64,60,272,293,245,168]",1.382,19.5,3.5,1,0,0,rectangle,0,132,132,54,1,
,,,,,,,,,,,,,FF,,,,,,,,1.6147,,,,,,,,,,,,,,,,,,,,,,61033994adbe0652d3c39b71,6103688e1e1a3fc0e8201608,2021-07-29_21h51.25.400,Simcolourproject_2stim_asymm_v5,2020.2.10,Win32,60,61025ae37ef11b136ea224fe,,,,,,,,,3441,81.5,48.5,1,0,0,response1disk,,6,-4.5,7.5,1,0,0,rectangle,-4.5,7.5,1,0,0,,,,,,,-4.5,7.5,1,0,0,,0,133,133,76,1,
,,,,,,,,,,,,,FF,,,,,,,,0.9655,,,,,,,,,,,,,,,,,,,,,,61033994adbe0652d3c39b71,6103688e1e1a3fc0e8201608,2021-07-29_21h51.25.400,Simcolourproject_2stim_asymm_v5,2020.2.10,Win32,60,61025ae37ef11b136ea224fe,,,,,,,,,2115,37,-86,1,0,0,response3disk,,4,-1,-2,1,0,0,rectangle,-1,-2,1,0,0,,,,,,,-1,-2,1,0,0,,0,134,134,79,1,
,,,,,,,,,,,,,FF,,,,,,,,0.716,,,,,,,,,,,,,,,,,,,,,,61033994adbe0652d3c39b71,6103688e1e1a3fc0e8201608,2021-07-29_21h51.25.400,Simcolourproject_2stim_asymm_v5,2020.2.10,Win32,60,61025ae37ef11b136ea224fe,,,,,,,,,103,-46,-93.5,1,0,0,response5disk,,3,2.5,-4.5,1,0,0,rectangle,2.5,-4.5,1,0,0,,,,,,,2.5,-4.5,1,0,0,,0,135,135,130,1,
,,,,,,,,,,,,,FF,,,,,,,,0.7829,,,,,,,,,,,,,,,,,,,,,,61033994adbe0652d3c39b71,6103688e1e1a3fc0e8201608,2021-07-29_21h51.25.400,Simcolourproject_2stim_asymm_v5,2020.2.10,Win32,60,61025ae37ef11b136ea224fe,,,,,,,,,2487,28.5,-37,1,0,0,response3disk,,4,1,9.5,1,0,0,rectangle,1,9.5,1,0,0,,,,,,,1,9.5,1,0,0,,0,136,136,149,1,
,,,,,,,,,,,,,FF,,,,,,,,0.7324,,,,,,,,,,,,,,,,,,,,,,61033994adbe0652d3c39b71,6103688e1e1a3fc0e8201608,2021-07-29_21h51.25.400,Simcolourproject_2stim_asymm_v5,2020.2.10,Win32,60,61025ae37ef11b136ea224fe,,,,,,,,,2666,-44,-47.5,1,0,0,response5disk,,3,-10.5,1.5,1,0,0,rectangle,-10.5,1.5,1,0,0,,,,,,,-10.5,1.5,1,0,0,,0,137,137,110,1,
,,,,,,,,,,,,,FF,,,,,,,,0.9158,,,,,,,,,,,,,,,,,,,,,,61033994adbe0652d3c39b71,6103688e1e1a3fc0e8201608,2021-07-29_21h51.25.400,Simcolourproject_2stim_asymm_v5,2020.2.10,Win32,60,61025ae37ef11b136ea224fe,,,,,,,,,2913,23.5,111.5,1,0,0,response1disk,,7,0,8,1,0,0,rectangle,0,8,1,0,0,,,,,,,0,8,1,0,0,,0,138,138,142,1,
,,,,,,,,,,,,,FF,,,,,,,,0.9988,,,,,,,,,,,,,,,,,,,,,,61033994adbe0652d3c39b71,6103688e1e1a3fc0e8201608,2021-07-29_21h51.25.400,Simcolourproject_2stim_asymm_v5,2020.2.10,Win32,60,61025ae37ef11b136ea224fe,,,,,,,,,1679,33.5,-77.5,1,0,0,response3disk,,4,5.5,-4,1,0,0,rectangle,5.5,-4,1,0,0,,,,,,,5.5,-4,1,0,0,,0,139,139,58,1,
,,,,,,,,,,,,,FF,,,,,,,,1.1824,,,,,,,,,,,,,,,,,,,,,,61033994adbe0652d3c39b71,6103688e1e1a3fc0e8201608,2021-07-29_21h51.25.400,Simcolourproject_2stim_asymm_v5,2020.2.10,Win32,60,61025ae37ef11b136ea224fe,,,,,,,,,1,-30.5,-72,1,0,0,response5disk,,3,-10,-5.5,1,0,0,rectangle,-10,-5.5,1,0,0,,,,,,,-10,-5.5,1,0,0,,0,140,140,119,1,
,,,,,,,,,,,,,FF,,,,,,,,0.4996,,,,,,,,,,,,,,,,,,,,,,61033994adbe0652d3c39b71,6103688e1e1a3fc0e8201608,2021-07-29_21h51.25.400,Simcolourproject_2stim_asymm_v5,2020.2.10,Win32,60,61025ae37ef11b136ea224fe,,,,,,,,,1694,48,60,1,0,0,response1disk,,7,-6,3,1,0,0,rectangle,-6,3,1,0,0,,,,,,,-6,3,1,0,0,,0,141,141,3,1,
,,,,,,,,,,,,,FF,,,,,,,,0.8157,,,,,,,,,,,,,,,,,,,,,,61033994adbe0652d3c39b71,6103688e1e1a3fc0e8201608,2021-07-29_21h51.25.400,Simcolourproject_2stim_asymm_v5,2020.2.10,Win32,60,61025ae37ef11b136ea224fe,,,,,,,,,1438,68,-43.5,1,0,0,response3disk,,5,-14,1,1,0,0,rectangle,-14,1,1,0,0,,,,,,,-14,1,1,0,0,,0,142,142,125,1,
,,,,,,,,,,,,,FF,,,,,,,,0.5494,,,,,,,,,,,,,,,,,,,,,,61033994adbe0652d3c39b71,6103688e1e1a3fc0e8201608,2021-07-29_21h51.25.400,Simcolourproject_2stim_asymm_v5,2020.2.10,Win32,60,61025ae37ef11b136ea224fe,,,,,,,,,3293,25,49,1,0,0,response1disk,,7,5,6,1,0,0,rectangle,5,6,1,0,0,,,,,,,5,6,1,0,0,,0,143,143,59,1,
,,,,,,,,,,,,,FF,,,,,,,,0.5994,,,,,,,,,,,,,,,,,,,,,,61033994adbe0652d3c39b71,6103688e1e1a3fc0e8201608,2021-07-29_21h51.25.400,Simcolourproject_2stim_asymm_v5,2020.2.10,Win32,60,61025ae37ef11b136ea224fe,,,,,,,,,591,30.5,44,1,0,0,response1disk,,7,8,6,1,0,0,rectangle,78.5,-26,1,0,0,response3disk_3,TRUE,5,5,"[1,133,196,9,237,220,289,221,32,145,169,213,180,175,64,60,272,293,245,168]",1.5649,24.5,-6,1,0,0,rectangle,0,144,144,8,1,
,,,,,,,,,,,,,FF,,,,,,,,0.6329,,,,,,,,,,,,,,,,,,,,,,61033994adbe0652d3c39b71,6103688e1e1a3fc0e8201608,2021-07-29_21h51.25.400,Simcolourproject_2stim_asymm_v5,2020.2.10,Win32,60,61025ae37ef11b136ea224fe,,,,,,,,,1806,33.5,45.5,1,0,0,response1disk,,7,-1.5,0.5,1,0,0,rectangle,-1.5,0.5,1,0,0,,,,,,,-1.5,0.5,1,0,0,,0,145,145,14,1,
,,,,,,,,,,,,,FF,,,,,,,,0.9323,,,,,,,,,,,,,,,,,,,,,,61033994adbe0652d3c39b71,6103688e1e1a3fc0e8201608,2021-07-29_21h51.25.400,Simcolourproject_2stim_asymm_v5,2020.2.10,Win32,60,61025ae37ef11b136ea224fe,,,,,,,,,158,21.5,-58.5,1,0,0,response3disk,,4,-3,-8,1,0,0,rectangle,-3,-8,1,0,0,,,,,,,-3,-8,1,0,0,,0,146,146,37,1,
,,,,,,,,,,,,,FF,,,,,,,,1.0156,,,,,,,,,,,,,,,,,,,,,,61033994adbe0652d3c39b71,6103688e1e1a3fc0e8201608,2021-07-29_21h51.25.400,Simcolourproject_2stim_asymm_v5,2020.2.10,Win32,60,61025ae37ef11b136ea224fe,,,,,,,,,3707,-27.5,63.5,1,0,0,response7disk,,0,-6,11.5,1,0,0,rectangle,-6,11.5,1,0,0,,,,,,,-6,11.5,1,0,0,,0,147,147,23,1,
,,,,,,,,,,,,,FF,,,,,,,,0.5993,,,,,,,,,,,,,,,,,,,,,,61033994adbe0652d3c39b71,6103688e1e1a3fc0e8201608,2021-07-29_21h51.25.400,Simcolourproject_2stim_asymm_v5,2020.2.10,Win32,60,61025ae37ef11b136ea224fe,,,,,,,,,1178,63.5,66.5,1,0,0,response1disk,,7,18,0,1,0,0,rectangle,18,0,1,0,0,,,,,,,18,0,1,0,0,,0,148,148,20,1,
,,,,,,,,,,,,,FF,,,,,,,,2.2804,,,,,,,,,,,,,,,,,,,,,,61033994adbe0652d3c39b71,6103688e1e1a3fc0e8201608,2021-07-29_21h51.25.400,Simcolourproject_2stim_asymm_v5,2020.2.10,Win32,60,61025ae37ef11b136ea224fe,,,,,,,,,3487,74.5,34.5,1,0,0,response1disk,,6,7,8,1,0,0,rectangle,7,8,1,0,0,,,,,,,7,8,1,0,0,,0,149,149,28,1,
,,,,,,,,,,,,,FF,,,,,,,,1.2985,,,,,,,,,,,,,,,,,,,,,,61033994adbe0652d3c39b71,6103688e1e1a3fc0e8201608,2021-07-29_21h51.25.400,Simcolourproject_2stim_asymm_v5,2020.2.10,Win32,60,61025ae37ef11b136ea224fe,,,,,,,,,2630,92.5,48.5,1,0,0,response1disk,,6,11.5,8.5,1,0,0,rectangle,11.5,8.5,1,0,0,,,,,,,11.5,8.5,1,0,0,,0,150,150,105,1,
,,,,,,,,,,,,,FF,,,,,,,,0.7995,,,,,,,,,,,,,,,,,,,,,,61033994adbe0652d3c39b71,6103688e1e1a3fc0e8201608,2021-07-29_21h51.25.400,Simcolourproject_2stim_asymm_v5,2020.2.10,Win32,60,61025ae37ef11b136ea224fe,,,,,,,,,1729,38.5,-54,1,0,0,response3disk,,4,8.5,0.5,1,0,0,rectangle,8.5,0.5,1,0,0,,,,,,,8.5,0.5,1,0,0,,0,151,151,124,1,
,,,,,,,,,,,,,FF,,,,,,,,1.449,,,,,,,,,,,,,,,,,,,,,,61033994adbe0652d3c39b71,6103688e1e1a3fc0e8201608,2021-07-29_21h51.25.400,Simcolourproject_2stim_asymm_v5,2020.2.10,Win32,60,61025ae37ef11b136ea224fe,,,,,,,,,2684,63,106.5,1,0,0,response1disk,,7,-25.5,-11.5,1,0,0,rectangle,-25.5,-11.5,1,0,0,,,,,,,-25.5,-11.5,1,0,0,,0,152,152,135,1,
,,,,,,,,,,,,,FF,,,,,,,,4.145,,,,,,,,,,,,,,,,,,,,,,61033994adbe0652d3c39b71,6103688e1e1a3fc0e8201608,2021-07-29_21h51.25.400,Simcolourproject_2stim_asymm_v5,2020.2.10,Win32,60,61025ae37ef11b136ea224fe,,,,,,,,,547,-34,-81.5,1,0,0,response5disk,,3,1.5,3.5,1,0,0,rectangle,1.5,3.5,1,0,0,,,,,,,1.5,3.5,1,0,0,,0,153,153,99,1,
,,,,,,,,,,,,,FF,,,,,,,,0.8658,,,,,,,,,,,,,,,,,,,,,,61033994adbe0652d3c39b71,6103688e1e1a3fc0e8201608,2021-07-29_21h51.25.400,Simcolourproject_2stim_asymm_v5,2020.2.10,Win32,60,61025ae37ef11b136ea224fe,,,,,,,,,2690,88,-36,1,0,0,response3disk,,5,11,-8.5,1,0,0,rectangle,11,-8.5,1,0,0,,,,,,,11,-8.5,1,0,0,,0,154,154,150,1,
,,,,,,,,,,,,,FF,,,,,,,,0.6491,,,,,,,,,,,,,,,,,,,,,,61033994adbe0652d3c39b71,6103688e1e1a3fc0e8201608,2021-07-29_21h51.25.400,Simcolourproject_2stim_asymm_v5,2020.2.10,Win32,60,61025ae37ef11b136ea224fe,,,,,,,,,1002,52.5,33.5,1,0,0,response1disk,,6,2.5,0,1,0,0,rectangle,2.5,0,1,0,0,,,,,,,2.5,0,1,0,0,,0,155,155,134,1,
,,,,,,,,,,,,,FF,,,,,,,,0.7322,,,,,,,,,,,,,,,,,,,,,,61033994adbe0652d3c39b71,6103688e1e1a3fc0e8201608,2021-07-29_21h51.25.400,Simcolourproject_2stim_asymm_v5,2020.2.10,Win32,60,61025ae37ef11b136ea224fe,,,,,,,,,2428,-39,-64.5,1,0,0,response5disk,,3,-2,-0.5,1,0,0,rectangle,-2,-0.5,1,0,0,,,,,,,-2,-0.5,1,0,0,,0,156,156,98,1,
,,,,,,,,,,,,,FF,,,,,,,,0.533,,,,,,,,,,,,,,,,,,,,,,61033994adbe0652d3c39b71,6103688e1e1a3fc0e8201608,2021-07-29_21h51.25.400,Simcolourproject_2stim_asymm_v5,2020.2.10,Win32,60,61025ae37ef11b136ea224fe,,,,,,,,,4291,29,55,1,0,0,response1disk,,7,16,11,1,0,0,rectangle,16,11,1,0,0,,,,,,,16,11,1,0,0,,0,157,157,84,1,
,,,,,,,,,,,,,FF,,,,,,,,1.049,,,,,,,,,,,,,,,,,,,,,,61033994adbe0652d3c39b71,6103688e1e1a3fc0e8201608,2021-07-29_21h51.25.400,Simcolourproject_2stim_asymm_v5,2020.2.10,Win32,60,61025ae37ef11b136ea224fe,,,,,,,,,224,74.5,-28.5,1,0,0,response3disk,,5,-4,5,1,0,0,rectangle,-4,5,1,0,0,,,,,,,-4,5,1,0,0,,0,158,158,65,1,
,,,,,,,,,,,,,FF,,,,,,,,0.6659,,,,,,,,,,,,,,,,,,,,,,61033994adbe0652d3c39b71,6103688e1e1a3fc0e8201608,2021-07-29_21h51.25.400,Simcolourproject_2stim_asymm_v5,2020.2.10,Win32,60,61025ae37ef11b136ea224fe,,,,,,,,,2458,36,57,1,0,0,response1disk,,7,11.5,5.5,1,0,0,rectangle,11.5,5.5,1,0,0,,,,,,,11.5,5.5,1,0,0,,0,159,159,115,1,
,,,,,,,,,,,,,FF,,,,,,,,1.0491,,,,,,,,,,,,,,,,,,,,,,61033994adbe0652d3c39b71,6103688e1e1a3fc0e8201608,2021-07-29_21h51.25.400,Simcolourproject_2stim_asymm_v5,2020.2.10,Win32,60,61025ae37ef11b136ea224fe,,,,,,,,,2472,65,31.5,1,0,0,response1disk,,6,14.5,11,1,0,0,rectangle,14.5,11,1,0,0,,,,,,,14.5,11,1,0,0,,1,0,160,147,1,
,,,,,,,,,,,,,FF,,,,,,,,0.5662,,,,,,,,,,,,,,,,,,,,,,61033994adbe0652d3c39b71,6103688e1e1a3fc0e8201608,2021-07-29_21h51.25.400,Simcolourproject_2stim_asymm_v5,2020.2.10,Win32,60,61025ae37ef11b136ea224fe,,,,,,,,,1720,30,67.5,1,0,0,response1disk,,7,2,0.5,1,0,0,rectangle,2,0.5,1,0,0,,,,,,,2,0.5,1,0,0,,1,1,161,8,1,
,,,,,,,,,,,,,FF,,,,,,,,2.364,,,,,,,,,,,,,,,,,,,,,,61033994adbe0652d3c39b71,6103688e1e1a3fc0e8201608,2021-07-29_21h51.25.400,Simcolourproject_2stim_asymm_v5,2020.2.10,Win32,60,61025ae37ef11b136ea224fe,,,,,,,,,1795,19.5,39.5,1,0,0,response1disk,,7,8.5,-6,1,0,0,rectangle,8.5,-6,1,0,0,,,,,,,8.5,-6,1,0,0,,1,2,162,98,1,
,,,,,,,,,,,,,FF,,,,,,,,0.8827,,,,,,,,,,,,,,,,,,,,,,61033994adbe0652d3c39b71,6103688e1e1a3fc0e8201608,2021-07-29_21h51.25.400,Simcolourproject_2stim_asymm_v5,2020.2.10,Win32,60,61025ae37ef11b136ea224fe,,,,,,,,,1922,48,82,1,0,0,response1disk,,7,10,-5.5,1,0,0,rectangle,10,-5.5,1,0,0,,,,,,,10,-5.5,1,0,0,,1,3,163,156,1,
,,,,,,,,,,,,,FF,,,,,,,,0.8709,,,,,,,,,,,,,,,,,,,,,,61033994adbe0652d3c39b71,6103688e1e1a3fc0e8201608,2021-07-29_21h51.25.400,Simcolourproject_2stim_asymm_v5,2020.2.10,Win32,60,61025ae37ef11b136ea224fe,,,,,,,,,1589,41,-92.5,1,0,0,response3disk,,4,0.5,-6,1,0,0,rectangle,0.5,-6,1,0,0,,,,,,,0.5,-6,1,0,0,,1,4,164,146,1,
,,,,,,,,,,,,,FF,,,,,,,,0.7951,,,,,,,,,,,,,,,,,,,,,,61033994adbe0652d3c39b71,6103688e1e1a3fc0e8201608,2021-07-29_21h51.25.400,Simcolourproject_2stim_asymm_v5,2020.2.10,Win32,60,61025ae37ef11b136ea224fe,,,,,,,,,2484,37.5,77.5,1,0,0,response1disk,,7,17.5,-6,1,0,0,rectangle,17.5,-6,1,0,0,,,,,,,17.5,-6,1,0,0,,1,5,165,152,1,
,,,,,,,,,,,,,FF,,,,,,,,0.8493,,,,,,,,,,,,,,,,,,,,,,61033994adbe0652d3c39b71,6103688e1e1a3fc0e8201608,2021-07-29_21h51.25.400,Simcolourproject_2stim_asymm_v5,2020.2.10,Win32,60,61025ae37ef11b136ea224fe,,,,,,,,,3484,41,-96.5,1,0,0,response3disk,,4,-8,-7,1,0,0,rectangle,-8,-7,1,0,0,,,,,,,-8,-7,1,0,0,,1,6,166,39,1,
,,,,,,,,,,,,,FF,,,,,,,,0.8666,,,,,,,,,,,,,,,,,,,,,,61033994adbe0652d3c39b71,6103688e1e1a3fc0e8201608,2021-07-29_21h51.25.400,Simcolourproject_2stim_asymm_v5,2020.2.10,Win32,60,61025ae37ef11b136ea224fe,,,,,,,,,3039,-82.5,-53,1,0,0,response5disk,,2,1,14,1,0,0,rectangle,95.5,-34,1,0,0,response3disk_3,TRUE,5,5,"[1,133,196,9,237,220,289,221,32,145,169,213,180,175,64,60,272,293,245,168]",1.9217,22,0,1,0,0,rectangle,1,7,167,82,1,
,,,,,,,,,,,,,FF,,,,,,,,0.7661,,,,,,,,,,,,,,,,,,,,,,61033994adbe0652d3c39b71,6103688e1e1a3fc0e8201608,2021-07-29_21h51.25.400,Simcolourproject_2stim_asymm_v5,2020.2.10,Win32,60,61025ae37ef11b136ea224fe,,,,,,,,,3206,44,86.5,1,0,0,response1disk,,7,19,9,1,0,0,rectangle,-71.5,-14.5,1,0,0,response5disk_3,TRUE,2,2,"[1,133,196,9,237,220,289,221,32,145,169,213,180,175,64,60,272,293,245,168]",2.0816,-2.5,0,1,0,0,rectangle,1,8,168,16,1,
,,,,,,,,,,,,,FF,,,,,,,,1.0826,,,,,,,,,,,,,,,,,,,,,,61033994adbe0652d3c39b71,6103688e1e1a3fc0e8201608,2021-07-29_21h51.25.400,Simcolourproject_2stim_asymm_v5,2020.2.10,Win32,60,61025ae37ef11b136ea224fe,,,,,,,,,3582,38.5,72.5,1,0,0,response1disk,,7,-0.5,9,1,0,0,rectangle,-0.5,9,1,0,0,,,,,,,-0.5,9,1,0,0,,1,9,169,111,1,
,,,,,,,,,,,,,FF,,,,,,,,1.0495,,,,,,,,,,,,,,,,,,,,,,61033994adbe0652d3c39b71,6103688e1e1a3fc0e8201608,2021-07-29_21h51.25.400,Simcolourproject_2stim_asymm_v5,2020.2.10,Win32,60,61025ae37ef11b136ea224fe,,,,,,,,,2233,-69,58.5,1,0,0,response7disk,,1,-19,4,1,0,0,rectangle,-19,4,1,0,0,,,,,,,-19,4,1,0,0,,1,10,170,35,1,
,,,,,,,,,,,,,FF,,,,,,,,0.916,,,,,,,,,,,,,,,,,,,,,,61033994adbe0652d3c39b71,6103688e1e1a3fc0e8201608,2021-07-29_21h51.25.400,Simcolourproject_2stim_asymm_v5,2020.2.10,Win32,60,61025ae37ef11b136ea224fe,,,,,,,,,656,31,-81.5,1,0,0,response3disk,,4,-9.5,-13,1,0,0,rectangle,-9.5,-13,1,0,0,,,,,,,-9.5,-13,1,0,0,,1,11,171,72,1,
,,,,,,,,,,,,,FF,,,,,,,,0.7666,,,,,,,,,,,,,,,,,,,,,,61033994adbe0652d3c39b71,6103688e1e1a3fc0e8201608,2021-07-29_21h51.25.400,Simcolourproject_2stim_asymm_v5,2020.2.10,Win32,60,61025ae37ef11b136ea224fe,,,,,,,,,1736,97,35,1,0,0,response1disk,,6,8,12,1,0,0,rectangle,8,12,1,0,0,,,,,,,8,12,1,0,0,,1,12,172,145,1,
,,,,,,,,,,,,,FF,,,,,,,,0.8378,,,,,,,,,,,,,,,,,,,,,,61033994adbe0652d3c39b71,6103688e1e1a3fc0e8201608,2021-07-29_21h51.25.400,Simcolourproject_2stim_asymm_v5,2020.2.10,Win32,60,61025ae37ef11b136ea224fe,,,,,,,,,2098,-81.5,30,1,0,0,response7disk,,1,4.5,0,1,0,0,rectangle,4.5,0,1,0,0,,,,,,,4.5,0,1,0,0,,1,13,173,142,1,
,,,,,,,,,,,,,FF,,,,,,,,0.9616,,,,,,,,,,,,,,,,,,,,,,61033994adbe0652d3c39b71,6103688e1e1a3fc0e8201608,2021-07-29_21h51.25.400,Simcolourproject_2stim_asymm_v5,2020.2.10,Win32,60,61025ae37ef11b136ea224fe,,,,,,,,,1678,-35.5,-92.5,1,0,0,response5disk,,3,5.5,7.5,1,0,0,rectangle,-35,83,1,0,0,response7disk_3,TRUE,0,0,"[1,133,196,9,237,220,289,221,32,145,169,213,180,175,64,60,272,293,245,168]",1.6985,13.5,-3,1,0,0,rectangle,1,14,174,90,1,
,,,,,,,,,,,,,FF,,,,,,,,0.8828,,,,,,,,,,,,,,,,,,,,,,61033994adbe0652d3c39b71,6103688e1e1a3fc0e8201608,2021-07-29_21h51.25.400,Simcolourproject_2stim_asymm_v5,2020.2.10,Win32,60,61025ae37ef11b136ea224fe,,,,,,,,,2087,45.5,-74.5,1,0,0,response3disk,,4,-7,12,1,0,0,rectangle,-7,12,1,0,0,,,,,,,-7,12,1,0,0,,1,15,175,67,1,
,,,,,,,,,,,,,FF,,,,,,,,1.0162,,,,,,,,,,,,,,,,,,,,,,61033994adbe0652d3c39b71,6103688e1e1a3fc0e8201608,2021-07-29_21h51.25.400,Simcolourproject_2stim_asymm_v5,2020.2.10,Win32,60,61025ae37ef11b136ea224fe,,,,,,,,,1169,40.5,64.5,1,0,0,response1disk,,7,2.5,9.5,1,0,0,rectangle,2.5,9.5,1,0,0,,,,,,,2.5,9.5,1,0,0,,1,16,176,124,1,
,,,,,,,,,,,,,FF,,,,,,,,0.6291,,,,,,,,,,,,,,,,,,,,,,61033994adbe0652d3c39b71,6103688e1e1a3fc0e8201608,2021-07-29_21h51.25.400,Simcolourproject_2stim_asymm_v5,2020.2.10,Win32,60,61025ae37ef11b136ea224fe,,,,,,,,,2323,77,34.5,1,0,0,response1disk,,6,-3.5,1,1,0,0,rectangle,-3.5,1,1,0,0,,,,,,,-3.5,1,1,0,0,,1,17,177,9,1,
,,,,,,,,,,,,,FF,,,,,,,,0.7664,,,,,,,,,,,,,,,,,,,,,,61033994adbe0652d3c39b71,6103688e1e1a3fc0e8201608,2021-07-29_21h51.25.400,Simcolourproject_2stim_asymm_v5,2020.2.10,Win32,60,61025ae37ef11b136ea224fe,,,,,,,,,4198,72,27.5,1,0,0,response1disk,,6,3,-11.5,1,0,0,rectangle,3,-11.5,1,0,0,,,,,,,3,-11.5,1,0,0,,1,18,178,123,1,
,,,,,,,,,,,,,FF,,,,,,,,0.6212,,,,,,,,,,,,,,,,,,,,,,61033994adbe0652d3c39b71,6103688e1e1a3fc0e8201608,2021-07-29_21h51.25.400,Simcolourproject_2stim_asymm_v5,2020.2.10,Win32,60,61025ae37ef11b136ea224fe,,,,,,,,,1882,77,33,1,0,0,response1disk,,6,7.5,5.5,1,0,0,rectangle,-81.5,-37.5,1,0,0,response5disk_3,TRUE,2,2,"[1,133,196,9,237,220,289,221,32,145,169,213,180,175,64,60,272,293,245,168]",2.2817,-3,5,1,0,0,rectangle,1,19,179,107,1,
,,,,,,,,,,,,,FF,,,,,,,,1.1656,,,,,,,,,,,,,,,,,,,,,,61033994adbe0652d3c39b71,6103688e1e1a3fc0e8201608,2021-07-29_21h51.25.400,Simcolourproject_2stim_asymm_v5,2020.2.10,Win32,60,61025ae37ef11b136ea224fe,,,,,,,,,1895,-38.5,-68,1,0,0,response5disk,,3,-5.5,-11,1,0,0,rectangle,-5.5,-11,1,0,0,,,,,,,-5.5,-11,1,0,0,,1,20,180,149,1,
,,,,,,,,,,,,,FF,,,,,,,,0.6006,,,,,,,,,,,,,,,,,,,,,,61033994adbe0652d3c39b71,6103688e1e1a3fc0e8201608,2021-07-29_21h51.25.400,Simcolourproject_2stim_asymm_v5,2020.2.10,Win32,60,61025ae37ef11b136ea224fe,,,,,,,,,2729,-47.5,-95.5,1,0,0,response5disk,,3,4,4,1,0,0,rectangle,4,4,1,0,0,,,,,,,4,4,1,0,0,,1,21,181,84,1,
,,,,,,,,,,,,,FF,,,,,,,,0.6831,,,,,,,,,,,,,,,,,,,,,,61033994adbe0652d3c39b71,6103688e1e1a3fc0e8201608,2021-07-29_21h51.25.400,Simcolourproject_2stim_asymm_v5,2020.2.10,Win32,60,61025ae37ef11b136ea224fe,,,,,,,,,2594,36,-91,1,0,0,response3disk,,4,-8.5,2,1,0,0,rectangle,-8.5,2,1,0,0,,,,,,,-8.5,2,1,0,0,,1,22,182,101,1,
,,,,,,,,,,,,,FF,,,,,,,,0.4999,,,,,,,,,,,,,,,,,,,,,,61033994adbe0652d3c39b71,6103688e1e1a3fc0e8201608,2021-07-29_21h51.25.400,Simcolourproject_2stim_asymm_v5,2020.2.10,Win32,60,61025ae37ef11b136ea224fe,,,,,,,,,1422,76,-36.5,1,0,0,response3disk,,5,16.5,10.5,1,0,0,rectangle,16.5,10.5,1,0,0,,,,,,,16.5,10.5,1,0,0,,1,23,183,115,1,
,,,,,,,,,,,,,FF,,,,,,,,0.9343,,,,,,,,,,,,,,,,,,,,,,61033994adbe0652d3c39b71,6103688e1e1a3fc0e8201608,2021-07-29_21h51.25.400,Simcolourproject_2stim_asymm_v5,2020.2.10,Win32,60,61025ae37ef11b136ea224fe,,,,,,,,,4183,34,-71,1,0,0,response3disk,,4,8,0.5,1,0,0,rectangle,8,0.5,1,0,0,,,,,,,8,0.5,1,0,0,,1,24,184,29,1,
,,,,,,,,,,,,,FF,,,,,,,,0.7329,,,,,,,,,,,,,,,,,,,,,,61033994adbe0652d3c39b71,6103688e1e1a3fc0e8201608,2021-07-29_21h51.25.400,Simcolourproject_2stim_asymm_v5,2020.2.10,Win32,60,61025ae37ef11b136ea224fe,,,,,,,,,3768,21.5,75,1,0,0,response1disk,,7,11,-11,1,0,0,rectangle,11,-11,1,0,0,,,,,,,11,-11,1,0,0,,1,25,185,136,1,
,,,,,,,,,,,,,FF,,,,,,,,0.5515,,,,,,,,,,,,,,,,,,,,,,61033994adbe0652d3c39b71,6103688e1e1a3fc0e8201608,2021-07-29_21h51.25.400,Simcolourproject_2stim_asymm_v5,2020.2.10,Win32,60,61025ae37ef11b136ea224fe,,,,,,,,,3459,30,70.5,1,0,0,response1disk,,7,9.5,-12.5,1,0,0,rectangle,9.5,-12.5,1,0,0,,,,,,,9.5,-12.5,1,0,0,,1,26,186,132,1,
,,,,,,,,,,,,,FF,,,,,,,,0.4664,,,,,,,,,,,,,,,,,,,,,,61033994adbe0652d3c39b71,6103688e1e1a3fc0e8201608,2021-07-29_21h51.25.400,Simcolourproject_2stim_asymm_v5,2020.2.10,Win32,60,61025ae37ef11b136ea224fe,,,,,,,,,2158,36.5,66,1,0,0,response1disk,,7,14,-9.5,1,0,0,rectangle,14,-9.5,1,0,0,,,,,,,14,-9.5,1,0,0,,1,27,187,73,1,
,,,,,,,,,,,,,FF,,,,,,,,1.4704,,,,,,,,,,,,,,,,,,,,,,61033994adbe0652d3c39b71,6103688e1e1a3fc0e8201608,2021-07-29_21h51.25.400,Simcolourproject_2stim_asymm_v5,2020.2.10,Win32,60,61025ae37ef11b136ea224fe,,,,,,,,,1662,79.5,43,1,0,0,response1disk,,6,10,-3,1,0,0,rectangle,10,-3,1,0,0,,,,,,,10,-3,1,0,0,,1,28,188,31,1,
,,,,,,,,,,,,,FF,,,,,,,,0.833,,,,,,,,,,,,,,,,,,,,,,61033994adbe0652d3c39b71,6103688e1e1a3fc0e8201608,2021-07-29_21h51.25.400,Simcolourproject_2stim_asymm_v5,2020.2.10,Win32,60,61025ae37ef11b136ea224fe,,,,,,,,,897,79,-30,1,0,0,response3disk,,5,-11.5,0,1,0,0,rectangle,-11.5,0,1,0,0,,,,,,,-11.5,0,1,0,0,,1,29,189,117,1,
,,,,,,,,,,,,,FF,,,,,,,,0.5348,,,,,,,,,,,,,,,,,,,,,,61033994adbe0652d3c39b71,6103688e1e1a3fc0e8201608,2021-07-29_21h51.25.400,Simcolourproject_2stim_asymm_v5,2020.2.10,Win32,60,61025ae37ef11b136ea224fe,,,,,,,,,4334,41,73.5,1,0,0,response1disk,,7,6,-6,1,0,0,rectangle,6,-6,1,0,0,,,,,,,6,-6,1,0,0,,1,30,190,86,1,
,,,,,,,,,,,,,FF,,,,,,,,0.7114,,,,,,,,,,,,,,,,,,,,,,61033994adbe0652d3c39b71,6103688e1e1a3fc0e8201608,2021-07-29_21h51.25.400,Simcolourproject_2stim_asymm_v5,2020.2.10,Win32,60,61025ae37ef11b136ea224fe,,,,,,,,,3559,42.5,-59.5,1,0,0,response3disk,,4,2.5,-5,1,0,0,rectangle,2.5,-5,1,0,0,,,,,,,2.5,-5,1,0,0,,1,31,191,83,1,
,,,,,,,,,,,,,FF,,,,,,,,0.6161,,,,,,,,,,,,,,,,,,,,,,61033994adbe0652d3c39b71,6103688e1e1a3fc0e8201608,2021-07-29_21h51.25.400,Simcolourproject_2stim_asymm_v5,2020.2.10,Win32,60,61025ae37ef11b136ea224fe,,,,,,,,,3444,38.5,82.5,1,0,0,response1disk,,7,11,5,1,0,0,rectangle,11,5,1,0,0,,,,,,,11,5,1,0,0,,1,32,192,99,1,
,,,,,,,,,,,,,FF,,,,,,,,0.5013,,,,,,,,,,,,,,,,,,,,,,61033994adbe0652d3c39b71,6103688e1e1a3fc0e8201608,2021-07-29_21h51.25.400,Simcolourproject_2stim_asymm_v5,2020.2.10,Win32,60,61025ae37ef11b136ea224fe,,,,,,,,,1351,27,76.5,1,0,0,response1disk,,7,11.5,9.5,1,0,0,rectangle,11.5,9.5,1,0,0,,,,,,,11.5,9.5,1,0,0,,1,33,193,5,1,
,,,,,,,,,,,,,FF,,,,,,,,0.4999,,,,,,,,,,,,,,,,,,,,,,61033994adbe0652d3c39b71,6103688e1e1a3fc0e8201608,2021-07-29_21h51.25.400,Simcolourproject_2stim_asymm_v5,2020.2.10,Win32,60,61025ae37ef11b136ea224fe,,,,,,,,,563,22.5,66,1,0,0,response1disk,,7,3.5,-13.5,1,0,0,rectangle,3.5,-13.5,1,0,0,,,,,,,3.5,-13.5,1,0,0,,1,34,194,52,1,
,,,,,,,,,,,,,FF,,,,,,,,0.8662,,,,,,,,,,,,,,,,,,,,,,61033994adbe0652d3c39b71,6103688e1e1a3fc0e8201608,2021-07-29_21h51.25.400,Simcolourproject_2stim_asymm_v5,2020.2.10,Win32,60,61025ae37ef11b136ea224fe,,,,,,,,,3950,-25.5,-52,1,0,0,response5disk,,3,0,6.5,1,0,0,rectangle,107.5,40.5,1,0,0,response1disk_3,TRUE,6,6,"[1,133,196,9,237,220,289,221,32,145,169,213,180,175,64,60,272,293,245,168]",1.8142,1.5,4.5,1,0,0,rectangle,1,35,195,47,1,
,,,,,,,,,,,,,FF,,,,,,,,0.8378,,,,,,,,,,,,,,,,,,,,,,61033994adbe0652d3c39b71,6103688e1e1a3fc0e8201608,2021-07-29_21h51.25.400,Simcolourproject_2stim_asymm_v5,2020.2.10,Win32,60,61025ae37ef11b136ea224fe,,,,,,,,,2517,24,74.5,1,0,0,response1disk,,7,-6,-3,1,0,0,rectangle,-6,-3,1,0,0,,,,,,,-6,-3,1,0,0,,1,36,196,33,1,
,,,,,,,,,,,,,FF,,,,,,,,0.7824,,,,,,,,,,,,,,,,,,,,,,61033994adbe0652d3c39b71,6103688e1e1a3fc0e8201608,2021-07-29_21h51.25.400,Simcolourproject_2stim_asymm_v5,2020.2.10,Win32,60,61025ae37ef11b136ea224fe,,,,,,,,,1467,70.5,-71.5,1,0,0,response3disk,,4,2,2,1,0,0,rectangle,2,2,1,0,0,,,,,,,2,2,1,0,0,,1,37,197,41,1,
,,,,,,,,,,,,,FF,,,,,,,,0.6168,,,,,,,,,,,,,,,,,,,,,,61033994adbe0652d3c39b71,6103688e1e1a3fc0e8201608,2021-07-29_21h51.25.400,Simcolourproject_2stim_asymm_v5,2020.2.10,Win32,60,61025ae37ef11b136ea224fe,,,,,,,,,1874,-34,-110,1,0,0,response5disk,,3,5.5,-5,1,0,0,rectangle,5.5,-5,1,0,0,,,,,,,5.5,-5,1,0,0,,1,38,198,119,1,
,,,,,,,,,,,,,FF,,,,,,,,0.7666,,,,,,,,,,,,,,,,,,,,,,61033994adbe0652d3c39b71,6103688e1e1a3fc0e8201608,2021-07-29_21h51.25.400,Simcolourproject_2stim_asymm_v5,2020.2.10,Win32,60,61025ae37ef11b136ea224fe,,,,,,,,,4362,-19.5,59.5,1,0,0,response7disk,,0,16.5,-3,1,0,0,rectangle,16.5,-3,1,0,0,,,,,,,16.5,-3,1,0,0,,1,39,199,20,1,
,,,,,,,,,,,,,FF,,,,,,,,0.899,,,,,,,,,,,,,,,,,,,,,,61033994adbe0652d3c39b71,6103688e1e1a3fc0e8201608,2021-07-29_21h51.25.400,Simcolourproject_2stim_asymm_v5,2020.2.10,Win32,60,61025ae37ef11b136ea224fe,,,,,,,,,2425,-82.5,-29.5,1,0,0,response5disk,,2,19.5,-9,1,0,0,rectangle,19.5,-9,1,0,0,,,,,,,19.5,-9,1,0,0,,1,40,200,23,1,
,,,,,,,,,,,,,FF,,,,,,,,0.8546,,,,,,,,,,,,,,,,,,,,,,61033994adbe0652d3c39b71,6103688e1e1a3fc0e8201608,2021-07-29_21h51.25.400,Simcolourproject_2stim_asymm_v5,2020.2.10,Win32,60,61025ae37ef11b136ea224fe,,,,,,,,,4127,-81.5,-38.5,1,0,0,response5disk,,2,-4,12,1,0,0,rectangle,-4,12,1,0,0,,,,,,,-4,12,1,0,0,,1,41,201,46,1,
,,,,,,,,,,,,,FF,,,,,,,,1.149,,,,,,,,,,,,,,,,,,,,,,61033994adbe0652d3c39b71,6103688e1e1a3fc0e8201608,2021-07-29_21h51.25.400,Simcolourproject_2stim_asymm_v5,2020.2.10,Win32,60,61025ae37ef11b136ea224fe,,,,,,,,,2405,71.5,24,1,0,0,response1disk,,6,-4,-3.5,1,0,0,rectangle,-4,-3.5,1,0,0,,,,,,,-4,-3.5,1,0,0,,1,42,202,106,1,
,,,,,,,,,,,,,FF,,,,,,,,1.9837,,,,,,,,,,,,,,,,,,,,,,61033994adbe0652d3c39b71,6103688e1e1a3fc0e8201608,2021-07-29_21h51.25.400,Simcolourproject_2stim_asymm_v5,2020.2.10,Win32,60,61025ae37ef11b136ea224fe,,,,,,,,,2649,76,-30.5,1,0,0,response3disk,,5,-18,0,1,0,0,rectangle,-18,0,1,0,0,,,,,,,-18,0,1,0,0,,1,43,203,70,1,
,,,,,,,,,,,,,FF,,,,,,,,0.7992,,,,,,,,,,,,,,,,,,,,,,61033994adbe0652d3c39b71,6103688e1e1a3fc0e8201608,2021-07-29_21h51.25.400,Simcolourproject_2stim_asymm_v5,2020.2.10,Win32,60,61025ae37ef11b136ea224fe,,,,,,,,,3638,38.5,73.5,1,0,0,response1disk,,7,6,-0.5,1,0,0,rectangle,6,-0.5,1,0,0,,,,,,,6,-0.5,1,0,0,,1,44,204,92,1,
,,,,,,,,,,,,,FF,,,,,,,,0.6664,,,,,,,,,,,,,,,,,,,,,,61033994adbe0652d3c39b71,6103688e1e1a3fc0e8201608,2021-07-29_21h51.25.400,Simcolourproject_2stim_asymm_v5,2020.2.10,Win32,60,61025ae37ef11b136ea224fe,,,,,,,,,3643,23.5,65.5,1,0,0,response1disk,,7,15.5,2,1,0,0,rectangle,15.5,2,1,0,0,,,,,,,15.5,2,1,0,0,,1,45,205,58,1,
,,,,,,,,,,,,,FF,,,,,,,,0.5165,,,,,,,,,,,,,,,,,,,,,,61033994adbe0652d3c39b71,6103688e1e1a3fc0e8201608,2021-07-29_21h51.25.400,Simcolourproject_2stim_asymm_v5,2020.2.10,Win32,60,61025ae37ef11b136ea224fe,,,,,,,,,3349,22,36,1,0,0,response1disk,,7,1.5,0.5,1,0,0,rectangle,1.5,0.5,1,0,0,,,,,,,1.5,0.5,1,0,0,,1,46,206,139,1,
,,,,,,,,,,,,,FF,,,,,,,,1.3825,,,,,,,,,,,,,,,,,,,,,,61033994adbe0652d3c39b71,6103688e1e1a3fc0e8201608,2021-07-29_21h51.25.400,Simcolourproject_2stim_asymm_v5,2020.2.10,Win32,60,61025ae37ef11b136ea224fe,,,,,,,,,1029,65.5,-24.5,1,0,0,response3disk,,5,-3.5,3,1,0,0,rectangle,-3.5,3,1,0,0,,,,,,,-3.5,3,1,0,0,,1,47,207,66,1,
,,,,,,,,,,,,,FF,,,,,,,,0.7007,,,,,,,,,,,,,,,,,,,,,,61033994adbe0652d3c39b71,6103688e1e1a3fc0e8201608,2021-07-29_21h51.25.400,Simcolourproject_2stim_asymm_v5,2020.2.10,Win32,60,61025ae37ef11b136ea224fe,,,,,,,,,2875,74.5,30.5,1,0,0,response1disk,,6,8.5,-8.5,1,0,0,rectangle,8.5,-8.5,1,0,0,,,,,,,8.5,-8.5,1,0,0,,1,48,208,24,1,
,,,,,,,,,,,,,FF,,,,,,,,1.0044,,,,,,,,,,,,,,,,,,,,,,61033994adbe0652d3c39b71,6103688e1e1a3fc0e8201608,2021-07-29_21h51.25.400,Simcolourproject_2stim_asymm_v5,2020.2.10,Win32,60,61025ae37ef11b136ea224fe,,,,,,,,,1829,-20,-86.5,1,0,0,response5disk,,3,15.5,4.5,1,0,0,rectangle,15.5,4.5,1,0,0,,,,,,,15.5,4.5,1,0,0,,1,49,209,133,1,
,,,,,,,,,,,,,FF,,,,,,,,0.6332,,,,,,,,,,,,,,,,,,,,,,61033994adbe0652d3c39b71,6103688e1e1a3fc0e8201608,2021-07-29_21h51.25.400,Simcolourproject_2stim_asymm_v5,2020.2.10,Win32,60,61025ae37ef11b136ea224fe,,,,,,,,,918,94,-34.5,1,0,0,response3disk,,5,14.5,3,1,0,0,rectangle,14.5,3,1,0,0,,,,,,,14.5,3,1,0,0,,1,50,210,34,1,
,,,,,,,,,,,,,FF,,,,,,,,0.7506,,,,,,,,,,,,,,,,,,,,,,61033994adbe0652d3c39b71,6103688e1e1a3fc0e8201608,2021-07-29_21h51.25.400,Simcolourproject_2stim_asymm_v5,2020.2.10,Win32,60,61025ae37ef11b136ea224fe,,,,,,,,,2402,-19,-77,1,0,0,response5disk,,3,-1,-12.5,1,0,0,rectangle,-1,-12.5,1,0,0,,,,,,,-1,-12.5,1,0,0,,1,51,211,135,1,
,,,,,,,,,,,,,FF,,,,,,,,0.5335,,,,,,,,,,,,,,,,,,,,,,61033994adbe0652d3c39b71,6103688e1e1a3fc0e8201608,2021-07-29_21h51.25.400,Simcolourproject_2stim_asymm_v5,2020.2.10,Win32,60,61025ae37ef11b136ea224fe,,,,,,,,,3972,-40.5,-89.5,1,0,0,response5disk,,3,18,0,1,0,0,rectangle,35.5,81.5,1,0,0,response1disk_3,TRUE,7,7,"[1,133,196,9,237,220,289,221,32,145,169,213,180,175,64,60,272,293,245,168]",1.9185,7,9,1,0,0,rectangle,1,52,212,50,1,
,,,,,,,,,,,,,FF,,,,,,,,0.95,,,,,,,,,,,,,,,,,,,,,,61033994adbe0652d3c39b71,6103688e1e1a3fc0e8201608,2021-07-29_21h51.25.400,Simcolourproject_2stim_asymm_v5,2020.2.10,Win32,60,61025ae37ef11b136ea224fe,,,,,,,,,169,-66,29,1,0,0,response7disk,,1,17.5,-13.5,1,0,0,rectangle,17.5,-13.5,1,0,0,,,,,,,17.5,-13.5,1,0,0,,1,53,213,62,1,
,,,,,,,,,,,,,FF,,,,,,,,0.5347,,,,,,,,,,,,,,,,,,,,,,61033994adbe0652d3c39b71,6103688e1e1a3fc0e8201608,2021-07-29_21h51.25.400,Simcolourproject_2stim_asymm_v5,2020.2.10,Win32,60,61025ae37ef11b136ea224fe,,,,,,,,,2523,40,82.5,1,0,0,response1disk,,7,12.5,10,1,0,0,rectangle,12.5,10,1,0,0,,,,,,,12.5,10,1,0,0,,1,54,214,94,1,
,,,,,,,,,,,,,FF,,,,,,,,0.6332,,,,,,,,,,,,,,,,,,,,,,61033994adbe0652d3c39b71,6103688e1e1a3fc0e8201608,2021-07-29_21h51.25.400,Simcolourproject_2stim_asymm_v5,2020.2.10,Win32,60,61025ae37ef11b136ea224fe,,,,,,,,,944,70,36,1,0,0,response1disk,,6,-1,-2.5,1,0,0,rectangle,-1,-2.5,1,0,0,,,,,,,-1,-2.5,1,0,0,,1,55,215,42,1,
,,,,,,,,,,,,,FF,,,,,,,,0.8662,,,,,,,,,,,,,,,,,,,,,,61033994adbe0652d3c39b71,6103688e1e1a3fc0e8201608,2021-07-29_21h51.25.400,Simcolourproject_2stim_asymm_v5,2020.2.10,Win32,60,61025ae37ef11b136ea224fe,,,,,,,,,2985,-80,-39,1,0,0,response5disk,,2,2,-3,1,0,0,rectangle,2,-3,1,0,0,,,,,,,2,-3,1,0,0,,1,56,216,63,1,
,,,,,,,,,,,,,FF,,,,,,,,0.5832,,,,,,,,,,,,,,,,,,,,,,61033994adbe0652d3c39b71,6103688e1e1a3fc0e8201608,2021-07-29_21h51.25.400,Simcolourproject_2stim_asymm_v5,2020.2.10,Win32,60,61025ae37ef11b136ea224fe,,,,,,,,,2271,36,88.5,1,0,0,response1disk,,7,-2.5,-13.5,1,0,0,rectangle,-2.5,-13.5,1,0,0,,,,,,,-2.5,-13.5,1,0,0,,1,57,217,134,1,
,,,,,,,,,,,,,FF,,,,,,,,0.7833,,,,,,,,,,,,,,,,,,,,,,61033994adbe0652d3c39b71,6103688e1e1a3fc0e8201608,2021-07-29_21h51.25.400,Simcolourproject_2stim_asymm_v5,2020.2.10,Win32,60,61025ae37ef11b136ea224fe,,,,,,,,,1163,26,45.5,1,0,0,response1disk,,7,10,-3,1,0,0,rectangle,10,-3,1,0,0,,,,,,,10,-3,1,0,0,,1,58,218,44,1,
,,,,,,,,,,,,,FF,,,,,,,,0.9546,,,,,,,,,,,,,,,,,,,,,,61033994adbe0652d3c39b71,6103688e1e1a3fc0e8201608,2021-07-29_21h51.25.400,Simcolourproject_2stim_asymm_v5,2020.2.10,Win32,60,61025ae37ef11b136ea224fe,,,,,,,,,2048,41,-84.5,1,0,0,response3disk,,4,-5.5,6.5,1,0,0,rectangle,95,39.5,1,0,0,response1disk_3,TRUE,6,6,"[1,133,196,9,237,220,289,221,32,145,169,213,180,175,64,60,272,293,245,168]",1.5647,5.5,0,1,0,0,rectangle,1,59,219,140,1,
,,,,,,,,,,,,,FF,,,,,,,,2.6999,,,,,,,,,,,,,,,,,,,,,,61033994adbe0652d3c39b71,6103688e1e1a3fc0e8201608,2021-07-29_21h51.25.400,Simcolourproject_2stim_asymm_v5,2020.2.10,Win32,60,61025ae37ef11b136ea224fe,,,,,,,,,2570,69.5,-46,1,0,0,response3disk,,5,-19.5,1,1,0,0,rectangle,-60,40.5,1,0,0,response7disk_3,TRUE,1,1,"[1,133,196,9,237,220,289,221,32,145,169,213,180,175,64,60,272,293,245,168]",1.499,-0.5,3,1,0,0,rectangle,1,60,220,81,1,
,,,,,,,,,,,,,FF,,,,,,,,1.5155,,,,,,,,,,,,,,,,,,,,,,61033994adbe0652d3c39b71,6103688e1e1a3fc0e8201608,2021-07-29_21h51.25.400,Simcolourproject_2stim_asymm_v5,2020.2.10,Win32,60,61025ae37ef11b136ea224fe,,,,,,,,,2938,77.5,-22,1,0,0,response3disk,,5,9,-6,1,0,0,rectangle,9,-6,1,0,0,,,,,,,9,-6,1,0,0,,1,61,221,93,1,
,,,,,,,,,,,,,FF,,,,,,,,0.6997,,,,,,,,,,,,,,,,,,,,,,61033994adbe0652d3c39b71,6103688e1e1a3fc0e8201608,2021-07-29_21h51.25.400,Simcolourproject_2stim_asymm_v5,2020.2.10,Win32,60,61025ae37ef11b136ea224fe,,,,,,,,,321,89,37,1,0,0,response1disk,,6,0,-11.5,1,0,0,rectangle,0,-11.5,1,0,0,,,,,,,0,-11.5,1,0,0,,1,62,222,137,1,
,,,,,,,,,,,,,FF,,,,,,,,0.9325,,,,,,,,,,,,,,,,,,,,,,61033994adbe0652d3c39b71,6103688e1e1a3fc0e8201608,2021-07-29_21h51.25.400,Simcolourproject_2stim_asymm_v5,2020.2.10,Win32,60,61025ae37ef11b136ea224fe,,,,,,,,,3778,-74,-35,1,0,0,response5disk,,2,5.5,-3,1,0,0,rectangle,5.5,-3,1,0,0,,,,,,,5.5,-3,1,0,0,,1,63,223,138,1,
,,,,,,,,,,,,,FF,,,,,,,,0.7711,,,,,,,,,,,,,,,,,,,,,,61033994adbe0652d3c39b71,6103688e1e1a3fc0e8201608,2021-07-29_21h51.25.400,Simcolourproject_2stim_asymm_v5,2020.2.10,Win32,60,61025ae37ef11b136ea224fe,,,,,,,,,2364,-41.5,-74,1,0,0,response5disk,,3,12.5,2.5,1,0,0,rectangle,12.5,2.5,1,0,0,,,,,,,12.5,2.5,1,0,0,,1,64,224,153,1,
,,,,,,,,,,,,,FF,,,,,,,,0.833,,,,,,,,,,,,,,,,,,,,,,61033994adbe0652d3c39b71,6103688e1e1a3fc0e8201608,2021-07-29_21h51.25.400,Simcolourproject_2stim_asymm_v5,2020.2.10,Win32,60,61025ae37ef11b136ea224fe,,,,,,,,,3594,-19.5,-72,1,0,0,response5disk,,3,10,3,1,0,0,rectangle,10,3,1,0,0,,,,,,,10,3,1,0,0,,1,65,225,64,1,
,,,,,,,,,,,,,FF,,,,,,,,0.7996,,,,,,,,,,,,,,,,,,,,,,61033994adbe0652d3c39b71,6103688e1e1a3fc0e8201608,2021-07-29_21h51.25.400,Simcolourproject_2stim_asymm_v5,2020.2.10,Win32,60,61025ae37ef11b136ea224fe,,,,,,,,,2381,30.5,-59,1,0,0,response3disk,,4,10.5,-11,1,0,0,rectangle,10.5,-11,1,0,0,,,,,,,10.5,-11,1,0,0,,1,66,226,102,1,
,,,,,,,,,,,,,FF,,,,,,,,1.0653,,,,,,,,,,,,,,,,,,,,,,61033994adbe0652d3c39b71,6103688e1e1a3fc0e8201608,2021-07-29_21h51.25.400,Simcolourproject_2stim_asymm_v5,2020.2.10,Win32,60,61025ae37ef11b136ea224fe,,,,,,,,,3725,80,33,1,0,0,response1disk,,6,1.5,-8,1,0,0,rectangle,1.5,-8,1,0,0,,,,,,,1.5,-8,1,0,0,,1,67,227,103,1,
,,,,,,,,,,,,,FF,,,,,,,,0.3835,,,,,,,,,,,,,,,,,,,,,,61033994adbe0652d3c39b71,6103688e1e1a3fc0e8201608,2021-07-29_21h51.25.400,Simcolourproject_2stim_asymm_v5,2020.2.10,Win32,60,61025ae37ef11b136ea224fe,,,,,,,,,2126,27,51,1,0,0,response1disk,,7,3.5,-6,1,0,0,rectangle,3.5,-6,1,0,0,,,,,,,3.5,-6,1,0,0,,1,68,228,100,1,
,,,,,,,,,,,,,FF,,,,,,,,0.8539,,,,,,,,,,,,,,,,,,,,,,61033994adbe0652d3c39b71,6103688e1e1a3fc0e8201608,2021-07-29_21h51.25.400,Simcolourproject_2stim_asymm_v5,2020.2.10,Win32,60,61025ae37ef11b136ea224fe,,,,,,,,,4306,30,-69,1,0,0,response3disk,,4,0.5,-4,1,0,0,rectangle,0.5,-4,1,0,0,,,,,,,0.5,-4,1,0,0,,1,69,229,49,1,
,,,,,,,,,,,,,FF,,,,,,,,0.5664,,,,,,,,,,,,,,,,,,,,,,61033994adbe0652d3c39b71,6103688e1e1a3fc0e8201608,2021-07-29_21h51.25.400,Simcolourproject_2stim_asymm_v5,2020.2.10,Win32,60,61025ae37ef11b136ea224fe,,,,,,,,,3542,24,81.5,1,0,0,response1disk,,7,16,1,1,0,0,rectangle,16,1,1,0,0,,,,,,,16,1,1,0,0,,1,70,230,51,1,
,,,,,,,,,,,,,FF,,,,,,,,0.6831,,,,,,,,,,,,,,,,,,,,,,61033994adbe0652d3c39b71,6103688e1e1a3fc0e8201608,2021-07-29_21h51.25.400,Simcolourproject_2stim_asymm_v5,2020.2.10,Win32,60,61025ae37ef11b136ea224fe,,,,,,,,,3880,-25.5,-80.5,1,0,0,response5disk,,3,3,9,1,0,0,rectangle,3,9,1,0,0,,,,,,,3,9,1,0,0,,1,71,231,97,1,
,,,,,,,,,,,,,FF,,,,,,,,0.4836,,,,,,,,,,,,,,,,,,,,,,61033994adbe0652d3c39b71,6103688e1e1a3fc0e8201608,2021-07-29_21h51.25.400,Simcolourproject_2stim_asymm_v5,2020.2.10,Win32,60,61025ae37ef11b136ea224fe,,,,,,,,,3834,34,69,1,0,0,response1disk,,7,8,0.5,1,0,0,rectangle,8,0.5,1,0,0,,,,,,,8,0.5,1,0,0,,1,72,232,80,1,
,,,,,,,,,,,,,FF,,,,,,,,0.9036,,,,,,,,,,,,,,,,,,,,,,61033994adbe0652d3c39b71,6103688e1e1a3fc0e8201608,2021-07-29_21h51.25.400,Simcolourproject_2stim_asymm_v5,2020.2.10,Win32,60,61025ae37ef11b136ea224fe,,,,,,,,,1905,36.5,-83.5,1,0,0,response3disk,,4,18,2.5,1,0,0,rectangle,18,2.5,1,0,0,,,,,,,18,2.5,1,0,0,,1,73,233,114,1,
,,,,,,,,,,,,,FF,,,,,,,,0.8038,,,,,,,,,,,,,,,,,,,,,,61033994adbe0652d3c39b71,6103688e1e1a3fc0e8201608,2021-07-29_21h51.25.400,Simcolourproject_2stim_asymm_v5,2020.2.10,Win32,60,61025ae37ef11b136ea224fe,,,,,,,,,2907,27.5,80.5,1,0,0,response1disk,,7,14,2.5,1,0,0,rectangle,14,2.5,1,0,0,,,,,,,14,2.5,1,0,0,,1,74,234,71,1,
,,,,,,,,,,,,,FF,,,,,,,,0.5167,,,,,,,,,,,,,,,,,,,,,,61033994adbe0652d3c39b71,6103688e1e1a3fc0e8201608,2021-07-29_21h51.25.400,Simcolourproject_2stim_asymm_v5,2020.2.10,Win32,60,61025ae37ef11b136ea224fe,,,,,,,,,1400,33,68.5,1,0,0,response1disk,,7,11,-4,1,0,0,rectangle,11,-4,1,0,0,,,,,,,11,-4,1,0,0,,1,75,235,87,1,
,,,,,,,,,,,,,FF,,,,,,,,0.6878,,,,,,,,,,,,,,,,,,,,,,61033994adbe0652d3c39b71,6103688e1e1a3fc0e8201608,2021-07-29_21h51.25.400,Simcolourproject_2stim_asymm_v5,2020.2.10,Win32,60,61025ae37ef11b136ea224fe,,,,,,,,,474,27.5,67,1,0,0,response1disk,,7,2.5,-2.5,1,0,0,rectangle,-59.5,-29,1,0,0,response5disk_3,TRUE,2,2,"[1,133,196,9,237,220,289,221,32,145,169,213,180,175,64,60,272,293,245,168]",1.6646,0.5,6.5,1,0,0,rectangle,1,76,236,157,1,
,,,,,,,,,,,,,FF,,,,,,,,0.8877,,,,,,,,,,,,,,,,,,,,,,61033994adbe0652d3c39b71,6103688e1e1a3fc0e8201608,2021-07-29_21h51.25.400,Simcolourproject_2stim_asymm_v5,2020.2.10,Win32,60,61025ae37ef11b136ea224fe,,,,,,,,,3203,26.5,-66,1,0,0,response3disk,,4,18,0.5,1,0,0,rectangle,18,0.5,1,0,0,,,,,,,18,0.5,1,0,0,,1,77,237,75,1,
,,,,,,,,,,,,,FF,,,,,,,,0.7104,,,,,,,,,,,,,,,,,,,,,,61033994adbe0652d3c39b71,6103688e1e1a3fc0e8201608,2021-07-29_21h51.25.400,Simcolourproject_2stim_asymm_v5,2020.2.10,Win32,60,61025ae37ef11b136ea224fe,,,,,,,,,275,37.5,72,1,0,0,response1disk,,7,7.5,3,1,0,0,rectangle,7.5,3,1,0,0,,,,,,,7.5,3,1,0,0,,1,78,238,91,1,
,,,,,,,,,,,,,FF,,,,,,,,0.7827,,,,,,,,,,,,,,,,,,,,,,61033994adbe0652d3c39b71,6103688e1e1a3fc0e8201608,2021-07-29_21h51.25.400,Simcolourproject_2stim_asymm_v5,2020.2.10,Win32,60,61025ae37ef11b136ea224fe,,,,,,,,,3109,24.5,70,1,0,0,response1disk,,7,7.5,4,1,0,0,rectangle,7.5,4,1,0,0,,,,,,,7.5,4,1,0,0,,1,79,239,116,1,
,,,,,,,,,,,,,FF,,,,,,,,0.6998,,,,,,,,,,,,,,,,,,,,,,61033994adbe0652d3c39b71,6103688e1e1a3fc0e8201608,2021-07-29_21h51.25.400,Simcolourproject_2stim_asymm_v5,2020.2.10,Win32,60,61025ae37ef11b136ea224fe,,,,,,,,,106,80,36.5,1,0,0,response1disk,,6,15,0.5,1,0,0,rectangle,15,0.5,1,0,0,,,,,,,15,0.5,1,0,0,,1,80,240,141,1,
,,,,,,,,,,,,,FF,,,,,,,,0.6211,,,,,,,,,,,,,,,,,,,,,,61033994adbe0652d3c39b71,6103688e1e1a3fc0e8201608,2021-07-29_21h51.25.400,Simcolourproject_2stim_asymm_v5,2020.2.10,Win32,60,61025ae37ef11b136ea224fe,,,,,,,,,3116,86.5,-51,1,0,0,response3disk,,5,22,-5,1,0,0,rectangle,22,-5,1,0,0,,,,,,,22,-5,1,0,0,,1,81,241,104,1,
,,,,,,,,,,,,,FF,,,,,,,,0.6164,,,,,,,,,,,,,,,,,,,,,,61033994adbe0652d3c39b71,6103688e1e1a3fc0e8201608,2021-07-29_21h51.25.400,Simcolourproject_2stim_asymm_v5,2020.2.10,Win32,60,61025ae37ef11b136ea224fe,,,,,,,,,1568,81.5,45,1,0,0,response1disk,,6,-3,-4,1,0,0,rectangle,-3,-4,1,0,0,,,,,,,-3,-4,1,0,0,,1,82,242,109,1,
,,,,,,,,,,,,,FF,,,,,,,,0.6163,,,,,,,,,,,,,,,,,,,,,,61033994adbe0652d3c39b71,6103688e1e1a3fc0e8201608,2021-07-29_21h51.25.400,Simcolourproject_2stim_asymm_v5,2020.2.10,Win32,60,61025ae37ef11b136ea224fe,,,,,,,,,3308,64.5,53,1,0,0,response1disk,,6,0,7,1,0,0,rectangle,0,7,1,0,0,,,,,,,0,7,1,0,0,,1,83,243,120,1,
,,,,,,,,,,,,,FF,,,,,,,,0.5334,,,,,,,,,,,,,,,,,,,,,,61033994adbe0652d3c39b71,6103688e1e1a3fc0e8201608,2021-07-29_21h51.25.400,Simcolourproject_2stim_asymm_v5,2020.2.10,Win32,60,61025ae37ef11b136ea224fe,,,,,,,,,2474,74.5,17,1,0,0,response1disk,,6,22,-3.5,1,0,0,rectangle,90,36,1,0,0,response1disk_3,TRUE,6,6,"[1,133,196,9,237,220,289,221,32,145,169,213,180,175,64,60,272,293,245,168]",1.2651,23.5,-4.5,1,0,0,rectangle,1,84,244,74,1,
,,,,,,,,,,,,,FF,,,,,,,,0.9878,,,,,,,,,,,,,,,,,,,,,,61033994adbe0652d3c39b71,6103688e1e1a3fc0e8201608,2021-07-29_21h51.25.400,Simcolourproject_2stim_asymm_v5,2020.2.10,Win32,60,61025ae37ef11b136ea224fe,,,,,,,,,1724,77,-26.5,1,0,0,response3disk,,5,10,4.5,1,0,0,rectangle,10,4.5,1,0,0,,,,,,,10,4.5,1,0,0,,1,85,245,27,1,
,,,,,,,,,,,,,FF,,,,,,,,0.7165,,,,,,,,,,,,,,,,,,,,,,61033994adbe0652d3c39b71,6103688e1e1a3fc0e8201608,2021-07-29_21h51.25.400,Simcolourproject_2stim_asymm_v5,2020.2.10,Win32,60,61025ae37ef11b136ea224fe,,,,,,,,,3132,47,83.5,1,0,0,response1disk,,7,18.5,7,1,0,0,rectangle,18.5,7,1,0,0,,,,,,,18.5,7,1,0,0,,1,86,246,30,1,
,,,,,,,,,,,,,FF,,,,,,,,1.6208,,,,,,,,,,,,,,,,,,,,,,61033994adbe0652d3c39b71,6103688e1e1a3fc0e8201608,2021-07-29_21h51.25.400,Simcolourproject_2stim_asymm_v5,2020.2.10,Win32,60,61025ae37ef11b136ea224fe,,,,,,,,,3392,-32,-79,1,0,0,response5disk,,3,8.5,0.5,1,0,0,rectangle,8.5,0.5,1,0,0,,,,,,,8.5,0.5,1,0,0,,1,87,247,96,1,
,,,,,,,,,,,,,FF,,,,,,,,0.8162,,,,,,,,,,,,,,,,,,,,,,61033994adbe0652d3c39b71,6103688e1e1a3fc0e8201608,2021-07-29_21h51.25.400,Simcolourproject_2stim_asymm_v5,2020.2.10,Win32,60,61025ae37ef11b136ea224fe,,,,,,,,,4057,23,-68.5,1,0,0,response3disk,,4,-3,12.5,1,0,0,rectangle,-3,12.5,1,0,0,,,,,,,-3,12.5,1,0,0,,1,88,248,159,1,
,,,,,,,,,,,,,FF,,,,,,,,0.7828,,,,,,,,,,,,,,,,,,,,,,61033994adbe0652d3c39b71,6103688e1e1a3fc0e8201608,2021-07-29_21h51.25.400,Simcolourproject_2stim_asymm_v5,2020.2.10,Win32,60,61025ae37ef11b136ea224fe,,,,,,,,,3795,38,82,1,0,0,response1disk,,7,4.5,12.5,1,0,0,rectangle,4.5,12.5,1,0,0,,,,,,,4.5,12.5,1,0,0,,1,89,249,128,1,
,,,,,,,,,,,,,FF,,,,,,,,0.4845,,,,,,,,,,,,,,,,,,,,,,61033994adbe0652d3c39b71,6103688e1e1a3fc0e8201608,2021-07-29_21h51.25.400,Simcolourproject_2stim_asymm_v5,2020.2.10,Win32,60,61025ae37ef11b136ea224fe,,,,,,,,,3864,37,62,1,0,0,response1disk,,7,0,-9.5,1,0,0,rectangle,0,-9.5,1,0,0,,,,,,,0,-9.5,1,0,0,,1,90,250,28,1,
,,,,,,,,,,,,,FF,,,,,,,,1.016,,,,,,,,,,,,,,,,,,,,,,61033994adbe0652d3c39b71,6103688e1e1a3fc0e8201608,2021-07-29_21h51.25.400,Simcolourproject_2stim_asymm_v5,2020.2.10,Win32,60,61025ae37ef11b136ea224fe,,,,,,,,,2874,80.5,-26,1,0,0,response3disk,,5,9,12,1,0,0,rectangle,9,12,1,0,0,,,,,,,9,12,1,0,0,,1,91,251,121,1,
,,,,,,,,,,,,,FF,,,,,,,,0.5212,,,,,,,,,,,,,,,,,,,,,,61033994adbe0652d3c39b71,6103688e1e1a3fc0e8201608,2021-07-29_21h51.25.400,Simcolourproject_2stim_asymm_v5,2020.2.10,Win32,60,61025ae37ef11b136ea224fe,,,,,,,,,588,39.5,60,1,0,0,response1disk,,7,-2.5,-10.5,1,0,0,rectangle,-2.5,-10.5,1,0,0,,,,,,,-2.5,-10.5,1,0,0,,1,92,252,12,1,
,,,,,,,,,,,,,FF,,,,,,,,0.7674,,,,,,,,,,,,,,,,,,,,,,61033994adbe0652d3c39b71,6103688e1e1a3fc0e8201608,2021-07-29_21h51.25.400,Simcolourproject_2stim_asymm_v5,2020.2.10,Win32,60,61025ae37ef11b136ea224fe,,,,,,,,,2668,-79,-39,1,0,0,response5disk,,2,3,0,1,0,0,rectangle,3,0,1,0,0,,,,,,,3,0,1,0,0,,1,93,253,122,1,
,,,,,,,,,,,,,FF,,,,,,,,0.6497,,,,,,,,,,,,,,,,,,,,,,61033994adbe0652d3c39b71,6103688e1e1a3fc0e8201608,2021-07-29_21h51.25.400,Simcolourproject_2stim_asymm_v5,2020.2.10,Win32,60,61025ae37ef11b136ea224fe,,,,,,,,,2278,33,59.5,1,0,0,response1disk,,7,11,1.5,1,0,0,rectangle,11,1.5,1,0,0,,,,,,,11,1.5,1,0,0,,1,94,254,118,1,
,,,,,,,,,,,,,FF,,,,,,,,0.533,,,,,,,,,,,,,,,,,,,,,,61033994adbe0652d3c39b71,6103688e1e1a3fc0e8201608,2021-07-29_21h51.25.400,Simcolourproject_2stim_asymm_v5,2020.2.10,Win32,60,61025ae37ef11b136ea224fe,,,,,,,,,1552,36,78.5,1,0,0,response1disk,,7,5,-1,1,0,0,rectangle,5,-1,1,0,0,,,,,,,5,-1,1,0,0,,1,95,255,19,1,
,,,,,,,,,,,,,FF,,,,,,,,0.612,,,,,,,,,,,,,,,,,,,,,,61033994adbe0652d3c39b71,6103688e1e1a3fc0e8201608,2021-07-29_21h51.25.400,Simcolourproject_2stim_asymm_v5,2020.2.10,Win32,60,61025ae37ef11b136ea224fe,,,,,,,,,818,91.5,38,1,0,0,response1disk,,6,7,-7.5,1,0,0,rectangle,7,-7.5,1,0,0,,,,,,,7,-7.5,1,0,0,,1,96,256,143,1,
,,,,,,,,,,,,,FF,,,,,,,,0.5168,,,,,,,,,,,,,,,,,,,,,,61033994adbe0652d3c39b71,6103688e1e1a3fc0e8201608,2021-07-29_21h51.25.400,Simcolourproject_2stim_asymm_v5,2020.2.10,Win32,60,61025ae37ef11b136ea224fe,,,,,,,,,3415,39.5,65.5,1,0,0,response1disk,,7,17,6,1,0,0,rectangle,17,6,1,0,0,,,,,,,17,6,1,0,0,,1,97,257,126,1,
,,,,,,,,,,,,,FF,,,,,,,,1.0166,,,,,,,,,,,,,,,,,,,,,,61033994adbe0652d3c39b71,6103688e1e1a3fc0e8201608,2021-07-29_21h51.25.400,Simcolourproject_2stim_asymm_v5,2020.2.10,Win32,60,61025ae37ef11b136ea224fe,,,,,,,,,2972,68,60,1,0,0,response1disk,,6,19.5,10,1,0,0,rectangle,19.5,10,1,0,0,,,,,,,19.5,10,1,0,0,,1,98,258,129,1,
,,,,,,,,,,,,,FF,,,,,,,,0.4548,,,,,,,,,,,,,,,,,,,,,,61033994adbe0652d3c39b71,6103688e1e1a3fc0e8201608,2021-07-29_21h51.25.400,Simcolourproject_2stim_asymm_v5,2020.2.10,Win32,60,61025ae37ef11b136ea224fe,,,,,,,,,584,47,73,1,0,0,response1disk,,7,-3,3,1,0,0,rectangle,-3,3,1,0,0,,,,,,,-3,3,1,0,0,,1,99,259,89,1,
,,,,,,,,,,,,,FF,,,,,,,,0.833,,,,,,,,,,,,,,,,,,,,,,61033994adbe0652d3c39b71,6103688e1e1a3fc0e8201608,2021-07-29_21h51.25.400,Simcolourproject_2stim_asymm_v5,2020.2.10,Win32,60,61025ae37ef11b136ea224fe,,,,,,,,,367,-22.5,-80.5,1,0,0,response5disk,,3,-3,5,1,0,0,rectangle,-3,5,1,0,0,,,,,,,-3,5,1,0,0,,1,100,260,88,1,
,,,,,,,,,,,,,FF,,,,,,,,0.4998,,,,,,,,,,,,,,,,,,,,,,61033994adbe0652d3c39b71,6103688e1e1a3fc0e8201608,2021-07-29_21h51.25.400,Simcolourproject_2stim_asymm_v5,2020.2.10,Win32,60,61025ae37ef11b136ea224fe,,,,,,,,,3611,33,65,1,0,0,response1disk,,7,-2,-11,1,0,0,rectangle,-2,-11,1,0,0,,,,,,,-2,-11,1,0,0,,1,101,261,85,1,
,,,,,,,,,,,,,FF,,,,,,,,0.5844,,,,,,,,,,,,,,,,,,,,,,61033994adbe0652d3c39b71,6103688e1e1a3fc0e8201608,2021-07-29_21h51.25.400,Simcolourproject_2stim_asymm_v5,2020.2.10,Win32,60,61025ae37ef11b136ea224fe,,,,,,,,,2465,37.5,72,1,0,0,response1disk,,7,19.5,7,1,0,0,rectangle,19.5,7,1,0,0,,,,,,,19.5,7,1,0,0,,1,102,262,37,1,
,,,,,,,,,,,,,FF,,,,,,,,0.8673,,,,,,,,,,,,,,,,,,,,,,61033994adbe0652d3c39b71,6103688e1e1a3fc0e8201608,2021-07-29_21h51.25.400,Simcolourproject_2stim_asymm_v5,2020.2.10,Win32,60,61025ae37ef11b136ea224fe,,,,,,,,,3066,48,-81.5,1,0,0,response3disk,,4,-2,10,1,0,0,rectangle,-2,10,1,0,0,,,,,,,-2,10,1,0,0,,1,103,263,14,1,
,,,,,,,,,,,,,FF,,,,,,,,0.6873,,,,,,,,,,,,,,,,,,,,,,61033994adbe0652d3c39b71,6103688e1e1a3fc0e8201608,2021-07-29_21h51.25.400,Simcolourproject_2stim_asymm_v5,2020.2.10,Win32,60,61025ae37ef11b136ea224fe,,,,,,,,,2295,-42,-68.5,1,0,0,response5disk,,3,20,6.5,1,0,0,rectangle,20,6.5,1,0,0,,,,,,,20,6.5,1,0,0,,1,104,264,151,1,
,,,,,,,,,,,,,FF,,,,,,,,1.2488,,,,,,,,,,,,,,,,,,,,,,61033994adbe0652d3c39b71,6103688e1e1a3fc0e8201608,2021-07-29_21h51.25.400,Simcolourproject_2stim_asymm_v5,2020.2.10,Win32,60,61025ae37ef11b136ea224fe,,,,,,,,,355,-90.5,-39.5,1,0,0,response5disk,,2,-2.5,-6,1,0,0,rectangle,-2.5,-6,1,0,0,,,,,,,-2.5,-6,1,0,0,,1,105,265,32,1,
,,,,,,,,,,,,,FF,,,,,,,,0.6212,,,,,,,,,,,,,,,,,,,,,,61033994adbe0652d3c39b71,6103688e1e1a3fc0e8201608,2021-07-29_21h51.25.400,Simcolourproject_2stim_asymm_v5,2020.2.10,Win32,60,61025ae37ef11b136ea224fe,,,,,,,,,2189,26,77.5,1,0,0,response1disk,,7,-0.5,-4.5,1,0,0,rectangle,-0.5,-4.5,1,0,0,,,,,,,-0.5,-4.5,1,0,0,,1,106,266,110,1,
,,,,,,,,,,,,,FF,,,,,,,,0.8657,,,,,,,,,,,,,,,,,,,,,,61033994adbe0652d3c39b71,6103688e1e1a3fc0e8201608,2021-07-29_21h51.25.400,Simcolourproject_2stim_asymm_v5,2020.2.10,Win32,60,61025ae37ef11b136ea224fe,,,,,,,,,2882,-85.5,-59.5,1,0,0,response5disk,,2,16.5,-14,1,0,0,rectangle,16.5,-14,1,0,0,,,,,,,16.5,-14,1,0,0,,1,107,267,1,1,
,,,,,,,,,,,,,FF,,,,,,,,1.2825,,,,,,,,,,,,,,,,,,,,,,61033994adbe0652d3c39b71,6103688e1e1a3fc0e8201608,2021-07-29_21h51.25.400,Simcolourproject_2stim_asymm_v5,2020.2.10,Win32,60,61025ae37ef11b136ea224fe,,,,,,,,,3788,79.5,-27,1,0,0,response3disk,,5,-10,10,1,0,0,rectangle,-10,10,1,0,0,,,,,,,-10,10,1,0,0,,1,108,268,155,1,
,,,,,,,,,,,,,FF,,,,,,,,1.0327,,,,,,,,,,,,,,,,,,,,,,61033994adbe0652d3c39b71,6103688e1e1a3fc0e8201608,2021-07-29_21h51.25.400,Simcolourproject_2stim_asymm_v5,2020.2.10,Win32,60,61025ae37ef11b136ea224fe,,,,,,,,,1691,-19.5,-77.5,1,0,0,response5disk,,3,12.5,3,1,0,0,rectangle,12.5,3,1,0,0,,,,,,,12.5,3,1,0,0,,1,109,269,131,1,
,,,,,,,,,,,,,FF,,,,,,,,0.966,,,,,,,,,,,,,,,,,,,,,,61033994adbe0652d3c39b71,6103688e1e1a3fc0e8201608,2021-07-29_21h51.25.400,Simcolourproject_2stim_asymm_v5,2020.2.10,Win32,60,61025ae37ef11b136ea224fe,,,,,,,,,1190,82.5,-29,1,0,0,response3disk,,5,-8.5,-4,1,0,0,rectangle,-8.5,-4,1,0,0,,,,,,,-8.5,-4,1,0,0,,1,110,270,43,1,
,,,,,,,,,,,,,FF,,,,,,,,0.6346,,,,,,,,,,,,,,,,,,,,,,61033994adbe0652d3c39b71,6103688e1e1a3fc0e8201608,2021-07-29_21h51.25.400,Simcolourproject_2stim_asymm_v5,2020.2.10,Win32,60,61025ae37ef11b136ea224fe,,,,,,,,,2267,37.5,70.5,1,0,0,response1disk,,7,5.5,0,1,0,0,rectangle,97.5,-54,1,0,0,response3disk_3,TRUE,5,5,"[1,133,196,9,237,220,289,221,32,145,169,213,180,175,64,60,272,293,245,168]",1.2819,18.5,-0.5,1,0,0,rectangle,1,111,271,79,1,
,,,,,,,,,,,,,FF,,,,,,,,0.8667,,,,,,,,,,,,,,,,,,,,,,61033994adbe0652d3c39b71,6103688e1e1a3fc0e8201608,2021-07-29_21h51.25.400,Simcolourproject_2stim_asymm_v5,2020.2.10,Win32,60,61025ae37ef11b136ea224fe,,,,,,,,,4016,77,-45,1,0,0,response3disk,,5,-2,2,1,0,0,rectangle,-2,2,1,0,0,,,,,,,-2,2,1,0,0,,1,112,272,154,1,
,,,,,,,,,,,,,FF,,,,,,,,0.888,,,,,,,,,,,,,,,,,,,,,,61033994adbe0652d3c39b71,6103688e1e1a3fc0e8201608,2021-07-29_21h51.25.400,Simcolourproject_2stim_asymm_v5,2020.2.10,Win32,60,61025ae37ef11b136ea224fe,,,,,,,,,374,79,-51,1,0,0,response3disk,,5,-21,6,1,0,0,rectangle,-21,6,1,0,0,,,,,,,-21,6,1,0,0,,1,113,273,2,1,
,,,,,,,,,,,,,FF,,,,,,,,0.966,,,,,,,,,,,,,,,,,,,,,,61033994adbe0652d3c39b71,6103688e1e1a3fc0e8201608,2021-07-29_21h51.25.400,Simcolourproject_2stim_asymm_v5,2020.2.10,Win32,60,61025ae37ef11b136ea224fe,,,,,,,,,2004,32,69.5,1,0,0,response1disk,,7,18.5,6,1,0,0,rectangle,18.5,6,1,0,0,,,,,,,18.5,6,1,0,0,,1,114,274,56,1,
,,,,,,,,,,,,,FF,,,,,,,,0.9839,,,,,,,,,,,,,,,,,,,,,,61033994adbe0652d3c39b71,6103688e1e1a3fc0e8201608,2021-07-29_21h51.25.400,Simcolourproject_2stim_asymm_v5,2020.2.10,Win32,60,61025ae37ef11b136ea224fe,,,,,,,,,1782,74,14.5,1,0,0,response1disk,,6,12,9,1,0,0,rectangle,12,9,1,0,0,,,,,,,12,9,1,0,0,,1,115,275,55,1,
,,,,,,,,,,,,,FF,,,,,,,,0.6831,,,,,,,,,,,,,,,,,,,,,,61033994adbe0652d3c39b71,6103688e1e1a3fc0e8201608,2021-07-29_21h51.25.400,Simcolourproject_2stim_asymm_v5,2020.2.10,Win32,60,61025ae37ef11b136ea224fe,,,,,,,,,1014,31,60.5,1,0,0,response1disk,,7,1,-7,1,0,0,rectangle,1,-7,1,0,0,,,,,,,1,-7,1,0,0,,1,116,276,112,1,
,,,,,,,,,,,,,FF,,,,,,,,0.4664,,,,,,,,,,,,,,,,,,,,,,61033994adbe0652d3c39b71,6103688e1e1a3fc0e8201608,2021-07-29_21h51.25.400,Simcolourproject_2stim_asymm_v5,2020.2.10,Win32,60,61025ae37ef11b136ea224fe,,,,,,,,,1704,40.5,80,1,0,0,response1disk,,7,19,5.5,1,0,0,rectangle,19,5.5,1,0,0,,,,,,,19,5.5,1,0,0,,1,117,277,105,1,
,,,,,,,,,,,,,FF,,,,,,,,1.016,,,,,,,,,,,,,,,,,,,,,,61033994adbe0652d3c39b71,6103688e1e1a3fc0e8201608,2021-07-29_21h51.25.400,Simcolourproject_2stim_asymm_v5,2020.2.10,Win32,60,61025ae37ef11b136ea224fe,,,,,,,,,1391,81,-28,1,0,0,response3disk,,5,-3,1,1,0,0,rectangle,-3,1,1,0,0,,,,,,,-3,1,1,0,0,,1,118,278,18,1,
,,,,,,,,,,,,,FF,,,,,,,,0.5332,,,,,,,,,,,,,,,,,,,,,,61033994adbe0652d3c39b71,6103688e1e1a3fc0e8201608,2021-07-29_21h51.25.400,Simcolourproject_2stim_asymm_v5,2020.2.10,Win32,60,61025ae37ef11b136ea224fe,,,,,,,,,2336,37,73.5,1,0,0,response1disk,,7,-1,-5,1,0,0,rectangle,-1,-5,1,0,0,,,,,,,-1,-5,1,0,0,,1,119,279,108,1,
,,,,,,,,,,,,,FF,,,,,,,,0.6337,,,,,,,,,,,,,,,,,,,,,,61033994adbe0652d3c39b71,6103688e1e1a3fc0e8201608,2021-07-29_21h51.25.400,Simcolourproject_2stim_asymm_v5,2020.2.10,Win32,60,61025ae37ef11b136ea224fe,,,,,,,,,666,34.5,73,1,0,0,response1disk,,7,3,3,1,0,0,rectangle,3,3,1,0,0,,,,,,,3,3,1,0,0,,1,120,280,15,1,
,,,,,,,,,,,,,FF,,,,,,,,0.4381,,,,,,,,,,,,,,,,,,,,,,61033994adbe0652d3c39b71,6103688e1e1a3fc0e8201608,2021-07-29_21h51.25.400,Simcolourproject_2stim_asymm_v5,2020.2.10,Win32,60,61025ae37ef11b136ea224fe,,,,,,,,,3566,31.5,60,1,0,0,response1disk,,7,3,1,1,0,0,rectangle,3,1,1,0,0,,,,,,,3,1,1,0,0,,1,121,281,48,1,
,,,,,,,,,,,,,FF,,,,,,,,0.4383,,,,,,,,,,,,,,,,,,,,,,61033994adbe0652d3c39b71,6103688e1e1a3fc0e8201608,2021-07-29_21h51.25.400,Simcolourproject_2stim_asymm_v5,2020.2.10,Win32,60,61025ae37ef11b136ea224fe,,,,,,,,,3569,39.5,60.5,1,0,0,response1disk,,7,-6,-3,1,0,0,rectangle,-6,-3,1,0,0,,,,,,,-6,-3,1,0,0,,1,122,282,36,1,
,,,,,,,,,,,,,FF,,,,,,,,1.3654,,,,,,,,,,,,,,,,,,,,,,61033994adbe0652d3c39b71,6103688e1e1a3fc0e8201608,2021-07-29_21h51.25.400,Simcolourproject_2stim_asymm_v5,2020.2.10,Win32,60,61025ae37ef11b136ea224fe,,,,,,,,,983,81,24.5,1,0,0,response1disk,,6,1.5,2.5,1,0,0,rectangle,1.5,2.5,1,0,0,,,,,,,1.5,2.5,1,0,0,,1,123,283,40,1,
,,,,,,,,,,,,,FF,,,,,,,,0.5334,,,,,,,,,,,,,,,,,,,,,,61033994adbe0652d3c39b71,6103688e1e1a3fc0e8201608,2021-07-29_21h51.25.400,Simcolourproject_2stim_asymm_v5,2020.2.10,Win32,60,61025ae37ef11b136ea224fe,,,,,,,,,2751,36,72,1,0,0,response1disk,,7,10,10.5,1,0,0,rectangle,10,10.5,1,0,0,,,,,,,10,10.5,1,0,0,,1,124,284,76,1,
,,,,,,,,,,,,,FF,,,,,,,,0.4826,,,,,,,,,,,,,,,,,,,,,,61033994adbe0652d3c39b71,6103688e1e1a3fc0e8201608,2021-07-29_21h51.25.400,Simcolourproject_2stim_asymm_v5,2020.2.10,Win32,60,61025ae37ef11b136ea224fe,,,,,,,,,2918,43.5,68,1,0,0,response1disk,,7,-10.5,-0.5,1,0,0,rectangle,-10.5,-0.5,1,0,0,,,,,,,-10.5,-0.5,1,0,0,,1,125,285,59,1,
,,,,,,,,,,,,,FF,,,,,,,,0.5048,,,,,,,,,,,,,,,,,,,,,,61033994adbe0652d3c39b71,6103688e1e1a3fc0e8201608,2021-07-29_21h51.25.400,Simcolourproject_2stim_asymm_v5,2020.2.10,Win32,60,61025ae37ef11b136ea224fe,,,,,,,,,1843,41.5,59.5,1,0,0,response1disk,,7,-9,2,1,0,0,rectangle,-9,2,1,0,0,,,,,,,-9,2,1,0,0,,1,126,286,11,1,
,,,,,,,,,,,,,FF,,,,,,,,0.7841,,,,,,,,,,,,,,,,,,,,,,61033994adbe0652d3c39b71,6103688e1e1a3fc0e8201608,2021-07-29_21h51.25.400,Simcolourproject_2stim_asymm_v5,2020.2.10,Win32,60,61025ae37ef11b136ea224fe,,,,,,,,,1759,-34,-78.5,1,0,0,response5disk,,3,12.5,-2.5,1,0,0,rectangle,12.5,-2.5,1,0,0,,,,,,,12.5,-2.5,1,0,0,,1,127,287,78,1,
,,,,,,,,,,,,,FF,,,,,,,,19.9423,,,,,,,,,,,,,,,,,,,,,,61033994adbe0652d3c39b71,6103688e1e1a3fc0e8201608,2021-07-29_21h51.25.400,Simcolourproject_2stim_asymm_v5,2020.2.10,Win32,60,61025ae37ef11b136ea224fe,,,,,,,,,4023,99,27,1,0,0,response1disk,,6,8.5,-2.5,1,0,0,rectangle,-102,-60.5,1,0,0,response5disk_3,TRUE,2,2,"[1,133,196,9,237,220,289,221,32,145,169,213,180,175,64,60,272,293,245,168]",1.814,-0.5,6,1,0,0,rectangle,1,128,288,77,1,
,,,,,,,,,,,,,FF,,,,,,,,1.1043,,,,,,,,,,,,,,,,,,,,,,61033994adbe0652d3c39b71,6103688e1e1a3fc0e8201608,2021-07-29_21h51.25.400,Simcolourproject_2stim_asymm_v5,2020.2.10,Win32,60,61025ae37ef11b136ea224fe,,,,,,,,,267,30,70.5,1,0,0,response1disk,,7,29,-6,1,0,0,rectangle,29,-6,1,0,0,,,,,,,29,-6,1,0,0,,1,129,289,4,1,
,,,,,,,,,,,,,FF,,,,,,,,1.2708,,,,,,,,,,,,,,,,,,,,,,61033994adbe0652d3c39b71,6103688e1e1a3fc0e8201608,2021-07-29_21h51.25.400,Simcolourproject_2stim_asymm_v5,2020.2.10,Win32,60,61025ae37ef11b136ea224fe,,,,,,,,,2753,30,63.5,1,0,0,response1disk,,7,12.5,9,1,0,0,rectangle,12.5,9,1,0,0,,,,,,,12.5,9,1,0,0,,1,130,290,54,1,
,,,,,,,,,,,,,FF,,,,,,,,0.8496,,,,,,,,,,,,,,,,,,,,,,61033994adbe0652d3c39b71,6103688e1e1a3fc0e8201608,2021-07-29_21h51.25.400,Simcolourproject_2stim_asymm_v5,2020.2.10,Win32,60,61025ae37ef11b136ea224fe,,,,,,,,,44,79.5,-39,1,0,0,response3disk,,5,-3.5,3,1,0,0,rectangle,-3.5,3,1,0,0,,,,,,,-3.5,3,1,0,0,,1,131,291,13,1,
,,,,,,,,,,,,,FF,,,,,,,,1.0041,,,,,,,,,,,,,,,,,,,,,,61033994adbe0652d3c39b71,6103688e1e1a3fc0e8201608,2021-07-29_21h51.25.400,Simcolourproject_2stim_asymm_v5,2020.2.10,Win32,60,61025ae37ef11b136ea224fe,,,,,,,,,3483,86.5,46,1,0,0,response1disk,,6,11,0.5,1,0,0,rectangle,-30,87,1,0,0,response7disk_3,TRUE,0,0,"[1,133,196,9,237,220,289,221,32,145,169,213,180,175,64,60,272,293,245,168]",1.5836,3.5,2,1,0,0,rectangle,1,132,292,7,1,
,,,,,,,,,,,,,FF,,,,,,,,0.9705,,,,,,,,,,,,,,,,,,,,,,61033994adbe0652d3c39b71,6103688e1e1a3fc0e8201608,2021-07-29_21h51.25.400,Simcolourproject_2stim_asymm_v5,2020.2.10,Win32,60,61025ae37ef11b136ea224fe,,,,,,,,,3441,68,-25.5,1,0,0,response3disk,,5,9,6,1,0,0,rectangle,9,6,1,0,0,,,,,,,9,6,1,0,0,,1,133,293,69,1,
,,,,,,,,,,,,,FF,,,,,,,,0.9711,,,,,,,,,,,,,,,,,,,,,,61033994adbe0652d3c39b71,6103688e1e1a3fc0e8201608,2021-07-29_21h51.25.400,Simcolourproject_2stim_asymm_v5,2020.2.10,Win32,60,61025ae37ef11b136ea224fe,,,,,,,,,2115,34,-74.5,1,0,0,response3disk,,4,-18,3,1,0,0,rectangle,-18,3,1,0,0,,,,,,,-18,3,1,0,0,,1,134,294,144,1,
