key_resp.keys,key_resp.rt,key_resp_14.keys,key_resp_14.rt,key_resp_15.keys,key_resp_15.rt,key_resp_17.keys,key_resp_17.rt,key_resp_9.keys,key_resp_9.rt,key_resp_10.keys,key_resp_10.rt,practice_comparison,Ecc,mouse_5.x,mouse_5.y,mouse_5.leftButton,mouse_5.midButton,mouse_5.rightButton,mouse_5.clicked_name,pracsimilarity,response_time,mouse_10.x,mouse_10.y,mouse_10.leftButton,mouse_10.midButton,mouse_10.rightButton,mouse_10.clicked_name,mouse_7.x,mouse_7.y,mouse_7.leftButton,mouse_7.midButton,mouse_7.rightButton,mouse_6.x,mouse_6.y,mouse_6.leftButton,mouse_6.midButton,mouse_6.rightButton,duringprac.thisRepN,duringprac.thisTrialN,duringprac.thisN,duringprac.thisIndex,duringprac.ran,participant,session,date,expName,psychopyVersion,OS,frameRate,study_id,mouse_7.clicked_name,catchpracsimilarity,catch_response_time,catchnumberprac,catchtrialorderprac,mouse_6.clicked_name,key_resp_22.keys,key_resp_22.rt,realcomparison,mouse.x,mouse.y,mouse.leftButton,mouse.midButton,mouse.rightButton,mouse.clicked_name,Colour2,similarity,mouse_2.x,mouse_2.y,mouse_2.leftButton,mouse_2.midButton,mouse_2.rightButton,mouse_2.clicked_name,mouse_3.x,mouse_3.y,mouse_3.leftButton,mouse_3.midButton,mouse_3.rightButton,mouse_11.x,mouse_11.y,mouse_11.leftButton,mouse_11.midButton,mouse_11.rightButton,trials_2.thisRepN,trials_2.thisTrialN,trials_2.thisN,trials_2.thisIndex,trials_2.ran,Colour1,mouse_3.clicked_name,catchornah,catchsimilarity,catchnumber,catchtrialorder,catchRT,mouse_11.clicked_name
space,3.0601,space,2.219,space,18.8671,space,14.7368,space,8.9018,space,3.6,52,PF,-25.33331501,-68.66667944,1,0,0,response5disk_5,3,5.5736,1.333393137,-2.000010788,1,0,0,rectangle_8,1.333393137,-2.000010788,1,0,0,1.333393137,-2.000010788,1,0,0,0,0,0,4,1,610338f9b119ef8991fe47c4,61036938f96a0725144837d6,2021-07-29_20h52.42.326,Simcolourproject_2stim_asymm_v5,2020.2.10,Win32,60,61025ae37ef11b136ea224fe,,,,,,,,,,,,,,,,,,,,,,,,,,,,,,,,,,,,,,,,,,,,,,
,,,,,,,,,,,,39,PF,-48.66660835,-62.66667926,1,0,0,response5disk_5,3,7.7667,-5.999981105,-2.666677475,1,0,0,rectangle_8,87.33335501,41.33330349,1,0,0,-11.99998128,-1.333344102,1,0,0,0,1,1,1,1,610338f9b119ef8991fe47c4,61036938f96a0725144837d6,2021-07-29_20h52.42.326,Simcolourproject_2stim_asymm_v5,2020.2.10,Win32,60,61025ae37ef11b136ea224fe,response1disk_7,6,2.6507,6,"[2,5]",rectangle_4,,,,,,,,,,,,,,,,,,,,,,,,,,,,,,,,,,,,,,,,
,,,,,,,,,,,,21,FF,57.33335412,-78.66667974,1,0,0,response3disk_5,4,11.3151,-19.33331484,4.666656077,1,0,0,rectangle_8,-19.33331484,4.666656077,1,0,0,-19.33331484,4.666656077,1,0,0,0,2,2,3,1,610338f9b119ef8991fe47c4,61036938f96a0725144837d6,2021-07-29_20h52.42.326,Simcolourproject_2stim_asymm_v5,2020.2.10,Win32,60,61025ae37ef11b136ea224fe,,,,,,,,,,,,,,,,,,,,,,,,,,,,,,,,,,,,,,,,,,,,,,
,,,,,,,,,,,,124,FF,67.33335441,28.66665679,1,0,0,response1disk_5,6,2.9001,-5.999981105,-5.333344221,1,0,0,rectangle_8,-5.999981105,-5.333344221,1,0,0,-5.999981105,-5.333344221,1,0,0,0,3,3,0,1,610338f9b119ef8991fe47c4,61036938f96a0725144837d6,2021-07-29_20h52.42.326,Simcolourproject_2stim_asymm_v5,2020.2.10,Win32,60,61025ae37ef11b136ea224fe,,,,,,,,,,,,,,,,,,,,,,,,,,,,,,,,,,,,,,,,,,,,,,
,,,,,,,,,,,,106,PF,-93.33331704,-34.66667843,1,0,0,response5disk_5,2,3.6331,8.000019312,-5.333344221,1,0,0,rectangle_8,96.66668862,56.66665763,1,0,0,19.33339367,-2.666677475,1,0,0,0,4,4,2,1,610338f9b119ef8991fe47c4,61036938f96a0725144837d6,2021-07-29_20h52.42.326,Simcolourproject_2stim_asymm_v5,2020.2.10,Win32,60,61025ae37ef11b136ea224fe,response1disk_7,6,2.2694,6,"[2,5]",rectangle_4,,,,,,,,,,,,,,,,,,,,,,,,,,,,,,,,,,,,,,,,
,,,,,,,,,,,,100,PF,-63.99998283,50.66665745,1,0,0,response7disk_5,1,4.3163,-6.666607102,-1.333344102,1,0,0,rectangle_8,-6.666607102,-1.333344102,1,0,0,-6.666607102,-1.333344102,1,0,0,0,5,5,6,1,610338f9b119ef8991fe47c4,61036938f96a0725144837d6,2021-07-29_20h52.42.326,Simcolourproject_2stim_asymm_v5,2020.2.10,Win32,60,61025ae37ef11b136ea224fe,,,,,,,,,,,,,,,,,,,,,,,,,,,,,,,,,,,,,,,,,,,,,,
,,,,,,,,,,,,143,FF,28.00001991,-46.0000121,1,0,0,response3disk_5,4,4.2531,-5.999981105,-2.666677475,1,0,0,rectangle_8,-5.999981105,-2.666677475,1,0,0,-5.999981105,-2.666677475,1,0,0,0,6,6,5,1,610338f9b119ef8991fe47c4,61036938f96a0725144837d6,2021-07-29_20h52.42.326,Simcolourproject_2stim_asymm_v5,2020.2.10,Win32,60,61025ae37ef11b136ea224fe,,,,,,,,,,,,,,,,,,,,,,,,,,,,,,,,,,,,,,,,,,,,,,
,,,,,,,,,,,,,FF,,,,,,,,4.4511,,,,,,,,,,,,,,,,,,,,,,610338f9b119ef8991fe47c4,61036938f96a0725144837d6,2021-07-29_20h52.42.326,Simcolourproject_2stim_asymm_v5,2020.2.10,Win32,60,61025ae37ef11b136ea224fe,,,,,,,space,45.4208,3419,60.00002086,-103.3333471,1,0,0,response3disk,,4,-9.333314538,-8.000010967,1,0,0,rectangle,-9.333314538,-8.000010967,1,0,0,-9.333314538,-8.000010967,1,0,0,0,0,0,155,1,,,,,,,,
,,,,,,,,,,,,,FF,,,,,,,,2.2015,,,,,,,,,,,,,,,,,,,,,,610338f9b119ef8991fe47c4,61036938f96a0725144837d6,2021-07-29_20h52.42.326,Simcolourproject_2stim_asymm_v5,2020.2.10,Win32,60,61025ae37ef11b136ea224fe,,,,,,,,,2170,-33.33331525,-103.3333471,1,0,0,response5disk,,3,14.00001949,-11.3333444,1,0,0,rectangle,14.00001949,-11.3333444,1,0,0,14.00001949,-11.3333444,1,0,0,0,1,1,39,1,,,,,,,,
,,,,,,,,,,,,,FF,,,,,,,,1.7503,,,,,,,,,,,,,,,,,,,,,,610338f9b119ef8991fe47c4,61036938f96a0725144837d6,2021-07-29_20h52.42.326,Simcolourproject_2stim_asymm_v5,2020.2.10,Win32,60,61025ae37ef11b136ea224fe,,,,,,,,,218,67.33335441,47.33330367,1,0,0,response1disk,,6,16.00001955,-13.33334446,1,0,0,rectangle,16.00001955,-13.33334446,1,0,0,16.00001955,-13.33334446,1,0,0,0,2,2,107,1,,,,,,,,
,,,,,,,,,,,,,FF,,,,,,,,1.6013,,,,,,,,,,,,,,,,,,,,,,610338f9b119ef8991fe47c4,61036938f96a0725144837d6,2021-07-29_20h52.42.326,Simcolourproject_2stim_asymm_v5,2020.2.10,Win32,60,61025ae37ef11b136ea224fe,,,,,,,,,2862,39.33339427,35.33330331,1,0,0,response1disk,,6,16.00001955,1.333322644,1,0,0,rectangle,16.00001955,1.333322644,1,0,0,16.00001955,1.333322644,1,0,0,0,3,3,12,1,,,,,,,,
,,,,,,,,,,,,,FF,,,,,,,,1.4003,,,,,,,,,,,,,,,,,,,,,,610338f9b119ef8991fe47c4,61036938f96a0725144837d6,2021-07-29_20h52.42.326,Simcolourproject_2stim_asymm_v5,2020.2.10,Win32,60,61025ae37ef11b136ea224fe,,,,,,,,,1663,31.33339403,-45.33334541,1,0,0,response3disk,,4,-6.666607102,-1.07288E-05,1,0,0,rectangle,-6.666607102,-1.07288E-05,1,0,0,-6.666607102,-1.07288E-05,1,0,0,0,4,4,41,1,,,,,,,,
,,,,,,,,,,,,,FF,,,,,,,,1.0859,,,,,,,,,,,,,,,,,,,,,,610338f9b119ef8991fe47c4,61036938f96a0725144837d6,2021-07-29_20h52.42.326,Simcolourproject_2stim_asymm_v5,2020.2.10,Win32,60,61025ae37ef11b136ea224fe,,,,,,,,,2821,86.66668832,37.9999904,1,0,0,response1disk,,6,-5.999981105,-1.333344102,1,0,0,rectangle,108.666689,-58.00001246,1,0,0,9.333393375,-4.666677535,1,0,0,0,5,5,51,1,,response3disk_3,TRUE,5,5,"[285,6,208,93,40,296,76,48,239,189,14,255,59,220,44,96,87,34,310,296]",1.8482,rectangle
,,,,,,,,,,,,,FF,,,,,,,,1.4335,,,,,,,,,,,,,,,,,,,,,,610338f9b119ef8991fe47c4,61036938f96a0725144837d6,2021-07-29_20h52.42.326,Simcolourproject_2stim_asymm_v5,2020.2.10,Win32,60,61025ae37ef11b136ea224fe,,,,,,,,,4358,-83.33331674,33.33330325,1,0,0,response7disk,,1,5.333393256,3.99998939,1,0,0,rectangle,5.333393256,3.99998939,1,0,0,5.333393256,3.99998939,1,0,0,0,6,6,20,1,,,,,,,,
,,,,,,,,,,,,,FF,,,,,,,,0.9836,,,,,,,,,,,,,,,,,,,,,,610338f9b119ef8991fe47c4,61036938f96a0725144837d6,2021-07-29_20h52.42.326,Simcolourproject_2stim_asymm_v5,2020.2.10,Win32,60,61025ae37ef11b136ea224fe,,,,,,,,,1001,100.0000221,-32.66667837,1,0,0,response3disk,,5,1.333393137,-6.000010908,1,0,0,rectangle,1.333393137,-6.000010908,1,0,0,1.333393137,-6.000010908,1,0,0,0,7,7,37,1,,,,,,,,
,,,,,,,,,,,,,FF,,,,,,,,1.4341,,,,,,,,,,,,,,,,,,,,,,610338f9b119ef8991fe47c4,61036938f96a0725144837d6,2021-07-29_20h52.42.326,Simcolourproject_2stim_asymm_v5,2020.2.10,Win32,60,61025ae37ef11b136ea224fe,,,,,,,,,3037,-67.33331627,43.99999058,1,0,0,response7disk,,1,-6.666607102,1.999989331,1,0,0,rectangle,-6.666607102,1.999989331,1,0,0,-6.666607102,1.999989331,1,0,0,0,8,8,137,1,,,,,,,,
,,,,,,,,,,,,,FF,,,,,,,,1.4528,,,,,,,,,,,,,,,,,,,,,,610338f9b119ef8991fe47c4,61036938f96a0725144837d6,2021-07-29_20h52.42.326,Simcolourproject_2stim_asymm_v5,2020.2.10,Win32,60,61025ae37ef11b136ea224fe,,,,,,,,,1394,60.00002086,-90.6666801,1,0,0,response3disk,,4,8.000019312,-4.000010848,1,0,0,rectangle,8.000019312,-4.000010848,1,0,0,8.000019312,-4.000010848,1,0,0,0,9,9,108,1,,,,,,,,
,,,,,,,,,,,,,FF,,,,,,,,1.15,,,,,,,,,,,,,,,,,,,,,,610338f9b119ef8991fe47c4,61036938f96a0725144837d6,2021-07-29_20h52.42.326,Simcolourproject_2stim_asymm_v5,2020.2.10,Win32,60,61025ae37ef11b136ea224fe,,,,,,,,,243,58.66668749,-46.66667879,1,0,0,response3disk,,5,-4.666607042,-2.666677475,1,0,0,rectangle,-4.666607042,-2.666677475,1,0,0,-4.666607042,-2.666677475,1,0,0,0,10,10,36,1,,,,,,,,
,,,,,,,,,,,,,FF,,,,,,,,1.4012,,,,,,,,,,,,,,,,,,,,,,610338f9b119ef8991fe47c4,61036938f96a0725144837d6,2021-07-29_20h52.42.326,Simcolourproject_2stim_asymm_v5,2020.2.10,Win32,60,61025ae37ef11b136ea224fe,,,,,,,,,1436,97.33335531,27.99999011,1,0,0,response1disk,,6,1.9735E-05,0.666655958,1,0,0,rectangle,1.9735E-05,0.666655958,1,0,0,1.9735E-05,0.666655958,1,0,0,0,11,11,54,1,,,,,,,,
,,,,,,,,,,,,,FF,,,,,,,,3.1015,,,,,,,,,,,,,,,,,,,,,,610338f9b119ef8991fe47c4,61036938f96a0725144837d6,2021-07-29_20h52.42.326,Simcolourproject_2stim_asymm_v5,2020.2.10,Win32,60,61025ae37ef11b136ea224fe,,,,,,,,,3700,-106.6666101,60.66665775,1,0,0,response7disk,,1,11.33339343,-2.000010788,1,0,0,rectangle,11.33339343,-2.000010788,1,0,0,11.33339343,-2.000010788,1,0,0,0,12,12,44,1,,,,,,,,
,,,,,,,,,,,,,FF,,,,,,,,1.4827,,,,,,,,,,,,,,,,,,,,,,610338f9b119ef8991fe47c4,61036938f96a0725144837d6,2021-07-29_20h52.42.326,Simcolourproject_2stim_asymm_v5,2020.2.10,Win32,60,61025ae37ef11b136ea224fe,,,,,,,,,1161,72.66668791,-31.333345,1,0,0,response3disk,,5,2.000019133,2.666656017,1,0,0,rectangle,-89.99998361,-39.33334523,1,0,0,-9.333314538,-6.666677594,1,0,0,0,13,13,38,1,,response5disk_3,TRUE,2,2,"[285,6,208,93,40,296,76,48,239,189,14,255,59,220,44,96,87,34,310,296]",2.0168,rectangle
,,,,,,,,,,,,,FF,,,,,,,,1.1171,,,,,,,,,,,,,,,,,,,,,,610338f9b119ef8991fe47c4,61036938f96a0725144837d6,2021-07-29_20h52.42.326,Simcolourproject_2stim_asymm_v5,2020.2.10,Win32,60,61025ae37ef11b136ea224fe,,,,,,,,,3824,-63.33331615,-32.66667837,1,0,0,response5disk,,2,1.9735E-05,-4.666677535,1,0,0,rectangle,1.9735E-05,-4.666677535,1,0,0,1.9735E-05,-4.666677535,1,0,0,0,14,14,136,1,,,,,,,,
,,,,,,,,,,,,,FF,,,,,,,,1.317,,,,,,,,,,,,,,,,,,,,,,610338f9b119ef8991fe47c4,61036938f96a0725144837d6,2021-07-29_20h52.42.326,Simcolourproject_2stim_asymm_v5,2020.2.10,Win32,60,61025ae37ef11b136ea224fe,,,,,,,,,1587,107.3333556,-57.33334577,1,0,0,response3disk,,5,-15.33331472,-1.07288E-05,1,0,0,rectangle,-15.33331472,-1.07288E-05,1,0,0,-15.33331472,-1.07288E-05,1,0,0,0,15,15,3,1,,,,,,,,
,,,,,,,,,,,,,FF,,,,,,,,1,,,,,,,,,,,,,,,,,,,,,,610338f9b119ef8991fe47c4,61036938f96a0725144837d6,2021-07-29_20h52.42.326,Simcolourproject_2stim_asymm_v5,2020.2.10,Win32,60,61025ae37ef11b136ea224fe,,,,,,,,,3711,-64.66660883,-100.6666804,1,0,0,response5disk,,3,1.9735E-05,7.99998951,1,0,0,rectangle,1.9735E-05,7.99998951,1,0,0,1.9735E-05,7.99998951,1,0,0,0,16,16,16,1,,,,,,,,
,,,,,,,,,,,,,FF,,,,,,,,1.6336,,,,,,,,,,,,,,,,,,,,,,610338f9b119ef8991fe47c4,61036938f96a0725144837d6,2021-07-29_20h52.42.326,Simcolourproject_2stim_asymm_v5,2020.2.10,Win32,60,61025ae37ef11b136ea224fe,,,,,,,,,4330,52.00002062,46.66665733,1,0,0,response1disk,,6,-9.999981225,3.333322704,1,0,0,rectangle,-9.999981225,3.333322704,1,0,0,-9.999981225,3.333322704,1,0,0,0,17,17,153,1,,,,,,,,
,,,,,,,,,,,,,FF,,,,,,,,7.9981,,,,,,,,,,,,,,,,,,,,,,610338f9b119ef8991fe47c4,61036938f96a0725144837d6,2021-07-29_20h52.42.326,Simcolourproject_2stim_asymm_v5,2020.2.10,Win32,60,61025ae37ef11b136ea224fe,,,,,,,,,273,75.33335465,-91.33334678,1,0,0,response3disk,,4,-1.999980986,-10.66667771,1,0,0,rectangle,-1.999980986,-10.66667771,1,0,0,-1.999980986,-10.66667771,1,0,0,0,18,18,69,1,,,,,,,,
,,,,,,,,,,,,,FF,,,,,,,,1.1341,,,,,,,,,,,,,,,,,,,,,,610338f9b119ef8991fe47c4,61036938f96a0725144837d6,2021-07-29_20h52.42.326,Simcolourproject_2stim_asymm_v5,2020.2.10,Win32,60,61025ae37ef11b136ea224fe,,,,,,,,,1866,54.00002068,59.33330403,1,0,0,response1disk,,7,-0.666606923,-4.833343089,1,0,0,rectangle,-0.666606923,-4.833343089,1,0,0,-0.666606923,-4.833343089,1,0,0,0,19,19,78,1,,,,,,,,
,,,,,,,,,,,,,FF,,,,,,,,1.0999,,,,,,,,,,,,,,,,,,,,,,610338f9b119ef8991fe47c4,61036938f96a0725144837d6,2021-07-29_20h52.42.326,Simcolourproject_2stim_asymm_v5,2020.2.10,Win32,60,61025ae37ef11b136ea224fe,,,,,,,,,3666,79.33335477,-63.5000115,1,0,0,response3disk,,5,16.00001955,-1.500009656,1,0,0,rectangle,16.00001955,-1.500009656,1,0,0,16.00001955,-1.500009656,1,0,0,0,20,20,35,1,,,,,,,,
,,,,,,,,,,,,,FF,,,,,,,,1.0832,,,,,,,,,,,,,,,,,,,,,,610338f9b119ef8991fe47c4,61036938f96a0725144837d6,2021-07-29_20h52.42.326,Simcolourproject_2stim_asymm_v5,2020.2.10,Win32,60,61025ae37ef11b136ea224fe,,,,,,,,,1210,103.3333555,59.16665882,1,0,0,response1disk,,6,-10.66660722,-5.500009775,1,0,0,rectangle,-10.66660722,-5.500009775,1,0,0,-10.66660722,-5.500009775,1,0,0,0,21,21,22,1,,,,,,,,
,,,,,,,,,,,,,FF,,,,,,,,0.9669,,,,,,,,,,,,,,,,,,,,,,610338f9b119ef8991fe47c4,61036938f96a0725144837d6,2021-07-29_20h52.42.326,Simcolourproject_2stim_asymm_v5,2020.2.10,Win32,60,61025ae37ef11b136ea224fe,,,,,,,,,524,-46.66660829,-72.83334512,1,0,0,response5disk,,3,-13.99998134,-6.833343148,1,0,0,rectangle,-13.99998134,-6.833343148,1,0,0,-13.99998134,-6.833343148,1,0,0,0,22,22,49,1,,,,,,,,
,,,,,,,,,,,,,FF,,,,,,,,2.2501,,,,,,,,,,,,,,,,,,,,,,610338f9b119ef8991fe47c4,61036938f96a0725144837d6,2021-07-29_20h52.42.326,Simcolourproject_2stim_asymm_v5,2020.2.10,Win32,60,61025ae37ef11b136ea224fe,,,,,,,,,689,78.66668808,-51.50001115,1,0,0,response3disk,,5,6.000019252,7.83330361,1,0,0,rectangle,6.000019252,7.83330361,1,0,0,6.000019252,7.83330361,1,0,0,0,23,23,122,1,,,,,,,,
,,,,,,,,,,,,,FF,,,,,,,,0.9329,,,,,,,,,,,,,,,,,,,,,,610338f9b119ef8991fe47c4,61036938f96a0725144837d6,2021-07-29_20h52.42.326,Simcolourproject_2stim_asymm_v5,2020.2.10,Win32,60,61025ae37ef11b136ea224fe,,,,,,,,,3705,-23.99998164,87.16665965,1,0,0,response7disk,,0,-7.333314478,-5.500009775,1,0,0,rectangle,-7.333314478,-5.500009775,1,0,0,-7.333314478,-5.500009775,1,0,0,0,24,24,52,1,,,,,,,,
,,,,,,,,,,,,,FF,,,,,,,,1.1843,,,,,,,,,,,,,,,,,,,,,,610338f9b119ef8991fe47c4,61036938f96a0725144837d6,2021-07-29_20h52.42.326,Simcolourproject_2stim_asymm_v5,2020.2.10,Win32,60,61025ae37ef11b136ea224fe,,,,,,,,,2470,71.33335453,25.83330415,1,0,0,response1disk,,6,-10.66660722,-2.833343029,1,0,0,rectangle,-10.66660722,-2.833343029,1,0,0,-10.66660722,-2.833343029,1,0,0,0,25,25,82,1,,,,,,,,
,,,,,,,,,,,,,FF,,,,,,,,4.1664,,,,,,,,,,,,,,,,,,,,,,610338f9b119ef8991fe47c4,61036938f96a0725144837d6,2021-07-29_20h52.42.326,Simcolourproject_2stim_asymm_v5,2020.2.10,Win32,60,61025ae37ef11b136ea224fe,,,,,,,,,536,106.0000222,-62.16667813,1,0,0,response3disk,,5,5.333393256,-8.166696866,1,0,0,rectangle,5.333393256,-8.166696866,1,0,0,5.333393256,-8.166696866,1,0,0,0,26,26,110,1,,,,,,,,
,,,,,,,,,,,,,FF,,,,,,,,2.8169,,,,,,,,,,,,,,,,,,,,,,610338f9b119ef8991fe47c4,61036938f96a0725144837d6,2021-07-29_20h52.42.326,Simcolourproject_2stim_asymm_v5,2020.2.10,Win32,60,61025ae37ef11b136ea224fe,,,,,,,,,3266,98.00002199,70.49999249,1,0,0,response1disk,,6,-10.66660722,8.499990642,1,0,0,rectangle,-10.66660722,8.499990642,1,0,0,-10.66660722,8.499990642,1,0,0,0,27,27,5,1,,,,,,,,
,,,,,,,,,,,,,FF,,,,,,,,1.2671,,,,,,,,,,,,,,,,,,,,,,610338f9b119ef8991fe47c4,61036938f96a0725144837d6,2021-07-29_20h52.42.326,Simcolourproject_2stim_asymm_v5,2020.2.10,Win32,60,61025ae37ef11b136ea224fe,,,,,,,,,4238,-94.66660972,-70.83334506,1,0,0,response5disk,,2,6.000019252,11.83330373,1,0,0,rectangle,6.000019252,11.83330373,1,0,0,6.000019252,11.83330373,1,0,0,0,28,28,43,1,,,,,,,,
,,,,,,,,,,,,,FF,,,,,,,,1.2001,,,,,,,,,,,,,,,,,,,,,,610338f9b119ef8991fe47c4,61036938f96a0725144837d6,2021-07-29_20h52.42.326,Simcolourproject_2stim_asymm_v5,2020.2.10,Win32,60,61025ae37ef11b136ea224fe,,,,,,,,,2040,-59.99998271,-26.83334374,1,0,0,response5disk,,2,3.333393196,-2.833343029,1,0,0,rectangle,3.333393196,-2.833343029,1,0,0,3.333393196,-2.833343029,1,0,0,0,29,29,134,1,,,,,,,,
,,,,,,,,,,,,,FF,,,,,,,,0.8355,,,,,,,,,,,,,,,,,,,,,,610338f9b119ef8991fe47c4,61036938f96a0725144837d6,2021-07-29_20h52.42.326,Simcolourproject_2stim_asymm_v5,2020.2.10,Win32,60,61025ae37ef11b136ea224fe,,,,,,,,,2065,74.00002128,55.83330504,1,0,0,response1disk,,6,-2.666606983,-5.500009775,1,0,0,rectangle,-2.666606983,-5.500009775,1,0,0,-2.666606983,-5.500009775,1,0,0,0,30,30,64,1,,,,,,,,
,,,,,,,,,,,,,FF,,,,,,,,1.2663,,,,,,,,,,,,,,,,,,,,,,610338f9b119ef8991fe47c4,61036938f96a0725144837d6,2021-07-29_20h52.42.326,Simcolourproject_2stim_asymm_v5,2020.2.10,Win32,60,61025ae37ef11b136ea224fe,,,,,,,,,314,77.33335471,31.16665798,1,0,0,response1disk,,6,19.33339367,5.833303551,1,0,0,rectangle,19.33339367,5.833303551,1,0,0,19.33339367,5.833303551,1,0,0,0,31,31,131,1,,,,,,,,
,,,,,,,,,,,,,FF,,,,,,,,0.8841,,,,,,,,,,,,,,,,,,,,,,610338f9b119ef8991fe47c4,61036938f96a0725144837d6,2021-07-29_20h52.42.326,Simcolourproject_2stim_asymm_v5,2020.2.10,Win32,60,61025ae37ef11b136ea224fe,,,,,,,,,3157,-65.33331621,-96.83334583,1,0,0,response5disk,,3,18.00001961,3.833303491,1,0,0,rectangle,18.00001961,3.833303491,1,0,0,18.00001961,3.833303491,1,0,0,0,32,32,27,1,,,,,,,,
,,,,,,,,,,,,,FF,,,,,,,,1.5853,,,,,,,,,,,,,,,,,,,,,,610338f9b119ef8991fe47c4,61036938f96a0725144837d6,2021-07-29_20h52.42.326,Simcolourproject_2stim_asymm_v5,2020.2.10,Win32,60,61025ae37ef11b136ea224fe,,,,,,,,,3500,65.33335435,-43.50001091,1,0,0,response3disk,,5,-5.999981105,-4.166696747,1,0,0,rectangle,78.0000214,-46.83334434,1,0,0,5.333393256,-0.166696628,1,0,0,0,33,33,152,1,,response3disk_3,TRUE,5,5,"[285,6,208,93,40,296,76,48,239,189,14,255,59,220,44,96,87,34,310,296]",2.8501,rectangle
,,,,,,,,,,,,,FF,,,,,,,,0.8337,,,,,,,,,,,,,,,,,,,,,,610338f9b119ef8991fe47c4,61036938f96a0725144837d6,2021-07-29_20h52.42.326,Simcolourproject_2stim_asymm_v5,2020.2.10,Win32,60,61025ae37ef11b136ea224fe,,,,,,,,,911,40.66668695,65.83330534,1,0,0,response1disk,,7,25.33339385,-4.166696747,1,0,0,rectangle,25.33339385,-4.166696747,1,0,0,25.33339385,-4.166696747,1,0,0,0,34,34,75,1,,,,,,,,
,,,,,,,,,,,,,FF,,,,,,,,0.9684,,,,,,,,,,,,,,,,,,,,,,610338f9b119ef8991fe47c4,61036938f96a0725144837d6,2021-07-29_20h52.42.326,Simcolourproject_2stim_asymm_v5,2020.2.10,Win32,60,61025ae37ef11b136ea224fe,,,,,,,,,3969,-66.66660889,-95.50001246,1,0,0,response5disk,,3,-5.999981105,-2.833343029,1,0,0,rectangle,-5.999981105,-2.833343029,1,0,0,-5.999981105,-2.833343029,1,0,0,0,35,35,55,1,,,,,,,,
,,,,,,,,,,,,,FF,,,,,,,,0.8502,,,,,,,,,,,,,,,,,,,,,,610338f9b119ef8991fe47c4,61036938f96a0725144837d6,2021-07-29_20h52.42.326,Simcolourproject_2stim_asymm_v5,2020.2.10,Win32,60,61025ae37ef11b136ea224fe,,,,,,,,,2157,98.66668868,45.83330474,1,0,0,response1disk,,6,28.00001991,7.83330361,1,0,0,rectangle,28.00001991,7.83330361,1,0,0,28.00001991,7.83330361,1,0,0,0,36,36,99,1,,,,,,,,
,,,,,,,,,,,,,FF,,,,,,,,1.2667,,,,,,,,,,,,,,,,,,,,,,610338f9b119ef8991fe47c4,61036938f96a0725144837d6,2021-07-29_20h52.42.326,Simcolourproject_2stim_asymm_v5,2020.2.10,Win32,60,61025ae37ef11b136ea224fe,,,,,,,,,2971,72.00002122,85.83330594,1,0,0,response1disk,,7,-5.333314419,-12.16669699,1,0,0,rectangle,-5.333314419,-12.16669699,1,0,0,-5.333314419,-12.16669699,1,0,0,0,37,37,74,1,,,,,,,,
,,,,,,,,,,,,,FF,,,,,,,,2.7329,,,,,,,,,,,,,,,,,,,,,,610338f9b119ef8991fe47c4,61036938f96a0725144837d6,2021-07-29_20h52.42.326,Simcolourproject_2stim_asymm_v5,2020.2.10,Win32,60,61025ae37ef11b136ea224fe,,,,,,,,,1341,-33.99998194,-59.50001138,1,0,0,response5disk,,3,-18.66660746,9.166657329,1,0,0,rectangle,-18.66660746,9.166657329,1,0,0,-18.66660746,9.166657329,1,0,0,0,38,38,81,1,,,,,,,,
,,,,,,,,,,,,,FF,,,,,,,,1.0006,,,,,,,,,,,,,,,,,,,,,,610338f9b119ef8991fe47c4,61036938f96a0725144837d6,2021-07-29_20h52.42.326,Simcolourproject_2stim_asymm_v5,2020.2.10,Win32,60,61025ae37ef11b136ea224fe,,,,,,,,,2938,89.33335507,24.49999112,1,0,0,response1disk,,6,-2.666606983,-8.833343208,1,0,0,rectangle,80.00002146,-32.16667724,1,0,0,-5.333314419,-0.166696628,1,0,0,0,39,39,100,1,,response3disk_3,TRUE,5,5,"[285,6,208,93,40,296,76,48,239,189,14,255,59,220,44,96,87,34,310,296]",2.3692,rectangle
,,,,,,,,,,,,,FF,,,,,,,,1.2649,,,,,,,,,,,,,,,,,,,,,,610338f9b119ef8991fe47c4,61036938f96a0725144837d6,2021-07-29_20h52.42.326,Simcolourproject_2stim_asymm_v5,2020.2.10,Win32,60,61025ae37ef11b136ea224fe,,,,,,,,,2072,59.33335418,51.83330492,1,0,0,response1disk,,6,4.000019193,-9.500009894,1,0,0,rectangle,4.000019193,-9.500009894,1,0,0,4.000019193,-9.500009894,1,0,0,0,40,40,125,1,,,,,,,,
,,,,,,,,,,,,,FF,,,,,,,,1.133,,,,,,,,,,,,,,,,,,,,,,610338f9b119ef8991fe47c4,61036938f96a0725144837d6,2021-07-29_20h52.42.326,Simcolourproject_2stim_asymm_v5,2020.2.10,Win32,60,61025ae37ef11b136ea224fe,,,,,,,,,1734,-41.99998218,67.8333054,1,0,0,response7disk,,0,5.333393256,-0.833342969,1,0,0,rectangle,5.333393256,-0.833342969,1,0,0,5.333393256,-0.833342969,1,0,0,0,41,41,124,1,,,,,,,,
,,,,,,,,,,,,,FF,,,,,,,,2.2362,,,,,,,,,,,,,,,,,,,,,,610338f9b119ef8991fe47c4,61036938f96a0725144837d6,2021-07-29_20h52.42.326,Simcolourproject_2stim_asymm_v5,2020.2.10,Win32,60,61025ae37ef11b136ea224fe,,,,,,,,,1580,78.66668808,-54.16667789,1,0,0,response3disk,,5,22.66668642,-2.833343029,1,0,0,rectangle,22.66668642,-2.833343029,1,0,0,22.66668642,-2.833343029,1,0,0,0,42,42,2,1,,,,,,,,
,,,,,,,,,,,,,FF,,,,,,,,1.0367,,,,,,,,,,,,,,,,,,,,,,610338f9b119ef8991fe47c4,61036938f96a0725144837d6,2021-07-29_20h52.42.326,Simcolourproject_2stim_asymm_v5,2020.2.10,Win32,60,61025ae37ef11b136ea224fe,,,,,,,,,2068,108.666689,23.16665775,1,0,0,response1disk,,6,-13.99998134,-0.833342969,1,0,0,rectangle,-94.66660972,42.49999166,1,0,0,20.66668636,2.499990463,1,0,0,0,43,43,111,1,,response7disk_3,TRUE,1,1,"[285,6,208,93,40,296,76,48,239,189,14,255,59,220,44,96,87,34,310,296]",2.3194,rectangle
,,,,,,,,,,,,,FF,,,,,,,,1.5005,,,,,,,,,,,,,,,,,,,,,,610338f9b119ef8991fe47c4,61036938f96a0725144837d6,2021-07-29_20h52.42.326,Simcolourproject_2stim_asymm_v5,2020.2.10,Win32,60,61025ae37ef11b136ea224fe,,,,,,,,,2840,-31.33331519,-100.8333459,1,0,0,response5disk,,3,-3.333314359,-6.166696807,1,0,0,rectangle,-3.333314359,-6.166696807,1,0,0,-3.333314359,-6.166696807,1,0,0,0,44,44,157,1,,,,,,,,
,,,,,,,,,,,,,FF,,,,,,,,0.85,,,,,,,,,,,,,,,,,,,,,,610338f9b119ef8991fe47c4,61036938f96a0725144837d6,2021-07-29_20h52.42.326,Simcolourproject_2stim_asymm_v5,2020.2.10,Win32,60,61025ae37ef11b136ea224fe,,,,,,,,,1991,96.66668862,39.83330456,1,0,0,response1disk,,6,-13.33331466,8.499990642,1,0,0,rectangle,-13.33331466,8.499990642,1,0,0,-13.33331466,8.499990642,1,0,0,0,45,45,15,1,,,,,,,,
,,,,,,,,,,,,,FF,,,,,,,,0.9146,,,,,,,,,,,,,,,,,,,,,,610338f9b119ef8991fe47c4,61036938f96a0725144837d6,2021-07-29_20h52.42.326,Simcolourproject_2stim_asymm_v5,2020.2.10,Win32,60,61025ae37ef11b136ea224fe,,,,,,,,,3744,-69.33331633,31.16665798,1,0,0,response7disk,,1,-4.666607042,-4.833343089,1,0,0,rectangle,-4.666607042,-4.833343089,1,0,0,-4.666607042,-4.833343089,1,0,0,0,46,46,159,1,,,,,,,,
,,,,,,,,,,,,,FF,,,,,,,,4.8812,,,,,,,,,,,,,,,,,,,,,,610338f9b119ef8991fe47c4,61036938f96a0725144837d6,2021-07-29_20h52.42.326,Simcolourproject_2stim_asymm_v5,2020.2.10,Win32,60,61025ae37ef11b136ea224fe,,,,,,,,,2586,-28.66660776,-82.16667873,1,0,0,response5disk,,3,-0.666606923,-6.166696807,1,0,0,rectangle,22.00001973,62.49999225,1,0,0,4.000019193,-8.833343208,1,0,0,0,47,47,59,1,,response1disk_3,TRUE,7,7,"[285,6,208,93,40,296,76,48,239,189,14,255,59,220,44,96,87,34,310,296]",1.8661,rectangle
,,,,,,,,,,,,,FF,,,,,,,,1.1032,,,,,,,,,,,,,,,,,,,,,,610338f9b119ef8991fe47c4,61036938f96a0725144837d6,2021-07-29_20h52.42.326,Simcolourproject_2stim_asymm_v5,2020.2.10,Win32,60,61025ae37ef11b136ea224fe,,,,,,,,,2909,-66.66660889,-54.16667789,1,0,0,response5disk,,2,19.33339367,-4.833343089,1,0,0,rectangle,19.33339367,-4.833343089,1,0,0,19.33339367,-4.833343089,1,0,0,0,48,48,60,1,,,,,,,,
,,,,,,,,,,,,,FF,,,,,,,,10.9478,,,,,,,,,,,,,,,,,,,,,,610338f9b119ef8991fe47c4,61036938f96a0725144837d6,2021-07-29_20h52.42.326,Simcolourproject_2stim_asymm_v5,2020.2.10,Win32,60,61025ae37ef11b136ea224fe,,,,,,,,,1634,25.33339385,-104.1666794,1,0,0,response3disk,,4,-26.6666077,-3.500009716,1,0,0,rectangle,-26.6666077,-3.500009716,1,0,0,-26.6666077,-3.500009716,1,0,0,0,49,49,154,1,,,,,,,,
,,,,,,,,,,,,,FF,,,,,,,,1.35,,,,,,,,,,,,,,,,,,,,,,610338f9b119ef8991fe47c4,61036938f96a0725144837d6,2021-07-29_20h52.42.326,Simcolourproject_2stim_asymm_v5,2020.2.10,Win32,60,61025ae37ef11b136ea224fe,,,,,,,,,1745,-110.6666102,-68.16667831,1,0,0,response5disk,,2,-5.333314419,-8.166696866,1,0,0,rectangle,-5.333314419,-8.166696866,1,0,0,-5.333314419,-8.166696866,1,0,0,0,50,50,19,1,,,,,,,,
,,,,,,,,,,,,,FF,,,,,,,,1.3169,,,,,,,,,,,,,,,,,,,,,,610338f9b119ef8991fe47c4,61036938f96a0725144837d6,2021-07-29_20h52.42.326,Simcolourproject_2stim_asymm_v5,2020.2.10,Win32,60,61025ae37ef11b136ea224fe,,,,,,,,,3557,-45.33331561,-31.50001055,1,0,0,response5disk,,2,7.333393315,-2.166696688,1,0,0,rectangle,7.333393315,-2.166696688,1,0,0,7.333393315,-2.166696688,1,0,0,0,51,51,13,1,,,,,,,,
,,,,,,,,,,,,,FF,,,,,,,,1.233,,,,,,,,,,,,,,,,,,,,,,610338f9b119ef8991fe47c4,61036938f96a0725144837d6,2021-07-29_20h52.42.326,Simcolourproject_2stim_asymm_v5,2020.2.10,Win32,60,61025ae37ef11b136ea224fe,,,,,,,,,2365,38.66668689,-102.1666793,1,0,0,response3disk,,4,-9.333314538,-1.500009656,1,0,0,rectangle,-9.333314538,-1.500009656,1,0,0,-9.333314538,-1.500009656,1,0,0,0,52,52,121,1,,,,,,,,
,,,,,,,,,,,,,FF,,,,,,,,1.3868,,,,,,,,,,,,,,,,,,,,,,610338f9b119ef8991fe47c4,61036938f96a0725144837d6,2021-07-29_20h52.42.326,Simcolourproject_2stim_asymm_v5,2020.2.10,Win32,60,61025ae37ef11b136ea224fe,,,,,,,,,2075,61.33335423,96.49999326,1,0,0,response1disk,,7,-5.999981105,1.833303432,1,0,0,rectangle,-5.999981105,1.833303432,1,0,0,-5.999981105,1.833303432,1,0,0,0,53,53,10,1,,,,,,,,
,,,,,,,,,,,,,FF,,,,,,,,0.9832,,,,,,,,,,,,,,,,,,,,,,610338f9b119ef8991fe47c4,61036938f96a0725144837d6,2021-07-29_20h52.42.326,Simcolourproject_2stim_asymm_v5,2020.2.10,Win32,60,61025ae37ef11b136ea224fe,,,,,,,,,1830,40.00002027,-63.5000115,1,0,0,response3disk,,4,-12.66660728,-3.500009716,1,0,0,rectangle,-12.66660728,-3.500009716,1,0,0,-12.66660728,-3.500009716,1,0,0,0,54,54,135,1,,,,,,,,
,,,,,,,,,,,,,FF,,,,,,,,2.1697,,,,,,,,,,,,,,,,,,,,,,610338f9b119ef8991fe47c4,61036938f96a0725144837d6,2021-07-29_20h52.42.326,Simcolourproject_2stim_asymm_v5,2020.2.10,Win32,60,61025ae37ef11b136ea224fe,,,,,,,,,3698,-31.99998188,-100.8333459,1,0,0,response5disk,,3,4.000019193,-11.50000995,1,0,0,rectangle,4.000019193,-11.50000995,1,0,0,4.000019193,-11.50000995,1,0,0,0,55,55,48,1,,,,,,,,
,,,,,,,,,,,,,FF,,,,,,,,2.5001,,,,,,,,,,,,,,,,,,,,,,610338f9b119ef8991fe47c4,61036938f96a0725144837d6,2021-07-29_20h52.42.326,Simcolourproject_2stim_asymm_v5,2020.2.10,Win32,60,61025ae37ef11b136ea224fe,,,,,,,,,1122,-28.66660776,-86.16667885,1,0,0,response5disk,,3,9.333393375,0.499990404,1,0,0,rectangle,9.333393375,0.499990404,1,0,0,9.333393375,0.499990404,1,0,0,0,56,56,1,1,,,,,,,,
,,,,,,,,,,,,,FF,,,,,,,,2.501,,,,,,,,,,,,,,,,,,,,,,610338f9b119ef8991fe47c4,61036938f96a0725144837d6,2021-07-29_20h52.42.326,Simcolourproject_2stim_asymm_v5,2020.2.10,Win32,60,61025ae37ef11b136ea224fe,,,,,,,,,3586,-83.99998343,-66.83334494,1,0,0,response5disk,,2,-18.66660746,-6.166696807,1,0,0,rectangle,-18.66660746,-6.166696807,1,0,0,-18.66660746,-6.166696807,1,0,0,0,57,57,119,1,,,,,,,,
,,,,,,,,,,,,,FF,,,,,,,,1.0832,,,,,,,,,,,,,,,,,,,,,,610338f9b119ef8991fe47c4,61036938f96a0725144837d6,2021-07-29_20h52.42.326,Simcolourproject_2stim_asymm_v5,2020.2.10,Win32,60,61025ae37ef11b136ea224fe,,,,,,,,,4137,46.00002044,-50.83334446,1,0,0,response3disk,,4,-7.999981165,7.83330361,1,0,0,rectangle,-33.99998194,33.83330439,1,0,0,-23.33331496,-2.833343029,1,0,0,0,58,58,71,1,,response7disk_3,TRUE,1,0,"[285,6,208,93,40,296,76,48,239,189,14,255,59,220,44,96,87,34,310,296]",1.2362,rectangle
,,,,,,,,,,,,,FF,,,,,,,,3.4497,,,,,,,,,,,,,,,,,,,,,,610338f9b119ef8991fe47c4,61036938f96a0725144837d6,2021-07-29_20h52.42.326,Simcolourproject_2stim_asymm_v5,2020.2.10,Win32,60,61025ae37ef11b136ea224fe,,,,,,,,,3051,-53.99998254,-84.16667879,1,0,0,response5disk,,3,2.66668582,9.166657329,1,0,0,rectangle,2.66668582,9.166657329,1,0,0,2.66668582,9.166657329,1,0,0,0,59,59,116,1,,,,,,,,
,,,,,,,,,,,,,FF,,,,,,,,1.8842,,,,,,,,,,,,,,,,,,,,,,610338f9b119ef8991fe47c4,61036938f96a0725144837d6,2021-07-29_20h52.42.326,Simcolourproject_2stim_asymm_v5,2020.2.10,Win32,60,61025ae37ef11b136ea224fe,,,,,,,,,1009,100.6666887,43.16665834,1,0,0,response1disk,,6,14.00001949,2.499990463,1,0,0,rectangle,14.00001949,2.499990463,1,0,0,14.00001949,2.499990463,1,0,0,0,60,60,83,1,,,,,,,,
,,,,,,,,,,,,,FF,,,,,,,,0.848,,,,,,,,,,,,,,,,,,,,,,610338f9b119ef8991fe47c4,61036938f96a0725144837d6,2021-07-29_20h52.42.326,Simcolourproject_2stim_asymm_v5,2020.2.10,Win32,60,61025ae37ef11b136ea224fe,,,,,,,,,1782,82.00002152,22.49999106,1,0,0,response1disk,,6,2.66668582,-0.833342969,1,0,0,rectangle,2.66668582,-0.833342969,1,0,0,2.66668582,-0.833342969,1,0,0,0,61,61,95,1,,,,,,,,
,,,,,,,,,,,,,FF,,,,,,,,10.7499,,,,,,,,,,,,,,,,,,,,,,610338f9b119ef8991fe47c4,61036938f96a0725144837d6,2021-07-29_20h52.42.326,Simcolourproject_2stim_asymm_v5,2020.2.10,Win32,60,61025ae37ef11b136ea224fe,,,,,,,,,2356,44.66668707,-68.16667831,1,0,0,response3disk,,4,-9.333314538,-2.833343029,1,0,0,rectangle,-9.333314538,-2.833343029,1,0,0,-9.333314538,-2.833343029,1,0,0,0,62,62,94,1,,,,,,,,
,,,,,,,,,,,,,FF,,,,,,,,8.2146,,,,,,,,,,,,,,,,,,,,,,610338f9b119ef8991fe47c4,61036938f96a0725144837d6,2021-07-29_20h52.42.326,Simcolourproject_2stim_asymm_v5,2020.2.10,Win32,60,61025ae37ef11b136ea224fe,,,,,,,,,1469,56.66668743,-110.1666796,1,0,0,response3disk,,4,-6.666607102,-0.833342969,1,0,0,rectangle,-6.666607102,-0.833342969,1,0,0,-6.666607102,-0.833342969,1,0,0,0,63,63,90,1,,,,,,,,
,,,,,,,,,,,,,FF,,,,,,,,5.2981,,,,,,,,,,,,,,,,,,,,,,610338f9b119ef8991fe47c4,61036938f96a0725144837d6,2021-07-29_20h52.42.326,Simcolourproject_2stim_asymm_v5,2020.2.10,Win32,60,61025ae37ef11b136ea224fe,,,,,,,,,705,-25.9999817,-59.50001138,1,0,0,response5disk,,3,-5.333314419,9.83330367,1,0,0,rectangle,-5.333314419,9.83330367,1,0,0,-5.333314419,9.83330367,1,0,0,0,64,64,53,1,,,,,,,,
,,,,,,,,,,,,,FF,,,,,,,,1.2861,,,,,,,,,,,,,,,,,,,,,,610338f9b119ef8991fe47c4,61036938f96a0725144837d6,2021-07-29_20h52.42.326,Simcolourproject_2stim_asymm_v5,2020.2.10,Win32,60,61025ae37ef11b136ea224fe,,,,,,,,,2915,83.33335489,31.83330433,1,0,0,response1disk,,6,-15.9999814,2.499990463,1,0,0,rectangle,-15.9999814,2.499990463,1,0,0,-15.9999814,2.499990463,1,0,0,0,65,65,151,1,,,,,,,,
,,,,,,,,,,,,,FF,,,,,,,,1.5818,,,,,,,,,,,,,,,,,,,,,,610338f9b119ef8991fe47c4,61036938f96a0725144837d6,2021-07-29_20h52.42.326,Simcolourproject_2stim_asymm_v5,2020.2.10,Win32,60,61025ae37ef11b136ea224fe,,,,,,,,,460,31.33339403,-57.50001132,1,0,0,response3disk,,4,1.333393137,0.499990404,1,0,0,rectangle,1.333393137,0.499990404,1,0,0,1.333393137,0.499990404,1,0,0,0,66,66,9,1,,,,,,,,
,,,,,,,,,,,,,FF,,,,,,,,4.453,,,,,,,,,,,,,,,,,,,,,,610338f9b119ef8991fe47c4,61036938f96a0725144837d6,2021-07-29_20h52.42.326,Simcolourproject_2stim_asymm_v5,2020.2.10,Win32,60,61025ae37ef11b136ea224fe,,,,,,,,,1836,42.66668701,-91.50001234,1,0,0,response3disk,,4,-6.666607102,8.499990642,0,0,1,rectangle,-6.666607102,8.499990642,0,0,1,-6.666607102,8.499990642,0,0,1,0,67,67,102,1,,,,,,,,
,,,,,,,,,,,,,FF,,,,,,,,4.5329,,,,,,,,,,,,,,,,,,,,,,610338f9b119ef8991fe47c4,61036938f96a0725144837d6,2021-07-29_20h52.42.326,Simcolourproject_2stim_asymm_v5,2020.2.10,Win32,60,61025ae37ef11b136ea224fe,,,,,,,,,3644,29.33339397,-70.83334506,1,0,0,response3disk,,4,-5.999981105,3.16665715,1,0,0,rectangle,-5.999981105,3.16665715,1,0,0,-5.999981105,3.16665715,1,0,0,0,68,68,76,1,,,,,,,,
,,,,,,,,,,,,,FF,,,,,,,,1.067,,,,,,,,,,,,,,,,,,,,,,610338f9b119ef8991fe47c4,61036938f96a0725144837d6,2021-07-29_20h52.42.326,Simcolourproject_2stim_asymm_v5,2020.2.10,Win32,60,61025ae37ef11b136ea224fe,,,,,,,,,3746,-74.66660913,48.49999183,1,0,0,response7disk,,1,0.66668576,-2.833343029,1,0,0,rectangle,0.66668576,-2.833343029,1,0,0,0.66668576,-2.833343029,1,0,0,0,69,69,84,1,,,,,,,,
,,,,,,,,,,,,,FF,,,,,,,,3.303,,,,,,,,,,,,,,,,,,,,,,610338f9b119ef8991fe47c4,61036938f96a0725144837d6,2021-07-29_20h52.42.326,Simcolourproject_2stim_asymm_v5,2020.2.10,Win32,60,61025ae37ef11b136ea224fe,,,,,,,,,756,82.00002152,19.83330397,1,0,0,response1disk,,6,20.66668636,-0.166696628,1,0,0,rectangle,20.66668636,-0.166696628,1,0,0,20.66668636,-0.166696628,1,0,0,0,70,70,66,1,,,,,,,,
,,,,,,,,,,,,,FF,,,,,,,,6.3704,,,,,,,,,,,,,,,,,,,,,,610338f9b119ef8991fe47c4,61036938f96a0725144837d6,2021-07-29_20h52.42.326,Simcolourproject_2stim_asymm_v5,2020.2.10,Win32,60,61025ae37ef11b136ea224fe,,,,,,,,,3690,35.33339415,-66.16667825,1,0,0,response3disk,,4,-25.9999817,-6.166696807,1,0,0,rectangle,-25.9999817,-6.166696807,1,0,0,-25.9999817,-6.166696807,1,0,0,0,71,71,142,1,,,,,,,,
,,,,,,,,,,,,,FF,,,,,,,,1.7835,,,,,,,,,,,,,,,,,,,,,,610338f9b119ef8991fe47c4,61036938f96a0725144837d6,2021-07-29_20h52.42.326,Simcolourproject_2stim_asymm_v5,2020.2.10,Win32,60,61025ae37ef11b136ea224fe,,,,,,,,,1971,84.00002158,-18.16669716,1,0,0,response3disk,,5,-8.666607161,12.49999076,1,0,0,rectangle,-8.666607161,12.49999076,1,0,0,-8.666607161,12.49999076,1,0,0,0,72,72,101,1,,,,,,,,
,,,,,,,,,,,,,FF,,,,,,,,2.453,,,,,,,,,,,,,,,,,,,,,,610338f9b119ef8991fe47c4,61036938f96a0725144837d6,2021-07-29_20h52.42.326,Simcolourproject_2stim_asymm_v5,2020.2.10,Win32,60,61025ae37ef11b136ea224fe,,,,,,,,,4180,66.66668773,31.83330433,1,0,0,response1disk,,6,5.333393256,-0.833342969,1,0,0,rectangle,5.333393256,-0.833342969,1,0,0,5.333393256,-0.833342969,1,0,0,0,73,73,112,1,,,,,,,,
,,,,,,,,,,,,,FF,,,,,,,,1.286,,,,,,,,,,,,,,,,,,,,,,610338f9b119ef8991fe47c4,61036938f96a0725144837d6,2021-07-29_20h52.42.326,Simcolourproject_2stim_asymm_v5,2020.2.10,Win32,60,61025ae37ef11b136ea224fe,,,,,,,,,3552,-39.33331543,73.16665924,1,0,0,response7disk,,0,4.000019193,5.833303551,1,0,0,rectangle,4.000019193,5.833303551,1,0,0,4.000019193,5.833303551,1,0,0,0,74,74,80,1,,,,,,,,
,,,,,,,,,,,,,FF,,,,,,,,1.0004,,,,,,,,,,,,,,,,,,,,,,610338f9b119ef8991fe47c4,61036938f96a0725144837d6,2021-07-29_20h52.42.326,Simcolourproject_2stim_asymm_v5,2020.2.10,Win32,60,61025ae37ef11b136ea224fe,,,,,,,,,19,95.33335525,-24.83334368,1,0,0,response3disk,,5,-1.999980986,7.166657269,1,0,0,rectangle,70.66668785,-46.83334434,1,0,0,-9.333314538,5.166657209,1,0,0,0,75,75,0,1,,response3disk_3,TRUE,5,5,"[285,6,208,93,40,296,76,48,239,189,14,255,59,220,44,96,87,34,310,296]",1.4811,rectangle
,,,,,,,,,,,,,FF,,,,,,,,2.9836,,,,,,,,,,,,,,,,,,,,,,610338f9b119ef8991fe47c4,61036938f96a0725144837d6,2021-07-29_20h52.42.326,Simcolourproject_2stim_asymm_v5,2020.2.10,Win32,60,61025ae37ef11b136ea224fe,,,,,,,,,825,64.00002098,26.49999118,1,0,0,response1disk,,6,11.33339343,1.833303432,1,0,0,rectangle,11.33339343,1.833303432,1,0,0,11.33339343,1.833303432,1,0,0,0,76,76,61,1,,,,,,,,
,,,,,,,,,,,,,FF,,,,,,,,1.1499,,,,,,,,,,,,,,,,,,,,,,610338f9b119ef8991fe47c4,61036938f96a0725144837d6,2021-07-29_20h52.42.326,Simcolourproject_2stim_asymm_v5,2020.2.10,Win32,60,61025ae37ef11b136ea224fe,,,,,,,,,2308,64.66668767,-42.16667753,1,0,0,response3disk,,5,-15.33331472,7.166657269,1,0,0,rectangle,-15.33331472,7.166657269,1,0,0,-15.33331472,7.166657269,1,0,0,0,77,77,57,1,,,,,,,,
,,,,,,,,,,,,,FF,,,,,,,,1.1367,,,,,,,,,,,,,,,,,,,,,,610338f9b119ef8991fe47c4,61036938f96a0725144837d6,2021-07-29_20h52.42.326,Simcolourproject_2stim_asymm_v5,2020.2.10,Win32,60,61025ae37ef11b136ea224fe,,,,,,,,,3203,38.00002021,-76.83334523,1,0,0,response3disk,,4,4.666685879,-1.500009656,1,0,0,rectangle,4.666685879,-1.500009656,1,0,0,4.666685879,-1.500009656,1,0,0,0,78,78,104,1,,,,,,,,
,,,,,,,,,,,,,FF,,,,,,,,1.334,,,,,,,,,,,,,,,,,,,,,,610338f9b119ef8991fe47c4,61036938f96a0725144837d6,2021-07-29_20h52.42.326,Simcolourproject_2stim_asymm_v5,2020.2.10,Win32,60,61025ae37ef11b136ea224fe,,,,,,,,,1512,105.3333555,-28.8333438,1,0,0,response3disk,,5,-12.66660728,7.166657269,1,0,0,rectangle,-12.66660728,7.166657269,1,0,0,-12.66660728,7.166657269,1,0,0,0,79,79,120,1,,,,,,,,
,,,,,,,,,,,,,FF,,,,,,,,1.4315,,,,,,,,,,,,,,,,,,,,,,610338f9b119ef8991fe47c4,61036938f96a0725144837d6,2021-07-29_20h52.42.326,Simcolourproject_2stim_asymm_v5,2020.2.10,Win32,60,61025ae37ef11b136ea224fe,,,,,,,,,4080,51.33335394,-67.50001162,1,0,0,response3disk,,4,-25.33331501,5.166657209,1,0,0,rectangle,-25.33331501,5.166657209,1,0,0,-25.33331501,5.166657209,1,0,0,0,80,80,97,1,,,,,,,,
,,,,,,,,,,,,,FF,,,,,,,,1.1337,,,,,,,,,,,,,,,,,,,,,,610338f9b119ef8991fe47c4,61036938f96a0725144837d6,2021-07-29_20h52.42.326,Simcolourproject_2stim_asymm_v5,2020.2.10,Win32,60,61025ae37ef11b136ea224fe,,,,,,,,,1598,-23.33331496,-96.83334583,1,0,0,response5disk,,3,14.00001949,-12.16669699,1,0,0,rectangle,14.00001949,-12.16669699,1,0,0,14.00001949,-12.16669699,1,0,0,0,81,81,93,1,,,,,,,,
,,,,,,,,,,,,,FF,,,,,,,,1.0505,,,,,,,,,,,,,,,,,,,,,,610338f9b119ef8991fe47c4,61036938f96a0725144837d6,2021-07-29_20h52.42.326,Simcolourproject_2stim_asymm_v5,2020.2.10,Win32,60,61025ae37ef11b136ea224fe,,,,,,,,,4326,-59.99998271,75.1666593,1,0,0,response7disk,,0,22.00001973,5.166657209,1,0,0,rectangle,22.00001973,5.166657209,1,0,0,22.00001973,5.166657209,1,0,0,0,82,82,140,1,,,,,,,,
,,,,,,,,,,,,,FF,,,,,,,,1.8193,,,,,,,,,,,,,,,,,,,,,,610338f9b119ef8991fe47c4,61036938f96a0725144837d6,2021-07-29_20h52.42.326,Simcolourproject_2stim_asymm_v5,2020.2.10,Win32,60,61025ae37ef11b136ea224fe,,,,,,,,,612,-78.66660925,-31.50001055,1,0,0,response5disk,,2,14.66668618,-6.166696807,1,0,0,rectangle,14.66668618,-6.166696807,1,0,0,14.66668618,-6.166696807,1,0,0,0,83,83,29,1,,,,,,,,
,,,,,,,,,,,,,FF,,,,,,,,1.2988,,,,,,,,,,,,,,,,,,,,,,610338f9b119ef8991fe47c4,61036938f96a0725144837d6,2021-07-29_20h52.42.326,Simcolourproject_2stim_asymm_v5,2020.2.10,Win32,60,61025ae37ef11b136ea224fe,,,,,,,,,939,33.33339409,63.83330528,1,0,0,response1disk,,7,6.666685939,-4.833343089,1,0,0,rectangle,6.666685939,-4.833343089,1,0,0,6.666685939,-4.833343089,1,0,0,0,84,84,132,1,,,,,,,,
,,,,,,,,,,,,,FF,,,,,,,,1.0513,,,,,,,,,,,,,,,,,,,,,,610338f9b119ef8991fe47c4,61036938f96a0725144837d6,2021-07-29_20h52.42.326,Simcolourproject_2stim_asymm_v5,2020.2.10,Win32,60,61025ae37ef11b136ea224fe,,,,,,,,,951,71.33335453,30.4999913,1,0,0,response1disk,,6,1.9735E-05,-8.833343208,1,0,0,rectangle,1.9735E-05,-8.833343208,1,0,0,1.9735E-05,-8.833343208,1,0,0,0,85,85,70,1,,,,,,,,
,,,,,,,,,,,,,FF,,,,,,,,1.3332,,,,,,,,,,,,,,,,,,,,,,610338f9b119ef8991fe47c4,61036938f96a0725144837d6,2021-07-29_20h52.42.326,Simcolourproject_2stim_asymm_v5,2020.2.10,Win32,60,61025ae37ef11b136ea224fe,,,,,,,,,824,104.6666889,-39.50001079,1,0,0,response3disk,,5,-19.33331484,5.166657209,1,0,0,rectangle,56.00002074,93.16665983,1,0,0,2.000019133,5.833303551,1,0,0,0,86,86,62,1,,response1disk_3,TRUE,7,7,"[285,6,208,93,40,296,76,48,239,189,14,255,59,220,44,96,87,34,310,296]",1.766,rectangle
,,,,,,,,,,,,,FF,,,,,,,,1.3191,,,,,,,,,,,,,,,,,,,,,,610338f9b119ef8991fe47c4,61036938f96a0725144837d6,2021-07-29_20h52.42.326,Simcolourproject_2stim_asymm_v5,2020.2.10,Win32,60,61025ae37ef11b136ea224fe,,,,,,,,,1601,-76.66660919,41.16665828,1,0,0,response7disk,,1,-2.666606983,9.83330367,1,0,0,rectangle,-2.666606983,9.83330367,1,0,0,-2.666606983,9.83330367,1,0,0,0,87,87,89,1,,,,,,,,
,,,,,,,,,,,,,FF,,,,,,,,1.983,,,,,,,,,,,,,,,,,,,,,,610338f9b119ef8991fe47c4,61036938f96a0725144837d6,2021-07-29_20h52.42.326,Simcolourproject_2stim_asymm_v5,2020.2.10,Win32,60,61025ae37ef11b136ea224fe,,,,,,,,,4044,81.33335483,-30.16667718,1,0,0,response3disk,,5,5.333393256,-4.166696747,1,0,0,rectangle,5.333393256,-4.166696747,1,0,0,5.333393256,-4.166696747,1,0,0,0,88,88,30,1,,,,,,,,
,,,,,,,,,,,,,FF,,,,,,,,1.2996,,,,,,,,,,,,,,,,,,,,,,610338f9b119ef8991fe47c4,61036938f96a0725144837d6,2021-07-29_20h52.42.326,Simcolourproject_2stim_asymm_v5,2020.2.10,Win32,60,61025ae37ef11b136ea224fe,,,,,,,,,1359,20.00001967,88.49999303,1,0,0,response1disk,,7,1.9735E-05,7.166657269,1,0,0,rectangle,1.9735E-05,7.166657269,1,0,0,1.9735E-05,7.166657269,1,0,0,0,89,89,45,1,,,,,,,,
,,,,,,,,,,,,,FF,,,,,,,,0.9483,,,,,,,,,,,,,,,,,,,,,,610338f9b119ef8991fe47c4,61036938f96a0725144837d6,2021-07-29_20h52.42.326,Simcolourproject_2stim_asymm_v5,2020.2.10,Win32,60,61025ae37ef11b136ea224fe,,,,,,,,,1508,28.66668659,77.16665936,1,0,0,response1disk,,7,-7.333314478,-3.500009716,1,0,0,rectangle,-7.333314478,-3.500009716,1,0,0,-7.333314478,-3.500009716,1,0,0,0,90,90,106,1,,,,,,,,
,,,,,,,,,,,,,FF,,,,,,,,2.2497,,,,,,,,,,,,,,,,,,,,,,610338f9b119ef8991fe47c4,61036938f96a0725144837d6,2021-07-29_20h52.42.326,Simcolourproject_2stim_asymm_v5,2020.2.10,Win32,60,61025ae37ef11b136ea224fe,,,,,,,,,4065,84.66668826,-44.83334428,1,0,0,response3disk,,5,-17.33331478,-7.500009835,1,0,0,rectangle,-17.33331478,-7.500009835,1,0,0,-17.33331478,-7.500009835,1,0,0,0,91,91,33,1,,,,,,,,
,,,,,,,,,,,,,FF,,,,,,,,1.0334,,,,,,,,,,,,,,,,,,,,,,610338f9b119ef8991fe47c4,61036938f96a0725144837d6,2021-07-29_20h52.42.326,Simcolourproject_2stim_asymm_v5,2020.2.10,Win32,60,61025ae37ef11b136ea224fe,,,,,,,,,1875,31.33339403,92.49999315,1,0,0,response1disk,,7,-5.333314419,-8.166696866,1,0,0,rectangle,-88.66660955,55.1666587,1,0,0,-13.33331466,-5.500009775,1,0,0,0,92,92,17,1,,response7disk_3,TRUE,1,1,"[285,6,208,93,40,296,76,48,239,189,14,255,59,220,44,96,87,34,310,296]",1.5163,rectangle
,,,,,,,,,,,,,FF,,,,,,,,1.0336,,,,,,,,,,,,,,,,,,,,,,610338f9b119ef8991fe47c4,61036938f96a0725144837d6,2021-07-29_20h52.42.326,Simcolourproject_2stim_asymm_v5,2020.2.10,Win32,60,61025ae37ef11b136ea224fe,,,,,,,,,1561,69.33335447,46.49999177,1,0,0,response1disk,,6,24.00001979,-2.166696688,1,0,0,rectangle,24.00001979,-2.166696688,1,0,0,24.00001979,-2.166696688,1,0,0,0,93,93,79,1,,,,,,,,
,,,,,,,,,,,,,FF,,,,,,,,0.8836,,,,,,,,,,,,,,,,,,,,,,610338f9b119ef8991fe47c4,61036938f96a0725144837d6,2021-07-29_20h52.42.326,Simcolourproject_2stim_asymm_v5,2020.2.10,Win32,60,61025ae37ef11b136ea224fe,,,,,,,,,1864,40.00002027,56.49999207,1,0,0,response1disk,,7,-5.999981105,-10.83334327,1,0,0,rectangle,-5.999981105,-10.83334327,1,0,0,-5.999981105,-10.83334327,1,0,0,0,94,94,109,1,,,,,,,,
,,,,,,,,,,,,,FF,,,,,,,,1.486,,,,,,,,,,,,,,,,,,,,,,610338f9b119ef8991fe47c4,61036938f96a0725144837d6,2021-07-29_20h52.42.326,Simcolourproject_2stim_asymm_v5,2020.2.10,Win32,60,61025ae37ef11b136ea224fe,,,,,,,,,2937,80.00002146,-63.5000115,1,0,0,response3disk,,5,-14.66660734,7.166657269,1,0,0,rectangle,62.66668761,84.49999291,1,0,0,12.00001943,9.83330367,1,0,0,0,95,95,47,1,,response1disk_3,TRUE,7,7,"[285,6,208,93,40,296,76,48,239,189,14,255,59,220,44,96,87,34,310,296]",1.3998,rectangle
,,,,,,,,,,,,,FF,,,,,,,,2.5834,,,,,,,,,,,,,,,,,,,,,,610338f9b119ef8991fe47c4,61036938f96a0725144837d6,2021-07-29_20h52.42.326,Simcolourproject_2stim_asymm_v5,2020.2.10,Win32,60,61025ae37ef11b136ea224fe,,,,,,,,,1639,84.66668826,37.16665816,1,0,0,response1disk,,6,-28.66660776,-7.500009835,1,0,0,rectangle,-28.66660776,-7.500009835,1,0,0,-28.66660776,-7.500009835,1,0,0,0,96,96,4,1,,,,,,,,
,,,,,,,,,,,,,FF,,,,,,,,5.2979,,,,,,,,,,,,,,,,,,,,,,610338f9b119ef8991fe47c4,61036938f96a0725144837d6,2021-07-29_20h52.42.326,Simcolourproject_2stim_asymm_v5,2020.2.10,Win32,60,61025ae37ef11b136ea224fe,,,,,,,,,709,104.6666889,-24.166677,1,0,0,response3disk,,5,3.333393196,9.83330367,1,0,0,rectangle,3.333393196,9.83330367,1,0,0,3.333393196,9.83330367,1,0,0,0,97,97,139,1,,,,,,,,
,,,,,,,,,,,,,FF,,,,,,,,1.3193,,,,,,,,,,,,,,,,,,,,,,610338f9b119ef8991fe47c4,61036938f96a0725144837d6,2021-07-29_20h52.42.326,Simcolourproject_2stim_asymm_v5,2020.2.10,Win32,60,61025ae37ef11b136ea224fe,,,,,,,,,1185,45.33335376,78.49999273,1,0,0,response1disk,,7,2.66668582,7.83330361,1,0,0,rectangle,2.66668582,7.83330361,1,0,0,2.66668582,7.83330361,1,0,0,0,98,98,56,1,,,,,,,,
,,,,,,,,,,,,,FF,,,,,,,,0.8683,,,,,,,,,,,,,,,,,,,,,,610338f9b119ef8991fe47c4,61036938f96a0725144837d6,2021-07-29_20h52.42.326,Simcolourproject_2stim_asymm_v5,2020.2.10,Win32,60,61025ae37ef11b136ea224fe,,,,,,,,,2093,-27.33331507,69.16665912,1,0,0,response7disk,,0,7.333393315,-4.166696747,1,0,0,rectangle,7.333393315,-4.166696747,1,0,0,7.333393315,-4.166696747,1,0,0,0,99,99,40,1,,,,,,,,
,,,,,,,,,,,,,FF,,,,,,,,0.919,,,,,,,,,,,,,,,,,,,,,,610338f9b119ef8991fe47c4,61036938f96a0725144837d6,2021-07-29_20h52.42.326,Simcolourproject_2stim_asymm_v5,2020.2.10,Win32,60,61025ae37ef11b136ea224fe,,,,,,,,,3652,63.33335429,83.83330588,1,0,0,response1disk,,7,-4.666607042,5.833303551,1,0,0,rectangle,-4.666607042,5.833303551,1,0,0,-4.666607042,5.833303551,1,0,0,0,100,100,8,1,,,,,,,,
,,,,,,,,,,,,,FF,,,,,,,,0.8866,,,,,,,,,,,,,,,,,,,,,,610338f9b119ef8991fe47c4,61036938f96a0725144837d6,2021-07-29_20h52.42.326,Simcolourproject_2stim_asymm_v5,2020.2.10,Win32,60,61025ae37ef11b136ea224fe,,,,,,,,,3279,31.33339403,55.83330504,1,0,0,response1disk,,7,-6.666607102,-4.833343089,1,0,0,rectangle,-6.666607102,-4.833343089,1,0,0,-6.666607102,-4.833343089,1,0,0,0,101,101,117,1,,,,,,,,
,,,,,,,,,,,,,FF,,,,,,,,1.3366,,,,,,,,,,,,,,,,,,,,,,610338f9b119ef8991fe47c4,61036938f96a0725144837d6,2021-07-29_20h52.42.326,Simcolourproject_2stim_asymm_v5,2020.2.10,Win32,60,61025ae37ef11b136ea224fe,,,,,,,,,2415,52.00002062,-47.50001103,1,0,0,response3disk,,5,-6.666607102,9.83330367,1,0,0,rectangle,-6.666607102,9.83330367,1,0,0,-6.666607102,9.83330367,1,0,0,0,102,102,21,1,,,,,,,,
,,,,,,,,,,,,,FF,,,,,,,,4.9832,,,,,,,,,,,,,,,,,,,,,,610338f9b119ef8991fe47c4,61036938f96a0725144837d6,2021-07-29_20h52.42.326,Simcolourproject_2stim_asymm_v5,2020.2.10,Win32,60,61025ae37ef11b136ea224fe,,,,,,,,,821,94.66668856,27.83330421,1,0,0,response1disk,,6,2.66668582,10.4999907,1,0,0,rectangle,2.66668582,10.4999907,1,0,0,2.66668582,10.4999907,1,0,0,0,103,103,118,1,,,,,,,,
,,,,,,,,,,,,,FF,,,,,,,,2.4998,,,,,,,,,,,,,,,,,,,,,,610338f9b119ef8991fe47c4,61036938f96a0725144837d6,2021-07-29_20h52.42.326,Simcolourproject_2stim_asymm_v5,2020.2.10,Win32,60,61025ae37ef11b136ea224fe,,,,,,,,,1152,-38.66660806,-82.83334541,1,0,0,response5disk,,3,2.000019133,11.16665739,1,0,0,rectangle,2.000019133,11.16665739,1,0,0,2.000019133,11.16665739,1,0,0,0,104,104,113,1,,,,,,,,
,,,,,,,,,,,,,FF,,,,,,,,1.9498,,,,,,,,,,,,,,,,,,,,,,610338f9b119ef8991fe47c4,61036938f96a0725144837d6,2021-07-29_20h52.42.326,Simcolourproject_2stim_asymm_v5,2020.2.10,Win32,60,61025ae37ef11b136ea224fe,,,,,,,,,1632,69.33335447,28.49999124,1,0,0,response1disk,,6,15.33339355,1.16665709,1,0,0,rectangle,15.33339355,1.16665709,1,0,0,15.33339355,1.16665709,1,0,0,0,105,105,145,1,,,,,,,,
,,,,,,,,,,,,,FF,,,,,,,,3.9006,,,,,,,,,,,,,,,,,,,,,,610338f9b119ef8991fe47c4,61036938f96a0725144837d6,2021-07-29_20h52.42.326,Simcolourproject_2stim_asymm_v5,2020.2.10,Win32,60,61025ae37ef11b136ea224fe,,,,,,,,,3638,91.33335513,-27.50001043,1,0,0,response3disk,,5,-29.33331513,-4.166696747,1,0,0,rectangle,-29.33331513,-4.166696747,1,0,0,-29.33331513,-4.166696747,1,0,0,0,106,106,31,1,,,,,,,,
,,,,,,,,,,,,,FF,,,,,,,,1.5196,,,,,,,,,,,,,,,,,,,,,,610338f9b119ef8991fe47c4,61036938f96a0725144837d6,2021-07-29_20h52.42.326,Simcolourproject_2stim_asymm_v5,2020.2.10,Win32,60,61025ae37ef11b136ea224fe,,,,,,,,,3372,43.3333537,-54.16667789,1,0,0,response3disk,,4,-15.9999814,-2.166696688,1,0,0,rectangle,-15.9999814,-2.166696688,1,0,0,-15.9999814,-2.166696688,1,0,0,0,107,107,42,1,,,,,,,,
,,,,,,,,,,,,,FF,,,,,,,,1.0486,,,,,,,,,,,,,,,,,,,,,,610338f9b119ef8991fe47c4,61036938f96a0725144837d6,2021-07-29_20h52.42.326,Simcolourproject_2stim_asymm_v5,2020.2.10,Win32,60,61025ae37ef11b136ea224fe,,,,,,,,,194,45.33335376,-48.16667771,1,0,0,response3disk,,4,-11.3333146,3.833303491,1,0,0,rectangle,-11.3333146,3.833303491,1,0,0,-11.3333146,3.833303491,1,0,0,0,108,108,7,1,,,,,,,,
,,,,,,,,,,,,,FF,,,,,,,,0.8696,,,,,,,,,,,,,,,,,,,,,,610338f9b119ef8991fe47c4,61036938f96a0725144837d6,2021-07-29_20h52.42.326,Simcolourproject_2stim_asymm_v5,2020.2.10,Win32,60,61025ae37ef11b136ea224fe,,,,,,,,,1037,70.00002116,35.1666581,1,0,0,response1disk,,6,-7.999981165,5.833303551,1,0,0,rectangle,-7.999981165,5.833303551,1,0,0,-7.999981165,5.833303551,1,0,0,0,109,109,18,1,,,,,,,,
,,,,,,,,,,,,,FF,,,,,,,,3.3034,,,,,,,,,,,,,,,,,,,,,,610338f9b119ef8991fe47c4,61036938f96a0725144837d6,2021-07-29_20h52.42.326,Simcolourproject_2stim_asymm_v5,2020.2.10,Win32,60,61025ae37ef11b136ea224fe,,,,,,,,,2792,96.66668862,-48.16667771,1,0,0,response3disk,,5,-14.66660734,5.166657209,1,0,0,rectangle,-14.66660734,5.166657209,1,0,0,-14.66660734,5.166657209,1,0,0,0,110,110,67,1,,,,,,,,
,,,,,,,,,,,,,FF,,,,,,,,11.2205,,,,,,,,,,,,,,,,,,,,,,610338f9b119ef8991fe47c4,61036938f96a0725144837d6,2021-07-29_20h52.42.326,Simcolourproject_2stim_asymm_v5,2020.2.10,Win32,60,61025ae37ef11b136ea224fe,,,,,,,,,3864,73.33335459,-37.50001073,1,0,0,response3disk,,5,-11.99998128,1.833303432,1,0,0,rectangle,-11.99998128,1.833303432,1,0,0,-11.99998128,1.833303432,1,0,0,0,111,111,149,1,,,,,,,,
,,,,,,,,,,,,,FF,,,,,,,,1.7359,,,,,,,,,,,,,,,,,,,,,,610338f9b119ef8991fe47c4,61036938f96a0725144837d6,2021-07-29_20h52.42.326,Simcolourproject_2stim_asymm_v5,2020.2.10,Win32,60,61025ae37ef11b136ea224fe,,,,,,,,,382,54.00002068,40.4999916,1,0,0,response1disk,,6,14.66668618,-8.833343208,1,0,0,rectangle,14.66668618,-8.833343208,1,0,0,14.66668618,-8.833343208,1,0,0,0,112,112,25,1,,,,,,,,
,,,,,,,,,,,,,FF,,,,,,,,0.9162,,,,,,,,,,,,,,,,,,,,,,610338f9b119ef8991fe47c4,61036938f96a0725144837d6,2021-07-29_20h52.42.326,Simcolourproject_2stim_asymm_v5,2020.2.10,Win32,60,61025ae37ef11b136ea224fe,,,,,,,,,3049,-58.66660865,-30.16667718,1,0,0,response5disk,,2,-9.999981225,-4.833343089,1,0,0,rectangle,-9.999981225,-4.833343089,1,0,0,-9.999981225,-4.833343089,1,0,0,0,113,113,86,1,,,,,,,,
,,,,,,,,,,,,,FF,,,,,,,,0.8334,,,,,,,,,,,,,,,,,,,,,,610338f9b119ef8991fe47c4,61036938f96a0725144837d6,2021-07-29_20h52.42.326,Simcolourproject_2stim_asymm_v5,2020.2.10,Win32,60,61025ae37ef11b136ea224fe,,,,,,,,,1716,42.00002033,62.49999225,1,0,0,response1disk,,7,-9.333314538,2.499990463,1,0,0,rectangle,-9.333314538,2.499990463,1,0,0,-9.333314538,2.499990463,1,0,0,0,114,114,105,1,,,,,,,,
,,,,,,,,,,,,,FF,,,,,,,,1.0359,,,,,,,,,,,,,,,,,,,,,,610338f9b119ef8991fe47c4,61036938f96a0725144837d6,2021-07-29_20h52.42.326,Simcolourproject_2stim_asymm_v5,2020.2.10,Win32,60,61025ae37ef11b136ea224fe,,,,,,,,,4106,-43.33331555,-58.16667801,1,0,0,response5disk,,3,-9.333314538,-6.833343148,1,0,0,rectangle,-9.333314538,-6.833343148,1,0,0,-9.333314538,-6.833343148,1,0,0,0,115,115,34,1,,,,,,,,
,,,,,,,,,,,,,FF,,,,,,,,0.8667,,,,,,,,,,,,,,,,,,,,,,610338f9b119ef8991fe47c4,61036938f96a0725144837d6,2021-07-29_20h52.42.326,Simcolourproject_2stim_asymm_v5,2020.2.10,Win32,60,61025ae37ef11b136ea224fe,,,,,,,,,4169,-35.999982,-50.83334446,1,0,0,response5disk,,3,0.66668576,3.16665715,1,0,0,rectangle,0.66668576,3.16665715,1,0,0,0.66668576,3.16665715,1,0,0,0,116,116,91,1,,,,,,,,
,,,,,,,,,,,,,FF,,,,,,,,2.836,,,,,,,,,,,,,,,,,,,,,,610338f9b119ef8991fe47c4,61036938f96a0725144837d6,2021-07-29_20h52.42.326,Simcolourproject_2stim_asymm_v5,2020.2.10,Win32,60,61025ae37ef11b136ea224fe,,,,,,,,,572,90.66668844,20.499991,1,0,0,response1disk,,6,4.666685879,-5.500009775,1,0,0,rectangle,4.666685879,-5.500009775,1,0,0,4.666685879,-5.500009775,1,0,0,0,117,117,14,1,,,,,,,,
,,,,,,,,,,,,,FF,,,,,,,,1.0836,,,,,,,,,,,,,,,,,,,,,,610338f9b119ef8991fe47c4,61036938f96a0725144837d6,2021-07-29_20h52.42.326,Simcolourproject_2stim_asymm_v5,2020.2.10,Win32,60,61025ae37ef11b136ea224fe,,,,,,,,,2943,-19.99998152,-40.83334416,1,0,0,response5disk,,3,-1.3333143,-5.500009775,1,0,0,rectangle,-1.3333143,-5.500009775,1,0,0,-1.3333143,-5.500009775,1,0,0,0,118,118,133,1,,,,,,,,
,,,,,,,,,,,,,FF,,,,,,,,1.4028,,,,,,,,,,,,,,,,,,,,,,610338f9b119ef8991fe47c4,61036938f96a0725144837d6,2021-07-29_20h52.42.326,Simcolourproject_2stim_asymm_v5,2020.2.10,Win32,60,61025ae37ef11b136ea224fe,,,,,,,,,333,77.33335471,35.83330444,1,0,0,response1disk,,6,12.66668612,2.499990463,1,0,0,rectangle,12.66668612,2.499990463,1,0,0,12.66668612,2.499990463,1,0,0,0,119,119,158,1,,,,,,,,
,,,,,,,,,,,,,FF,,,,,,,,0.9343,,,,,,,,,,,,,,,,,,,,,,610338f9b119ef8991fe47c4,61036938f96a0725144837d6,2021-07-29_20h52.42.326,Simcolourproject_2stim_asymm_v5,2020.2.10,Win32,60,61025ae37ef11b136ea224fe,,,,,,,,,1432,66.00002104,37.8333045,1,0,0,response1disk,,6,1.333393137,-10.16669693,1,0,0,rectangle,1.333393137,-10.16669693,1,0,0,1.333393137,-10.16669693,1,0,0,0,120,120,156,1,,,,,,,,
,,,,,,,,,,,,,FF,,,,,,,,3.4496,,,,,,,,,,,,,,,,,,,,,,610338f9b119ef8991fe47c4,61036938f96a0725144837d6,2021-07-29_20h52.42.326,Simcolourproject_2stim_asymm_v5,2020.2.10,Win32,60,61025ae37ef11b136ea224fe,,,,,,,,,1262,45.33335376,81.16665947,1,0,0,response1disk,,7,2.000019133,6.499990582,1,0,0,rectangle,2.000019133,6.499990582,1,0,0,2.000019133,6.499990582,1,0,0,0,121,121,92,1,,,,,,,,
,,,,,,,,,,,,,FF,,,,,,,,0.8164,,,,,,,,,,,,,,,,,,,,,,610338f9b119ef8991fe47c4,61036938f96a0725144837d6,2021-07-29_20h52.42.326,Simcolourproject_2stim_asymm_v5,2020.2.10,Win32,60,61025ae37ef11b136ea224fe,,,,,,,,,2694,43.3333537,71.16665918,1,0,0,response1disk,,7,-17.99998146,-0.833342969,1,0,0,rectangle,-17.99998146,-0.833342969,1,0,0,-17.99998146,-0.833342969,1,0,0,0,122,122,126,1,,,,,,,,
,,,,,,,,,,,,,FF,,,,,,,,1.0694,,,,,,,,,,,,,,,,,,,,,,610338f9b119ef8991fe47c4,61036938f96a0725144837d6,2021-07-29_20h52.42.326,Simcolourproject_2stim_asymm_v5,2020.2.10,Win32,60,61025ae37ef11b136ea224fe,,,,,,,,,1878,100.6666887,20.499991,1,0,0,response1disk,,6,-5.333314419,-2.833343029,1,0,0,rectangle,-5.333314419,-2.833343029,1,0,0,-5.333314419,-2.833343029,1,0,0,0,123,123,128,1,,,,,,,,
,,,,,,,,,,,,,FF,,,,,,,,1.0665,,,,,,,,,,,,,,,,,,,,,,610338f9b119ef8991fe47c4,61036938f96a0725144837d6,2021-07-29_20h52.42.326,Simcolourproject_2stim_asymm_v5,2020.2.10,Win32,60,61025ae37ef11b136ea224fe,,,,,,,,,1819,-59.33331603,28.49999124,1,0,0,response7disk,,1,8.666685998,0.499990404,1,0,0,rectangle,8.666685998,0.499990404,1,0,0,8.666685998,0.499990404,1,0,0,0,124,124,147,1,,,,,,,,
,,,,,,,,,,,,,FF,,,,,,,,1.3161,,,,,,,,,,,,,,,,,,,,,,610338f9b119ef8991fe47c4,61036938f96a0725144837d6,2021-07-29_20h52.42.326,Simcolourproject_2stim_asymm_v5,2020.2.10,Win32,60,61025ae37ef11b136ea224fe,,,,,,,,,2830,66.00002104,-36.16667736,1,0,0,response3disk,,5,4.000019193,8.499990642,1,0,0,rectangle,4.000019193,8.499990642,1,0,0,4.000019193,8.499990642,1,0,0,0,125,125,77,1,,,,,,,,
,,,,,,,,,,,,,FF,,,,,,,,1.7696,,,,,,,,,,,,,,,,,,,,,,610338f9b119ef8991fe47c4,61036938f96a0725144837d6,2021-07-29_20h52.42.326,Simcolourproject_2stim_asymm_v5,2020.2.10,Win32,60,61025ae37ef11b136ea224fe,,,,,,,,,1994,52.00002062,31.16665798,1,0,0,response1disk,,6,11.33339343,4.499990523,1,0,0,rectangle,11.33339343,4.499990523,1,0,0,11.33339343,4.499990523,1,0,0,0,126,126,58,1,,,,,,,,
,,,,,,,,,,,,,FF,,,,,,,,2.3147,,,,,,,,,,,,,,,,,,,,,,610338f9b119ef8991fe47c4,61036938f96a0725144837d6,2021-07-29_20h52.42.326,Simcolourproject_2stim_asymm_v5,2020.2.10,Win32,60,61025ae37ef11b136ea224fe,,,,,,,,,336,56.00002074,-51.50001115,1,0,0,response3disk,,5,-7.999981165,-9.500009894,1,0,0,rectangle,-7.999981165,-9.500009894,1,0,0,-7.999981165,-9.500009894,1,0,0,0,127,127,127,1,,,,,,,,
,,,,,,,,,,,,,FF,,,,,,,,0.9164,,,,,,,,,,,,,,,,,,,,,,610338f9b119ef8991fe47c4,61036938f96a0725144837d6,2021-07-29_20h52.42.326,Simcolourproject_2stim_asymm_v5,2020.2.10,Win32,60,61025ae37ef11b136ea224fe,,,,,,,,,1504,48.66668719,67.16665906,1,0,0,response1disk,,7,16.00001955,-3.500009716,1,0,0,rectangle,16.00001955,-3.500009716,1,0,0,16.00001955,-3.500009716,1,0,0,0,128,128,146,1,,,,,,,,
,,,,,,,,,,,,,FF,,,,,,,,1.0502,,,,,,,,,,,,,,,,,,,,,,610338f9b119ef8991fe47c4,61036938f96a0725144837d6,2021-07-29_20h52.42.326,Simcolourproject_2stim_asymm_v5,2020.2.10,Win32,60,61025ae37ef11b136ea224fe,,,,,,,,,885,-86.66660949,29.16665792,1,0,0,response7disk,,1,3.333393196,-6.833343148,1,0,0,rectangle,3.333393196,-6.833343148,1,0,0,3.333393196,-6.833343148,1,0,0,0,129,129,11,1,,,,,,,,
,,,,,,,,,,,,,FF,,,,,,,,2.3311,,,,,,,,,,,,,,,,,,,,,,610338f9b119ef8991fe47c4,61036938f96a0725144837d6,2021-07-29_20h52.42.326,Simcolourproject_2stim_asymm_v5,2020.2.10,Win32,60,61025ae37ef11b136ea224fe,,,,,,,,,3456,80.00002146,55.83330504,1,0,0,response1disk,,6,4.000019193,-2.833343029,1,0,0,rectangle,4.000019193,-2.833343029,1,0,0,4.000019193,-2.833343029,1,0,0,0,130,130,141,1,,,,,,,,
,,,,,,,,,,,,,FF,,,,,,,,3.2316,,,,,,,,,,,,,,,,,,,,,,610338f9b119ef8991fe47c4,61036938f96a0725144837d6,2021-07-29_20h52.42.326,Simcolourproject_2stim_asymm_v5,2020.2.10,Win32,60,61025ae37ef11b136ea224fe,,,,,,,,,4273,39.33339427,55.83330504,1,0,0,response1disk,,7,2.66668582,2.499990463,1,0,0,rectangle,2.66668582,2.499990463,1,0,0,2.66668582,2.499990463,1,0,0,0,131,131,32,1,,,,,,,,
,,,,,,,,,,,,,FF,,,,,,,,1.6499,,,,,,,,,,,,,,,,,,,,,,610338f9b119ef8991fe47c4,61036938f96a0725144837d6,2021-07-29_20h52.42.326,Simcolourproject_2stim_asymm_v5,2020.2.10,Win32,60,61025ae37ef11b136ea224fe,,,,,,,,,2680,37.33339421,-50.83334446,1,0,0,response3disk,,4,3.333393196,-6.166696807,1,0,0,rectangle,3.333393196,-6.166696807,1,0,0,3.333393196,-6.166696807,1,0,0,0,132,132,46,1,,,,,,,,
,,,,,,,,,,,,,FF,,,,,,,,3.5501,,,,,,,,,,,,,,,,,,,,,,610338f9b119ef8991fe47c4,61036938f96a0725144837d6,2021-07-29_20h52.42.326,Simcolourproject_2stim_asymm_v5,2020.2.10,Win32,60,61025ae37ef11b136ea224fe,,,,,,,,,3560,28.66668659,-41.50001085,1,0,0,response3disk,,4,-2.666606983,1.833303432,1,0,0,rectangle,-2.666606983,1.833303432,1,0,0,-2.666606983,1.833303432,1,0,0,0,133,133,50,1,,,,,,,,
,,,,,,,,,,,,,FF,,,,,,,,2.4498,,,,,,,,,,,,,,,,,,,,,,610338f9b119ef8991fe47c4,61036938f96a0725144837d6,2021-07-29_20h52.42.326,Simcolourproject_2stim_asymm_v5,2020.2.10,Win32,60,61025ae37ef11b136ea224fe,,,,,,,,,1611,-51.99998248,-28.8333438,1,0,0,response5disk,,2,-17.99998146,-8.833343208,1,0,0,rectangle,-17.99998146,-8.833343208,1,0,0,-17.99998146,-8.833343208,1,0,0,0,134,134,73,1,,,,,,,,
,,,,,,,,,,,,,FF,,,,,,,,1.0533,,,,,,,,,,,,,,,,,,,,,,610338f9b119ef8991fe47c4,61036938f96a0725144837d6,2021-07-29_20h52.42.326,Simcolourproject_2stim_asymm_v5,2020.2.10,Win32,60,61025ae37ef11b136ea224fe,,,,,,,,,1957,-87.99998355,-42.83334422,1,0,0,response5disk,,2,8.666685998,1.833303432,1,0,0,rectangle,8.666685998,1.833303432,1,0,0,8.666685998,1.833303432,1,0,0,0,135,135,23,1,,,,,,,,
,,,,,,,,,,,,,FF,,,,,,,,0.8311,,,,,,,,,,,,,,,,,,,,,,610338f9b119ef8991fe47c4,61036938f96a0725144837d6,2021-07-29_20h52.42.326,Simcolourproject_2stim_asymm_v5,2020.2.10,Win32,60,61025ae37ef11b136ea224fe,,,,,,,,,1174,32.00002003,59.83330516,1,0,0,response1disk,,7,-4.666607042,-12.16669699,1,0,0,rectangle,-4.666607042,-12.16669699,1,0,0,-4.666607042,-12.16669699,1,0,0,0,136,136,98,1,,,,,,,,
,,,,,,,,,,,,,FF,,,,,,,,1.8485,,,,,,,,,,,,,,,,,,,,,,610338f9b119ef8991fe47c4,61036938f96a0725144837d6,2021-07-29_20h52.42.326,Simcolourproject_2stim_asymm_v5,2020.2.10,Win32,60,61025ae37ef11b136ea224fe,,,,,,,,,278,-65.33331621,-46.16667765,1,0,0,response5disk,,2,10.66668606,1.16665709,1,0,0,rectangle,10.66668606,1.16665709,1,0,0,10.66668606,1.16665709,1,0,0,0,137,137,24,1,,,,,,,,
,,,,,,,,,,,,,FF,,,,,,,,0.9503,,,,,,,,,,,,,,,,,,,,,,610338f9b119ef8991fe47c4,61036938f96a0725144837d6,2021-07-29_20h52.42.326,Simcolourproject_2stim_asymm_v5,2020.2.10,Win32,60,61025ae37ef11b136ea224fe,,,,,,,,,1385,47.33335382,-80.83334535,1,0,0,response3disk,,4,2.66668582,-0.833342969,1,0,0,rectangle,2.66668582,-0.833342969,1,0,0,2.66668582,-0.833342969,1,0,0,0,138,138,143,1,,,,,,,,
,,,,,,,,,,,,,FF,,,,,,,,1.4482,,,,,,,,,,,,,,,,,,,,,,610338f9b119ef8991fe47c4,61036938f96a0725144837d6,2021-07-29_20h52.42.326,Simcolourproject_2stim_asymm_v5,2020.2.10,Win32,60,61025ae37ef11b136ea224fe,,,,,,,,,2652,-23.33331496,-60.16667807,1,0,0,response5disk,,3,-4.666607042,0.499990404,1,0,0,rectangle,-4.666607042,0.499990404,1,0,0,-4.666607042,0.499990404,1,0,0,0,139,139,96,1,,,,,,,,
,,,,,,,,,,,,,FF,,,,,,,,0.967,,,,,,,,,,,,,,,,,,,,,,610338f9b119ef8991fe47c4,61036938f96a0725144837d6,2021-07-29_20h52.42.326,Simcolourproject_2stim_asymm_v5,2020.2.10,Win32,60,61025ae37ef11b136ea224fe,,,,,,,,,288,46.00002044,24.49999112,1,0,0,response1disk,,6,1.9735E-05,-3.500009716,1,0,0,rectangle,1.9735E-05,-3.500009716,1,0,0,1.9735E-05,-3.500009716,1,0,0,0,140,140,88,1,,,,,,,,
,,,,,,,,,,,,,FF,,,,,,,,0.819,,,,,,,,,,,,,,,,,,,,,,610338f9b119ef8991fe47c4,61036938f96a0725144837d6,2021-07-29_20h52.42.326,Simcolourproject_2stim_asymm_v5,2020.2.10,Win32,60,61025ae37ef11b136ea224fe,,,,,,,,,1637,42.00002033,61.16665888,1,0,0,response1disk,,7,1.333393137,2.499990463,1,0,0,rectangle,1.333393137,2.499990463,1,0,0,1.333393137,2.499990463,1,0,0,0,141,141,6,1,,,,,,,,
,,,,,,,,,,,,,FF,,,,,,,,0.8525,,,,,,,,,,,,,,,,,,,,,,610338f9b119ef8991fe47c4,61036938f96a0725144837d6,2021-07-29_20h52.42.326,Simcolourproject_2stim_asymm_v5,2020.2.10,Win32,60,61025ae37ef11b136ea224fe,,,,,,,,,119,30.66668665,55.1666587,1,0,0,response1disk,,7,-7.333314478,5.166657209,1,0,0,rectangle,-7.333314478,5.166657209,1,0,0,-7.333314478,5.166657209,1,0,0,0,142,142,129,1,,,,,,,,
,,,,,,,,,,,,,FF,,,,,,,,1.0507,,,,,,,,,,,,,,,,,,,,,,610338f9b119ef8991fe47c4,61036938f96a0725144837d6,2021-07-29_20h52.42.326,Simcolourproject_2stim_asymm_v5,2020.2.10,Win32,60,61025ae37ef11b136ea224fe,,,,,,,,,274,70.00002116,-28.16667712,1,0,0,response3disk,,5,-10.66660722,1.16665709,1,0,0,rectangle,-10.66660722,1.16665709,1,0,0,-10.66660722,1.16665709,1,0,0,0,143,143,85,1,,,,,,,,
,,,,,,,,,,,,,FF,,,,,,,,0.865,,,,,,,,,,,,,,,,,,,,,,610338f9b119ef8991fe47c4,61036938f96a0725144837d6,2021-07-29_20h52.42.326,Simcolourproject_2stim_asymm_v5,2020.2.10,Win32,60,61025ae37ef11b136ea224fe,,,,,,,,,3971,-59.33331603,32.49999136,1,0,0,response7disk,,1,-8.666607161,1.833303432,1,0,0,rectangle,-8.666607161,1.833303432,1,0,0,-8.666607161,1.833303432,1,0,0,0,144,144,87,1,,,,,,,,
,,,,,,,,,,,,,FF,,,,,,,,1.002,,,,,,,,,,,,,,,,,,,,,,610338f9b119ef8991fe47c4,61036938f96a0725144837d6,2021-07-29_20h52.42.326,Simcolourproject_2stim_asymm_v5,2020.2.10,Win32,60,61025ae37ef11b136ea224fe,,,,,,,,,1059,40.66668695,-78.83334529,1,0,0,response3disk,,4,7.333393315,4.499990523,1,0,0,rectangle,7.333393315,4.499990523,1,0,0,7.333393315,4.499990523,1,0,0,0,145,145,138,1,,,,,,,,
,,,,,,,,,,,,,FF,,,,,,,,1.7666,,,,,,,,,,,,,,,,,,,,,,610338f9b119ef8991fe47c4,61036938f96a0725144837d6,2021-07-29_20h52.42.326,Simcolourproject_2stim_asymm_v5,2020.2.10,Win32,60,61025ae37ef11b136ea224fe,,,,,,,,,2118,65.33335435,20.499991,1,0,0,response1disk,,6,-8.666607161,2.499990463,1,0,0,rectangle,-8.666607161,2.499990463,1,0,0,-8.666607161,2.499990463,1,0,0,0,146,146,130,1,,,,,,,,
,,,,,,,,,,,,,FF,,,,,,,,1.4364,,,,,,,,,,,,,,,,,,,,,,610338f9b119ef8991fe47c4,61036938f96a0725144837d6,2021-07-29_20h52.42.326,Simcolourproject_2stim_asymm_v5,2020.2.10,Win32,60,61025ae37ef11b136ea224fe,,,,,,,,,253,-53.99998254,-32.16667724,1,0,0,response5disk,,2,-3.999981046,-2.166696688,1,0,0,rectangle,-3.999981046,-2.166696688,1,0,0,-3.999981046,-2.166696688,1,0,0,0,147,147,114,1,,,,,,,,
,,,,,,,,,,,,,FF,,,,,,,,1.3501,,,,,,,,,,,,,,,,,,,,,,610338f9b119ef8991fe47c4,61036938f96a0725144837d6,2021-07-29_20h52.42.326,Simcolourproject_2stim_asymm_v5,2020.2.10,Win32,60,61025ae37ef11b136ea224fe,,,,,,,,,1658,41.33339433,67.8333054,1,0,0,response1disk,,7,6.666685939,7.83330361,1,0,0,rectangle,6.666685939,7.83330361,1,0,0,6.666685939,7.83330361,1,0,0,0,148,148,115,1,,,,,,,,
,,,,,,,,,,,,,FF,,,,,,,,0.8006,,,,,,,,,,,,,,,,,,,,,,610338f9b119ef8991fe47c4,61036938f96a0725144837d6,2021-07-29_20h52.42.326,Simcolourproject_2stim_asymm_v5,2020.2.10,Win32,60,61025ae37ef11b136ea224fe,,,,,,,,,2531,38.00002021,39.83330456,1,0,0,response1disk,,7,-11.3333146,-4.166696747,1,0,0,rectangle,-11.3333146,-4.166696747,1,0,0,-11.3333146,-4.166696747,1,0,0,0,149,149,103,1,,,,,,,,
,,,,,,,,,,,,,FF,,,,,,,,0.9667,,,,,,,,,,,,,,,,,,,,,,610338f9b119ef8991fe47c4,61036938f96a0725144837d6,2021-07-29_20h52.42.326,Simcolourproject_2stim_asymm_v5,2020.2.10,Win32,60,61025ae37ef11b136ea224fe,,,,,,,,,210,47.33335382,62.49999225,1,0,0,response1disk,,7,-0.666606923,-8.166696866,1,0,0,rectangle,-0.666606923,-8.166696866,1,0,0,-0.666606923,-8.166696866,1,0,0,0,150,150,72,1,,,,,,,,
,,,,,,,,,,,,,FF,,,,,,,,1.0334,,,,,,,,,,,,,,,,,,,,,,610338f9b119ef8991fe47c4,61036938f96a0725144837d6,2021-07-29_20h52.42.326,Simcolourproject_2stim_asymm_v5,2020.2.10,Win32,60,61025ae37ef11b136ea224fe,,,,,,,,,3463,-62.66660877,-30.16667718,1,0,0,response5disk,,2,-9.333314538,-1.500009656,1,0,0,rectangle,-9.333314538,-1.500009656,1,0,0,-9.333314538,-1.500009656,1,0,0,0,151,151,144,1,,,,,,,,
,,,,,,,,,,,,,FF,,,,,,,,0.833,,,,,,,,,,,,,,,,,,,,,,610338f9b119ef8991fe47c4,61036938f96a0725144837d6,2021-07-29_20h52.42.326,Simcolourproject_2stim_asymm_v5,2020.2.10,Win32,60,61025ae37ef11b136ea224fe,,,,,,,,,2058,34.66668677,77.8333057,1,0,0,response1disk,,7,-6.666607102,-2.833343029,1,0,0,rectangle,-6.666607102,-2.833343029,1,0,0,-6.666607102,-2.833343029,1,0,0,0,152,152,26,1,,,,,,,,
,,,,,,,,,,,,,FF,,,,,,,,2.217,,,,,,,,,,,,,,,,,,,,,,610338f9b119ef8991fe47c4,61036938f96a0725144837d6,2021-07-29_20h52.42.326,Simcolourproject_2stim_asymm_v5,2020.2.10,Win32,60,61025ae37ef11b136ea224fe,,,,,,,,,1618,-29.33331513,-63.5000115,1,0,0,response5disk,,3,-4.666607042,-0.833342969,1,0,0,rectangle,-4.666607042,-0.833342969,1,0,0,-4.666607042,-0.833342969,1,0,0,0,153,153,65,1,,,,,,,,
,,,,,,,,,,,,,FF,,,,,,,,1.2194,,,,,,,,,,,,,,,,,,,,,,610338f9b119ef8991fe47c4,61036938f96a0725144837d6,2021-07-29_20h52.42.326,Simcolourproject_2stim_asymm_v5,2020.2.10,Win32,60,61025ae37ef11b136ea224fe,,,,,,,,,3114,-32.66660788,-62.16667813,1,0,0,response5disk,,3,-7.999981165,-2.833343029,1,0,0,rectangle,-7.999981165,-2.833343029,1,0,0,-7.999981165,-2.833343029,1,0,0,0,154,154,63,1,,,,,,,,
,,,,,,,,,,,,,FF,,,,,,,,0.9665,,,,,,,,,,,,,,,,,,,,,,610338f9b119ef8991fe47c4,61036938f96a0725144837d6,2021-07-29_20h52.42.326,Simcolourproject_2stim_asymm_v5,2020.2.10,Win32,60,61025ae37ef11b136ea224fe,,,,,,,,,2896,86.66668832,-16.83334345,1,0,0,response3disk,,5,-25.33331501,3.16665715,1,0,0,rectangle,-25.33331501,3.16665715,1,0,0,-25.33331501,3.16665715,1,0,0,0,155,155,28,1,,,,,,,,
,,,,,,,,,,,,,FF,,,,,,,,1.0317,,,,,,,,,,,,,,,,,,,,,,610338f9b119ef8991fe47c4,61036938f96a0725144837d6,2021-07-29_20h52.42.326,Simcolourproject_2stim_asymm_v5,2020.2.10,Win32,60,61025ae37ef11b136ea224fe,,,,,,,,,1778,70.66668785,75.83330564,1,0,0,response1disk,,7,-0.666606923,0.499990404,1,0,0,rectangle,-0.666606923,0.499990404,1,0,0,-0.666606923,0.499990404,1,0,0,0,156,156,68,1,,,,,,,,
,,,,,,,,,,,,,FF,,,,,,,,1.7812,,,,,,,,,,,,,,,,,,,,,,610338f9b119ef8991fe47c4,61036938f96a0725144837d6,2021-07-29_20h52.42.326,Simcolourproject_2stim_asymm_v5,2020.2.10,Win32,60,61025ae37ef11b136ea224fe,,,,,,,,,2615,-41.99998218,-48.16667771,1,0,0,response5disk,,3,-21.99998158,-6.833343148,1,0,0,rectangle,-21.99998158,-6.833343148,1,0,0,-21.99998158,-6.833343148,1,0,0,0,157,157,148,1,,,,,,,,
,,,,,,,,,,,,,FF,,,,,,,,0.7845,,,,,,,,,,,,,,,,,,,,,,610338f9b119ef8991fe47c4,61036938f96a0725144837d6,2021-07-29_20h52.42.326,Simcolourproject_2stim_asymm_v5,2020.2.10,Win32,60,61025ae37ef11b136ea224fe,,,,,,,,,2708,43.3333537,81.83330582,1,0,0,response1disk,,7,4.666685879,-2.833343029,1,0,0,rectangle,4.666685879,-2.833343029,1,0,0,4.666685879,-2.833343029,1,0,0,0,158,158,150,1,,,,,,,,
,,,,,,,,,,,,,FF,,,,,,,,0.9164,,,,,,,,,,,,,,,,,,,,,,610338f9b119ef8991fe47c4,61036938f96a0725144837d6,2021-07-29_20h52.42.326,Simcolourproject_2stim_asymm_v5,2020.2.10,Win32,60,61025ae37ef11b136ea224fe,,,,,,,,,1450,-72.66660907,-44.16667759,1,0,0,response5disk,,2,4.000019193,3.833303491,1,0,0,rectangle,4.000019193,3.833303491,1,0,0,4.000019193,3.833303491,1,0,0,0,159,159,123,1,,,,,,,,
,,,,,,,,,,,,,FF,,,,,,,,1.701,,,,,,,,,,,,,,,,,,,,,,610338f9b119ef8991fe47c4,61036938f96a0725144837d6,2021-07-29_20h52.42.326,Simcolourproject_2stim_asymm_v5,2020.2.10,Win32,60,61025ae37ef11b136ea224fe,,,,,,,,,3419,64.00002098,23.83330409,1,0,0,response1disk,,6,15.33339355,-3.500009716,1,0,0,rectangle,15.33339355,-3.500009716,1,0,0,15.33339355,-3.500009716,1,0,0,1,0,160,38,1,,,,,,,,
,,,,,,,,,,,,,FF,,,,,,,,1.3694,,,,,,,,,,,,,,,,,,,,,,610338f9b119ef8991fe47c4,61036938f96a0725144837d6,2021-07-29_20h52.42.326,Simcolourproject_2stim_asymm_v5,2020.2.10,Win32,60,61025ae37ef11b136ea224fe,,,,,,,,,2170,20.66668636,-56.16667795,1,0,0,response3disk,,4,-10.66660722,-0.166696628,1,0,0,rectangle,-10.66660722,-0.166696628,1,0,0,-10.66660722,-0.166696628,1,0,0,1,1,161,3,1,,,,,,,,
,,,,,,,,,,,,,FF,,,,,,,,1.0168,,,,,,,,,,,,,,,,,,,,,,610338f9b119ef8991fe47c4,61036938f96a0725144837d6,2021-07-29_20h52.42.326,Simcolourproject_2stim_asymm_v5,2020.2.10,Win32,60,61025ae37ef11b136ea224fe,,,,,,,,,218,62.00002092,29.83330427,1,0,0,response1disk,,6,1.333393137,-2.833343029,1,0,0,rectangle,1.333393137,-2.833343029,1,0,0,1.333393137,-2.833343029,1,0,0,1,2,162,136,1,,,,,,,,
,,,,,,,,,,,,,FF,,,,,,,,0.8649,,,,,,,,,,,,,,,,,,,,,,610338f9b119ef8991fe47c4,61036938f96a0725144837d6,2021-07-29_20h52.42.326,Simcolourproject_2stim_asymm_v5,2020.2.10,Win32,60,61025ae37ef11b136ea224fe,,,,,,,,,2862,34.66668677,64.49999231,1,0,0,response1disk,,7,-11.99998128,10.4999907,1,0,0,rectangle,-11.99998128,10.4999907,1,0,0,-11.99998128,10.4999907,1,0,0,1,3,163,93,1,,,,,,,,
,,,,,,,,,,,,,FF,,,,,,,,2.4191,,,,,,,,,,,,,,,,,,,,,,610338f9b119ef8991fe47c4,61036938f96a0725144837d6,2021-07-29_20h52.42.326,Simcolourproject_2stim_asymm_v5,2020.2.10,Win32,60,61025ae37ef11b136ea224fe,,,,,,,,,1663,103.3333555,-49.50001109,1,0,0,response3disk,,5,17.33339361,7.83330361,1,0,0,rectangle,17.33339361,7.83330361,1,0,0,17.33339361,7.83330361,1,0,0,1,4,164,46,1,,,,,,,,
,,,,,,,,,,,,,FF,,,,,,,,0.9149,,,,,,,,,,,,,,,,,,,,,,610338f9b119ef8991fe47c4,61036938f96a0725144837d6,2021-07-29_20h52.42.326,Simcolourproject_2stim_asymm_v5,2020.2.10,Win32,60,61025ae37ef11b136ea224fe,,,,,,,,,2821,60.00002086,87.83330599,1,0,0,response1disk,,7,4.000019193,-12.16669699,1,0,0,rectangle,4.000019193,-12.16669699,1,0,0,4.000019193,-12.16669699,1,0,0,1,5,165,0,1,,,,,,,,
,,,,,,,,,,,,,FF,,,,,,,,1.5166,,,,,,,,,,,,,,,,,,,,,,610338f9b119ef8991fe47c4,61036938f96a0725144837d6,2021-07-29_20h52.42.326,Simcolourproject_2stim_asymm_v5,2020.2.10,Win32,60,61025ae37ef11b136ea224fe,,,,,,,,,4358,-88.66660955,-48.8333444,1,0,0,response5disk,,2,-5.999981105,1.16665709,1,0,0,rectangle,-5.999981105,1.16665709,1,0,0,-5.999981105,1.16665709,1,0,0,1,6,166,149,1,,,,,,,,
,,,,,,,,,,,,,FF,,,,,,,,1.2195,,,,,,,,,,,,,,,,,,,,,,610338f9b119ef8991fe47c4,61036938f96a0725144837d6,2021-07-29_20h52.42.326,Simcolourproject_2stim_asymm_v5,2020.2.10,Win32,60,61025ae37ef11b136ea224fe,,,,,,,,,1001,43.3333537,51.83330492,1,0,0,response1disk,,7,1.333393137,0.499990404,1,0,0,rectangle,1.333393137,0.499990404,1,0,0,1.333393137,0.499990404,1,0,0,1,7,167,100,1,,,,,,,,
,,,,,,,,,,,,,FF,,,,,,,,1.5339,,,,,,,,,,,,,,,,,,,,,,610338f9b119ef8991fe47c4,61036938f96a0725144837d6,2021-07-29_20h52.42.326,Simcolourproject_2stim_asymm_v5,2020.2.10,Win32,60,61025ae37ef11b136ea224fe,,,,,,,,,3037,-88.66660955,-39.50001079,1,0,0,response5disk,,2,-1.999980986,0.499990404,1,0,0,rectangle,-1.999980986,0.499990404,1,0,0,-1.999980986,0.499990404,1,0,0,1,8,168,139,1,,,,,,,,
,,,,,,,,,,,,,FF,,,,,,,,1.9199,,,,,,,,,,,,,,,,,,,,,,610338f9b119ef8991fe47c4,61036938f96a0725144837d6,2021-07-29_20h52.42.326,Simcolourproject_2stim_asymm_v5,2020.2.10,Win32,60,61025ae37ef11b136ea224fe,,,,,,,,,1394,89.33335507,16.49999088,1,0,0,response1disk,,6,-23.99998164,-9.500009894,1,0,0,rectangle,-23.99998164,-9.500009894,1,0,0,-23.99998164,-9.500009894,1,0,0,1,9,169,81,1,,,,,,,,
,,,,,,,,,,,,,FF,,,,,,,,1.465,,,,,,,,,,,,,,,,,,,,,,610338f9b119ef8991fe47c4,61036938f96a0725144837d6,2021-07-29_20h52.42.326,Simcolourproject_2stim_asymm_v5,2020.2.10,Win32,60,61025ae37ef11b136ea224fe,,,,,,,,,243,-35.999982,-50.83334446,1,0,0,response5disk,,3,-4.666607042,1.833303432,1,0,0,rectangle,-4.666607042,1.833303432,1,0,0,-4.666607042,1.833303432,1,0,0,1,10,170,65,1,,,,,,,,
,,,,,,,,,,,,,FF,,,,,,,,1.2812,,,,,,,,,,,,,,,,,,,,,,610338f9b119ef8991fe47c4,61036938f96a0725144837d6,2021-07-29_20h52.42.326,Simcolourproject_2stim_asymm_v5,2020.2.10,Win32,60,61025ae37ef11b136ea224fe,,,,,,,,,1436,44.00002038,100.4999934,1,0,0,response1disk,,7,-16.6666074,5.833303551,1,0,0,rectangle,-16.6666074,5.833303551,1,0,0,-16.6666074,5.833303551,1,0,0,1,11,171,42,1,,,,,,,,
,,,,,,,,,,,,,FF,,,,,,,,2.0489,,,,,,,,,,,,,,,,,,,,,,610338f9b119ef8991fe47c4,61036938f96a0725144837d6,2021-07-29_20h52.42.326,Simcolourproject_2stim_asymm_v5,2020.2.10,Win32,60,61025ae37ef11b136ea224fe,,,,,,,,,3700,-80.66660931,-23.50001031,1,0,0,response5disk,,2,-9.999981225,10.4999907,1,0,0,rectangle,-9.999981225,10.4999907,1,0,0,-9.999981225,10.4999907,1,0,0,1,12,172,12,1,,,,,,,,
,,,,,,,,,,,,,FF,,,,,,,,1.3498,,,,,,,,,,,,,,,,,,,,,,610338f9b119ef8991fe47c4,61036938f96a0725144837d6,2021-07-29_20h52.42.326,Simcolourproject_2stim_asymm_v5,2020.2.10,Win32,60,61025ae37ef11b136ea224fe,,,,,,,,,1161,35.33339415,54.49999201,1,0,0,response1disk,,7,6.666685939,-4.833343089,1,0,0,rectangle,6.666685939,-4.833343089,1,0,0,6.666685939,-4.833343089,1,0,0,1,13,173,113,1,,,,,,,,
,,,,,,,,,,,,,FF,,,,,,,,1.0511,,,,,,,,,,,,,,,,,,,,,,610338f9b119ef8991fe47c4,61036938f96a0725144837d6,2021-07-29_20h52.42.326,Simcolourproject_2stim_asymm_v5,2020.2.10,Win32,60,61025ae37ef11b136ea224fe,,,,,,,,,3824,-67.33331627,-46.83334434,1,0,0,response5disk,,2,4.000019193,5.166657209,1,0,0,rectangle,4.000019193,5.166657209,1,0,0,4.000019193,5.166657209,1,0,0,1,14,174,87,1,,,,,,,,
,,,,,,,,,,,,,FF,,,,,,,,1.7511,,,,,,,,,,,,,,,,,,,,,,610338f9b119ef8991fe47c4,61036938f96a0725144837d6,2021-07-29_20h52.42.326,Simcolourproject_2stim_asymm_v5,2020.2.10,Win32,60,61025ae37ef11b136ea224fe,,,,,,,,,1587,90.66668844,19.83330397,1,0,0,response1disk,,6,17.33339361,9.83330367,1,0,0,rectangle,17.33339361,9.83330367,1,0,0,17.33339361,9.83330367,1,0,0,1,15,175,37,1,,,,,,,,
,,,,,,,,,,,,,FF,,,,,,,,1.1671,,,,,,,,,,,,,,,,,,,,,,610338f9b119ef8991fe47c4,61036938f96a0725144837d6,2021-07-29_20h52.42.326,Simcolourproject_2stim_asymm_v5,2020.2.10,Win32,60,61025ae37ef11b136ea224fe,,,,,,,,,3711,-57.33331597,-48.8333444,1,0,0,response5disk,,2,6.000019252,1.833303432,1,0,0,rectangle,6.000019252,1.833303432,1,0,0,6.000019252,1.833303432,1,0,0,1,16,176,72,1,,,,,,,,
,,,,,,,,,,,,,FF,,,,,,,,3.4,,,,,,,,,,,,,,,,,,,,,,610338f9b119ef8991fe47c4,61036938f96a0725144837d6,2021-07-29_20h52.42.326,Simcolourproject_2stim_asymm_v5,2020.2.10,Win32,60,61025ae37ef11b136ea224fe,,,,,,,,,4330,33.33339409,66.49999237,1,0,0,response1disk,,7,-7.333314478,6.499990582,1,0,0,rectangle,-7.333314478,6.499990582,1,0,0,-7.333314478,6.499990582,1,0,0,1,17,177,71,1,,,,,,,,
,,,,,,,,,,,,,FF,,,,,,,,1.0698,,,,,,,,,,,,,,,,,,,,,,610338f9b119ef8991fe47c4,61036938f96a0725144837d6,2021-07-29_20h52.42.326,Simcolourproject_2stim_asymm_v5,2020.2.10,Win32,60,61025ae37ef11b136ea224fe,,,,,,,,,273,-36.666608,-71.50001174,1,0,0,response5disk,,3,0.66668576,11.83330373,1,0,0,rectangle,0.66668576,11.83330373,1,0,0,0.66668576,11.83330373,1,0,0,1,18,178,76,1,,,,,,,,
,,,,,,,,,,,,,FF,,,,,,,,0.7649,,,,,,,,,,,,,,,,,,,,,,610338f9b119ef8991fe47c4,61036938f96a0725144837d6,2021-07-29_20h52.42.326,Simcolourproject_2stim_asymm_v5,2020.2.10,Win32,60,61025ae37ef11b136ea224fe,,,,,,,,,1866,32.66668671,47.16665846,1,0,0,response1disk,,7,1.333393137,1.833303432,1,0,0,rectangle,1.333393137,1.833303432,1,0,0,1.333393137,1.833303432,1,0,0,1,19,179,1,1,,,,,,,,
,,,,,,,,,,,,,FF,,,,,,,,0.9695,,,,,,,,,,,,,,,,,,,,,,610338f9b119ef8991fe47c4,61036938f96a0725144837d6,2021-07-29_20h52.42.326,Simcolourproject_2stim_asymm_v5,2020.2.10,Win32,60,61025ae37ef11b136ea224fe,,,,,,,,,3666,-41.33331549,-72.16667843,1,0,0,response5disk,,3,1.333393137,6.499990582,1,0,0,rectangle,1.333393137,6.499990582,1,0,0,1.333393137,6.499990582,1,0,0,1,20,180,94,1,,,,,,,,
,,,,,,,,,,,,,FF,,,,,,,,2.7647,,,,,,,,,,,,,,,,,,,,,,610338f9b119ef8991fe47c4,61036938f96a0725144837d6,2021-07-29_20h52.42.326,Simcolourproject_2stim_asymm_v5,2020.2.10,Win32,60,61025ae37ef11b136ea224fe,,,,,,,,,1210,32.66668671,71.16665918,1,0,0,response1disk,,7,1.9735E-05,-0.166696628,1,0,0,rectangle,1.9735E-05,-0.166696628,1,0,0,1.9735E-05,-0.166696628,1,0,0,1,21,181,82,1,,,,,,,,
,,,,,,,,,,,,,FF,,,,,,,,0.9334,,,,,,,,,,,,,,,,,,,,,,610338f9b119ef8991fe47c4,61036938f96a0725144837d6,2021-07-29_20h52.42.326,Simcolourproject_2stim_asymm_v5,2020.2.10,Win32,60,61025ae37ef11b136ea224fe,,,,,,,,,524,-23.33331496,-44.16667759,1,0,0,response5disk,,3,-10.66660722,-6.166696807,1,0,0,rectangle,-10.66660722,-6.166696807,1,0,0,-10.66660722,-6.166696807,1,0,0,1,22,182,137,1,,,,,,,,
,,,,,,,,,,,,,FF,,,,,,,,2.7401,,,,,,,,,,,,,,,,,,,,,,610338f9b119ef8991fe47c4,61036938f96a0725144837d6,2021-07-29_20h52.42.326,Simcolourproject_2stim_asymm_v5,2020.2.10,Win32,60,61025ae37ef11b136ea224fe,,,,,,,,,689,98.00002199,-29.50001049,0,0,1,response3disk,,5,13.33339349,8.499990642,1,0,0,rectangle,13.33339349,8.499990642,1,0,0,13.33339349,8.499990642,1,0,0,1,23,183,59,1,,,,,,,,
,,,,,,,,,,,,,FF,,,,,,,,1.2351,,,,,,,,,,,,,,,,,,,,,,610338f9b119ef8991fe47c4,61036938f96a0725144837d6,2021-07-29_20h52.42.326,Simcolourproject_2stim_asymm_v5,2020.2.10,Win32,60,61025ae37ef11b136ea224fe,,,,,,,,,3705,-43.33331555,79.83330576,1,0,0,response7disk,,0,-1.3333143,-1.500009656,1,0,0,rectangle,-1.3333143,-1.500009656,1,0,0,-1.3333143,-1.500009656,1,0,0,1,24,184,61,1,,,,,,,,
,,,,,,,,,,,,,FF,,,,,,,,1.4695,,,,,,,,,,,,,,,,,,,,,,610338f9b119ef8991fe47c4,61036938f96a0725144837d6,2021-07-29_20h52.42.326,Simcolourproject_2stim_asymm_v5,2020.2.10,Win32,60,61025ae37ef11b136ea224fe,,,,,,,,,2470,38.00002021,75.83330564,1,0,0,response1disk,,7,-1.3333143,-9.500009894,1,0,0,rectangle,-1.3333143,-9.500009894,1,0,0,-1.3333143,-9.500009894,1,0,0,1,25,185,104,1,,,,,,,,
,,,,,,,,,,,,,FF,,,,,,,,1.4361,,,,,,,,,,,,,,,,,,,,,,610338f9b119ef8991fe47c4,61036938f96a0725144837d6,2021-07-29_20h52.42.326,Simcolourproject_2stim_asymm_v5,2020.2.10,Win32,60,61025ae37ef11b136ea224fe,,,,,,,,,536,84.00002158,35.1666581,1,0,0,response1disk,,6,2.000019133,-6.166696807,1,0,0,rectangle,2.000019133,-6.166696807,1,0,0,2.000019133,-6.166696807,1,0,0,1,26,186,156,1,,,,,,,,
,,,,,,,,,,,,,FF,,,,,,,,1.384,,,,,,,,,,,,,,,,,,,,,,610338f9b119ef8991fe47c4,61036938f96a0725144837d6,2021-07-29_20h52.42.326,Simcolourproject_2stim_asymm_v5,2020.2.10,Win32,60,61025ae37ef11b136ea224fe,,,,,,,,,3266,84.00002158,44.49999171,1,0,0,response1disk,,6,-18.66660746,-10.16669693,1,0,0,rectangle,-18.66660746,-10.16669693,1,0,0,-18.66660746,-10.16669693,1,0,0,1,27,187,78,1,,,,,,,,
,,,,,,,,,,,,,FF,,,,,,,,0.9665,,,,,,,,,,,,,,,,,,,,,,610338f9b119ef8991fe47c4,61036938f96a0725144837d6,2021-07-29_20h52.42.326,Simcolourproject_2stim_asymm_v5,2020.2.10,Win32,60,61025ae37ef11b136ea224fe,,,,,,,,,4238,-42.66660817,-85.50001216,1,0,0,response5disk,,3,-0.666606923,-2.833343029,1,0,0,rectangle,-25.9999817,-61.50001144,1,0,0,1.333393137,3.16665715,1,0,0,1,28,188,14,1,,response5disk_3,TRUE,3,3,"[285,6,208,93,40,296,76,48,239,189,14,255,59,220,44,96,87,34,310,296]",2.0979,rectangle
,,,,,,,,,,,,,FF,,,,,,,,0.9693,,,,,,,,,,,,,,,,,,,,,,610338f9b119ef8991fe47c4,61036938f96a0725144837d6,2021-07-29_20h52.42.326,Simcolourproject_2stim_asymm_v5,2020.2.10,Win32,60,61025ae37ef11b136ea224fe,,,,,,,,,2040,-44.66660823,-85.50001216,1,0,0,response5disk,,3,6.666685939,-3.500009716,1,0,0,rectangle,6.666685939,-3.500009716,1,0,0,6.666685939,-3.500009716,1,0,0,1,29,189,36,1,,,,,,,,
,,,,,,,,,,,,,FF,,,,,,,,0.8517,,,,,,,,,,,,,,,,,,,,,,610338f9b119ef8991fe47c4,61036938f96a0725144837d6,2021-07-29_20h52.42.326,Simcolourproject_2stim_asymm_v5,2020.2.10,Win32,60,61025ae37ef11b136ea224fe,,,,,,,,,2065,28.66668659,49.16665852,1,0,0,response1disk,,7,-5.999981105,-4.833343089,1,0,0,rectangle,-5.999981105,-4.833343089,1,0,0,-5.999981105,-4.833343089,1,0,0,1,30,190,69,1,,,,,,,,
,,,,,,,,,,,,,FF,,,,,,,,0.7817,,,,,,,,,,,,,,,,,,,,,,610338f9b119ef8991fe47c4,61036938f96a0725144837d6,2021-07-29_20h52.42.326,Simcolourproject_2stim_asymm_v5,2020.2.10,Win32,60,61025ae37ef11b136ea224fe,,,,,,,,,314,36.00002015,90.49999309,1,0,0,response1disk,,7,2.66668582,-0.166696628,1,0,0,rectangle,2.66668582,-0.166696628,1,0,0,2.66668582,-0.166696628,1,0,0,1,31,191,19,1,,,,,,,,
,,,,,,,,,,,,,FF,,,,,,,,1.0667,,,,,,,,,,,,,,,,,,,,,,610338f9b119ef8991fe47c4,61036938f96a0725144837d6,2021-07-29_20h52.42.326,Simcolourproject_2stim_asymm_v5,2020.2.10,Win32,60,61025ae37ef11b136ea224fe,,,,,,,,,3157,-55.9999826,-42.16667753,1,0,0,response5disk,,2,22.00001973,5.166657209,1,0,0,rectangle,22.00001973,5.166657209,1,0,0,22.00001973,5.166657209,1,0,0,1,32,192,138,1,,,,,,,,
,,,,,,,,,,,,,FF,,,,,,,,1.0332,,,,,,,,,,,,,,,,,,,,,,610338f9b119ef8991fe47c4,61036938f96a0725144837d6,2021-07-29_20h52.42.326,Simcolourproject_2stim_asymm_v5,2020.2.10,Win32,60,61025ae37ef11b136ea224fe,,,,,,,,,3500,54.66668737,21.83330403,1,0,0,response1disk,,6,-0.666606923,-6.166696807,1,0,0,rectangle,-0.666606923,-6.166696807,1,0,0,-0.666606923,-6.166696807,1,0,0,1,33,193,142,1,,,,,,,,
,,,,,,,,,,,,,FF,,,,,,,,0.8193,,,,,,,,,,,,,,,,,,,,,,610338f9b119ef8991fe47c4,61036938f96a0725144837d6,2021-07-29_20h52.42.326,Simcolourproject_2stim_asymm_v5,2020.2.10,Win32,60,61025ae37ef11b136ea224fe,,,,,,,,,911,30.66668665,43.16665834,1,0,0,response1disk,,7,-1.3333143,-5.500009775,1,0,0,rectangle,-1.3333143,-5.500009775,1,0,0,-1.3333143,-5.500009775,1,0,0,1,34,194,110,1,,,,,,,,
,,,,,,,,,,,,,FF,,,,,,,,1.15,,,,,,,,,,,,,,,,,,,,,,610338f9b119ef8991fe47c4,61036938f96a0725144837d6,2021-07-29_20h52.42.326,Simcolourproject_2stim_asymm_v5,2020.2.10,Win32,60,61025ae37ef11b136ea224fe,,,,,,,,,3969,-76.66660919,-36.16667736,1,0,0,response5disk,,2,6.666685939,4.499990523,1,0,0,rectangle,6.666685939,4.499990523,1,0,0,6.666685939,4.499990523,1,0,0,1,35,195,95,1,,,,,,,,
,,,,,,,,,,,,,FF,,,,,,,,1.4333,,,,,,,,,,,,,,,,,,,,,,610338f9b119ef8991fe47c4,61036938f96a0725144837d6,2021-07-29_20h52.42.326,Simcolourproject_2stim_asymm_v5,2020.2.10,Win32,60,61025ae37ef11b136ea224fe,,,,,,,,,2157,58.66668749,-58.8333447,1,0,0,response3disk,,4,10.00001937,-7.500009835,1,0,0,rectangle,10.00001937,-7.500009835,1,0,0,10.00001937,-7.500009835,1,0,0,1,36,196,118,1,,,,,,,,
,,,,,,,,,,,,,FF,,,,,,,,0.8192,,,,,,,,,,,,,,,,,,,,,,610338f9b119ef8991fe47c4,61036938f96a0725144837d6,2021-07-29_20h52.42.326,Simcolourproject_2stim_asymm_v5,2020.2.10,Win32,60,61025ae37ef11b136ea224fe,,,,,,,,,2971,36.00002015,66.49999237,1,0,0,response1disk,,7,-11.99998128,6.499990582,1,0,0,rectangle,-11.99998128,6.499990582,1,0,0,-11.99998128,6.499990582,1,0,0,1,37,197,146,1,,,,,,,,
,,,,,,,,,,,,,FF,,,,,,,,0.7836,,,,,,,,,,,,,,,,,,,,,,610338f9b119ef8991fe47c4,61036938f96a0725144837d6,2021-07-29_20h52.42.326,Simcolourproject_2stim_asymm_v5,2020.2.10,Win32,60,61025ae37ef11b136ea224fe,,,,,,,,,1341,20.66668636,51.16665858,1,0,0,response1disk,,7,-17.99998146,-11.50000995,1,0,0,rectangle,-17.99998146,-11.50000995,1,0,0,-17.99998146,-11.50000995,1,0,0,1,38,198,84,1,,,,,,,,
,,,,,,,,,,,,,FF,,,,,,,,1.3334,,,,,,,,,,,,,,,,,,,,,,610338f9b119ef8991fe47c4,61036938f96a0725144837d6,2021-07-29_20h52.42.326,Simcolourproject_2stim_asymm_v5,2020.2.10,Win32,60,61025ae37ef11b136ea224fe,,,,,,,,,2938,-23.99998164,-94.83334577,1,0,0,response5disk,,3,-0.666606923,7.83330361,1,0,0,rectangle,-0.666606923,7.83330361,1,0,0,-0.666606923,7.83330361,1,0,0,1,39,199,86,1,,,,,,,,
,,,,,,,,,,,,,FF,,,,,,,,1.0348,,,,,,,,,,,,,,,,,,,,,,610338f9b119ef8991fe47c4,61036938f96a0725144837d6,2021-07-29_20h52.42.326,Simcolourproject_2stim_asymm_v5,2020.2.10,Win32,60,61025ae37ef11b136ea224fe,,,,,,,,,2072,48.66668719,19.83330397,1,0,0,response1disk,,6,-12.66660728,-2.166696688,1,0,0,rectangle,-12.66660728,-2.166696688,1,0,0,-12.66660728,-2.166696688,1,0,0,1,40,200,157,1,,,,,,,,
,,,,,,,,,,,,,FF,,,,,,,,1.0197,,,,,,,,,,,,,,,,,,,,,,610338f9b119ef8991fe47c4,61036938f96a0725144837d6,2021-07-29_20h52.42.326,Simcolourproject_2stim_asymm_v5,2020.2.10,Win32,60,61025ae37ef11b136ea224fe,,,,,,,,,1734,-56.66660859,52.49999195,1,0,0,response7disk,,1,8.666685998,3.833303491,1,0,0,rectangle,8.666685998,3.833303491,1,0,0,8.666685998,3.833303491,1,0,0,1,41,201,2,1,,,,,,,,
,,,,,,,,,,,,,FF,,,,,,,,2.6144,,,,,,,,,,,,,,,,,,,,,,610338f9b119ef8991fe47c4,61036938f96a0725144837d6,2021-07-29_20h52.42.326,Simcolourproject_2stim_asymm_v5,2020.2.10,Win32,60,61025ae37ef11b136ea224fe,,,,,,,,,1580,-45.33331561,-91.50001234,1,0,0,response5disk,,3,1.333393137,-4.166696747,1,0,0,rectangle,1.333393137,-4.166696747,1,0,0,1.333393137,-4.166696747,1,0,0,1,42,202,90,1,,,,,,,,
,,,,,,,,,,,,,FF,,,,,,,,0.7672,,,,,,,,,,,,,,,,,,,,,,610338f9b119ef8991fe47c4,61036938f96a0725144837d6,2021-07-29_20h52.42.326,Simcolourproject_2stim_asymm_v5,2020.2.10,Win32,60,61025ae37ef11b136ea224fe,,,,,,,,,2068,20.66668636,63.16665894,1,0,0,response1disk,,7,-8.666607161,1.16665709,1,0,0,rectangle,-8.666607161,1.16665709,1,0,0,-8.666607161,1.16665709,1,0,0,1,43,203,67,1,,,,,,,,
,,,,,,,,,,,,,FF,,,,,,,,1.5534,,,,,,,,,,,,,,,,,,,,,,610338f9b119ef8991fe47c4,61036938f96a0725144837d6,2021-07-29_20h52.42.326,Simcolourproject_2stim_asymm_v5,2020.2.10,Win32,60,61025ae37ef11b136ea224fe,,,,,,,,,2840,-55.9999826,-36.16667736,1,0,0,response5disk,,2,-20.66660752,-10.83334327,1,0,0,rectangle,-20.66660752,-10.83334327,1,0,0,-20.66660752,-10.83334327,1,0,0,1,44,204,155,1,,,,,,,,
,,,,,,,,,,,,,FF,,,,,,,,0.734,,,,,,,,,,,,,,,,,,,,,,610338f9b119ef8991fe47c4,61036938f96a0725144837d6,2021-07-29_20h52.42.326,Simcolourproject_2stim_asymm_v5,2020.2.10,Win32,60,61025ae37ef11b136ea224fe,,,,,,,,,1991,18.00001961,49.16665852,1,0,0,response1disk,,7,-11.3333146,-1.500009656,1,0,0,rectangle,-11.3333146,-1.500009656,1,0,0,-11.3333146,-1.500009656,1,0,0,1,45,205,31,1,,,,,,,,
,,,,,,,,,,,,,FF,,,,,,,,1.2643,,,,,,,,,,,,,,,,,,,,,,610338f9b119ef8991fe47c4,61036938f96a0725144837d6,2021-07-29_20h52.42.326,Simcolourproject_2stim_asymm_v5,2020.2.10,Win32,60,61025ae37ef11b136ea224fe,,,,,,,,,3744,-45.9999823,53.83330498,1,0,0,response7disk,,0,-3.333314359,-4.833343089,1,0,0,rectangle,-3.333314359,-4.833343089,1,0,0,-3.333314359,-4.833343089,1,0,0,1,46,206,109,1,,,,,,,,
,,,,,,,,,,,,,FF,,,,,,,,0.8165,,,,,,,,,,,,,,,,,,,,,,610338f9b119ef8991fe47c4,61036938f96a0725144837d6,2021-07-29_20h52.42.326,Simcolourproject_2stim_asymm_v5,2020.2.10,Win32,60,61025ae37ef11b136ea224fe,,,,,,,,,2586,33.33339409,77.16665936,1,0,0,response1disk,,7,-3.333314359,-0.833342969,1,0,0,rectangle,38.00002021,-58.8333447,1,0,0,8.000019312,-2.833343029,1,0,0,1,47,207,48,1,,response3disk_3,TRUE,4,4,"[285,6,208,93,40,296,76,48,239,189,14,255,59,220,44,96,87,34,310,296]",1.7307,rectangle
,,,,,,,,,,,,,FF,,,,,,,,1.1165,,,,,,,,,,,,,,,,,,,,,,610338f9b119ef8991fe47c4,61036938f96a0725144837d6,2021-07-29_20h52.42.326,Simcolourproject_2stim_asymm_v5,2020.2.10,Win32,60,61025ae37ef11b136ea224fe,,,,,,,,,2909,-35.999982,-72.16667843,1,0,0,response5disk,,3,2.66668582,-4.166696747,1,0,0,rectangle,2.66668582,-4.166696747,1,0,0,2.66668582,-4.166696747,1,0,0,1,48,208,24,1,,,,,,,,
,,,,,,,,,,,,,FF,,,,,,,,0.7686,,,,,,,,,,,,,,,,,,,,,,610338f9b119ef8991fe47c4,61036938f96a0725144837d6,2021-07-29_20h52.42.326,Simcolourproject_2stim_asymm_v5,2020.2.10,Win32,60,61025ae37ef11b136ea224fe,,,,,,,,,1634,33.33339409,73.83330558,1,0,0,response1disk,,7,10.66668606,-12.83334333,1,0,0,rectangle,10.66668606,-12.83334333,1,0,0,10.66668606,-12.83334333,1,0,0,1,49,209,29,1,,,,,,,,
,,,,,,,,,,,,,FF,,,,,,,,0.9315,,,,,,,,,,,,,,,,,,,,,,610338f9b119ef8991fe47c4,61036938f96a0725144837d6,2021-07-29_20h52.42.326,Simcolourproject_2stim_asymm_v5,2020.2.10,Win32,60,61025ae37ef11b136ea224fe,,,,,,,,,1745,-71.33331639,23.16665775,1,0,0,response7disk,,1,-24.66660764,-4.166696747,1,0,0,rectangle,-24.66660764,-4.166696747,1,0,0,-24.66660764,-4.166696747,1,0,0,1,50,210,105,1,,,,,,,,
,,,,,,,,,,,,,FF,,,,,,,,2.0338,,,,,,,,,,,,,,,,,,,,,,610338f9b119ef8991fe47c4,61036938f96a0725144837d6,2021-07-29_20h52.42.326,Simcolourproject_2stim_asymm_v5,2020.2.10,Win32,60,61025ae37ef11b136ea224fe,,,,,,,,,3557,-56.66660859,-92.16667902,1,0,0,response5disk,,3,-1.3333143,1.833303432,1,0,0,rectangle,-1.3333143,1.833303432,1,0,0,-1.3333143,1.833303432,1,0,0,1,51,211,89,1,,,,,,,,
,,,,,,,,,,,,,FF,,,,,,,,9.8169,,,,,,,,,,,,,,,,,,,,,,610338f9b119ef8991fe47c4,61036938f96a0725144837d6,2021-07-29_20h52.42.326,Simcolourproject_2stim_asymm_v5,2020.2.10,Win32,60,61025ae37ef11b136ea224fe,,,,,,,,,2365,-23.99998164,-69.50001168,1,0,0,response5disk,,3,17.33339361,-2.833343029,1,0,0,rectangle,17.33339361,-2.833343029,1,0,0,17.33339361,-2.833343029,1,0,0,1,52,212,124,1,,,,,,,,
,,,,,,,,,,,,,FF,,,,,,,,1.7366,,,,,,,,,,,,,,,,,,,,,,610338f9b119ef8991fe47c4,61036938f96a0725144837d6,2021-07-29_20h52.42.326,Simcolourproject_2stim_asymm_v5,2020.2.10,Win32,60,61025ae37ef11b136ea224fe,,,,,,,,,2075,52.66668731,73.16665924,1,0,0,response1disk,,7,-4.666607042,-3.500009716,1,0,0,rectangle,-4.666607042,-3.500009716,1,0,0,-4.666607042,-3.500009716,1,0,0,1,53,213,13,1,,,,,,,,
,,,,,,,,,,,,,FF,,,,,,,,9.0358,,,,,,,,,,,,,,,,,,,,,,610338f9b119ef8991fe47c4,61036938f96a0725144837d6,2021-07-29_20h52.42.326,Simcolourproject_2stim_asymm_v5,2020.2.10,Win32,60,61025ae37ef11b136ea224fe,,,,,,,,,1830,48.66668719,-100.1666793,1,0,0,response3disk,,4,13.33339349,-2.833343029,1,0,0,rectangle,13.33339349,-2.833343029,1,0,0,13.33339349,-2.833343029,1,0,0,1,54,214,33,1,,,,,,,,
,,,,,,,,,,,,,FF,,,,,,,,1.1169,,,,,,,,,,,,,,,,,,,,,,610338f9b119ef8991fe47c4,61036938f96a0725144837d6,2021-07-29_20h52.42.326,Simcolourproject_2stim_asymm_v5,2020.2.10,Win32,60,61025ae37ef11b136ea224fe,,,,,,,,,3698,44.66668707,-91.50001234,1,0,0,response3disk,,4,6.000019252,-0.166696628,1,0,0,rectangle,6.000019252,-0.166696628,1,0,0,6.000019252,-0.166696628,1,0,0,1,55,215,106,1,,,,,,,,
,,,,,,,,,,,,,FF,,,,,,,,2.4858,,,,,,,,,,,,,,,,,,,,,,610338f9b119ef8991fe47c4,61036938f96a0725144837d6,2021-07-29_20h52.42.326,Simcolourproject_2stim_asymm_v5,2020.2.10,Win32,60,61025ae37ef11b136ea224fe,,,,,,,,,1122,96.66668862,-60.16667807,1,0,0,response3disk,,5,4.666685879,-0.166696628,1,0,0,rectangle,4.666685879,-0.166696628,1,0,0,4.666685879,-0.166696628,1,0,0,1,56,216,4,1,,,,,,,,
,,,,,,,,,,,,,FF,,,,,,,,1.0355,,,,,,,,,,,,,,,,,,,,,,610338f9b119ef8991fe47c4,61036938f96a0725144837d6,2021-07-29_20h52.42.326,Simcolourproject_2stim_asymm_v5,2020.2.10,Win32,60,61025ae37ef11b136ea224fe,,,,,,,,,3586,-25.9999817,-64.16667819,1,0,0,response5disk,,3,6.666685939,8.499990642,1,0,0,rectangle,6.666685939,8.499990642,1,0,0,6.666685939,8.499990642,1,0,0,1,57,217,107,1,,,,,,,,
,,,,,,,,,,,,,FF,,,,,,,,1.9853,,,,,,,,,,,,,,,,,,,,,,610338f9b119ef8991fe47c4,61036938f96a0725144837d6,2021-07-29_20h52.42.326,Simcolourproject_2stim_asymm_v5,2020.2.10,Win32,60,61025ae37ef11b136ea224fe,,,,,,,,,4137,91.33335513,53.83330498,1,0,0,response1disk,,6,9.333393375,1.16665709,1,0,0,rectangle,9.333393375,1.16665709,1,0,0,9.333393375,1.16665709,1,0,0,1,58,218,7,1,,,,,,,,
,,,,,,,,,,,,,FF,,,,,,,,1.2152,,,,,,,,,,,,,,,,,,,,,,610338f9b119ef8991fe47c4,61036938f96a0725144837d6,2021-07-29_20h52.42.326,Simcolourproject_2stim_asymm_v5,2020.2.10,Win32,60,61025ae37ef11b136ea224fe,,,,,,,,,3051,-38.66660806,-58.8333447,1,0,0,response5disk,,3,2.000019133,-6.833343148,1,0,0,rectangle,-39.99998212,-98.83334589,1,0,0,-10.66660722,-8.166696866,1,0,0,1,59,219,116,1,,response5disk_3,TRUE,3,3,"[285,6,208,93,40,296,76,48,239,189,14,255,59,220,44,96,87,34,310,296]",2.9985,rectangle
,,,,,,,,,,,,,FF,,,,,,,,1.1011,,,,,,,,,,,,,,,,,,,,,,610338f9b119ef8991fe47c4,61036938f96a0725144837d6,2021-07-29_20h52.42.326,Simcolourproject_2stim_asymm_v5,2020.2.10,Win32,60,61025ae37ef11b136ea224fe,,,,,,,,,1009,64.00002098,68.49999243,1,0,0,response1disk,,7,2.000019133,7.83330361,1,0,0,rectangle,2.000019133,7.83330361,1,0,0,2.000019133,7.83330361,1,0,0,1,60,220,47,1,,,,,,,,
,,,,,,,,,,,,,FF,,,,,,,,0.8533,,,,,,,,,,,,,,,,,,,,,,610338f9b119ef8991fe47c4,61036938f96a0725144837d6,2021-07-29_20h52.42.326,Simcolourproject_2stim_asymm_v5,2020.2.10,Win32,60,61025ae37ef11b136ea224fe,,,,,,,,,1782,51.33335394,77.8333057,1,0,0,response1disk,,7,16.66668624,-2.166696688,1,0,0,rectangle,16.66668624,-2.166696688,1,0,0,16.66668624,-2.166696688,1,0,0,1,61,221,25,1,,,,,,,,
,,,,,,,,,,,,,FF,,,,,,,,0.8835,,,,,,,,,,,,,,,,,,,,,,610338f9b119ef8991fe47c4,61036938f96a0725144837d6,2021-07-29_20h52.42.326,Simcolourproject_2stim_asymm_v5,2020.2.10,Win32,60,61025ae37ef11b136ea224fe,,,,,,,,,2356,-61.33331609,-72.83334512,1,0,0,response5disk,,3,-15.9999814,-2.833343029,1,0,0,rectangle,-15.9999814,-2.833343029,1,0,0,-15.9999814,-2.833343029,1,0,0,1,62,222,128,1,,,,,,,,
,,,,,,,,,,,,,FF,,,,,,,,1.3847,,,,,,,,,,,,,,,,,,,,,,610338f9b119ef8991fe47c4,61036938f96a0725144837d6,2021-07-29_20h52.42.326,Simcolourproject_2stim_asymm_v5,2020.2.10,Win32,60,61025ae37ef11b136ea224fe,,,,,,,,,1469,14.66668618,-40.16667747,1,0,0,response3disk,,4,0.66668576,-8.166696866,1,0,0,rectangle,0.66668576,-8.166696866,1,0,0,0.66668576,-8.166696866,1,0,0,1,63,223,30,1,,,,,,,,
,,,,,,,,,,,,,FF,,,,,,,,0.9028,,,,,,,,,,,,,,,,,,,,,,610338f9b119ef8991fe47c4,61036938f96a0725144837d6,2021-07-29_20h52.42.326,Simcolourproject_2stim_asymm_v5,2020.2.10,Win32,60,61025ae37ef11b136ea224fe,,,,,,,,,705,37.33339421,-78.83334529,1,0,0,response3disk,,4,-11.99998128,0.499990404,1,0,0,rectangle,-11.99998128,0.499990404,1,0,0,-11.99998128,0.499990404,1,0,0,1,64,224,26,1,,,,,,,,
,,,,,,,,,,,,,FF,,,,,,,,0.832,,,,,,,,,,,,,,,,,,,,,,610338f9b119ef8991fe47c4,61036938f96a0725144837d6,2021-07-29_20h52.42.326,Simcolourproject_2stim_asymm_v5,2020.2.10,Win32,60,61025ae37ef11b136ea224fe,,,,,,,,,2915,34.00002009,39.83330456,1,0,0,response1disk,,7,3.333393196,-3.500009716,1,0,0,rectangle,3.333393196,-3.500009716,1,0,0,3.333393196,-3.500009716,1,0,0,1,65,225,44,1,,,,,,,,
,,,,,,,,,,,,,FF,,,,,,,,4.2861,,,,,,,,,,,,,,,,,,,,,,610338f9b119ef8991fe47c4,61036938f96a0725144837d6,2021-07-29_20h52.42.326,Simcolourproject_2stim_asymm_v5,2020.2.10,Win32,60,61025ae37ef11b136ea224fe,,,,,,,,,460,46.66668713,-73.5000118,1,0,0,response3disk,,4,6.666685939,3.833303491,1,0,0,rectangle,6.666685939,3.833303491,1,0,0,6.666685939,3.833303491,1,0,0,1,66,226,159,1,,,,,,,,
,,,,,,,,,,,,,FF,,,,,,,,1.8307,,,,,,,,,,,,,,,,,,,,,,610338f9b119ef8991fe47c4,61036938f96a0725144837d6,2021-07-29_20h52.42.326,Simcolourproject_2stim_asymm_v5,2020.2.10,Win32,60,61025ae37ef11b136ea224fe,,,,,,,,,1836,75.33335465,-24.166677,1,0,0,response3disk,,5,10.66668606,-3.500009716,1,0,0,rectangle,10.66668606,-3.500009716,1,0,0,10.66668606,-3.500009716,1,0,0,1,67,227,41,1,,,,,,,,
,,,,,,,,,,,,,FF,,,,,,,,2.6863,,,,,,,,,,,,,,,,,,,,,,610338f9b119ef8991fe47c4,61036938f96a0725144837d6,2021-07-29_20h52.42.326,Simcolourproject_2stim_asymm_v5,2020.2.10,Win32,60,61025ae37ef11b136ea224fe,,,,,,,,,3644,-21.3333149,-92.83334571,1,0,0,response5disk,,3,-1.3333143,2.499990463,1,0,0,rectangle,-1.3333143,2.499990463,1,0,0,-1.3333143,2.499990463,1,0,0,1,68,228,132,1,,,,,,,,
,,,,,,,,,,,,,FF,,,,,,,,0.8832,,,,,,,,,,,,,,,,,,,,,,610338f9b119ef8991fe47c4,61036938f96a0725144837d6,2021-07-29_20h52.42.326,Simcolourproject_2stim_asymm_v5,2020.2.10,Win32,60,61025ae37ef11b136ea224fe,,,,,,,,,3746,-67.33331627,28.49999124,1,0,0,response7disk,,1,3.333393196,-1.500009656,1,0,0,rectangle,3.333393196,-1.500009656,1,0,0,3.333393196,-1.500009656,1,0,0,1,69,229,68,1,,,,,,,,
,,,,,,,,,,,,,FF,,,,,,,,2.4528,,,,,,,,,,,,,,,,,,,,,,610338f9b119ef8991fe47c4,61036938f96a0725144837d6,2021-07-29_20h52.42.326,Simcolourproject_2stim_asymm_v5,2020.2.10,Win32,60,61025ae37ef11b136ea224fe,,,,,,,,,756,88.66668838,32.49999136,1,0,0,response1disk,,6,2.000019133,-2.833343029,1,0,0,rectangle,2.000019133,-2.833343029,1,0,0,2.000019133,-2.833343029,1,0,0,1,70,230,129,1,,,,,,,,
,,,,,,,,,,,,,FF,,,,,,,,1.1834,,,,,,,,,,,,,,,,,,,,,,610338f9b119ef8991fe47c4,61036938f96a0725144837d6,2021-07-29_20h52.42.326,Simcolourproject_2stim_asymm_v5,2020.2.10,Win32,60,61025ae37ef11b136ea224fe,,,,,,,,,3690,77.33335471,33.16665804,1,0,0,response1disk,,6,12.00001943,-1.500009656,1,0,0,rectangle,12.00001943,-1.500009656,1,0,0,12.00001943,-1.500009656,1,0,0,1,71,231,102,1,,,,,,,,
,,,,,,,,,,,,,FF,,,,,,,,0.9357,,,,,,,,,,,,,,,,,,,,,,610338f9b119ef8991fe47c4,61036938f96a0725144837d6,2021-07-29_20h52.42.326,Simcolourproject_2stim_asymm_v5,2020.2.10,Win32,60,61025ae37ef11b136ea224fe,,,,,,,,,1971,67.33335441,-45.50001097,1,0,0,response3disk,,5,6.000019252,-3.500009716,1,0,0,rectangle,6.000019252,-3.500009716,1,0,0,6.000019252,-3.500009716,1,0,0,1,72,232,50,1,,,,,,,,
,,,,,,,,,,,,,FF,,,,,,,,0.8364,,,,,,,,,,,,,,,,,,,,,,610338f9b119ef8991fe47c4,61036938f96a0725144837d6,2021-07-29_20h52.42.326,Simcolourproject_2stim_asymm_v5,2020.2.10,Win32,60,61025ae37ef11b136ea224fe,,,,,,,,,4180,42.00002033,60.49999219,1,0,0,response1disk,,7,-13.99998134,-10.83334327,1,0,0,rectangle,-13.99998134,-10.83334327,1,0,0,-13.99998134,-10.83334327,1,0,0,1,73,233,51,1,,,,,,,,
,,,,,,,,,,,,,FF,,,,,,,,0.9857,,,,,,,,,,,,,,,,,,,,,,610338f9b119ef8991fe47c4,61036938f96a0725144837d6,2021-07-29_20h52.42.326,Simcolourproject_2stim_asymm_v5,2020.2.10,Win32,60,61025ae37ef11b136ea224fe,,,,,,,,,3552,-54.66660853,35.83330444,1,0,0,response7disk,,1,-11.3333146,3.833303491,1,0,0,rectangle,-11.3333146,3.833303491,1,0,0,-11.3333146,3.833303491,1,0,0,1,74,234,5,1,,,,,,,,
,,,,,,,,,,,,,FF,,,,,,,,1.1356,,,,,,,,,,,,,,,,,,,,,,610338f9b119ef8991fe47c4,61036938f96a0725144837d6,2021-07-29_20h52.42.326,Simcolourproject_2stim_asymm_v5,2020.2.10,Win32,60,61025ae37ef11b136ea224fe,,,,,,,,,19,44.66668707,83.16665953,1,0,0,response1disk,,7,-1.999980986,-2.166696688,1,0,0,rectangle,-1.999980986,-2.166696688,1,0,0,-1.999980986,-2.166696688,1,0,0,1,75,235,111,1,,,,,,,,
,,,,,,,,,,,,,FF,,,,,,,,0.7847,,,,,,,,,,,,,,,,,,,,,,610338f9b119ef8991fe47c4,61036938f96a0725144837d6,2021-07-29_20h52.42.326,Simcolourproject_2stim_asymm_v5,2020.2.10,Win32,60,61025ae37ef11b136ea224fe,,,,,,,,,825,53.333354,77.16665936,1,0,0,response1disk,,7,8.000019312,5.833303551,1,0,0,rectangle,8.000019312,5.833303551,1,0,0,8.000019312,5.833303551,1,0,0,1,76,236,56,1,,,,,,,,
,,,,,,,,,,,,,FF,,,,,,,,0.817,,,,,,,,,,,,,,,,,,,,,,610338f9b119ef8991fe47c4,61036938f96a0725144837d6,2021-07-29_20h52.42.326,Simcolourproject_2stim_asymm_v5,2020.2.10,Win32,60,61025ae37ef11b136ea224fe,,,,,,,,,2308,40.00002027,61.16665888,1,0,0,response1disk,,7,-5.999981105,1.833303432,1,0,0,rectangle,-5.999981105,1.833303432,1,0,0,-5.999981105,1.833303432,1,0,0,1,77,237,73,1,,,,,,,,
,,,,,,,,,,,,,FF,,,,,,,,1.2168,,,,,,,,,,,,,,,,,,,,,,610338f9b119ef8991fe47c4,61036938f96a0725144837d6,2021-07-29_20h52.42.326,Simcolourproject_2stim_asymm_v5,2020.2.10,Win32,60,61025ae37ef11b136ea224fe,,,,,,,,,3203,42.00002033,-71.50001174,1,0,0,response3disk,,4,-1.3333143,3.16665715,1,0,0,rectangle,54.00002068,23.83330409,1,0,0,9.333393375,1.16665709,1,0,0,1,78,238,154,1,,response1disk_3,TRUE,6,6,"[285,6,208,93,40,296,76,48,239,189,14,255,59,220,44,96,87,34,310,296]",1.2993,rectangle
,,,,,,,,,,,,,FF,,,,,,,,3.5497,,,,,,,,,,,,,,,,,,,,,,610338f9b119ef8991fe47c4,61036938f96a0725144837d6,2021-07-29_20h52.42.326,Simcolourproject_2stim_asymm_v5,2020.2.10,Win32,60,61025ae37ef11b136ea224fe,,,,,,,,,1512,70.66668785,-29.50001049,1,0,0,response3disk,,5,18.6666863,-10.16669693,1,0,0,rectangle,18.6666863,-10.16669693,1,0,0,18.6666863,-10.16669693,1,0,0,1,79,239,52,1,,,,,,,,
,,,,,,,,,,,,,FF,,,,,,,,1.5003,,,,,,,,,,,,,,,,,,,,,,610338f9b119ef8991fe47c4,61036938f96a0725144837d6,2021-07-29_20h52.42.326,Simcolourproject_2stim_asymm_v5,2020.2.10,Win32,60,61025ae37ef11b136ea224fe,,,,,,,,,4080,30.00001997,-62.16667813,1,0,0,response3disk,,4,-7.333314478,-4.833343089,1,0,0,rectangle,-7.333314478,-4.833343089,1,0,0,-7.333314478,-4.833343089,1,0,0,1,80,240,143,1,,,,,,,,
,,,,,,,,,,,,,FF,,,,,,,,3.1501,,,,,,,,,,,,,,,,,,,,,,610338f9b119ef8991fe47c4,61036938f96a0725144837d6,2021-07-29_20h52.42.326,Simcolourproject_2stim_asymm_v5,2020.2.10,Win32,60,61025ae37ef11b136ea224fe,,,,,,,,,1598,-49.99998242,-64.83334488,1,0,0,response5disk,,3,-8.666607161,-7.500009835,1,0,0,rectangle,-8.666607161,-7.500009835,1,0,0,-8.666607161,-7.500009835,1,0,0,1,81,241,108,1,,,,,,,,
,,,,,,,,,,,,,FF,,,,,,,,0.9478,,,,,,,,,,,,,,,,,,,,,,610338f9b119ef8991fe47c4,61036938f96a0725144837d6,2021-07-29_20h52.42.326,Simcolourproject_2stim_asymm_v5,2020.2.10,Win32,60,61025ae37ef11b136ea224fe,,,,,,,,,4326,-47.33331567,65.166659,1,0,0,response7disk,,0,5.333393256,1.833303432,1,0,0,rectangle,5.333393256,1.833303432,1,0,0,5.333393256,1.833303432,1,0,0,1,82,242,17,1,,,,,,,,
