key_resp.keys,key_resp.rt,key_resp_14.keys,key_resp_14.rt,key_resp_15.keys,key_resp_15.rt,key_resp_17.keys,key_resp_17.rt,key_resp_9.keys,key_resp_9.rt,key_resp_10.keys,key_resp_10.rt,practice_comparison,Ecc,mouse_5.x,mouse_5.y,mouse_5.leftButton,mouse_5.midButton,mouse_5.rightButton,mouse_5.clicked_name,pracsimilarity,response_time,mouse_10.x,mouse_10.y,mouse_10.leftButton,mouse_10.midButton,mouse_10.rightButton,mouse_10.clicked_name,mouse_7.x,mouse_7.y,mouse_7.leftButton,mouse_7.midButton,mouse_7.rightButton,mouse_6.x,mouse_6.y,mouse_6.leftButton,mouse_6.midButton,mouse_6.rightButton,duringprac.thisRepN,duringprac.thisTrialN,duringprac.thisN,duringprac.thisIndex,duringprac.ran,participant,session,date,expName,psychopyVersion,OS,frameRate,study_id,mouse_7.clicked_name,catchpracsimilarity,catch_response_time,catchnumberprac,catchtrialorderprac,mouse_6.clicked_name,key_resp_22.keys,key_resp_22.rt,realcomparison,mouse.x,mouse.y,mouse.leftButton,mouse.midButton,mouse.rightButton,mouse.clicked_name,Colour2,similarity,mouse_2.x,mouse_2.y,mouse_2.leftButton,mouse_2.midButton,mouse_2.rightButton,mouse_2.clicked_name,mouse_3.x,mouse_3.y,mouse_3.leftButton,mouse_3.midButton,mouse_3.rightButton,mouse_11.x,mouse_11.y,mouse_11.leftButton,mouse_11.midButton,mouse_11.rightButton,trials_2.thisRepN,trials_2.thisTrialN,trials_2.thisN,trials_2.thisIndex,trials_2.ran,Colour1,mouse_3.clicked_name,catchornah,catchsimilarity,catchnumber,catchtrialorder,catchRT,mouse_11.clicked_name
space,0.9171,space,7.17,space,21.7795,space,5.3951,space,0.5832,space,2.8789,107,FF,96.80001289,43.19996979,1,0,0,response1disk_5,6,4.5492,-12.79998875,-6.4373E-06,1,0,0,rectangle_8,-12.79998875,-6.4373E-06,1,0,0,-12.79998875,-6.4373E-06,1,0,0,0,0,0,0,1,61036a2dc1a5986f00de0513,61036e17490b697dae7a8406,2021-07-29_22h14.02.565,Simcolourproject_2stim_asymm_v5,2020.2.10,Win32,60,61025ae37ef11b136ea224fe,,,,,,,,,,,,,,,,,,,,,,,,,,,,,,,,,,,,,,,,,,,,,,
,,,,,,,,,,,,159,PF,92.80001283,-46.40000713,1,0,0,response3disk_5,5,4.6486,12.00001162,-4.800006509,1,0,0,rectangle_8,51.20001221,111.1999708,1,0,0,2.40001148,3.19999361,1,0,0,0,1,1,2,1,61036a2dc1a5986f00de0513,61036e17490b697dae7a8406,2021-07-29_22h14.02.565,Simcolourproject_2stim_asymm_v5,2020.2.10,Win32,60,61025ae37ef11b136ea224fe,response1disk_7,7,2.5331,7,"[2,5]",rectangle_4,,,,,,,,,,,,,,,,,,,,,,,,,,,,,,,,,,,,,,,,
,,,,,,,,,,,,114,PF,50.4000122,89.5999949,1,0,0,response1disk_5,7,3.0989,1.600060296,7.999993682,1,0,0,rectangle_8,1.600060296,7.999993682,1,0,0,1.600060296,7.999993682,1,0,0,0,2,2,6,1,61036a2dc1a5986f00de0513,61036e17490b697dae7a8406,2021-07-29_22h14.02.565,Simcolourproject_2stim_asymm_v5,2020.2.10,Win32,60,61025ae37ef11b136ea224fe,,,,,,,,,,,,,,,,,,,,,,,,,,,,,,,,,,,,,,,,,,,,,,
,,,,,,,,,,,,74,FF,-91.99998993,-46.40000713,1,0,0,response5disk_5,2,1.8162,5.600060356,5.599993646,1,0,0,rectangle_8,5.600060356,5.599993646,1,0,0,5.600060356,5.599993646,1,0,0,0,3,3,5,1,61036a2dc1a5986f00de0513,61036e17490b697dae7a8406,2021-07-29_22h14.02.565,Simcolourproject_2stim_asymm_v5,2020.2.10,Win32,60,61025ae37ef11b136ea224fe,,,,,,,,,,,,,,,,,,,,,,,,,,,,,,,,,,,,,,,,,,,,,,
,,,,,,,,,,,,54,PF,92.00001281,-28.00000685,1,0,0,response3disk_5,5,1.5995,1.14441E-05,-6.4373E-06,1,0,0,rectangle_8,42.40001208,84.79999483,1,0,0,-9.599988699,-4.800006509,1,0,0,0,4,4,1,1,61036a2dc1a5986f00de0513,61036e17490b697dae7a8406,2021-07-29_22h14.02.565,Simcolourproject_2stim_asymm_v5,2020.2.10,Win32,60,61025ae37ef11b136ea224fe,response1disk_7,7,1.549,7,"[2,5]",rectangle_4,,,,,,,,,,,,,,,,,,,,,,,,,,,,,,,,,,,,,,,,
,,,,,,,,,,,,144,PF,30.4000119,-93.60005666,1,0,0,response3disk_5,4,2.3487,3.200011492,7.19999367,1,0,0,rectangle_8,3.200011492,7.19999367,1,0,0,3.200011492,7.19999367,1,0,0,0,5,5,4,1,61036a2dc1a5986f00de0513,61036e17490b697dae7a8406,2021-07-29_22h14.02.565,Simcolourproject_2stim_asymm_v5,2020.2.10,Win32,60,61025ae37ef11b136ea224fe,,,,,,,,,,,,,,,,,,,,,,,,,,,,,,,,,,,,,,,,,,,,,,
,,,,,,,,,,,,92,FF,33.60006077,-102.400008,1,0,0,response3disk_5,4,3.1155,-12.79998875,5.599993646,1,0,0,rectangle_8,-12.79998875,5.599993646,1,0,0,-12.79998875,5.599993646,1,0,0,0,6,6,3,1,61036a2dc1a5986f00de0513,61036e17490b697dae7a8406,2021-07-29_22h14.02.565,Simcolourproject_2stim_asymm_v5,2020.2.10,Win32,60,61025ae37ef11b136ea224fe,,,,,,,,,,,,,,,,,,,,,,,,,,,,,,,,,,,,,,,,,,,,,,
,,,,,,,,,,,,,FF,,,,,,,,5.5148,,,,,,,,,,,,,,,,,,,,,,61036a2dc1a5986f00de0513,61036e17490b697dae7a8406,2021-07-29_22h14.02.565,Simcolourproject_2stim_asymm_v5,2020.2.10,Win32,60,61025ae37ef11b136ea224fe,,,,,,,space,3.6731,2598,91.2000128,-32.00000691,1,0,0,response3disk,,5,1.600060296,-0.800006449,1,0,0,rectangle,1.600060296,-0.800006449,1,0,0,1.600060296,-0.800006449,1,0,0,0,0,0,146,1,,,,,,,,
,,,,,,,,,,,,,FF,,,,,,,,1.7161,,,,,,,,,,,,,,,,,,,,,,61036a2dc1a5986f00de0513,61036e17490b697dae7a8406,2021-07-29_22h14.02.565,Simcolourproject_2stim_asymm_v5,2020.2.10,Win32,60,61025ae37ef11b136ea224fe,,,,,,,,,755,44.0000121,103.9999951,1,0,0,response1disk,,7,3.200011492,-3.200006485,1,0,0,rectangle,3.200011492,-3.200006485,1,0,0,3.200011492,-3.200006485,1,0,0,0,1,1,13,1,,,,,,,,
,,,,,,,,,,,,,FF,,,,,,,,3.0485,,,,,,,,,,,,,,,,,,,,,,61036a2dc1a5986f00de0513,61036e17490b697dae7a8406,2021-07-29_22h14.02.565,Simcolourproject_2stim_asymm_v5,2020.2.10,Win32,60,61025ae37ef11b136ea224fe,,,,,,,,,324,40.80001205,-92.00000781,1,0,0,response3disk,,4,12.00001162,1.599993587,1,0,0,rectangle,12.00001162,1.599993587,1,0,0,12.00001162,1.599993587,1,0,0,0,2,2,151,1,,,,,,,,
,,,,,,,,,,,,,FF,,,,,,,,3.8821,,,,,,,,,,,,,,,,,,,,,,61036a2dc1a5986f00de0513,61036e17490b697dae7a8406,2021-07-29_22h14.02.565,Simcolourproject_2stim_asymm_v5,2020.2.10,Win32,60,61025ae37ef11b136ea224fe,,,,,,,,,4282,-87.19998986,39.19996973,1,0,0,response7disk,,1,-7.199988663,-3.200006485,1,0,0,rectangle,-7.199988663,-3.200006485,1,0,0,-7.199988663,-3.200006485,1,0,0,0,3,3,113,1,,,,,,,,
,,,,,,,,,,,,,FF,,,,,,,,2.4158,,,,,,,,,,,,,,,,,,,,,,61036a2dc1a5986f00de0513,61036e17490b697dae7a8406,2021-07-29_22h14.02.565,Simcolourproject_2stim_asymm_v5,2020.2.10,Win32,60,61025ae37ef11b136ea224fe,,,,,,,,,45,113.6000131,32.79999405,1,0,0,response1disk,,6,-5.599988639,-6.4373E-06,1,0,0,rectangle,-5.599988639,-6.4373E-06,1,0,0,-5.599988639,-6.4373E-06,1,0,0,0,4,4,39,1,,,,,,,,
,,,,,,,,,,,,,FF,,,,,,,,2.6827,,,,,,,,,,,,,,,,,,,,,,61036a2dc1a5986f00de0513,61036e17490b697dae7a8406,2021-07-29_22h14.02.565,Simcolourproject_2stim_asymm_v5,2020.2.10,Win32,60,61025ae37ef11b136ea224fe,,,,,,,,,3325,-49.5999893,-77.60000759,1,0,0,response5disk,,3,5.600060356,-6.400006533,1,0,0,rectangle,5.600060356,-6.400006533,1,0,0,5.600060356,-6.400006533,1,0,0,0,5,5,90,1,,,,,,,,
,,,,,,,,,,,,,FF,,,,,,,,1.7327,,,,,,,,,,,,,,,,,,,,,,61036a2dc1a5986f00de0513,61036e17490b697dae7a8406,2021-07-29_22h14.02.565,Simcolourproject_2stim_asymm_v5,2020.2.10,Win32,60,61025ae37ef11b136ea224fe,,,,,,,,,1481,54.40001225,101.5999951,1,0,0,response1disk,,7,4.000011504,-3.200006485,1,0,0,rectangle,4.000011504,-3.200006485,1,0,0,4.000011504,-3.200006485,1,0,0,0,6,6,126,1,,,,,,,,
,,,,,,,,,,,,,FF,,,,,,,,2.0832,,,,,,,,,,,,,,,,,,,,,,61036a2dc1a5986f00de0513,61036e17490b697dae7a8406,2021-07-29_22h14.02.565,Simcolourproject_2stim_asymm_v5,2020.2.10,Win32,60,61025ae37ef11b136ea224fe,,,,,,,,,1573,70.40001249,-29.60000688,1,0,0,response3disk,,5,6.400011539,-0.800006449,1,0,0,rectangle,6.400011539,-0.800006449,1,0,0,6.400011539,-0.800006449,1,0,0,0,7,7,83,1,,,,,,,,
,,,,,,,,,,,,,FF,,,,,,,,1.233,,,,,,,,,,,,,,,,,,,,,,61036a2dc1a5986f00de0513,61036e17490b697dae7a8406,2021-07-29_22h14.02.565,Simcolourproject_2stim_asymm_v5,2020.2.10,Win32,60,61025ae37ef11b136ea224fe,,,,,,,,,1009,84.0000127,-40.80000705,1,0,0,response3disk,,5,-2.399939764,-6.4373E-06,1,0,0,rectangle,85.60001272,-43.20000708,1,0,0,2.40001148,10.39999372,1,0,0,0,8,8,86,1,,response3disk_3,TRUE,5,5,"[106,279,139,125,230,250,114,19,190,34,60,192,275,9,175,172,163,37,291,240]",2.1328,rectangle
,,,,,,,,,,,,,FF,,,,,,,,1.5325,,,,,,,,,,,,,,,,,,,,,,61036a2dc1a5986f00de0513,61036e17490b697dae7a8406,2021-07-29_22h14.02.565,Simcolourproject_2stim_asymm_v5,2020.2.10,Win32,60,61025ae37ef11b136ea224fe,,,,,,,,,3260,48.80001217,-106.400008,1,0,0,response3disk,,4,-6.399939823,0.799993575,1,0,0,rectangle,-6.399939823,0.799993575,1,0,0,-6.399939823,0.799993575,1,0,0,0,9,9,80,1,,,,,,,,
,,,,,,,,,,,,,FF,,,,,,,,1.5822,,,,,,,,,,,,,,,,,,,,,,61036a2dc1a5986f00de0513,61036e17490b697dae7a8406,2021-07-29_22h14.02.565,Simcolourproject_2stim_asymm_v5,2020.2.10,Win32,60,61025ae37ef11b136ea224fe,,,,,,,,,1010,-32.79998904,-80.00000763,1,0,0,response5disk,,3,16.00001168,3.999993622,1,0,0,rectangle,16.00001168,3.999993622,1,0,0,16.00001168,3.999993622,1,0,0,0,10,10,25,1,,,,,,,,
,,,,,,,,,,,,,FF,,,,,,,,2.3158,,,,,,,,,,,,,,,,,,,,,,61036a2dc1a5986f00de0513,61036e17490b697dae7a8406,2021-07-29_22h14.02.565,Simcolourproject_2stim_asymm_v5,2020.2.10,Win32,60,61025ae37ef11b136ea224fe,,,,,,,,,979,-90.39994107,31.19996961,1,0,0,response7disk,,1,1.14441E-05,2.399993598,1,0,0,rectangle,1.14441E-05,2.399993598,1,0,0,1.14441E-05,2.399993598,1,0,0,0,11,11,100,1,,,,,,,,
,,,,,,,,,,,,,FF,,,,,,,,1.2163,,,,,,,,,,,,,,,,,,,,,,61036a2dc1a5986f00de0513,61036e17490b697dae7a8406,2021-07-29_22h14.02.565,Simcolourproject_2stim_asymm_v5,2020.2.10,Win32,60,61025ae37ef11b136ea224fe,,,,,,,,,3751,-92.79998994,34.39999408,1,0,0,response7disk,,1,-0.799988568,5.599993646,1,0,0,rectangle,-0.799988568,5.599993646,1,0,0,-0.799988568,5.599993646,1,0,0,0,12,12,92,1,,,,,,,,
,,,,,,,,,,,,,FF,,,,,,,,1.0664,,,,,,,,,,,,,,,,,,,,,,61036a2dc1a5986f00de0513,61036e17490b697dae7a8406,2021-07-29_22h14.02.565,Simcolourproject_2stim_asymm_v5,2020.2.10,Win32,60,61025ae37ef11b136ea224fe,,,,,,,,,1167,34.40001196,78.39999473,1,0,0,response1disk,,7,4.000011504,-7.200006545,1,0,0,rectangle,4.000011504,-7.200006545,1,0,0,4.000011504,-7.200006545,1,0,0,0,13,13,105,1,,,,,,,,
,,,,,,,,,,,,,FF,,,,,,,,1.1663,,,,,,,,,,,,,,,,,,,,,,61036a2dc1a5986f00de0513,61036e17490b697dae7a8406,2021-07-29_22h14.02.565,Simcolourproject_2stim_asymm_v5,2020.2.10,Win32,60,61025ae37ef11b136ea224fe,,,,,,,,,406,-45.59998924,-67.20000744,1,0,0,response5disk,,3,-7.199988663,4.799993634,1,0,0,rectangle,-7.199988663,4.799993634,1,0,0,-7.199988663,4.799993634,1,0,0,0,14,14,88,1,,,,,,,,
,,,,,,,,,,,,,FF,,,,,,,,1.1831,,,,,,,,,,,,,,,,,,,,,,61036a2dc1a5986f00de0513,61036e17490b697dae7a8406,2021-07-29_22h14.02.565,Simcolourproject_2stim_asymm_v5,2020.2.10,Win32,60,61025ae37ef11b136ea224fe,,,,,,,,,1219,-35.99998909,-92.80000782,1,0,0,response5disk,,3,-0.799988568,5.599993646,1,0,0,rectangle,-0.799988568,5.599993646,1,0,0,-0.799988568,5.599993646,1,0,0,0,15,15,7,1,,,,,,,,
,,,,,,,,,,,,,FF,,,,,,,,1.5494,,,,,,,,,,,,,,,,,,,,,,61036a2dc1a5986f00de0513,61036e17490b697dae7a8406,2021-07-29_22h14.02.565,Simcolourproject_2stim_asymm_v5,2020.2.10,Win32,60,61025ae37ef11b136ea224fe,,,,,,,,,2980,47.20001215,-98.4000079,1,0,0,response3disk,,4,9.600060415,4.799993634,1,0,0,rectangle,9.600060415,4.799993634,1,0,0,9.600060415,4.799993634,1,0,0,0,16,16,20,1,,,,,,,,
,,,,,,,,,,,,,FF,,,,,,,,1.4494,,,,,,,,,,,,,,,,,,,,,,61036a2dc1a5986f00de0513,61036e17490b697dae7a8406,2021-07-29_22h14.02.565,Simcolourproject_2stim_asymm_v5,2020.2.10,Win32,60,61025ae37ef11b136ea224fe,,,,,,,,,605,40.80001205,-94.40000784,1,0,0,response3disk,,4,13.60006047,-5.600006521,1,0,0,rectangle,13.60006047,-5.600006521,1,0,0,13.60006047,-5.600006521,1,0,0,0,17,17,110,1,,,,,,,,
,,,,,,,,,,,,,FF,,,,,,,,1.3497,,,,,,,,,,,,,,,,,,,,,,61036a2dc1a5986f00de0513,61036e17490b697dae7a8406,2021-07-29_22h14.02.565,Simcolourproject_2stim_asymm_v5,2020.2.10,Win32,60,61025ae37ef11b136ea224fe,,,,,,,,,1707,94.40001285,42.39999419,1,0,0,response1disk,,6,4.800011516,-4.000006497,1,0,0,rectangle,-44.79998922,-90.40000778,1,0,0,4.800011516,6.399993658,1,0,0,0,18,18,16,1,,response5disk_3,TRUE,3,3,"[106,279,139,125,230,250,114,19,190,34,60,192,275,9,175,172,163,37,291,240]",1.5328,rectangle
,,,,,,,,,,,,,FF,,,,,,,,0.9332,,,,,,,,,,,,,,,,,,,,,,61036a2dc1a5986f00de0513,61036e17490b697dae7a8406,2021-07-29_22h14.02.565,Simcolourproject_2stim_asymm_v5,2020.2.10,Win32,60,61025ae37ef11b136ea224fe,,,,,,,,,2292,-48.79998928,94.39999497,1,0,0,response7disk,,0,-10.39993988,-3.200006485,1,0,0,rectangle,-10.39993988,-3.200006485,1,0,0,-10.39993988,-3.200006485,1,0,0,0,19,19,44,1,,,,,,,,
,,,,,,,,,,,,,FF,,,,,,,,3.5486,,,,,,,,,,,,,,,,,,,,,,61036a2dc1a5986f00de0513,61036e17490b697dae7a8406,2021-07-29_22h14.02.565,Simcolourproject_2stim_asymm_v5,2020.2.10,Win32,60,61025ae37ef11b136ea224fe,,,,,,,,,1849,78.40001261,-47.20000714,1,0,0,response3disk,,5,17.60006053,-8.800006568,1,0,0,rectangle,17.60006053,-8.800006568,1,0,0,17.60006053,-8.800006568,1,0,0,0,20,20,131,1,,,,,,,,
,,,,,,,,,,,,,FF,,,,,,,,2.3489,,,,,,,,,,,,,,,,,,,,,,61036a2dc1a5986f00de0513,61036e17490b697dae7a8406,2021-07-29_22h14.02.565,Simcolourproject_2stim_asymm_v5,2020.2.10,Win32,60,61025ae37ef11b136ea224fe,,,,,,,,,3035,-47.19998926,-81.60005648,1,0,0,response5disk,,3,16.00001168,1.599993587,1,0,0,rectangle,16.00001168,1.599993587,1,0,0,16.00001168,1.599993587,1,0,0,0,21,21,99,1,,,,,,,,
,,,,,,,,,,,,,FF,,,,,,,,1.8823,,,,,,,,,,,,,,,,,,,,,,61036a2dc1a5986f00de0513,61036e17490b697dae7a8406,2021-07-29_22h14.02.565,Simcolourproject_2stim_asymm_v5,2020.2.10,Win32,60,61025ae37ef11b136ea224fe,,,,,,,,,1718,47.20001215,82.39999479,1,0,0,response1disk,,7,10.4000116,-3.200006485,1,0,0,rectangle,10.4000116,-3.200006485,1,0,0,10.4000116,-3.200006485,1,0,0,0,22,22,134,1,,,,,,,,
,,,,,,,,,,,,,FF,,,,,,,,0.7494,,,,,,,,,,,,,,,,,,,,,,61036a2dc1a5986f00de0513,61036e17490b697dae7a8406,2021-07-29_22h14.02.565,Simcolourproject_2stim_asymm_v5,2020.2.10,Win32,60,61025ae37ef11b136ea224fe,,,,,,,,,1189,36.80001199,77.59999472,1,0,0,response1disk,,7,-6.399939823,-11.2000066,1,0,0,rectangle,-6.399939823,-11.2000066,1,0,0,-6.399939823,-11.2000066,1,0,0,0,23,23,62,1,,,,,,,,
,,,,,,,,,,,,,FF,,,,,,,,1.2996,,,,,,,,,,,,,,,,,,,,,,61036a2dc1a5986f00de0513,61036e17490b697dae7a8406,2021-07-29_22h14.02.565,Simcolourproject_2stim_asymm_v5,2020.2.10,Win32,60,61025ae37ef11b136ea224fe,,,,,,,,,1170,104.000013,39.19996973,1,0,0,response1disk,,6,-6.399939823,-10.40000659,1,0,0,rectangle,-6.399939823,-10.40000659,1,0,0,-6.399939823,-10.40000659,1,0,0,0,24,24,67,1,,,,,,,,
,,,,,,,,,,,,,FF,,,,,,,,1.2992,,,,,,,,,,,,,,,,,,,,,,61036a2dc1a5986f00de0513,61036e17490b697dae7a8406,2021-07-29_22h14.02.565,Simcolourproject_2stim_asymm_v5,2020.2.10,Win32,60,61025ae37ef11b136ea224fe,,,,,,,,,1671,-29.599989,-97.60005672,1,0,0,response5disk,,3,12.00001162,-13.60000664,1,0,0,rectangle,12.00001162,-13.60000664,1,0,0,12.00001162,-13.60000664,1,0,0,0,25,25,64,1,,,,,,,,
,,,,,,,,,,,,,FF,,,,,,,,1.0829,,,,,,,,,,,,,,,,,,,,,,61036a2dc1a5986f00de0513,61036e17490b697dae7a8406,2021-07-29_22h14.02.565,Simcolourproject_2stim_asymm_v5,2020.2.10,Win32,60,61025ae37ef11b136ea224fe,,,,,,,,,2030,-73.59998965,22.3999939,1,0,0,response7disk,,1,34.40001196,-10.40000659,1,0,0,rectangle,34.40001196,-10.40000659,1,0,0,34.40001196,-10.40000659,1,0,0,0,26,26,52,1,,,,,,,,
,,,,,,,,,,,,,FF,,,,,,,,0.8497,,,,,,,,,,,,,,,,,,,,,,61036a2dc1a5986f00de0513,61036e17490b697dae7a8406,2021-07-29_22h14.02.565,Simcolourproject_2stim_asymm_v5,2020.2.10,Win32,60,61025ae37ef11b136ea224fe,,,,,,,,,1143,-67.19998956,-28.00000685,1,0,0,response5disk,,2,-3.999988616,2.399993598,1,0,0,rectangle,-3.999988616,2.399993598,1,0,0,-3.999988616,2.399993598,1,0,0,0,27,27,159,1,,,,,,,,
,,,,,,,,,,,,,FF,,,,,,,,0.9166,,,,,,,,,,,,,,,,,,,,,,61036a2dc1a5986f00de0513,61036e17490b697dae7a8406,2021-07-29_22h14.02.565,Simcolourproject_2stim_asymm_v5,2020.2.10,Win32,60,61025ae37ef11b136ea224fe,,,,,,,,,4185,-86.39994102,-44.00000709,1,0,0,response5disk,,2,-19.99998885,-6.4373E-06,1,0,0,rectangle,-19.99998885,-6.4373E-06,1,0,0,-19.99998885,-6.4373E-06,1,0,0,0,28,28,87,1,,,,,,,,
,,,,,,,,,,,,,FF,,,,,,,,1.0495,,,,,,,,,,,,,,,,,,,,,,61036a2dc1a5986f00de0513,61036e17490b697dae7a8406,2021-07-29_22h14.02.565,Simcolourproject_2stim_asymm_v5,2020.2.10,Win32,60,61025ae37ef11b136ea224fe,,,,,,,,,429,33.60006077,-96.00000787,1,0,0,response3disk,,4,11.20001161,2.399993598,1,0,0,rectangle,11.20001161,2.399993598,1,0,0,11.20001161,2.399993598,1,0,0,0,29,29,35,1,,,,,,,,
,,,,,,,,,,,,,FF,,,,,,,,3.4989,,,,,,,,,,,,,,,,,,,,,,61036a2dc1a5986f00de0513,61036e17490b697dae7a8406,2021-07-29_22h14.02.565,Simcolourproject_2stim_asymm_v5,2020.2.10,Win32,60,61025ae37ef11b136ea224fe,,,,,,,,,278,-91.19998991,33.59999406,1,0,0,response7disk,,1,-10.39993988,-1.600006461,1,0,0,rectangle,-10.39993988,-1.600006461,1,0,0,-10.39993988,-1.600006461,1,0,0,0,30,30,78,1,,,,,,,,
,,,,,,,,,,,,,FF,,,,,,,,1.2329,,,,,,,,,,,,,,,,,,,,,,61036a2dc1a5986f00de0513,61036e17490b697dae7a8406,2021-07-29_22h14.02.565,Simcolourproject_2stim_asymm_v5,2020.2.10,Win32,60,61025ae37ef11b136ea224fe,,,,,,,,,2081,89.60001278,-55.20000726,1,0,0,response3disk,,5,18.40001172,-10.40000659,1,0,0,rectangle,18.40001172,-10.40000659,1,0,0,18.40001172,-10.40000659,1,0,0,0,31,31,21,1,,,,,,,,
,,,,,,,,,,,,,FF,,,,,,,,0.8327,,,,,,,,,,,,,,,,,,,,,,61036a2dc1a5986f00de0513,61036e17490b697dae7a8406,2021-07-29_22h14.02.565,Simcolourproject_2stim_asymm_v5,2020.2.10,Win32,60,61025ae37ef11b136ea224fe,,,,,,,,,1989,81.60001266,33.59999406,1,0,0,response1disk,,6,3.200011492,-4.000006497,1,0,0,rectangle,3.200011492,-4.000006497,1,0,0,3.200011492,-4.000006497,1,0,0,0,32,32,19,1,,,,,,,,
,,,,,,,,,,,,,FF,,,,,,,,1.1157,,,,,,,,,,,,,,,,,,,,,,61036a2dc1a5986f00de0513,61036e17490b697dae7a8406,2021-07-29_22h14.02.565,Simcolourproject_2stim_asymm_v5,2020.2.10,Win32,60,61025ae37ef11b136ea224fe,,,,,,,,,906,-102.3999413,49.5999943,1,0,0,response7disk,,1,1.600060296,3.999993622,1,0,0,rectangle,94.40001285,47.19996985,1,0,0,7.200011551,0.799993575,1,0,0,0,33,33,132,1,,response1disk_3,TRUE,6,6,"[106,279,139,125,230,250,114,19,190,34,60,192,275,9,175,172,163,37,291,240]",1.2827,rectangle
,,,,,,,,,,,,,FF,,,,,,,,1.2828,,,,,,,,,,,,,,,,,,,,,,61036a2dc1a5986f00de0513,61036e17490b697dae7a8406,2021-07-29_22h14.02.565,Simcolourproject_2stim_asymm_v5,2020.2.10,Win32,60,61025ae37ef11b136ea224fe,,,,,,,,,1819,-94.39994113,50.39999431,1,0,0,response7disk,,1,-7.999988675,3.19999361,1,0,0,rectangle,-7.999988675,3.19999361,1,0,0,-7.999988675,3.19999361,1,0,0,0,34,34,141,1,,,,,,,,
,,,,,,,,,,,,,FF,,,,,,,,3.4152,,,,,,,,,,,,,,,,,,,,,,61036a2dc1a5986f00de0513,61036e17490b697dae7a8406,2021-07-29_22h14.02.565,Simcolourproject_2stim_asymm_v5,2020.2.10,Win32,60,61025ae37ef11b136ea224fe,,,,,,,,,2002,36.00001198,-82.40000767,1,0,0,response3disk,,4,21.60006059,-6.4373E-06,1,0,0,rectangle,21.60006059,-6.4373E-06,1,0,0,21.60006059,-6.4373E-06,1,0,0,0,35,35,48,1,,,,,,,,
,,,,,,,,,,,,,FF,,,,,,,,1.6324,,,,,,,,,,,,,,,,,,,,,,61036a2dc1a5986f00de0513,61036e17490b697dae7a8406,2021-07-29_22h14.02.565,Simcolourproject_2stim_asymm_v5,2020.2.10,Win32,60,61025ae37ef11b136ea224fe,,,,,,,,,513,-36.7999891,-100.8000079,1,0,0,response5disk,,3,16.00001168,-3.200006485,1,0,0,rectangle,43.20001209,76.79999471,1,0,0,-8.799988687,-6.400006533,1,0,0,0,36,36,128,1,,response1disk_3,TRUE,7,7,"[106,279,139,125,230,250,114,19,190,34,60,192,275,9,175,172,163,37,291,240]",0.9327,rectangle
,,,,,,,,,,,,,FF,,,,,,,,1.7656,,,,,,,,,,,,,,,,,,,,,,61036a2dc1a5986f00de0513,61036e17490b697dae7a8406,2021-07-29_22h14.02.565,Simcolourproject_2stim_asymm_v5,2020.2.10,Win32,60,61025ae37ef11b136ea224fe,,,,,,,,,1011,-49.5999893,-76.80000758,1,0,0,response5disk,,3,-1.59998858,-4.000006497,1,0,0,rectangle,-1.59998858,-4.000006497,1,0,0,-1.59998858,-4.000006497,1,0,0,0,37,37,127,1,,,,,,,,
,,,,,,,,,,,,,FF,,,,,,,,1.3163,,,,,,,,,,,,,,,,,,,,,,61036a2dc1a5986f00de0513,61036e17490b697dae7a8406,2021-07-29_22h14.02.565,Simcolourproject_2stim_asymm_v5,2020.2.10,Win32,60,61025ae37ef11b136ea224fe,,,,,,,,,1618,21.60006059,-92.80000782,1,0,0,response3disk,,4,4.800011516,1.599993587,1,0,0,rectangle,4.800011516,1.599993587,1,0,0,4.800011516,1.599993587,1,0,0,0,38,38,27,1,,,,,,,,
,,,,,,,,,,,,,FF,,,,,,,,0.8497,,,,,,,,,,,,,,,,,,,,,,61036a2dc1a5986f00de0513,61036e17490b697dae7a8406,2021-07-29_22h14.02.565,Simcolourproject_2stim_asymm_v5,2020.2.10,Win32,60,61025ae37ef11b136ea224fe,,,,,,,,,2132,121.6000133,-51.2000072,1,0,0,response3disk,,5,7.200011551,3.19999361,1,0,0,rectangle,7.200011551,3.19999361,1,0,0,7.200011551,3.19999361,1,0,0,0,39,39,119,1,,,,,,,,
,,,,,,,,,,,,,FF,,,,,,,,0.8496,,,,,,,,,,,,,,,,,,,,,,61036a2dc1a5986f00de0513,61036e17490b697dae7a8406,2021-07-29_22h14.02.565,Simcolourproject_2stim_asymm_v5,2020.2.10,Win32,60,61025ae37ef11b136ea224fe,,,,,,,,,2970,88.80001277,-39.20000702,1,0,0,response3disk,,5,2.40001148,3.999993622,1,0,0,rectangle,2.40001148,3.999993622,1,0,0,2.40001148,3.999993622,1,0,0,0,40,40,23,1,,,,,,,,
,,,,,,,,,,,,,FF,,,,,,,,1.9329,,,,,,,,,,,,,,,,,,,,,,61036a2dc1a5986f00de0513,61036e17490b697dae7a8406,2021-07-29_22h14.02.565,Simcolourproject_2stim_asymm_v5,2020.2.10,Win32,60,61025ae37ef11b136ea224fe,,,,,,,,,3959,52.80001223,90.39999491,1,0,0,response1disk,,7,10.4000116,4.799993634,1,0,0,rectangle,10.4000116,4.799993634,1,0,0,10.4000116,4.799993634,1,0,0,0,41,41,81,1,,,,,,,,
,,,,,,,,,,,,,FF,,,,,,,,1.3162,,,,,,,,,,,,,,,,,,,,,,61036a2dc1a5986f00de0513,61036e17490b697dae7a8406,2021-07-29_22h14.02.565,Simcolourproject_2stim_asymm_v5,2020.2.10,Win32,60,61025ae37ef11b136ea224fe,,,,,,,,,3572,62.40001237,-87.20000774,1,0,0,response3disk,,4,7.200011551,-1.600006461,1,0,0,rectangle,7.200011551,-1.600006461,1,0,0,7.200011551,-1.600006461,1,0,0,0,42,42,143,1,,,,,,,,
,,,,,,,,,,,,,FF,,,,,,,,0.7331,,,,,,,,,,,,,,,,,,,,,,61036a2dc1a5986f00de0513,61036e17490b697dae7a8406,2021-07-29_22h14.02.565,Simcolourproject_2stim_asymm_v5,2020.2.10,Win32,60,61025ae37ef11b136ea224fe,,,,,,,,,3382,-38.3999403,83.99999481,1,0,0,response7disk,,0,-2.399939764,-8.000006557,1,0,0,rectangle,-2.399939764,-8.000006557,1,0,0,-2.399939764,-8.000006557,1,0,0,0,43,43,94,1,,,,,,,,
,,,,,,,,,,,,,FF,,,,,,,,1.6828,,,,,,,,,,,,,,,,,,,,,,61036a2dc1a5986f00de0513,61036e17490b697dae7a8406,2021-07-29_22h14.02.565,Simcolourproject_2stim_asymm_v5,2020.2.10,Win32,60,61025ae37ef11b136ea224fe,,,,,,,,,2417,85.60001272,48.79999429,1,0,0,response1disk,,6,7.200011551,0.799993575,1,0,0,rectangle,7.200011551,0.799993575,1,0,0,7.200011551,0.799993575,1,0,0,0,44,44,0,1,,,,,,,,
,,,,,,,,,,,,,FF,,,,,,,,0.783,,,,,,,,,,,,,,,,,,,,,,61036a2dc1a5986f00de0513,61036e17490b697dae7a8406,2021-07-29_22h14.02.565,Simcolourproject_2stim_asymm_v5,2020.2.10,Win32,60,61025ae37ef11b136ea224fe,,,,,,,,,1796,63.20001239,-29.60000688,1,0,0,response3disk,,5,11.20001161,-1.600006461,1,0,0,rectangle,11.20001161,-1.600006461,1,0,0,11.20001161,-1.600006461,1,0,0,0,45,45,14,1,,,,,,,,
,,,,,,,,,,,,,FF,,,,,,,,1.3325,,,,,,,,,,,,,,,,,,,,,,61036a2dc1a5986f00de0513,61036e17490b697dae7a8406,2021-07-29_22h14.02.565,Simcolourproject_2stim_asymm_v5,2020.2.10,Win32,60,61025ae37ef11b136ea224fe,,,,,,,,,2310,108.0000131,41.59999418,1,0,0,response1disk,,6,-0.799988568,4.799993634,1,0,0,rectangle,-0.799988568,4.799993634,1,0,0,-0.799988568,4.799993634,1,0,0,0,46,46,56,1,,,,,,,,
,,,,,,,,,,,,,FF,,,,,,,,0.9159,,,,,,,,,,,,,,,,,,,,,,61036a2dc1a5986f00de0513,61036e17490b697dae7a8406,2021-07-29_22h14.02.565,Simcolourproject_2stim_asymm_v5,2020.2.10,Win32,60,61025ae37ef11b136ea224fe,,,,,,,,,555,68.80001247,36.79999411,1,0,0,response1disk,,6,12.80001163,16.79999381,1,0,0,rectangle,12.80001163,16.79999381,1,0,0,12.80001163,16.79999381,1,0,0,0,47,47,69,1,,,,,,,,
,,,,,,,,,,,,,FF,,,,,,,,0.8662,,,,,,,,,,,,,,,,,,,,,,61036a2dc1a5986f00de0513,61036e17490b697dae7a8406,2021-07-29_22h14.02.565,Simcolourproject_2stim_asymm_v5,2020.2.10,Win32,60,61025ae37ef11b136ea224fe,,,,,,,,,1846,76.80001259,39.99999416,1,0,0,response1disk,,6,-16.79998881,-6.4373E-06,1,0,0,rectangle,-16.79998881,-6.4373E-06,1,0,0,-16.79998881,-6.4373E-06,1,0,0,0,48,48,46,1,,,,,,,,
,,,,,,,,,,,,,FF,,,,,,,,1.2327,,,,,,,,,,,,,,,,,,,,,,61036a2dc1a5986f00de0513,61036e17490b697dae7a8406,2021-07-29_22h14.02.565,Simcolourproject_2stim_asymm_v5,2020.2.10,Win32,60,61025ae37ef11b136ea224fe,,,,,,,,,3580,-87.19998986,-25.60000682,1,0,0,response5disk,,2,-1.59998858,8.799993694,1,0,0,rectangle,-1.59998858,8.799993694,1,0,0,-1.59998858,8.799993694,1,0,0,0,49,49,106,1,,,,,,,,
,,,,,,,,,,,,,FF,,,,,,,,1.0828,,,,,,,,,,,,,,,,,,,,,,61036a2dc1a5986f00de0513,61036e17490b697dae7a8406,2021-07-29_22h14.02.565,Simcolourproject_2stim_asymm_v5,2020.2.10,Win32,60,61025ae37ef11b136ea224fe,,,,,,,,,3997,42.40001208,-87.20000774,1,0,0,response3disk,,4,4.800011516,-6.400006533,1,0,0,rectangle,4.800011516,-6.400006533,1,0,0,4.800011516,-6.400006533,1,0,0,0,50,50,149,1,,,,,,,,
,,,,,,,,,,,,,FF,,,,,,,,1.2494,,,,,,,,,,,,,,,,,,,,,,61036a2dc1a5986f00de0513,61036e17490b697dae7a8406,2021-07-29_22h14.02.565,Simcolourproject_2stim_asymm_v5,2020.2.10,Win32,60,61025ae37ef11b136ea224fe,,,,,,,,,328,-29.599989,-85.60005654,1,0,0,response5disk,,3,13.60006047,-4.800006509,1,0,0,rectangle,13.60006047,-4.800006509,1,0,0,13.60006047,-4.800006509,1,0,0,0,51,51,84,1,,,,,,,,
,,,,,,,,,,,,,FF,,,,,,,,1.7159,,,,,,,,,,,,,,,,,,,,,,61036a2dc1a5986f00de0513,61036e17490b697dae7a8406,2021-07-29_22h14.02.565,Simcolourproject_2stim_asymm_v5,2020.2.10,Win32,60,61025ae37ef11b136ea224fe,,,,,,,,,2432,92.00001281,47.99999428,1,0,0,response1disk,,6,3.200011492,-5.600006521,1,0,0,rectangle,3.200011492,-5.600006521,1,0,0,3.200011492,-5.600006521,1,0,0,0,52,52,29,1,,,,,,,,
,,,,,,,,,,,,,FF,,,,,,,,2.1493,,,,,,,,,,,,,,,,,,,,,,61036a2dc1a5986f00de0513,61036e17490b697dae7a8406,2021-07-29_22h14.02.565,Simcolourproject_2stim_asymm_v5,2020.2.10,Win32,60,61025ae37ef11b136ea224fe,,,,,,,,,3851,-79.19998974,-53.60000724,1,0,0,response5disk,,2,-7.199988663,3.19999361,1,0,0,rectangle,-7.199988663,3.19999361,1,0,0,-7.199988663,3.19999361,1,0,0,0,53,53,40,1,,,,,,,,
,,,,,,,,,,,,,FF,,,,,,,,1.1992,,,,,,,,,,,,,,,,,,,,,,61036a2dc1a5986f00de0513,61036e17490b697dae7a8406,2021-07-29_22h14.02.565,Simcolourproject_2stim_asymm_v5,2020.2.10,Win32,60,61025ae37ef11b136ea224fe,,,,,,,,,2451,73.60001254,-29.60000688,1,0,0,response3disk,,5,25.60006065,-10.40000659,1,0,0,rectangle,25.60006065,-10.40000659,1,0,0,25.60006065,-10.40000659,1,0,0,0,54,54,130,1,,,,,,,,
,,,,,,,,,,,,,FF,,,,,,,,4.5486,,,,,,,,,,,,,,,,,,,,,,61036a2dc1a5986f00de0513,61036e17490b697dae7a8406,2021-07-29_22h14.02.565,Simcolourproject_2stim_asymm_v5,2020.2.10,Win32,60,61025ae37ef11b136ea224fe,,,,,,,,,2591,84.80001271,27.99999398,1,0,0,response1disk,,6,8.800011575,-5.600006521,1,0,0,rectangle,8.800011575,-5.600006521,1,0,0,8.800011575,-5.600006521,1,0,0,0,55,55,140,1,,,,,,,,
,,,,,,,,,,,,,FF,,,,,,,,0.9664,,,,,,,,,,,,,,,,,,,,,,61036a2dc1a5986f00de0513,61036e17490b697dae7a8406,2021-07-29_22h14.02.565,Simcolourproject_2stim_asymm_v5,2020.2.10,Win32,60,61025ae37ef11b136ea224fe,,,,,,,,,753,84.0000127,48.79999429,1,0,0,response1disk,,6,3.200011492,7.19999367,1,0,0,rectangle,3.200011492,7.19999367,1,0,0,3.200011492,7.19999367,1,0,0,0,56,56,157,1,,,,,,,,
,,,,,,,,,,,,,FF,,,,,,,,0.9829,,,,,,,,,,,,,,,,,,,,,,61036a2dc1a5986f00de0513,61036e17490b697dae7a8406,2021-07-29_22h14.02.565,Simcolourproject_2stim_asymm_v5,2020.2.10,Win32,60,61025ae37ef11b136ea224fe,,,,,,,,,1676,-91.99998993,-38.40000701,1,0,0,response5disk,,2,-11.99998873,-4.000006497,1,0,0,rectangle,-11.99998873,-4.000006497,1,0,0,-11.99998873,-4.000006497,1,0,0,0,57,57,15,1,,,,,,,,
,,,,,,,,,,,,,FF,,,,,,,,0.8164,,,,,,,,,,,,,,,,,,,,,,61036a2dc1a5986f00de0513,61036e17490b697dae7a8406,2021-07-29_22h14.02.565,Simcolourproject_2stim_asymm_v5,2020.2.10,Win32,60,61025ae37ef11b136ea224fe,,,,,,,,,2138,37.60006083,87.19997045,1,0,0,response1disk,,7,4.000011504,-4.800006509,1,0,0,rectangle,4.000011504,-4.800006509,1,0,0,4.000011504,-4.800006509,1,0,0,0,58,58,139,1,,,,,,,,
,,,,,,,,,,,,,FF,,,,,,,,1.1998,,,,,,,,,,,,,,,,,,,,,,61036a2dc1a5986f00de0513,61036e17490b697dae7a8406,2021-07-29_22h14.02.565,Simcolourproject_2stim_asymm_v5,2020.2.10,Win32,60,61025ae37ef11b136ea224fe,,,,,,,,,3167,69.60001248,-83.20000768,1,0,0,response3disk,,4,8.000011563,6.399993658,1,0,0,rectangle,72.80001253,-40.00000703,1,0,0,9.600060415,-5.600006521,1,0,0,0,59,59,95,1,,response3disk_3,TRUE,5,5,"[106,279,139,125,230,250,114,19,190,34,60,192,275,9,175,172,163,37,291,240]",1.4494,rectangle
,,,,,,,,,,,,,FF,,,,,,,,2.2824,,,,,,,,,,,,,,,,,,,,,,61036a2dc1a5986f00de0513,61036e17490b697dae7a8406,2021-07-29_22h14.02.565,Simcolourproject_2stim_asymm_v5,2020.2.10,Win32,60,61025ae37ef11b136ea224fe,,,,,,,,,493,88.80001277,-43.20000708,1,0,0,response3disk,,5,12.80001163,-2.400006473,1,0,0,rectangle,12.80001163,-2.400006473,1,0,0,12.80001163,-2.400006473,1,0,0,0,60,60,2,1,,,,,,,,
,,,,,,,,,,,,,FF,,,,,,,,0.8994,,,,,,,,,,,,,,,,,,,,,,61036a2dc1a5986f00de0513,61036e17490b697dae7a8406,2021-07-29_22h14.02.565,Simcolourproject_2stim_asymm_v5,2020.2.10,Win32,60,61025ae37ef11b136ea224fe,,,,,,,,,2152,-47.99998927,-92.00000781,1,0,0,response5disk,,3,7.200011551,-7.200006545,1,0,0,rectangle,7.200011551,-7.200006545,1,0,0,7.200011551,-7.200006545,1,0,0,0,61,61,82,1,,,,,,,,
,,,,,,,,,,,,,FF,,,,,,,,0.8997,,,,,,,,,,,,,,,,,,,,,,61036a2dc1a5986f00de0513,61036e17490b697dae7a8406,2021-07-29_22h14.02.565,Simcolourproject_2stim_asymm_v5,2020.2.10,Win32,60,61025ae37ef11b136ea224fe,,,,,,,,,3353,44.0000121,79.19997033,1,0,0,response1disk,,7,1.14441E-05,-3.200006485,1,0,0,rectangle,1.14441E-05,-3.200006485,1,0,0,1.14441E-05,-3.200006485,1,0,0,0,62,62,37,1,,,,,,,,
,,,,,,,,,,,,,FF,,,,,,,,0.6831,,,,,,,,,,,,,,,,,,,,,,61036a2dc1a5986f00de0513,61036e17490b697dae7a8406,2021-07-29_22h14.02.565,Simcolourproject_2stim_asymm_v5,2020.2.10,Win32,60,61025ae37ef11b136ea224fe,,,,,,,,,1245,48.00001216,87.19997045,1,0,0,response1disk,,7,7.200011551,-0.800006449,1,0,0,rectangle,7.200011551,-0.800006449,1,0,0,7.200011551,-0.800006449,1,0,0,0,63,63,74,1,,,,,,,,
,,,,,,,,,,,,,FF,,,,,,,,1.033,,,,,,,,,,,,,,,,,,,,,,61036a2dc1a5986f00de0513,61036e17490b697dae7a8406,2021-07-29_22h14.02.565,Simcolourproject_2stim_asymm_v5,2020.2.10,Win32,60,61025ae37ef11b136ea224fe,,,,,,,,,4261,72.00001252,-31.2000069,1,0,0,response3disk,,5,-34.39994024,13.59999377,1,0,0,rectangle,-34.39994024,13.59999377,1,0,0,-34.39994024,13.59999377,1,0,0,0,64,64,57,1,,,,,,,,
,,,,,,,,,,,,,FF,,,,,,,,1.0163,,,,,,,,,,,,,,,,,,,,,,61036a2dc1a5986f00de0513,61036e17490b697dae7a8406,2021-07-29_22h14.02.565,Simcolourproject_2stim_asymm_v5,2020.2.10,Win32,60,61025ae37ef11b136ea224fe,,,,,,,,,2341,71.20001251,-24.00000679,1,0,0,response3disk,,5,-3.199988604,5.599993646,1,0,0,rectangle,-3.199988604,5.599993646,1,0,0,-3.199988604,5.599993646,1,0,0,0,65,65,26,1,,,,,,,,
,,,,,,,,,,,,,FF,,,,,,,,0.5665,,,,,,,,,,,,,,,,,,,,,,61036a2dc1a5986f00de0513,61036e17490b697dae7a8406,2021-07-29_22h14.02.565,Simcolourproject_2stim_asymm_v5,2020.2.10,Win32,60,61025ae37ef11b136ea224fe,,,,,,,,,2564,81.60001266,44.79999423,1,0,0,response1disk,,6,0.800011456,1.599993587,1,0,0,rectangle,0.800011456,1.599993587,1,0,0,0.800011456,1.599993587,1,0,0,0,66,66,30,1,,,,,,,,
,,,,,,,,,,,,,FF,,,,,,,,0.8167,,,,,,,,,,,,,,,,,,,,,,61036a2dc1a5986f00de0513,61036e17490b697dae7a8406,2021-07-29_22h14.02.565,Simcolourproject_2stim_asymm_v5,2020.2.10,Win32,60,61025ae37ef11b136ea224fe,,,,,,,,,2381,67.20001245,35.9999941,1,0,0,response1disk,,6,7.200011551,3.19999361,1,0,0,rectangle,7.200011551,3.19999361,1,0,0,7.200011551,3.19999361,1,0,0,0,67,67,63,1,,,,,,,,
,,,,,,,,,,,,,FF,,,,,,,,0.9163,,,,,,,,,,,,,,,,,,,,,,61036a2dc1a5986f00de0513,61036e17490b697dae7a8406,2021-07-29_22h14.02.565,Simcolourproject_2stim_asymm_v5,2020.2.10,Win32,60,61025ae37ef11b136ea224fe,,,,,,,,,4049,-80.79998976,48.79999429,1,0,0,response7disk,,1,-10.39993988,-4.000006497,1,0,0,rectangle,-10.39993988,-4.000006497,1,0,0,-10.39993988,-4.000006497,1,0,0,0,68,68,61,1,,,,,,,,
,,,,,,,,,,,,,FF,,,,,,,,3.2657,,,,,,,,,,,,,,,,,,,,,,61036a2dc1a5986f00de0513,61036e17490b697dae7a8406,2021-07-29_22h14.02.565,Simcolourproject_2stim_asymm_v5,2020.2.10,Win32,60,61025ae37ef11b136ea224fe,,,,,,,,,3152,37.60006083,-85.60005654,1,0,0,response3disk,,4,8.000011563,-7.200006545,1,0,0,rectangle,8.000011563,-7.200006545,1,0,0,8.000011563,-7.200006545,1,0,0,0,69,69,108,1,,,,,,,,
,,,,,,,,,,,,,FF,,,,,,,,0.7494,,,,,,,,,,,,,,,,,,,,,,61036a2dc1a5986f00de0513,61036e17490b697dae7a8406,2021-07-29_22h14.02.565,Simcolourproject_2stim_asymm_v5,2020.2.10,Win32,60,61025ae37ef11b136ea224fe,,,,,,,,,1280,38.40001202,57.59999442,1,0,0,response1disk,,7,7.200011551,3.19999361,1,0,0,rectangle,7.200011551,3.19999361,1,0,0,7.200011551,3.19999361,1,0,0,0,70,70,66,1,,,,,,,,
,,,,,,,,,,,,,FF,,,,,,,,0.6827,,,,,,,,,,,,,,,,,,,,,,61036a2dc1a5986f00de0513,61036e17490b697dae7a8406,2021-07-29_22h14.02.565,Simcolourproject_2stim_asymm_v5,2020.2.10,Win32,60,61025ae37ef11b136ea224fe,,,,,,,,,370,32.00001192,96.79999501,1,0,0,response1disk,,7,-7.199988663,-4.000006497,1,0,0,rectangle,-7.199988663,-4.000006497,1,0,0,-7.199988663,-4.000006497,1,0,0,0,71,71,77,1,,,,,,,,
,,,,,,,,,,,,,FF,,,,,,,,1.4828,,,,,,,,,,,,,,,,,,,,,,61036a2dc1a5986f00de0513,61036e17490b697dae7a8406,2021-07-29_22h14.02.565,Simcolourproject_2stim_asymm_v5,2020.2.10,Win32,60,61025ae37ef11b136ea224fe,,,,,,,,,3295,-52.79998934,-76.80000758,1,0,0,response5disk,,3,5.600060356,3.19999361,1,0,0,rectangle,5.600060356,3.19999361,1,0,0,5.600060356,3.19999361,1,0,0,0,72,72,155,1,,,,,,,,
,,,,,,,,,,,,,FF,,,,,,,,2.7991,,,,,,,,,,,,,,,,,,,,,,61036a2dc1a5986f00de0513,61036e17490b697dae7a8406,2021-07-29_22h14.02.565,Simcolourproject_2stim_asymm_v5,2020.2.10,Win32,60,61025ae37ef11b136ea224fe,,,,,,,,,432,83.20001268,23.19996949,1,0,0,response1disk,,6,-11.19998872,-13.60000664,1,0,0,rectangle,-11.19998872,-13.60000664,1,0,0,-11.19998872,-13.60000664,1,0,0,0,73,73,53,1,,,,,,,,
,,,,,,,,,,,,,FF,,,,,,,,0.9497,,,,,,,,,,,,,,,,,,,,,,61036a2dc1a5986f00de0513,61036e17490b697dae7a8406,2021-07-29_22h14.02.565,Simcolourproject_2stim_asymm_v5,2020.2.10,Win32,60,61025ae37ef11b136ea224fe,,,,,,,,,536,-31.99998903,-91.2000078,1,0,0,response5disk,,3,2.40001148,8.799993694,1,0,0,rectangle,2.40001148,8.799993694,1,0,0,2.40001148,8.799993694,1,0,0,0,74,74,118,1,,,,,,,,
,,,,,,,,,,,,,FF,,,,,,,,1.816,,,,,,,,,,,,,,,,,,,,,,61036a2dc1a5986f00de0513,61036e17490b697dae7a8406,2021-07-29_22h14.02.565,Simcolourproject_2stim_asymm_v5,2020.2.10,Win32,60,61025ae37ef11b136ea224fe,,,,,,,,,3470,-83.99998981,-48.00000715,1,0,0,response5disk,,2,-13.59998876,-2.400006473,1,0,0,rectangle,-13.59998876,-2.400006473,1,0,0,-13.59998876,-2.400006473,1,0,0,0,75,75,79,1,,,,,,,,
,,,,,,,,,,,,,FF,,,,,,,,1.1995,,,,,,,,,,,,,,,,,,,,,,61036a2dc1a5986f00de0513,61036e17490b697dae7a8406,2021-07-29_22h14.02.565,Simcolourproject_2stim_asymm_v5,2020.2.10,Win32,60,61025ae37ef11b136ea224fe,,,,,,,,,1306,-94.39994113,-37.600007,1,0,0,response5disk,,2,4.800011516,-6.4373E-06,1,0,0,rectangle,4.800011516,-6.4373E-06,1,0,0,4.800011516,-6.4373E-06,1,0,0,0,76,76,60,1,,,,,,,,
,,,,,,,,,,,,,FF,,,,,,,,0.8491,,,,,,,,,,,,,,,,,,,,,,61036a2dc1a5986f00de0513,61036e17490b697dae7a8406,2021-07-29_22h14.02.565,Simcolourproject_2stim_asymm_v5,2020.2.10,Win32,60,61025ae37ef11b136ea224fe,,,,,,,,,1719,44.0000121,-79.20000762,1,0,0,response3disk,,4,19.20001173,0.799993575,1,0,0,rectangle,19.20001173,0.799993575,1,0,0,19.20001173,0.799993575,1,0,0,0,77,77,120,1,,,,,,,,
,,,,,,,,,,,,,FF,,,,,,,,1.4994,,,,,,,,,,,,,,,,,,,,,,61036a2dc1a5986f00de0513,61036e17490b697dae7a8406,2021-07-29_22h14.02.565,Simcolourproject_2stim_asymm_v5,2020.2.10,Win32,60,61025ae37ef11b136ea224fe,,,,,,,,,938,93.60001284,32.79999405,1,0,0,response1disk,,6,-7.199988663,7.999993682,1,0,0,rectangle,-7.199988663,7.999993682,1,0,0,-7.199988663,7.999993682,1,0,0,0,78,78,34,1,,,,,,,,
,,,,,,,,,,,,,FF,,,,,,,,1.6497,,,,,,,,,,,,,,,,,,,,,,61036a2dc1a5986f00de0513,61036e17490b697dae7a8406,2021-07-29_22h14.02.565,Simcolourproject_2stim_asymm_v5,2020.2.10,Win32,60,61025ae37ef11b136ea224fe,,,,,,,,,3159,-35.99998909,-84.8000077,1,0,0,response5disk,,3,1.14441E-05,3.19999361,1,0,0,rectangle,1.14441E-05,3.19999361,1,0,0,1.14441E-05,3.19999361,1,0,0,0,79,79,96,1,,,,,,,,
,,,,,,,,,,,,,FF,,,,,,,,1.5328,,,,,,,,,,,,,,,,,,,,,,61036a2dc1a5986f00de0513,61036e17490b697dae7a8406,2021-07-29_22h14.02.565,Simcolourproject_2stim_asymm_v5,2020.2.10,Win32,60,61025ae37ef11b136ea224fe,,,,,,,,,310,37.60006083,75.9999947,1,0,0,response1disk,,7,6.400011539,7.999993682,1,0,0,rectangle,6.400011539,7.999993682,1,0,0,6.400011539,7.999993682,1,0,0,0,80,80,111,1,,,,,,,,
,,,,,,,,,,,,,FF,,,,,,,,0.8165,,,,,,,,,,,,,,,,,,,,,,61036a2dc1a5986f00de0513,61036e17490b697dae7a8406,2021-07-29_22h14.02.565,Simcolourproject_2stim_asymm_v5,2020.2.10,Win32,60,61025ae37ef11b136ea224fe,,,,,,,,,4039,47.20001215,80.79999477,1,0,0,response1disk,,7,13.60006047,-0.800006449,1,0,0,rectangle,13.60006047,-0.800006449,1,0,0,13.60006047,-0.800006449,1,0,0,0,81,81,133,1,,,,,,,,
,,,,,,,,,,,,,FF,,,,,,,,0.6497,,,,,,,,,,,,,,,,,,,,,,61036a2dc1a5986f00de0513,61036e17490b697dae7a8406,2021-07-29_22h14.02.565,Simcolourproject_2stim_asymm_v5,2020.2.10,Win32,60,61025ae37ef11b136ea224fe,,,,,,,,,2586,41.60006089,104.7999951,1,0,0,response1disk,,7,-7.999988675,-0.800006449,1,0,0,rectangle,-7.999988675,-0.800006449,1,0,0,-7.999988675,-0.800006449,1,0,0,0,82,82,51,1,,,,,,,,
,,,,,,,,,,,,,FF,,,,,,,,0.8497,,,,,,,,,,,,,,,,,,,,,,61036a2dc1a5986f00de0513,61036e17490b697dae7a8406,2021-07-29_22h14.02.565,Simcolourproject_2stim_asymm_v5,2020.2.10,Win32,60,61025ae37ef11b136ea224fe,,,,,,,,,3738,72.00001252,31.19996961,1,0,0,response1disk,,6,0.800011456,-7.200006545,1,0,0,rectangle,0.800011456,-7.200006545,1,0,0,0.800011456,-7.200006545,1,0,0,0,83,83,125,1,,,,,,,,
,,,,,,,,,,,,,FF,,,,,,,,1.7661,,,,,,,,,,,,,,,,,,,,,,61036a2dc1a5986f00de0513,61036e17490b697dae7a8406,2021-07-29_22h14.02.565,Simcolourproject_2stim_asymm_v5,2020.2.10,Win32,60,61025ae37ef11b136ea224fe,,,,,,,,,1196,66.40001243,-36.80000699,1,0,0,response3disk,,5,11.20001161,7.999993682,1,0,0,rectangle,11.20001161,7.999993682,1,0,0,11.20001161,7.999993682,1,0,0,0,84,84,24,1,,,,,,,,
,,,,,,,,,,,,,FF,,,,,,,,0.7828,,,,,,,,,,,,,,,,,,,,,,61036a2dc1a5986f00de0513,61036e17490b697dae7a8406,2021-07-29_22h14.02.565,Simcolourproject_2stim_asymm_v5,2020.2.10,Win32,60,61025ae37ef11b136ea224fe,,,,,,,,,1521,-42.39994036,72.79999465,1,0,0,response7disk,,0,2.40001148,-15.20000666,1,0,0,rectangle,2.40001148,-15.20000666,1,0,0,2.40001148,-15.20000666,1,0,0,0,85,85,156,1,,,,,,,,
,,,,,,,,,,,,,FF,,,,,,,,1.6826,,,,,,,,,,,,,,,,,,,,,,61036a2dc1a5986f00de0513,61036e17490b697dae7a8406,2021-07-29_22h14.02.565,Simcolourproject_2stim_asymm_v5,2020.2.10,Win32,60,61025ae37ef11b136ea224fe,,,,,,,,,3065,81.60001266,41.59999418,1,0,0,response1disk,,6,8.000011563,-0.800006449,1,0,0,rectangle,8.000011563,-0.800006449,1,0,0,8.000011563,-0.800006449,1,0,0,0,86,86,32,1,,,,,,,,
,,,,,,,,,,,,,FF,,,,,,,,0.6831,,,,,,,,,,,,,,,,,,,,,,61036a2dc1a5986f00de0513,61036e17490b697dae7a8406,2021-07-29_22h14.02.565,Simcolourproject_2stim_asymm_v5,2020.2.10,Win32,60,61025ae37ef11b136ea224fe,,,,,,,,,3083,36.00001198,66.39999455,1,0,0,response1disk,,7,0.800011456,0.799993575,1,0,0,rectangle,0.800011456,0.799993575,1,0,0,0.800011456,0.799993575,1,0,0,0,87,87,91,1,,,,,,,,
,,,,,,,,,,,,,FF,,,,,,,,0.6332,,,,,,,,,,,,,,,,,,,,,,61036a2dc1a5986f00de0513,61036e17490b697dae7a8406,2021-07-29_22h14.02.565,Simcolourproject_2stim_asymm_v5,2020.2.10,Win32,60,61025ae37ef11b136ea224fe,,,,,,,,,308,32.80001193,101.5999951,1,0,0,response1disk,,7,-3.999988616,12.79999375,1,0,0,rectangle,-3.999988616,12.79999375,1,0,0,-3.999988616,12.79999375,1,0,0,0,88,88,11,1,,,,,,,,
,,,,,,,,,,,,,FF,,,,,,,,1.3329,,,,,,,,,,,,,,,,,,,,,,61036a2dc1a5986f00de0513,61036e17490b697dae7a8406,2021-07-29_22h14.02.565,Simcolourproject_2stim_asymm_v5,2020.2.10,Win32,60,61025ae37ef11b136ea224fe,,,,,,,,,1773,103.200013,36.79999411,1,0,0,response1disk,,6,10.4000116,7.999993682,1,0,0,rectangle,10.4000116,7.999993682,1,0,0,10.4000116,7.999993682,1,0,0,0,89,89,98,1,,,,,,,,
,,,,,,,,,,,,,FF,,,,,,,,0.5831,,,,,,,,,,,,,,,,,,,,,,61036a2dc1a5986f00de0513,61036e17490b697dae7a8406,2021-07-29_22h14.02.565,Simcolourproject_2stim_asymm_v5,2020.2.10,Win32,60,61025ae37ef11b136ea224fe,,,,,,,,,4012,39.20001203,87.99999487,1,0,0,response1disk,,7,0.800011456,2.399993598,1,0,0,rectangle,0.800011456,2.399993598,1,0,0,0.800011456,2.399993598,1,0,0,0,90,90,10,1,,,,,,,,
,,,,,,,,,,,,,FF,,,,,,,,0.933,,,,,,,,,,,,,,,,,,,,,,61036a2dc1a5986f00de0513,61036e17490b697dae7a8406,2021-07-29_22h14.02.565,Simcolourproject_2stim_asymm_v5,2020.2.10,Win32,60,61025ae37ef11b136ea224fe,,,,,,,,,1994,83.20001268,36.79999411,1,0,0,response1disk,,6,15.20001167,8.799993694,1,0,0,rectangle,15.20001167,8.799993694,1,0,0,15.20001167,8.799993694,1,0,0,0,91,91,65,1,,,,,,,,
,,,,,,,,,,,,,FF,,,,,,,,1.3161,,,,,,,,,,,,,,,,,,,,,,61036a2dc1a5986f00de0513,61036e17490b697dae7a8406,2021-07-29_22h14.02.565,Simcolourproject_2stim_asymm_v5,2020.2.10,Win32,60,61025ae37ef11b136ea224fe,,,,,,,,,2045,32.00001192,-68.00000745,1,0,0,response3disk,,4,11.20001161,-7.200006545,1,0,0,rectangle,11.20001161,-7.200006545,1,0,0,11.20001161,-7.200006545,1,0,0,0,92,92,58,1,,,,,,,,
,,,,,,,,,,,,,FF,,,,,,,,1.1831,,,,,,,,,,,,,,,,,,,,,,61036a2dc1a5986f00de0513,61036e17490b697dae7a8406,2021-07-29_22h14.02.565,Simcolourproject_2stim_asymm_v5,2020.2.10,Win32,60,61025ae37ef11b136ea224fe,,,,,,,,,338,-93.59998995,-40.00000703,1,0,0,response5disk,,2,-7.199988663,-0.800006449,1,0,0,rectangle,-7.199988663,-0.800006449,1,0,0,-7.199988663,-0.800006449,1,0,0,0,93,93,6,1,,,,,,,,
,,,,,,,,,,,,,FF,,,,,,,,0.8665,,,,,,,,,,,,,,,,,,,,,,61036a2dc1a5986f00de0513,61036e17490b697dae7a8406,2021-07-29_22h14.02.565,Simcolourproject_2stim_asymm_v5,2020.2.10,Win32,60,61025ae37ef11b136ea224fe,,,,,,,,,4007,-83.1999898,-32.80000693,1,0,0,response5disk,,2,-11.19998872,-8.000006557,1,0,0,rectangle,-11.19998872,-8.000006557,1,0,0,-11.19998872,-8.000006557,1,0,0,0,94,94,104,1,,,,,,,,
,,,,,,,,,,,,,FF,,,,,,,,0.9498,,,,,,,,,,,,,,,,,,,,,,61036a2dc1a5986f00de0513,61036e17490b697dae7a8406,2021-07-29_22h14.02.565,Simcolourproject_2stim_asymm_v5,2020.2.10,Win32,60,61025ae37ef11b136ea224fe,,,,,,,,,78,-75.19998968,26.39999396,1,0,0,response7disk,,1,-8.799988687,4.799993634,1,0,0,rectangle,-8.799988687,4.799993634,1,0,0,-8.799988687,4.799993634,1,0,0,0,95,95,70,1,,,,,,,,
,,,,,,,,,,,,,FF,,,,,,,,1.1163,,,,,,,,,,,,,,,,,,,,,,61036a2dc1a5986f00de0513,61036e17490b697dae7a8406,2021-07-29_22h14.02.565,Simcolourproject_2stim_asymm_v5,2020.2.10,Win32,60,61025ae37ef11b136ea224fe,,,,,,,,,1587,-75.99998969,30.39999402,1,0,0,response7disk,,1,-14.39993994,-2.400006473,1,0,0,rectangle,-14.39993994,-2.400006473,1,0,0,-14.39993994,-2.400006473,1,0,0,0,96,96,148,1,,,,,,,,
,,,,,,,,,,,,,FF,,,,,,,,1.616,,,,,,,,,,,,,,,,,,,,,,61036a2dc1a5986f00de0513,61036e17490b697dae7a8406,2021-07-29_22h14.02.565,Simcolourproject_2stim_asymm_v5,2020.2.10,Win32,60,61025ae37ef11b136ea224fe,,,,,,,,,3949,-33.59998906,-98.4000079,1,0,0,response5disk,,3,19.20001173,10.39999372,1,0,0,rectangle,19.20001173,10.39999372,1,0,0,19.20001173,10.39999372,1,0,0,0,97,97,31,1,,,,,,,,
,,,,,,,,,,,,,FF,,,,,,,,0.8328,,,,,,,,,,,,,,,,,,,,,,61036a2dc1a5986f00de0513,61036e17490b697dae7a8406,2021-07-29_22h14.02.565,Simcolourproject_2stim_asymm_v5,2020.2.10,Win32,60,61025ae37ef11b136ea224fe,,,,,,,,,3369,51.20001221,118.3999953,1,0,0,response1disk,,7,-7.999988675,-13.60000664,1,0,0,rectangle,-7.999988675,-13.60000664,1,0,0,-7.999988675,-13.60000664,1,0,0,0,98,98,142,1,,,,,,,,
,,,,,,,,,,,,,FF,,,,,,,,1.3989,,,,,,,,,,,,,,,,,,,,,,61036a2dc1a5986f00de0513,61036e17490b697dae7a8406,2021-07-29_22h14.02.565,Simcolourproject_2stim_asymm_v5,2020.2.10,Win32,60,61025ae37ef11b136ea224fe,,,,,,,,,3623,-83.99998981,27.99999398,1,0,0,response7disk,,1,1.14441E-05,-2.400006473,1,0,0,rectangle,1.14441E-05,-2.400006473,1,0,0,1.14441E-05,-2.400006473,1,0,0,0,99,99,22,1,,,,,,,,
,,,,,,,,,,,,,FF,,,,,,,,0.8998,,,,,,,,,,,,,,,,,,,,,,61036a2dc1a5986f00de0513,61036e17490b697dae7a8406,2021-07-29_22h14.02.565,Simcolourproject_2stim_asymm_v5,2020.2.10,Win32,60,61025ae37ef11b136ea224fe,,,,,,,,,977,-74.39994084,26.39999396,1,0,0,response7disk,,1,-17.59998882,3.19999361,1,0,0,rectangle,-17.59998882,3.19999361,1,0,0,-17.59998882,3.19999361,1,0,0,0,100,100,137,1,,,,,,,,
,,,,,,,,,,,,,FF,,,,,,,,0.8331,,,,,,,,,,,,,,,,,,,,,,61036a2dc1a5986f00de0513,61036e17490b697dae7a8406,2021-07-29_22h14.02.565,Simcolourproject_2stim_asymm_v5,2020.2.10,Win32,60,61025ae37ef11b136ea224fe,,,,,,,,,4243,48.00001216,81.59999478,1,0,0,response1disk,,7,4.800011516,-3.200006485,1,0,0,rectangle,4.800011516,-3.200006485,1,0,0,4.800011516,-3.200006485,1,0,0,0,101,101,101,1,,,,,,,,
,,,,,,,,,,,,,FF,,,,,,,,0.9329,,,,,,,,,,,,,,,,,,,,,,61036a2dc1a5986f00de0513,61036e17490b697dae7a8406,2021-07-29_22h14.02.565,Simcolourproject_2stim_asymm_v5,2020.2.10,Win32,60,61025ae37ef11b136ea224fe,,,,,,,,,4362,-78.3999409,47.19996985,1,0,0,response7disk,,1,-11.19998872,8.799993694,1,0,0,rectangle,-11.19998872,8.799993694,1,0,0,-11.19998872,8.799993694,1,0,0,0,102,102,12,1,,,,,,,,
,,,,,,,,,,,,,FF,,,,,,,,0.6829,,,,,,,,,,,,,,,,,,,,,,61036a2dc1a5986f00de0513,61036e17490b697dae7a8406,2021-07-29_22h14.02.565,Simcolourproject_2stim_asymm_v5,2020.2.10,Win32,60,61025ae37ef11b136ea224fe,,,,,,,,,4147,-39.19998914,93.59999496,1,0,0,response7disk,,0,1.14441E-05,-6.4373E-06,1,0,0,rectangle,1.14441E-05,-6.4373E-06,1,0,0,1.14441E-05,-6.4373E-06,1,0,0,0,103,103,54,1,,,,,,,,
,,,,,,,,,,,,,FF,,,,,,,,1.1326,,,,,,,,,,,,,,,,,,,,,,61036a2dc1a5986f00de0513,61036e17490b697dae7a8406,2021-07-29_22h14.02.565,Simcolourproject_2stim_asymm_v5,2020.2.10,Win32,60,61025ae37ef11b136ea224fe,,,,,,,,,54,67.20001245,-32.00000691,1,0,0,response3disk,,5,17.60006053,1.599993587,1,0,0,rectangle,17.60006053,1.599993587,1,0,0,17.60006053,1.599993587,1,0,0,0,104,104,93,1,,,,,,,,
,,,,,,,,,,,,,FF,,,,,,,,2.1824,,,,,,,,,,,,,,,,,,,,,,61036a2dc1a5986f00de0513,61036e17490b697dae7a8406,2021-07-29_22h14.02.565,Simcolourproject_2stim_asymm_v5,2020.2.10,Win32,60,61025ae37ef11b136ea224fe,,,,,,,,,4055,81.60001266,-53.60000724,1,0,0,response3disk,,5,-3.199988604,-16.80000669,1,0,0,rectangle,-76.7999897,-49.60000718,1,0,0,3.200011492,3.999993622,1,0,0,0,105,105,138,1,,response5disk_3,TRUE,2,2,"[106,279,139,125,230,250,114,19,190,34,60,192,275,9,175,172,163,37,291,240]",1.3826,rectangle
,,,,,,,,,,,,,FF,,,,,,,,0.9991,,,,,,,,,,,,,,,,,,,,,,61036a2dc1a5986f00de0513,61036e17490b697dae7a8406,2021-07-29_22h14.02.565,Simcolourproject_2stim_asymm_v5,2020.2.10,Win32,60,61025ae37ef11b136ea224fe,,,,,,,,,163,-29.599989,-85.60005654,1,0,0,response5disk,,3,18.40001172,1.599993587,1,0,0,rectangle,18.40001172,1.599993587,1,0,0,18.40001172,1.599993587,1,0,0,0,106,106,123,1,,,,,,,,
,,,,,,,,,,,,,FF,,,,,,,,0.8162,,,,,,,,,,,,,,,,,,,,,,61036a2dc1a5986f00de0513,61036e17490b697dae7a8406,2021-07-29_22h14.02.565,Simcolourproject_2stim_asymm_v5,2020.2.10,Win32,60,61025ae37ef11b136ea224fe,,,,,,,,,736,-89.59998989,36.79999411,1,0,0,response7disk,,1,-1.59998858,-0.800006449,1,0,0,rectangle,-1.59998858,-0.800006449,1,0,0,-1.59998858,-0.800006449,1,0,0,0,107,107,72,1,,,,,,,,
,,,,,,,,,,,,,FF,,,,,,,,0.983,,,,,,,,,,,,,,,,,,,,,,61036a2dc1a5986f00de0513,61036e17490b697dae7a8406,2021-07-29_22h14.02.565,Simcolourproject_2stim_asymm_v5,2020.2.10,Win32,60,61025ae37ef11b136ea224fe,,,,,,,,,357,33.60006077,80.79999477,1,0,0,response1disk,,7,-0.799988568,-7.200006545,1,0,0,rectangle,-0.799988568,-7.200006545,1,0,0,-0.799988568,-7.200006545,1,0,0,0,108,108,158,1,,,,,,,,
,,,,,,,,,,,,,FF,,,,,,,,0.8997,,,,,,,,,,,,,,,,,,,,,,61036a2dc1a5986f00de0513,61036e17490b697dae7a8406,2021-07-29_22h14.02.565,Simcolourproject_2stim_asymm_v5,2020.2.10,Win32,60,61025ae37ef11b136ea224fe,,,,,,,,,3773,-43.99998921,-90.40000778,1,0,0,response5disk,,3,18.40001172,2.399993598,1,0,0,rectangle,18.40001172,2.399993598,1,0,0,18.40001172,2.399993598,1,0,0,0,109,109,103,1,,,,,,,,
,,,,,,,,,,,,,FF,,,,,,,,0.9331,,,,,,,,,,,,,,,,,,,,,,61036a2dc1a5986f00de0513,61036e17490b697dae7a8406,2021-07-29_22h14.02.565,Simcolourproject_2stim_asymm_v5,2020.2.10,Win32,60,61025ae37ef11b136ea224fe,,,,,,,,,4369,-83.99998981,-32.80000693,1,0,0,response5disk,,2,-4.799988627,-3.200006485,1,0,0,rectangle,-4.799988627,-3.200006485,1,0,0,-4.799988627,-3.200006485,1,0,0,0,110,110,4,1,,,,,,,,
,,,,,,,,,,,,,FF,,,,,,,,1.5159,,,,,,,,,,,,,,,,,,,,,,61036a2dc1a5986f00de0513,61036e17490b697dae7a8406,2021-07-29_22h14.02.565,Simcolourproject_2stim_asymm_v5,2020.2.10,Win32,60,61025ae37ef11b136ea224fe,,,,,,,,,1598,-43.99998921,-72.80000752,1,0,0,response5disk,,3,9.600060415,-0.800006449,1,0,0,rectangle,9.600060415,-0.800006449,1,0,0,9.600060415,-0.800006449,1,0,0,0,111,111,1,1,,,,,,,,
,,,,,,,,,,,,,FF,,,,,,,,1.033,,,,,,,,,,,,,,,,,,,,,,61036a2dc1a5986f00de0513,61036e17490b697dae7a8406,2021-07-29_22h14.02.565,Simcolourproject_2stim_asymm_v5,2020.2.10,Win32,60,61025ae37ef11b136ea224fe,,,,,,,,,2532,-50.39994048,-84.8000077,1,0,0,response5disk,,3,8.000011563,-6.400006533,1,0,0,rectangle,8.000011563,-6.400006533,1,0,0,8.000011563,-6.400006533,1,0,0,0,112,112,43,1,,,,,,,,
,,,,,,,,,,,,,FF,,,,,,,,0.7664,,,,,,,,,,,,,,,,,,,,,,61036a2dc1a5986f00de0513,61036e17490b697dae7a8406,2021-07-29_22h14.02.565,Simcolourproject_2stim_asymm_v5,2020.2.10,Win32,60,61025ae37ef11b136ea224fe,,,,,,,,,2784,63.20001239,27.99999398,1,0,0,response1disk,,6,4.000011504,-3.200006485,1,0,0,rectangle,-43.99998921,111.1999708,1,0,0,-4.799988627,5.599993646,1,0,0,0,113,113,41,1,,response7disk_3,TRUE,0,0,"[106,279,139,125,230,250,114,19,190,34,60,192,275,9,175,172,163,37,291,240]",1.2997,rectangle
,,,,,,,,,,,,,FF,,,,,,,,3.6155,,,,,,,,,,,,,,,,,,,,,,61036a2dc1a5986f00de0513,61036e17490b697dae7a8406,2021-07-29_22h14.02.565,Simcolourproject_2stim_asymm_v5,2020.2.10,Win32,60,61025ae37ef11b136ea224fe,,,,,,,,,2326,72.80001253,-55.20000726,1,0,0,response3disk,,5,7.200011551,-4.000006497,1,0,0,rectangle,7.200011551,-4.000006497,1,0,0,7.200011551,-4.000006497,1,0,0,0,114,114,5,1,,,,,,,,
,,,,,,,,,,,,,FF,,,,,,,,2.1827,,,,,,,,,,,,,,,,,,,,,,61036a2dc1a5986f00de0513,61036e17490b697dae7a8406,2021-07-29_22h14.02.565,Simcolourproject_2stim_asymm_v5,2020.2.10,Win32,60,61025ae37ef11b136ea224fe,,,,,,,,,3055,-31.19998902,-89.6000566,1,0,0,response5disk,,3,22.40001178,0.799993575,1,0,0,rectangle,22.40001178,0.799993575,1,0,0,22.40001178,0.799993575,1,0,0,0,115,115,102,1,,,,,,,,
,,,,,,,,,,,,,FF,,,,,,,,1.1996,,,,,,,,,,,,,,,,,,,,,,61036a2dc1a5986f00de0513,61036e17490b697dae7a8406,2021-07-29_22h14.02.565,Simcolourproject_2stim_asymm_v5,2020.2.10,Win32,60,61025ae37ef11b136ea224fe,,,,,,,,,1282,39.20001203,60.79999447,1,0,0,response1disk,,7,1.600060296,-10.40000659,1,0,0,rectangle,1.600060296,-10.40000659,1,0,0,1.600060296,-10.40000659,1,0,0,0,116,116,47,1,,,,,,,,
,,,,,,,,,,,,,FF,,,,,,,,1.0825,,,,,,,,,,,,,,,,,,,,,,61036a2dc1a5986f00de0513,61036e17490b697dae7a8406,2021-07-29_22h14.02.565,Simcolourproject_2stim_asymm_v5,2020.2.10,Win32,60,61025ae37ef11b136ea224fe,,,,,,,,,3840,-26.39994012,-102.400008,1,0,0,response5disk,,3,13.60006047,16.79999381,1,0,0,rectangle,13.60006047,16.79999381,1,0,0,13.60006047,16.79999381,1,0,0,0,117,117,152,1,,,,,,,,
,,,,,,,,,,,,,FF,,,,,,,,1.7662,,,,,,,,,,,,,,,,,,,,,,61036a2dc1a5986f00de0513,61036e17490b697dae7a8406,2021-07-29_22h14.02.565,Simcolourproject_2stim_asymm_v5,2020.2.10,Win32,60,61025ae37ef11b136ea224fe,,,,,,,,,1036,99.20001292,45.59999424,1,0,0,response1disk,,6,-6.399939823,-7.200006545,1,0,0,rectangle,-6.399939823,-7.200006545,1,0,0,-6.399939823,-7.200006545,1,0,0,0,118,118,3,1,,,,,,,,
,,,,,,,,,,,,,FF,,,,,,,,1.5991,,,,,,,,,,,,,,,,,,,,,,61036a2dc1a5986f00de0513,61036e17490b697dae7a8406,2021-07-29_22h14.02.565,Simcolourproject_2stim_asymm_v5,2020.2.10,Win32,60,61025ae37ef11b136ea224fe,,,,,,,,,2126,36.00001198,85.59999484,1,0,0,response1disk,,7,4.000011504,6.399993658,1,0,0,rectangle,4.000011504,6.399993658,1,0,0,4.000011504,6.399993658,1,0,0,0,119,119,129,1,,,,,,,,
,,,,,,,,,,,,,FF,,,,,,,,0.5831,,,,,,,,,,,,,,,,,,,,,,61036a2dc1a5986f00de0513,61036e17490b697dae7a8406,2021-07-29_22h14.02.565,Simcolourproject_2stim_asymm_v5,2020.2.10,Win32,60,61025ae37ef11b136ea224fe,,,,,,,,,1475,44.80001211,87.99999487,1,0,0,response1disk,,7,-3.199988604,-2.400006473,1,0,0,rectangle,-3.199988604,-2.400006473,1,0,0,-3.199988604,-2.400006473,1,0,0,0,120,120,114,1,,,,,,,,
,,,,,,,,,,,,,FF,,,,,,,,1.7159,,,,,,,,,,,,,,,,,,,,,,61036a2dc1a5986f00de0513,61036e17490b697dae7a8406,2021-07-29_22h14.02.565,Simcolourproject_2stim_asymm_v5,2020.2.10,Win32,60,61025ae37ef11b136ea224fe,,,,,,,,,521,100.0000129,-42.40000707,1,0,0,response3disk,,5,-4.799988627,-6.4373E-06,1,0,0,rectangle,-4.799988627,-6.4373E-06,1,0,0,-4.799988627,-6.4373E-06,1,0,0,0,121,121,124,1,,,,,,,,
,,,,,,,,,,,,,FF,,,,,,,,1.1325,,,,,,,,,,,,,,,,,,,,,,61036a2dc1a5986f00de0513,61036e17490b697dae7a8406,2021-07-29_22h14.02.565,Simcolourproject_2stim_asymm_v5,2020.2.10,Win32,60,61025ae37ef11b136ea224fe,,,,,,,,,1151,-38.3999403,-79.20000762,1,0,0,response5disk,,3,12.00001162,7.999993682,1,0,0,rectangle,12.00001162,7.999993682,1,0,0,12.00001162,7.999993682,1,0,0,0,122,122,117,1,,,,,,,,
,,,,,,,,,,,,,FF,,,,,,,,0.6997,,,,,,,,,,,,,,,,,,,,,,61036a2dc1a5986f00de0513,61036e17490b697dae7a8406,2021-07-29_22h14.02.565,Simcolourproject_2stim_asymm_v5,2020.2.10,Win32,60,61025ae37ef11b136ea224fe,,,,,,,,,671,26.40001184,79.19997033,1,0,0,response1disk,,7,-9.599988699,-8.800006568,1,0,0,rectangle,-9.599988699,-8.800006568,1,0,0,-9.599988699,-8.800006568,1,0,0,0,123,123,50,1,,,,,,,,
,,,,,,,,,,,,,FF,,,,,,,,0.7662,,,,,,,,,,,,,,,,,,,,,,61036a2dc1a5986f00de0513,61036e17490b697dae7a8406,2021-07-29_22h14.02.565,Simcolourproject_2stim_asymm_v5,2020.2.10,Win32,60,61025ae37ef11b136ea224fe,,,,,,,,,1412,46.40001214,85.59999484,1,0,0,response1disk,,7,8.000011563,-3.200006485,1,0,0,rectangle,36.00001198,99.19997063,1,0,0,-1.59998858,-4.800006509,1,0,0,0,124,124,75,1,,response1disk_3,TRUE,7,7,"[106,279,139,125,230,250,114,19,190,34,60,192,275,9,175,172,163,37,291,240]",1.0329,rectangle
,,,,,,,,,,,,,FF,,,,,,,,1.8323,,,,,,,,,,,,,,,,,,,,,,61036a2dc1a5986f00de0513,61036e17490b697dae7a8406,2021-07-29_22h14.02.565,Simcolourproject_2stim_asymm_v5,2020.2.10,Win32,60,61025ae37ef11b136ea224fe,,,,,,,,,3752,84.0000127,-23.20000678,1,0,0,response3disk,,5,4.800011516,1.599993587,1,0,0,rectangle,4.800011516,1.599993587,1,0,0,4.800011516,1.599993587,1,0,0,0,125,125,116,1,,,,,,,,
,,,,,,,,,,,,,FF,,,,,,,,2.3991,,,,,,,,,,,,,,,,,,,,,,61036a2dc1a5986f00de0513,61036e17490b697dae7a8406,2021-07-29_22h14.02.565,Simcolourproject_2stim_asymm_v5,2020.2.10,Win32,60,61025ae37ef11b136ea224fe,,,,,,,,,312,108.8000131,52.79999435,1,0,0,response1disk,,6,11.20001161,-6.4373E-06,1,0,0,rectangle,11.20001161,-6.4373E-06,1,0,0,11.20001161,-6.4373E-06,1,0,0,0,126,126,89,1,,,,,,,,
,,,,,,,,,,,,,FF,,,,,,,,1.3498,,,,,,,,,,,,,,,,,,,,,,61036a2dc1a5986f00de0513,61036e17490b697dae7a8406,2021-07-29_22h14.02.565,Simcolourproject_2stim_asymm_v5,2020.2.10,Win32,60,61025ae37ef11b136ea224fe,,,,,,,,,974,-79.19998974,-48.00000715,1,0,0,response5disk,,2,24.80001181,-7.200006545,1,0,0,rectangle,24.80001181,-7.200006545,1,0,0,24.80001181,-7.200006545,1,0,0,0,127,127,17,1,,,,,,,,
,,,,,,,,,,,,,FF,,,,,,,,0.9829,,,,,,,,,,,,,,,,,,,,,,61036a2dc1a5986f00de0513,61036e17490b697dae7a8406,2021-07-29_22h14.02.565,Simcolourproject_2stim_asymm_v5,2020.2.10,Win32,60,61025ae37ef11b136ea224fe,,,,,,,,,2830,-69.59998959,-36.80000699,1,0,0,response5disk,,2,-10.39993988,-13.60000664,1,0,0,rectangle,-10.39993988,-13.60000664,1,0,0,-10.39993988,-13.60000664,1,0,0,0,128,128,49,1,,,,,,,,
,,,,,,,,,,,,,FF,,,,,,,,0.7832,,,,,,,,,,,,,,,,,,,,,,61036a2dc1a5986f00de0513,61036e17490b697dae7a8406,2021-07-29_22h14.02.565,Simcolourproject_2stim_asymm_v5,2020.2.10,Win32,60,61025ae37ef11b136ea224fe,,,,,,,,,158,-40.79998916,-62.40000737,1,0,0,response5disk,,3,-7.199988663,-7.200006545,1,0,0,rectangle,-7.199988663,-7.200006545,1,0,0,-7.199988663,-7.200006545,1,0,0,0,129,129,73,1,,,,,,,,
,,,,,,,,,,,,,FF,,,,,,,,0.7668,,,,,,,,,,,,,,,,,,,,,,61036a2dc1a5986f00de0513,61036e17490b697dae7a8406,2021-07-29_22h14.02.565,Simcolourproject_2stim_asymm_v5,2020.2.10,Win32,60,61025ae37ef11b136ea224fe,,,,,,,,,3358,50.4000122,115.1999709,1,0,0,response1disk,,7,-7.199988663,-12.00000662,1,0,0,rectangle,-7.199988663,-12.00000662,1,0,0,-7.199988663,-12.00000662,1,0,0,0,130,130,9,1,,,,,,,,
,,,,,,,,,,,,,FF,,,,,,,,0.9163,,,,,,,,,,,,,,,,,,,,,,61036a2dc1a5986f00de0513,61036e17490b697dae7a8406,2021-07-29_22h14.02.565,Simcolourproject_2stim_asymm_v5,2020.2.10,Win32,60,61025ae37ef11b136ea224fe,,,,,,,,,620,-75.99998969,43.19996979,1,0,0,response7disk,,1,3.200011492,-2.400006473,1,0,0,rectangle,3.200011492,-2.400006473,1,0,0,3.200011492,-2.400006473,1,0,0,0,131,131,33,1,,,,,,,,
,,,,,,,,,,,,,FF,,,,,,,,0.6665,,,,,,,,,,,,,,,,,,,,,,61036a2dc1a5986f00de0513,61036e17490b697dae7a8406,2021-07-29_22h14.02.565,Simcolourproject_2stim_asymm_v5,2020.2.10,Win32,60,61025ae37ef11b136ea224fe,,,,,,,,,485,41.60006089,87.99999487,1,0,0,response1disk,,7,-1.59998858,2.399993598,1,0,0,rectangle,-1.59998858,2.399993598,1,0,0,-1.59998858,2.399993598,1,0,0,0,132,132,122,1,,,,,,,,
,,,,,,,,,,,,,FF,,,,,,,,0.7329,,,,,,,,,,,,,,,,,,,,,,61036a2dc1a5986f00de0513,61036e17490b697dae7a8406,2021-07-29_22h14.02.565,Simcolourproject_2stim_asymm_v5,2020.2.10,Win32,60,61025ae37ef11b136ea224fe,,,,,,,,,4258,41.60006089,78.39999473,1,0,0,response1disk,,7,7.200011551,-3.200006485,1,0,0,rectangle,7.200011551,-3.200006485,1,0,0,7.200011551,-3.200006485,1,0,0,0,133,133,68,1,,,,,,,,
,,,,,,,,,,,,,FF,,,,,,,,0.5665,,,,,,,,,,,,,,,,,,,,,,61036a2dc1a5986f00de0513,61036e17490b697dae7a8406,2021-07-29_22h14.02.565,Simcolourproject_2stim_asymm_v5,2020.2.10,Win32,60,61025ae37ef11b136ea224fe,,,,,,,,,593,29.60006071,82.39999479,1,0,0,response1disk,,7,-4.799988627,-3.200006485,1,0,0,rectangle,-4.799988627,-3.200006485,1,0,0,-4.799988627,-3.200006485,1,0,0,0,134,134,107,1,,,,,,,,
,,,,,,,,,,,,,FF,,,,,,,,0.5498,,,,,,,,,,,,,,,,,,,,,,61036a2dc1a5986f00de0513,61036e17490b697dae7a8406,2021-07-29_22h14.02.565,Simcolourproject_2stim_asymm_v5,2020.2.10,Win32,60,61025ae37ef11b136ea224fe,,,,,,,,,2899,39.20001203,104.7999951,1,0,0,response1disk,,7,2.40001148,11.19999373,1,0,0,rectangle,2.40001148,11.19999373,1,0,0,2.40001148,11.19999373,1,0,0,0,135,135,59,1,,,,,,,,
,,,,,,,,,,,,,FF,,,,,,,,1.5158,,,,,,,,,,,,,,,,,,,,,,61036a2dc1a5986f00de0513,61036e17490b697dae7a8406,2021-07-29_22h14.02.565,Simcolourproject_2stim_asymm_v5,2020.2.10,Win32,60,61025ae37ef11b136ea224fe,,,,,,,,,2379,82.40001267,-46.40000713,1,0,0,response3disk,,5,-19.19998884,8.799993694,1,0,0,rectangle,-19.19998884,8.799993694,1,0,0,-19.19998884,8.799993694,1,0,0,0,136,136,144,1,,,,,,,,
,,,,,,,,,,,,,FF,,,,,,,,1.7663,,,,,,,,,,,,,,,,,,,,,,61036a2dc1a5986f00de0513,61036e17490b697dae7a8406,2021-07-29_22h14.02.565,Simcolourproject_2stim_asymm_v5,2020.2.10,Win32,60,61025ae37ef11b136ea224fe,,,,,,,,,3573,88.80001277,38.39999413,1,0,0,response1disk,,6,-2.399939764,4.799993634,1,0,0,rectangle,-2.399939764,4.799993634,1,0,0,-2.399939764,4.799993634,1,0,0,0,137,137,150,1,,,,,,,,
,,,,,,,,,,,,,FF,,,,,,,,0.683,,,,,,,,,,,,,,,,,,,,,,61036a2dc1a5986f00de0513,61036e17490b697dae7a8406,2021-07-29_22h14.02.565,Simcolourproject_2stim_asymm_v5,2020.2.10,Win32,60,61025ae37ef11b136ea224fe,,,,,,,,,1852,82.40001267,31.99999404,1,0,0,response1disk,,6,4.000011504,-5.600006521,1,0,0,rectangle,88.00001276,35.19996967,1,0,0,6.400011539,0.799993575,1,0,0,0,138,138,18,1,,response1disk_3,TRUE,6,6,"[106,279,139,125,230,250,114,19,190,34,60,192,275,9,175,172,163,37,291,240]",0.9328,rectangle
,,,,,,,,,,,,,FF,,,,,,,,1.183,,,,,,,,,,,,,,,,,,,,,,61036a2dc1a5986f00de0513,61036e17490b697dae7a8406,2021-07-29_22h14.02.565,Simcolourproject_2stim_asymm_v5,2020.2.10,Win32,60,61025ae37ef11b136ea224fe,,,,,,,,,180,56.00001228,-100.8000079,1,0,0,response3disk,,4,8.800011575,5.599993646,1,0,0,rectangle,8.800011575,5.599993646,1,0,0,8.800011575,5.599993646,1,0,0,0,139,139,135,1,,,,,,,,
,,,,,,,,,,,,,FF,,,,,,,,3.0654,,,,,,,,,,,,,,,,,,,,,,61036a2dc1a5986f00de0513,61036e17490b697dae7a8406,2021-07-29_22h14.02.565,Simcolourproject_2stim_asymm_v5,2020.2.10,Win32,60,61025ae37ef11b136ea224fe,,,,,,,,,1197,76.00001258,-33.60000694,1,0,0,response3disk,,5,7.200011551,0.799993575,1,0,0,rectangle,7.200011551,0.799993575,1,0,0,7.200011551,0.799993575,1,0,0,0,140,140,8,1,,,,,,,,
,,,,,,,,,,,,,FF,,,,,,,,0.6496,,,,,,,,,,,,,,,,,,,,,,61036a2dc1a5986f00de0513,61036e17490b697dae7a8406,2021-07-29_22h14.02.565,Simcolourproject_2stim_asymm_v5,2020.2.10,Win32,60,61025ae37ef11b136ea224fe,,,,,,,,,2864,71.20001251,-28.80000687,1,0,0,response3disk,,5,4.000011504,4.799993634,1,0,0,rectangle,4.000011504,4.799993634,1,0,0,4.000011504,4.799993634,1,0,0,0,141,141,112,1,,,,,,,,
,,,,,,,,,,,,,FF,,,,,,,,1.4996,,,,,,,,,,,,,,,,,,,,,,61036a2dc1a5986f00de0513,61036e17490b697dae7a8406,2021-07-29_22h14.02.565,Simcolourproject_2stim_asymm_v5,2020.2.10,Win32,60,61025ae37ef11b136ea224fe,,,,,,,,,3315,99.20001292,41.59999418,1,0,0,response1disk,,6,9.600060415,-0.800006449,1,0,0,rectangle,9.600060415,-0.800006449,1,0,0,9.600060415,-0.800006449,1,0,0,0,142,142,109,1,,,,,,,,
,,,,,,,,,,,,,FF,,,,,,,,0.5666,,,,,,,,,,,,,,,,,,,,,,61036a2dc1a5986f00de0513,61036e17490b697dae7a8406,2021-07-29_22h14.02.565,Simcolourproject_2stim_asymm_v5,2020.2.10,Win32,60,61025ae37ef11b136ea224fe,,,,,,,,,3633,71.20001251,38.39999413,1,0,0,response1disk,,6,9.600060415,-6.4373E-06,1,0,0,rectangle,9.600060415,-6.4373E-06,1,0,0,9.600060415,-6.4373E-06,1,0,0,0,143,143,85,1,,,,,,,,
,,,,,,,,,,,,,FF,,,,,,,,0.8664,,,,,,,,,,,,,,,,,,,,,,61036a2dc1a5986f00de0513,61036e17490b697dae7a8406,2021-07-29_22h14.02.565,Simcolourproject_2stim_asymm_v5,2020.2.10,Win32,60,61025ae37ef11b136ea224fe,,,,,,,,,1164,-49.5999893,-89.6000566,1,0,0,response5disk,,3,0.800011456,-4.800006509,1,0,0,rectangle,0.800011456,-4.800006509,1,0,0,0.800011456,-4.800006509,1,0,0,0,144,144,97,1,,,,,,,,
,,,,,,,,,,,,,FF,,,,,,,,0.8831,,,,,,,,,,,,,,,,,,,,,,61036a2dc1a5986f00de0513,61036e17490b697dae7a8406,2021-07-29_22h14.02.565,Simcolourproject_2stim_asymm_v5,2020.2.10,Win32,60,61025ae37ef11b136ea224fe,,,,,,,,,3030,69.60001248,-42.40000707,1,0,0,response3disk,,5,-15.19998878,13.59999377,1,0,0,rectangle,-15.19998878,13.59999377,1,0,0,-15.19998878,13.59999377,1,0,0,0,145,145,145,1,,,,,,,,
,,,,,,,,,,,,,FF,,,,,,,,1.2827,,,,,,,,,,,,,,,,,,,,,,61036a2dc1a5986f00de0513,61036e17490b697dae7a8406,2021-07-29_22h14.02.565,Simcolourproject_2stim_asymm_v5,2020.2.10,Win32,60,61025ae37ef11b136ea224fe,,,,,,,,,2106,77.6000126,41.59999418,1,0,0,response1disk,,6,-6.399939823,-4.800006509,1,0,0,rectangle,-6.399939823,-4.800006509,1,0,0,-6.399939823,-4.800006509,1,0,0,0,146,146,28,1,,,,,,,,
,,,,,,,,,,,,,FF,,,,,,,,0.9166,,,,,,,,,,,,,,,,,,,,,,61036a2dc1a5986f00de0513,61036e17490b697dae7a8406,2021-07-29_22h14.02.565,Simcolourproject_2stim_asymm_v5,2020.2.10,Win32,60,61025ae37ef11b136ea224fe,,,,,,,,,1075,-57.59998941,-28.80000687,1,0,0,response5disk,,2,-7.199988663,-3.200006485,1,0,0,rectangle,-7.199988663,-3.200006485,1,0,0,-7.199988663,-3.200006485,1,0,0,0,147,147,115,1,,,,,,,,
,,,,,,,,,,,,,FF,,,,,,,,0.9498,,,,,,,,,,,,,,,,,,,,,,61036a2dc1a5986f00de0513,61036e17490b697dae7a8406,2021-07-29_22h14.02.565,Simcolourproject_2stim_asymm_v5,2020.2.10,Win32,60,61025ae37ef11b136ea224fe,,,,,,,,,4255,-79.99998975,-41.60000706,1,0,0,response5disk,,2,-7.999988675,1.599993587,1,0,0,rectangle,-7.999988675,1.599993587,1,0,0,-7.999988675,1.599993587,1,0,0,0,148,148,45,1,,,,,,,,
,,,,,,,,,,,,,FF,,,,,,,,0.6997,,,,,,,,,,,,,,,,,,,,,,61036a2dc1a5986f00de0513,61036e17490b697dae7a8406,2021-07-29_22h14.02.565,Simcolourproject_2stim_asymm_v5,2020.2.10,Win32,60,61025ae37ef11b136ea224fe,,,,,,,,,1225,-49.5999893,81.59999478,1,0,0,response7disk,,0,2.40001148,-3.200006485,1,0,0,rectangle,2.40001148,-3.200006485,1,0,0,2.40001148,-3.200006485,1,0,0,0,149,149,76,1,,,,,,,,
,,,,,,,,,,,,,FF,,,,,,,,2.4991,,,,,,,,,,,,,,,,,,,,,,61036a2dc1a5986f00de0513,61036e17490b697dae7a8406,2021-07-29_22h14.02.565,Simcolourproject_2stim_asymm_v5,2020.2.10,Win32,60,61025ae37ef11b136ea224fe,,,,,,,,,369,26.40001184,-93.60005666,1,0,0,response3disk,,4,-3.999988616,2.399993598,1,0,0,rectangle,-3.999988616,2.399993598,1,0,0,-3.999988616,2.399993598,1,0,0,0,150,150,71,1,,,,,,,,
,,,,,,,,,,,,,FF,,,,,,,,0.7999,,,,,,,,,,,,,,,,,,,,,,61036a2dc1a5986f00de0513,61036e17490b697dae7a8406,2021-07-29_22h14.02.565,Simcolourproject_2stim_asymm_v5,2020.2.10,Win32,60,61025ae37ef11b136ea224fe,,,,,,,,,1791,90.40001279,-28.80000687,1,0,0,response3disk,,5,16.80001169,-4.000006497,1,0,0,rectangle,16.80001169,-4.000006497,1,0,0,16.80001169,-4.000006497,1,0,0,0,151,151,38,1,,,,,,,,
,,,,,,,,,,,,,FF,,,,,,,,1.0662,,,,,,,,,,,,,,,,,,,,,,61036a2dc1a5986f00de0513,61036e17490b697dae7a8406,2021-07-29_22h14.02.565,Simcolourproject_2stim_asymm_v5,2020.2.10,Win32,60,61025ae37ef11b136ea224fe,,,,,,,,,1085,72.80001253,-41.60000706,1,0,0,response3disk,,5,-8.799988687,7.999993682,1,0,0,rectangle,-8.799988687,7.999993682,1,0,0,-8.799988687,7.999993682,1,0,0,0,152,152,147,1,,,,,,,,
,,,,,,,,,,,,,FF,,,,,,,,2.8991,,,,,,,,,,,,,,,,,,,,,,61036a2dc1a5986f00de0513,61036e17490b697dae7a8406,2021-07-29_22h14.02.565,Simcolourproject_2stim_asymm_v5,2020.2.10,Win32,60,61025ae37ef11b136ea224fe,,,,,,,,,4310,-22.39994006,-79.20000762,1,0,0,response5disk,,3,4.000011504,-2.400006473,1,0,0,rectangle,4.000011504,-2.400006473,1,0,0,4.000011504,-2.400006473,1,0,0,0,153,153,121,1,,,,,,,,
,,,,,,,,,,,,,FF,,,,,,,,0.9164,,,,,,,,,,,,,,,,,,,,,,61036a2dc1a5986f00de0513,61036e17490b697dae7a8406,2021-07-29_22h14.02.565,Simcolourproject_2stim_asymm_v5,2020.2.10,Win32,60,61025ae37ef11b136ea224fe,,,,,,,,,2145,35.20001197,89.5999949,1,0,0,response1disk,,7,-1.59998858,11.19999373,1,0,0,rectangle,-1.59998858,11.19999373,1,0,0,-1.59998858,11.19999373,1,0,0,0,154,154,153,1,,,,,,,,
,,,,,,,,,,,,,FF,,,,,,,,0.9829,,,,,,,,,,,,,,,,,,,,,,61036a2dc1a5986f00de0513,61036e17490b697dae7a8406,2021-07-29_22h14.02.565,Simcolourproject_2stim_asymm_v5,2020.2.10,Win32,60,61025ae37ef11b136ea224fe,,,,,,,,,103,92.80001283,46.39999425,1,0,0,response1disk,,6,-7.199988663,13.59999377,1,0,0,rectangle,-7.199988663,13.59999377,1,0,0,-7.199988663,13.59999377,1,0,0,0,155,155,55,1,,,,,,,,
,,,,,,,,,,,,,FF,,,,,,,,1.3161,,,,,,,,,,,,,,,,,,,,,,61036a2dc1a5986f00de0513,61036e17490b697dae7a8406,2021-07-29_22h14.02.565,Simcolourproject_2stim_asymm_v5,2020.2.10,Win32,60,61025ae37ef11b136ea224fe,,,,,,,,,165,-69.59998959,-33.60000694,1,0,0,response5disk,,2,15.20001167,11.99999374,1,0,0,rectangle,15.20001167,11.99999374,1,0,0,15.20001167,11.99999374,1,0,0,0,156,156,154,1,,,,,,,,
,,,,,,,,,,,,,FF,,,,,,,,1.6158,,,,,,,,,,,,,,,,,,,,,,61036a2dc1a5986f00de0513,61036e17490b697dae7a8406,2021-07-29_22h14.02.565,Simcolourproject_2stim_asymm_v5,2020.2.10,Win32,60,61025ae37ef11b136ea224fe,,,,,,,,,3901,-57.59998941,-80.00000763,1,0,0,response5disk,,3,-0.799988568,-3.200006485,1,0,0,rectangle,-0.799988568,-3.200006485,1,0,0,-0.799988568,-3.200006485,1,0,0,0,157,157,136,1,,,,,,,,
,,,,,,,,,,,,,FF,,,,,,,,0.6664,,,,,,,,,,,,,,,,,,,,,,61036a2dc1a5986f00de0513,61036e17490b697dae7a8406,2021-07-29_22h14.02.565,Simcolourproject_2stim_asymm_v5,2020.2.10,Win32,60,61025ae37ef11b136ea224fe,,,,,,,,,4172,31.20001191,83.19997039,1,0,0,response1disk,,7,1.14441E-05,1.599993587,1,0,0,rectangle,1.14441E-05,1.599993587,1,0,0,1.14441E-05,1.599993587,1,0,0,0,158,158,42,1,,,,,,,,
,,,,,,,,,,,,,FF,,,,,,,,0.9832,,,,,,,,,,,,,,,,,,,,,,61036a2dc1a5986f00de0513,61036e17490b697dae7a8406,2021-07-29_22h14.02.565,Simcolourproject_2stim_asymm_v5,2020.2.10,Win32,60,61025ae37ef11b136ea224fe,,,,,,,,,3935,-47.19998926,-81.60005648,1,0,0,response5disk,,3,12.80001163,16.79999381,1,0,0,rectangle,12.80001163,16.79999381,1,0,0,12.80001163,16.79999381,1,0,0,0,159,159,36,1,,,,,,,,
,,,,,,,,,,,,,FF,,,,,,,,0.7665,,,,,,,,,,,,,,,,,,,,,,61036a2dc1a5986f00de0513,61036e17490b697dae7a8406,2021-07-29_22h14.02.565,Simcolourproject_2stim_asymm_v5,2020.2.10,Win32,60,61025ae37ef11b136ea224fe,,,,,,,,,2598,44.80001211,87.99999487,1,0,0,response1disk,,7,6.400011539,-5.600006521,1,0,0,rectangle,6.400011539,-5.600006521,1,0,0,6.400011539,-5.600006521,1,0,0,1,0,160,29,1,,,,,,,,
,,,,,,,,,,,,,FF,,,,,,,,2.0992,,,,,,,,,,,,,,,,,,,,,,61036a2dc1a5986f00de0513,61036e17490b697dae7a8406,2021-07-29_22h14.02.565,Simcolourproject_2stim_asymm_v5,2020.2.10,Win32,60,61025ae37ef11b136ea224fe,,,,,,,,,755,87.20001274,28.79999399,1,0,0,response1disk,,6,7.200011551,-0.800006449,1,0,0,rectangle,7.200011551,-0.800006449,1,0,0,7.200011551,-0.800006449,1,0,0,1,1,161,1,1,,,,,,,,
,,,,,,,,,,,,,FF,,,,,,,,0.7998,,,,,,,,,,,,,,,,,,,,,,61036a2dc1a5986f00de0513,61036e17490b697dae7a8406,2021-07-29_22h14.02.565,Simcolourproject_2stim_asymm_v5,2020.2.10,Win32,60,61025ae37ef11b136ea224fe,,,,,,,,,324,-67.19998956,-30.40000689,1,0,0,response5disk,,2,6.400011539,8.799993694,1,0,0,rectangle,-91.99998993,47.99999428,1,0,0,-5.599988639,6.399993658,1,0,0,1,2,162,14,1,,response7disk_3,TRUE,1,1,"[106,279,139,125,230,250,114,19,190,34,60,192,275,9,175,172,163,37,291,240]",1.5655,rectangle
,,,,,,,,,,,,,FF,,,,,,,,1.1163,,,,,,,,,,,,,,,,,,,,,,61036a2dc1a5986f00de0513,61036e17490b697dae7a8406,2021-07-29_22h14.02.565,Simcolourproject_2stim_asymm_v5,2020.2.10,Win32,60,61025ae37ef11b136ea224fe,,,,,,,,,4282,-97.59999001,24.79999393,1,0,0,response7disk,,1,21.60006059,-6.400006533,1,0,0,rectangle,21.60006059,-6.400006533,1,0,0,21.60006059,-6.400006533,1,0,0,1,3,163,159,1,,,,,,,,
,,,,,,,,,,,,,FF,,,,,,,,1.9161,,,,,,,,,,,,,,,,,,,,,,61036a2dc1a5986f00de0513,61036e17490b697dae7a8406,2021-07-29_22h14.02.565,Simcolourproject_2stim_asymm_v5,2020.2.10,Win32,60,61025ae37ef11b136ea224fe,,,,,,,,,45,88.00001276,44.79999423,1,0,0,response1disk,,6,4.000011504,-1.600006461,1,0,0,rectangle,4.000011504,-1.600006461,1,0,0,4.000011504,-1.600006461,1,0,0,1,4,164,115,1,,,,,,,,
,,,,,,,,,,,,,FF,,,,,,,,0.8663,,,,,,,,,,,,,,,,,,,,,,61036a2dc1a5986f00de0513,61036e17490b697dae7a8406,2021-07-29_22h14.02.565,Simcolourproject_2stim_asymm_v5,2020.2.10,Win32,60,61025ae37ef11b136ea224fe,,,,,,,,,3325,54.40001225,-32.80000693,1,0,0,response3disk,,5,-19.19998884,4.799993634,1,0,0,rectangle,-19.19998884,4.799993634,1,0,0,-19.19998884,4.799993634,1,0,0,1,5,165,63,1,,,,,,,,
,,,,,,,,,,,,,FF,,,,,,,,1.6496,,,,,,,,,,,,,,,,,,,,,,61036a2dc1a5986f00de0513,61036e17490b697dae7a8406,2021-07-29_22h14.02.565,Simcolourproject_2stim_asymm_v5,2020.2.10,Win32,60,61025ae37ef11b136ea224fe,,,,,,,,,1481,-95.99998999,-47.20000714,1,0,0,response5disk,,2,-8.799988687,-8.000006557,1,0,0,rectangle,-8.799988687,-8.000006557,1,0,0,-8.799988687,-8.000006557,1,0,0,1,6,166,121,1,,,,,,,,
,,,,,,,,,,,,,FF,,,,,,,,2.0659,,,,,,,,,,,,,,,,,,,,,,61036a2dc1a5986f00de0513,61036e17490b697dae7a8406,2021-07-29_22h14.02.565,Simcolourproject_2stim_asymm_v5,2020.2.10,Win32,60,61025ae37ef11b136ea224fe,,,,,,,,,1573,83.20001268,45.59999424,1,0,0,response1disk,,6,-9.599988699,-6.400006533,1,0,0,rectangle,-9.599988699,-6.400006533,1,0,0,-9.599988699,-6.400006533,1,0,0,1,7,167,73,1,,,,,,,,
,,,,,,,,,,,,,FF,,,,,,,,0.9167,,,,,,,,,,,,,,,,,,,,,,61036a2dc1a5986f00de0513,61036e17490b697dae7a8406,2021-07-29_22h14.02.565,Simcolourproject_2stim_asymm_v5,2020.2.10,Win32,60,61025ae37ef11b136ea224fe,,,,,,,,,1009,77.6000126,42.39999419,1,0,0,response1disk,,6,4.000011504,1.599993587,1,0,0,rectangle,4.000011504,1.599993587,1,0,0,4.000011504,1.599993587,1,0,0,1,8,168,59,1,,,,,,,,
,,,,,,,,,,,,,FF,,,,,,,,0.8334,,,,,,,,,,,,,,,,,,,,,,61036a2dc1a5986f00de0513,61036e17490b697dae7a8406,2021-07-29_22h14.02.565,Simcolourproject_2stim_asymm_v5,2020.2.10,Win32,60,61025ae37ef11b136ea224fe,,,,,,,,,3260,73.60001254,54.39999437,1,0,0,response1disk,,6,5.600060356,11.99999374,1,0,0,rectangle,5.600060356,11.99999374,1,0,0,5.600060356,11.99999374,1,0,0,1,9,169,95,1,,,,,,,,
,,,,,,,,,,,,,FF,,,,,,,,0.7329,,,,,,,,,,,,,,,,,,,,,,61036a2dc1a5986f00de0513,61036e17490b697dae7a8406,2021-07-29_22h14.02.565,Simcolourproject_2stim_asymm_v5,2020.2.10,Win32,60,61025ae37ef11b136ea224fe,,,,,,,,,1010,39.20001203,79.99999475,1,0,0,response1disk,,7,0.800011456,3.19999361,1,0,0,rectangle,0.800011456,3.19999361,1,0,0,0.800011456,3.19999361,1,0,0,1,10,170,139,1,,,,,,,,
,,,,,,,,,,,,,FF,,,,,,,,0.983,,,,,,,,,,,,,,,,,,,,,,61036a2dc1a5986f00de0513,61036e17490b697dae7a8406,2021-07-29_22h14.02.565,Simcolourproject_2stim_asymm_v5,2020.2.10,Win32,60,61025ae37ef11b136ea224fe,,,,,,,,,979,41.60006089,76.79999471,1,0,0,response1disk,,7,6.400011539,5.599993646,1,0,0,rectangle,92.80001283,48.79999429,1,0,0,-3.999988616,-6.4373E-06,1,0,0,1,11,171,38,1,,response1disk_3,TRUE,6,6,"[106,279,139,125,230,250,114,19,190,34,60,192,275,9,175,172,163,37,291,240]",1.0156,rectangle
,,,,,,,,,,,,,FF,,,,,,,,1.133,,,,,,,,,,,,,,,,,,,,,,61036a2dc1a5986f00de0513,61036e17490b697dae7a8406,2021-07-29_22h14.02.565,Simcolourproject_2stim_asymm_v5,2020.2.10,Win32,60,61025ae37ef11b136ea224fe,,,,,,,,,3751,-36.7999891,-72.00000751,1,0,0,response5disk,,3,12.80001163,0.799993575,1,0,0,rectangle,12.80001163,0.799993575,1,0,0,12.80001163,0.799993575,1,0,0,1,12,172,39,1,,,,,,,,
,,,,,,,,,,,,,FF,,,,,,,,0.9332,,,,,,,,,,,,,,,,,,,,,,61036a2dc1a5986f00de0513,61036e17490b697dae7a8406,2021-07-29_22h14.02.565,Simcolourproject_2stim_asymm_v5,2020.2.10,Win32,60,61025ae37ef11b136ea224fe,,,,,,,,,1167,24.0000118,71.99999464,1,0,0,response1disk,,7,-13.59998876,-10.40000659,1,0,0,rectangle,-13.59998876,-10.40000659,1,0,0,-13.59998876,-10.40000659,1,0,0,1,13,173,66,1,,,,,,,,
,,,,,,,,,,,,,FF,,,,,,,,1.3828,,,,,,,,,,,,,,,,,,,,,,61036a2dc1a5986f00de0513,61036e17490b697dae7a8406,2021-07-29_22h14.02.565,Simcolourproject_2stim_asymm_v5,2020.2.10,Win32,60,61025ae37ef11b136ea224fe,,,,,,,,,406,38.40001202,-70.40000749,1,0,0,response3disk,,4,8.800011575,4.799993634,1,0,0,rectangle,-47.99998927,-96.80000788,1,0,0,4.800011516,1.599993587,1,0,0,1,14,174,90,1,,response5disk_3,TRUE,3,3,"[106,279,139,125,230,250,114,19,190,34,60,192,275,9,175,172,163,37,291,240]",1.4162,rectangle
,,,,,,,,,,,,,FF,,,,,,,,1.716,,,,,,,,,,,,,,,,,,,,,,61036a2dc1a5986f00de0513,61036e17490b697dae7a8406,2021-07-29_22h14.02.565,Simcolourproject_2stim_asymm_v5,2020.2.10,Win32,60,61025ae37ef11b136ea224fe,,,,,,,,,1219,-87.19998986,-32.80000693,1,0,0,response5disk,,2,-5.599988639,7.19999367,1,0,0,rectangle,-5.599988639,7.19999367,1,0,0,-5.599988639,7.19999367,1,0,0,1,15,175,84,1,,,,,,,,
,,,,,,,,,,,,,FF,,,,,,,,0.8495,,,,,,,,,,,,,,,,,,,,,,61036a2dc1a5986f00de0513,61036e17490b697dae7a8406,2021-07-29_22h14.02.565,Simcolourproject_2stim_asymm_v5,2020.2.10,Win32,60,61025ae37ef11b136ea224fe,,,,,,,,,2980,76.00001258,35.19996967,1,0,0,response1disk,,6,19.20001173,1.599993587,1,0,0,rectangle,19.20001173,1.599993587,1,0,0,19.20001173,1.599993587,1,0,0,1,16,176,103,1,,,,,,,,
,,,,,,,,,,,,,FF,,,,,,,,0.8331,,,,,,,,,,,,,,,,,,,,,,61036a2dc1a5986f00de0513,61036e17490b697dae7a8406,2021-07-29_22h14.02.565,Simcolourproject_2stim_asymm_v5,2020.2.10,Win32,60,61025ae37ef11b136ea224fe,,,,,,,,,605,83.20001268,-25.60000682,1,0,0,response3disk,,5,-8.799988687,9.599993706,1,0,0,rectangle,-8.799988687,9.599993706,1,0,0,-8.799988687,9.599993706,1,0,0,1,17,177,43,1,,,,,,,,
,,,,,,,,,,,,,FF,,,,,,,,0.8329,,,,,,,,,,,,,,,,,,,,,,61036a2dc1a5986f00de0513,61036e17490b697dae7a8406,2021-07-29_22h14.02.565,Simcolourproject_2stim_asymm_v5,2020.2.10,Win32,60,61025ae37ef11b136ea224fe,,,,,,,,,1707,46.40001214,99.99999505,1,0,0,response1disk,,7,4.000011504,1.599993587,1,0,0,rectangle,4.000011504,1.599993587,1,0,0,4.000011504,1.599993587,1,0,0,1,18,178,155,1,,,,,,,,
,,,,,,,,,,,,,FF,,,,,,,,1.2832,,,,,,,,,,,,,,,,,,,,,,61036a2dc1a5986f00de0513,61036e17490b697dae7a8406,2021-07-29_22h14.02.565,Simcolourproject_2stim_asymm_v5,2020.2.10,Win32,60,61025ae37ef11b136ea224fe,,,,,,,,,2292,-55.19998938,84.79999483,1,0,0,response7disk,,0,6.400011539,-4.000006497,1,0,0,rectangle,6.400011539,-4.000006497,1,0,0,6.400011539,-4.000006497,1,0,0,1,19,179,31,1,,,,,,,,
,,,,,,,,,,,,,FF,,,,,,,,0.9331,,,,,,,,,,,,,,,,,,,,,,61036a2dc1a5986f00de0513,61036e17490b697dae7a8406,2021-07-29_22h14.02.565,Simcolourproject_2stim_asymm_v5,2020.2.10,Win32,60,61025ae37ef11b136ea224fe,,,,,,,,,1849,43.20001209,79.19997033,1,0,0,response1disk,,7,-4.799988627,2.399993598,1,0,0,rectangle,-4.799988627,2.399993598,1,0,0,-4.799988627,2.399993598,1,0,0,1,20,180,97,1,,,,,,,,
,,,,,,,,,,,,,FF,,,,,,,,1.2996,,,,,,,,,,,,,,,,,,,,,,61036a2dc1a5986f00de0513,61036e17490b697dae7a8406,2021-07-29_22h14.02.565,Simcolourproject_2stim_asymm_v5,2020.2.10,Win32,60,61025ae37ef11b136ea224fe,,,,,,,,,3035,-86.39994102,-46.40000713,1,0,0,response5disk,,2,-2.399939764,5.599993646,1,0,0,rectangle,-2.399939764,5.599993646,1,0,0,-2.399939764,5.599993646,1,0,0,1,21,181,15,1,,,,,,,,
,,,,,,,,,,,,,FF,,,,,,,,2.8991,,,,,,,,,,,,,,,,,,,,,,61036a2dc1a5986f00de0513,61036e17490b697dae7a8406,2021-07-29_22h14.02.565,Simcolourproject_2stim_asymm_v5,2020.2.10,Win32,60,61025ae37ef11b136ea224fe,,,,,,,,,1718,26.40001184,103.1999707,1,0,0,response1disk,,7,7.200011551,-3.200006485,1,0,0,rectangle,7.200011551,-3.200006485,1,0,0,7.200011551,-3.200006485,1,0,0,1,22,182,100,1,,,,,,,,
,,,,,,,,,,,,,FF,,,,,,,,0.5665,,,,,,,,,,,,,,,,,,,,,,61036a2dc1a5986f00de0513,61036e17490b697dae7a8406,2021-07-29_22h14.02.565,Simcolourproject_2stim_asymm_v5,2020.2.10,Win32,60,61025ae37ef11b136ea224fe,,,,,,,,,1189,45.60006095,99.19997063,1,0,0,response1disk,,7,-1.59998858,-8.800006568,1,0,0,rectangle,-1.59998858,-8.800006568,1,0,0,-1.59998858,-8.800006568,1,0,0,1,23,183,109,1,,,,,,,,
,,,,,,,,,,,,,FF,,,,,,,,0.5496,,,,,,,,,,,,,,,,,,,,,,61036a2dc1a5986f00de0513,61036e17490b697dae7a8406,2021-07-29_22h14.02.565,Simcolourproject_2stim_asymm_v5,2020.2.10,Win32,60,61025ae37ef11b136ea224fe,,,,,,,,,1170,37.60006083,75.19997027,1,0,0,response1disk,,7,4.800011516,7.999993682,1,0,0,rectangle,4.800011516,7.999993682,1,0,0,4.800011516,7.999993682,1,0,0,1,24,184,61,1,,,,,,,,
,,,,,,,,,,,,,FF,,,,,,,,0.933,,,,,,,,,,,,,,,,,,,,,,61036a2dc1a5986f00de0513,61036e17490b697dae7a8406,2021-07-29_22h14.02.565,Simcolourproject_2stim_asymm_v5,2020.2.10,Win32,60,61025ae37ef11b136ea224fe,,,,,,,,,1671,-36.7999891,-81.60005648,1,0,0,response5disk,,3,14.40001166,6.399993658,1,0,0,rectangle,14.40001166,6.399993658,1,0,0,14.40001166,6.399993658,1,0,0,1,25,185,108,1,,,,,,,,
,,,,,,,,,,,,,FF,,,,,,,,0.7498,,,,,,,,,,,,,,,,,,,,,,61036a2dc1a5986f00de0513,61036e17490b697dae7a8406,2021-07-29_22h14.02.565,Simcolourproject_2stim_asymm_v5,2020.2.10,Win32,60,61025ae37ef11b136ea224fe,,,,,,,,,2030,-79.19998974,-30.40000689,1,0,0,response5disk,,2,9.600060415,11.99999374,1,0,0,rectangle,9.600060415,11.99999374,1,0,0,9.600060415,11.99999374,1,0,0,1,26,186,68,1,,,,,,,,
,,,,,,,,,,,,,FF,,,,,,,,0.4835,,,,,,,,,,,,,,,,,,,,,,61036a2dc1a5986f00de0513,61036e17490b697dae7a8406,2021-07-29_22h14.02.565,Simcolourproject_2stim_asymm_v5,2020.2.10,Win32,60,61025ae37ef11b136ea224fe,,,,,,,,,1143,-99.99999005,44.79999423,1,0,0,response7disk,,1,-11.19998872,-0.800006449,1,0,0,rectangle,-11.19998872,-0.800006449,1,0,0,-11.19998872,-0.800006449,1,0,0,1,27,187,116,1,,,,,,,,
,,,,,,,,,,,,,FF,,,,,,,,1.3828,,,,,,,,,,,,,,,,,,,,,,61036a2dc1a5986f00de0513,61036e17490b697dae7a8406,2021-07-29_22h14.02.565,Simcolourproject_2stim_asymm_v5,2020.2.10,Win32,60,61025ae37ef11b136ea224fe,,,,,,,,,4185,24.80001181,-91.2000078,1,0,0,response3disk,,4,7.200011551,11.19999373,1,0,0,rectangle,7.200011551,11.19999373,1,0,0,7.200011551,11.19999373,1,0,0,1,28,188,153,1,,,,,,,,
,,,,,,,,,,,,,FF,,,,,,,,2.0493,,,,,,,,,,,,,,,,,,,,,,61036a2dc1a5986f00de0513,61036e17490b697dae7a8406,2021-07-29_22h14.02.565,Simcolourproject_2stim_asymm_v5,2020.2.10,Win32,60,61025ae37ef11b136ea224fe,,,,,,,,,429,66.40001243,46.39999425,1,0,0,response1disk,,6,-9.599988699,-1.600006461,1,0,0,rectangle,20.80001175,85.59999484,1,0,0,-9.599988699,2.399993598,1,0,0,1,29,189,156,1,,response1disk_3,TRUE,7,7,"[106,279,139,125,230,250,114,19,190,34,60,192,275,9,175,172,163,37,291,240]",1.0661,rectangle
,,,,,,,,,,,,,FF,,,,,,,,0.9997,,,,,,,,,,,,,,,,,,,,,,61036a2dc1a5986f00de0513,61036e17490b697dae7a8406,2021-07-29_22h14.02.565,Simcolourproject_2stim_asymm_v5,2020.2.10,Win32,60,61025ae37ef11b136ea224fe,,,,,,,,,278,-91.19998991,50.39999431,1,0,0,response7disk,,1,6.400011539,-2.400006473,1,0,0,rectangle,6.400011539,-2.400006473,1,0,0,6.400011539,-2.400006473,1,0,0,1,30,190,57,1,,,,,,,,
,,,,,,,,,,,,,FF,,,,,,,,1.0992,,,,,,,,,,,,,,,,,,,,,,61036a2dc1a5986f00de0513,61036e17490b697dae7a8406,2021-07-29_22h14.02.565,Simcolourproject_2stim_asymm_v5,2020.2.10,Win32,60,61025ae37ef11b136ea224fe,,,,,,,,,2081,-51.99998933,-74.40000755,1,0,0,response5disk,,3,12.80001163,3.19999361,1,0,0,rectangle,75.20001256,36.79999411,1,0,0,-2.399939764,-2.400006473,1,0,0,1,31,191,86,1,,response1disk_3,TRUE,6,6,"[106,279,139,125,230,250,114,19,190,34,60,192,275,9,175,172,163,37,291,240]",1.7824,rectangle
,,,,,,,,,,,,,FF,,,,,,,,2.699,,,,,,,,,,,,,,,,,,,,,,61036a2dc1a5986f00de0513,61036e17490b697dae7a8406,2021-07-29_22h14.02.565,Simcolourproject_2stim_asymm_v5,2020.2.10,Win32,60,61025ae37ef11b136ea224fe,,,,,,,,,1989,35.20001197,-101.6000568,1,0,0,response3disk,,4,-4.799988627,3.999993622,1,0,0,rectangle,-4.799988627,3.999993622,1,0,0,-4.799988627,3.999993622,1,0,0,1,32,192,150,1,,,,,,,,
,,,,,,,,,,,,,FF,,,,,,,,0.7666,,,,,,,,,,,,,,,,,,,,,,61036a2dc1a5986f00de0513,61036e17490b697dae7a8406,2021-07-29_22h14.02.565,Simcolourproject_2stim_asymm_v5,2020.2.10,Win32,60,61025ae37ef11b136ea224fe,,,,,,,,,906,-88.79998988,43.99999422,1,0,0,response7disk,,1,-0.799988568,-12.00000662,1,0,0,rectangle,-0.799988568,-12.00000662,1,0,0,-0.799988568,-12.00000662,1,0,0,1,33,193,4,1,,,,,,,,
,,,,,,,,,,,,,FF,,,,,,,,0.7164,,,,,,,,,,,,,,,,,,,,,,61036a2dc1a5986f00de0513,61036e17490b697dae7a8406,2021-07-29_22h14.02.565,Simcolourproject_2stim_asymm_v5,2020.2.10,Win32,60,61025ae37ef11b136ea224fe,,,,,,,,,1819,-62.39994066,-36.80000699,1,0,0,response5disk,,2,16.00001168,-4.000006497,1,0,0,rectangle,16.00001168,-4.000006497,1,0,0,16.00001168,-4.000006497,1,0,0,1,34,194,76,1,,,,,,,,
,,,,,,,,,,,,,FF,,,,,,,,1.3496,,,,,,,,,,,,,,,,,,,,,,61036a2dc1a5986f00de0513,61036e17490b697dae7a8406,2021-07-29_22h14.02.565,Simcolourproject_2stim_asymm_v5,2020.2.10,Win32,60,61025ae37ef11b136ea224fe,,,,,,,,,2002,76.00001258,37.59999412,1,0,0,response1disk,,6,4.000011504,-0.800006449,1,0,0,rectangle,4.000011504,-0.800006449,1,0,0,4.000011504,-0.800006449,1,0,0,1,35,195,83,1,,,,,,,,
,,,,,,,,,,,,,FF,,,,,,,,0.9663,,,,,,,,,,,,,,,,,,,,,,61036a2dc1a5986f00de0513,61036e17490b697dae7a8406,2021-07-29_22h14.02.565,Simcolourproject_2stim_asymm_v5,2020.2.10,Win32,60,61025ae37ef11b136ea224fe,,,,,,,,,513,-74.39994084,-23.20000678,1,0,0,response5disk,,2,11.20001161,2.399993598,1,0,0,rectangle,11.20001161,2.399993598,1,0,0,11.20001161,2.399993598,1,0,0,1,36,196,113,1,,,,,,,,
,,,,,,,,,,,,,FF,,,,,,,,0.7498,,,,,,,,,,,,,,,,,,,,,,61036a2dc1a5986f00de0513,61036e17490b697dae7a8406,2021-07-29_22h14.02.565,Simcolourproject_2stim_asymm_v5,2020.2.10,Win32,60,61025ae37ef11b136ea224fe,,,,,,,,,1011,-41.59998918,-67.20000744,1,0,0,response5disk,,3,8.000011563,3.19999361,1,0,0,rectangle,8.000011563,3.19999361,1,0,0,8.000011563,3.19999361,1,0,0,1,37,197,110,1,,,,,,,,
,,,,,,,,,,,,,FF,,,,,,,,0.6332,,,,,,,,,,,,,,,,,,,,,,61036a2dc1a5986f00de0513,61036e17490b697dae7a8406,2021-07-29_22h14.02.565,Simcolourproject_2stim_asymm_v5,2020.2.10,Win32,60,61025ae37ef11b136ea224fe,,,,,,,,,1618,-87.19998986,-46.40000713,1,0,0,response5disk,,2,-3.199988604,-4.000006497,1,0,0,rectangle,-3.199988604,-4.000006497,1,0,0,-3.199988604,-4.000006497,1,0,0,1,38,198,11,1,,,,,,,,
,,,,,,,,,,,,,FF,,,,,,,,0.9331,,,,,,,,,,,,,,,,,,,,,,61036a2dc1a5986f00de0513,61036e17490b697dae7a8406,2021-07-29_22h14.02.565,Simcolourproject_2stim_asymm_v5,2020.2.10,Win32,60,61025ae37ef11b136ea224fe,,,,,,,,,2132,41.60006089,85.59999484,1,0,0,response1disk,,7,4.800011516,-1.600006461,1,0,0,rectangle,4.800011516,-1.600006461,1,0,0,4.800011516,-1.600006461,1,0,0,1,39,199,127,1,,,,,,,,
,,,,,,,,,,,,,FF,,,,,,,,0.8164,,,,,,,,,,,,,,,,,,,,,,61036a2dc1a5986f00de0513,61036e17490b697dae7a8406,2021-07-29_22h14.02.565,Simcolourproject_2stim_asymm_v5,2020.2.10,Win32,60,61025ae37ef11b136ea224fe,,,,,,,,,2970,58.40001231,82.39999479,1,0,0,response1disk,,7,7.200011551,2.399993598,1,0,0,rectangle,7.200011551,2.399993598,1,0,0,7.200011551,2.399993598,1,0,0,1,40,200,25,1,,,,,,,,
,,,,,,,,,,,,,FF,,,,,,,,1.1662,,,,,,,,,,,,,,,,,,,,,,61036a2dc1a5986f00de0513,61036e17490b697dae7a8406,2021-07-29_22h14.02.565,Simcolourproject_2stim_asymm_v5,2020.2.10,Win32,60,61025ae37ef11b136ea224fe,,,,,,,,,3959,27.20001185,93.59999496,1,0,0,response1disk,,7,-7.199988663,1.599993587,1,0,0,rectangle,-7.199988663,1.599993587,1,0,0,-7.199988663,1.599993587,1,0,0,1,41,201,71,1,,,,,,,,
,,,,,,,,,,,,,FF,,,,,,,,0.6667,,,,,,,,,,,,,,,,,,,,,,61036a2dc1a5986f00de0513,61036e17490b697dae7a8406,2021-07-29_22h14.02.565,Simcolourproject_2stim_asymm_v5,2020.2.10,Win32,60,61025ae37ef11b136ea224fe,,,,,,,,,3572,86.40001273,35.19996967,1,0,0,response1disk,,6,13.60006047,5.599993646,1,0,0,rectangle,13.60006047,5.599993646,1,0,0,13.60006047,5.599993646,1,0,0,1,42,202,91,1,,,,,,,,
,,,,,,,,,,,,,FF,,,,,,,,0.7165,,,,,,,,,,,,,,,,,,,,,,61036a2dc1a5986f00de0513,61036e17490b697dae7a8406,2021-07-29_22h14.02.565,Simcolourproject_2stim_asymm_v5,2020.2.10,Win32,60,61025ae37ef11b136ea224fe,,,,,,,,,3382,-55.99998939,109.5999952,1,0,0,response7disk,,0,24.80001181,-10.40000659,1,0,0,rectangle,24.80001181,-10.40000659,1,0,0,24.80001181,-10.40000659,1,0,0,1,43,203,2,1,,,,,,,,
,,,,,,,,,,,,,FF,,,,,,,,0.9333,,,,,,,,,,,,,,,,,,,,,,61036a2dc1a5986f00de0513,61036e17490b697dae7a8406,2021-07-29_22h14.02.565,Simcolourproject_2stim_asymm_v5,2020.2.10,Win32,60,61025ae37ef11b136ea224fe,,,,,,,,,2417,-63.99998951,-31.2000069,1,0,0,response5disk,,2,14.40001166,0.799993575,1,0,0,rectangle,14.40001166,0.799993575,1,0,0,14.40001166,0.799993575,1,0,0,1,44,204,124,1,,,,,,,,
,,,,,,,,,,,,,FF,,,,,,,,1.6497,,,,,,,,,,,,,,,,,,,,,,61036a2dc1a5986f00de0513,61036e17490b697dae7a8406,2021-07-29_22h14.02.565,Simcolourproject_2stim_asymm_v5,2020.2.10,Win32,60,61025ae37ef11b136ea224fe,,,,,,,,,1796,28.80001187,-67.20000744,1,0,0,response3disk,,4,4.800011516,10.39999372,1,0,0,rectangle,4.800011516,10.39999372,1,0,0,4.800011516,10.39999372,1,0,0,1,45,205,142,1,,,,,,,,
,,,,,,,,,,,,,FF,,,,,,,,0.8331,,,,,,,,,,,,,,,,,,,,,,61036a2dc1a5986f00de0513,61036e17490b697dae7a8406,2021-07-29_22h14.02.565,Simcolourproject_2stim_asymm_v5,2020.2.10,Win32,60,61025ae37ef11b136ea224fe,,,,,,,,,2310,75.20001256,-42.40000707,1,0,0,response3disk,,5,5.600060356,3.19999361,1,0,0,rectangle,5.600060356,3.19999361,1,0,0,5.600060356,3.19999361,1,0,0,1,46,206,28,1,,,,,,,,
,,,,,,,,,,,,,FF,,,,,,,,1.1162,,,,,,,,,,,,,,,,,,,,,,61036a2dc1a5986f00de0513,61036e17490b697dae7a8406,2021-07-29_22h14.02.565,Simcolourproject_2stim_asymm_v5,2020.2.10,Win32,60,61025ae37ef11b136ea224fe,,,,,,,,,555,79.20001262,-25.60000682,1,0,0,response3disk,,5,28.80001187,-11.2000066,1,0,0,rectangle,28.80001187,-11.2000066,1,0,0,28.80001187,-11.2000066,1,0,0,1,47,207,149,1,,,,,,,,
,,,,,,,,,,,,,FF,,,,,,,,0.6332,,,,,,,,,,,,,,,,,,,,,,61036a2dc1a5986f00de0513,61036e17490b697dae7a8406,2021-07-29_22h14.02.565,Simcolourproject_2stim_asymm_v5,2020.2.10,Win32,60,61025ae37ef11b136ea224fe,,,,,,,,,1846,84.0000127,36.79999411,1,0,0,response1disk,,6,17.60006053,1.599993587,1,0,0,rectangle,17.60006053,1.599993587,1,0,0,17.60006053,1.599993587,1,0,0,1,48,208,146,1,,,,,,,,
,,,,,,,,,,,,,FF,,,,,,,,0.6164,,,,,,,,,,,,,,,,,,,,,,61036a2dc1a5986f00de0513,61036e17490b697dae7a8406,2021-07-29_22h14.02.565,Simcolourproject_2stim_asymm_v5,2020.2.10,Win32,60,61025ae37ef11b136ea224fe,,,,,,,,,3580,95.20001286,46.39999425,1,0,0,response1disk,,6,16.00001168,7.999993682,1,0,0,rectangle,16.00001168,7.999993682,1,0,0,16.00001168,7.999993682,1,0,0,1,49,209,157,1,,,,,,,,
,,,,,,,,,,,,,FF,,,,,,,,1.9161,,,,,,,,,,,,,,,,,,,,,,61036a2dc1a5986f00de0513,61036e17490b697dae7a8406,2021-07-29_22h14.02.565,Simcolourproject_2stim_asymm_v5,2020.2.10,Win32,60,61025ae37ef11b136ea224fe,,,,,,,,,3997,35.20001197,-76.80000758,1,0,0,response3disk,,4,-15.19998878,2.399993598,1,0,0,rectangle,-15.19998878,2.399993598,1,0,0,-15.19998878,2.399993598,1,0,0,1,50,210,48,1,,,,,,,,
,,,,,,,,,,,,,FF,,,,,,,,0.9328,,,,,,,,,,,,,,,,,,,,,,61036a2dc1a5986f00de0513,61036e17490b697dae7a8406,2021-07-29_22h14.02.565,Simcolourproject_2stim_asymm_v5,2020.2.10,Win32,60,61025ae37ef11b136ea224fe,,,,,,,,,328,43.20001209,-75.20000756,1,0,0,response3disk,,4,3.200011492,-5.600006521,1,0,0,rectangle,3.200011492,-5.600006521,1,0,0,3.200011492,-5.600006521,1,0,0,1,51,211,26,1,,,,,,,,
,,,,,,,,,,,,,FF,,,,,,,,1.3995,,,,,,,,,,,,,,,,,,,,,,61036a2dc1a5986f00de0513,61036e17490b697dae7a8406,2021-07-29_22h14.02.565,Simcolourproject_2stim_asymm_v5,2020.2.10,Win32,60,61025ae37ef11b136ea224fe,,,,,,,,,2432,32.80001193,65.59999454,1,0,0,response1disk,,7,4.800011516,11.19999373,1,0,0,rectangle,4.800011516,11.19999373,1,0,0,4.800011516,11.19999373,1,0,0,1,52,212,5,1,,,,,,,,
,,,,,,,,,,,,,FF,,,,,,,,1.466,,,,,,,,,,,,,,,,,,,,,,61036a2dc1a5986f00de0513,61036e17490b697dae7a8406,2021-07-29_22h14.02.565,Simcolourproject_2stim_asymm_v5,2020.2.10,Win32,60,61025ae37ef11b136ea224fe,,,,,,,,,3851,-61.59998947,-43.20000708,1,0,0,response5disk,,2,11.20001161,0.799993575,1,0,0,rectangle,11.20001161,0.799993575,1,0,0,11.20001161,0.799993575,1,0,0,1,53,213,129,1,,,,,,,,
,,,,,,,,,,,,,FF,,,,,,,,1.0497,,,,,,,,,,,,,,,,,,,,,,61036a2dc1a5986f00de0513,61036e17490b697dae7a8406,2021-07-29_22h14.02.565,Simcolourproject_2stim_asymm_v5,2020.2.10,Win32,60,61025ae37ef11b136ea224fe,,,,,,,,,2451,36.80001199,75.9999947,1,0,0,response1disk,,7,-1.59998858,2.399993598,1,0,0,rectangle,-1.59998858,2.399993598,1,0,0,-1.59998858,2.399993598,1,0,0,1,54,214,17,1,,,,,,,,
,,,,,,,,,,,,,FF,,,,,,,,1.7329,,,,,,,,,,,,,,,,,,,,,,61036a2dc1a5986f00de0513,61036e17490b697dae7a8406,2021-07-29_22h14.02.565,Simcolourproject_2stim_asymm_v5,2020.2.10,Win32,60,61025ae37ef11b136ea224fe,,,,,,,,,2591,71.20001251,-40.00000703,1,0,0,response3disk,,5,-10.39993988,10.39999372,1,0,0,rectangle,-10.39993988,10.39999372,1,0,0,-10.39993988,10.39999372,1,0,0,1,55,215,49,1,,,,,,,,
,,,,,,,,,,,,,FF,,,,,,,,1.2163,,,,,,,,,,,,,,,,,,,,,,61036a2dc1a5986f00de0513,61036e17490b697dae7a8406,2021-07-29_22h14.02.565,Simcolourproject_2stim_asymm_v5,2020.2.10,Win32,60,61025ae37ef11b136ea224fe,,,,,,,,,753,29.60006071,-60.00000733,1,0,0,response3disk,,4,4.000011504,-4.000006497,1,0,0,rectangle,4.000011504,-4.000006497,1,0,0,4.000011504,-4.000006497,1,0,0,1,56,216,44,1,,,,,,,,
,,,,,,,,,,,,,FF,,,,,,,,0.8663,,,,,,,,,,,,,,,,,,,,,,61036a2dc1a5986f00de0513,61036e17490b697dae7a8406,2021-07-29_22h14.02.565,Simcolourproject_2stim_asymm_v5,2020.2.10,Win32,60,61025ae37ef11b136ea224fe,,,,,,,,,1676,-114.3999414,23.99999392,1,0,0,response7disk,,1,-19.19998884,-9.60000658,1,0,0,rectangle,-19.19998884,-9.60000658,1,0,0,-19.19998884,-9.60000658,1,0,0,1,57,217,85,1,,,,,,,,
,,,,,,,,,,,,,FF,,,,,,,,0.7001,,,,,,,,,,,,,,,,,,,,,,61036a2dc1a5986f00de0513,61036e17490b697dae7a8406,2021-07-29_22h14.02.565,Simcolourproject_2stim_asymm_v5,2020.2.10,Win32,60,61025ae37ef11b136ea224fe,,,,,,,,,2138,44.80001211,76.79999471,1,0,0,response1disk,,7,-7.999988675,-8.800006568,1,0,0,rectangle,-7.999988675,-8.800006568,1,0,0,-7.999988675,-8.800006568,1,0,0,1,58,218,154,1,,,,,,,,
,,,,,,,,,,,,,FF,,,,,,,,2.7992,,,,,,,,,,,,,,,,,,,,,,61036a2dc1a5986f00de0513,61036e17490b697dae7a8406,2021-07-29_22h14.02.565,Simcolourproject_2stim_asymm_v5,2020.2.10,Win32,60,61025ae37ef11b136ea224fe,,,,,,,,,3167,73.60001254,-35.20000696,1,0,0,response3disk,,5,8.800011575,-10.40000659,1,0,0,rectangle,8.800011575,-10.40000659,1,0,0,8.800011575,-10.40000659,1,0,0,1,59,219,12,1,,,,,,,,
,,,,,,,,,,,,,FF,,,,,,,,0.7996,,,,,,,,,,,,,,,,,,,,,,61036a2dc1a5986f00de0513,61036e17490b697dae7a8406,2021-07-29_22h14.02.565,Simcolourproject_2stim_asymm_v5,2020.2.10,Win32,60,61025ae37ef11b136ea224fe,,,,,,,,,493,76.00001258,-19.20000672,1,0,0,response3disk,,5,-18.39994,6.399993658,1,0,0,rectangle,-18.39994,6.399993658,1,0,0,-18.39994,6.399993658,1,0,0,1,60,220,40,1,,,,,,,,
,,,,,,,,,,,,,FF,,,,,,,,0.9164,,,,,,,,,,,,,,,,,,,,,,61036a2dc1a5986f00de0513,61036e17490b697dae7a8406,2021-07-29_22h14.02.565,Simcolourproject_2stim_asymm_v5,2020.2.10,Win32,60,61025ae37ef11b136ea224fe,,,,,,,,,2152,-74.39994084,-29.60000688,1,0,0,response5disk,,2,2.40001148,4.799993634,1,0,0,rectangle,2.40001148,4.799993634,1,0,0,2.40001148,4.799993634,1,0,0,1,61,221,37,1,,,,,,,,
,,,,,,,,,,,,,FF,,,,,,,,1.0331,,,,,,,,,,,,,,,,,,,,,,61036a2dc1a5986f00de0513,61036e17490b697dae7a8406,2021-07-29_22h14.02.565,Simcolourproject_2stim_asymm_v5,2020.2.10,Win32,60,61025ae37ef11b136ea224fe,,,,,,,,,3353,81.60001266,36.79999411,1,0,0,response1disk,,6,31.20001191,7.19999367,1,0,0,rectangle,31.20001191,7.19999367,1,0,0,31.20001191,7.19999367,1,0,0,1,62,222,81,1,,,,,,,,
,,,,,,,,,,,,,FF,,,,,,,,0.783,,,,,,,,,,,,,,,,,,,,,,61036a2dc1a5986f00de0513,61036e17490b697dae7a8406,2021-07-29_22h14.02.565,Simcolourproject_2stim_asymm_v5,2020.2.10,Win32,60,61025ae37ef11b136ea224fe,,,,,,,,,1245,25.60006065,79.19997033,1,0,0,response1disk,,7,2.40001148,2.399993598,1,0,0,rectangle,2.40001148,2.399993598,1,0,0,2.40001148,2.399993598,1,0,0,1,63,223,58,1,,,,,,,,
,,,,,,,,,,,,,FF,,,,,,,,0.7997,,,,,,,,,,,,,,,,,,,,,,61036a2dc1a5986f00de0513,61036e17490b697dae7a8406,2021-07-29_22h14.02.565,Simcolourproject_2stim_asymm_v5,2020.2.10,Win32,60,61025ae37ef11b136ea224fe,,,,,,,,,4261,80.00001264,36.79999411,1,0,0,response1disk,,6,-9.599988699,-10.40000659,1,0,0,rectangle,-9.599988699,-10.40000659,1,0,0,-9.599988699,-10.40000659,1,0,0,1,64,224,53,1,,,,,,,,
,,,,,,,,,,,,,FF,,,,,,,,0.7332,,,,,,,,,,,,,,,,,,,,,,61036a2dc1a5986f00de0513,61036e17490b697dae7a8406,2021-07-29_22h14.02.565,Simcolourproject_2stim_asymm_v5,2020.2.10,Win32,60,61025ae37ef11b136ea224fe,,,,,,,,,2341,68.00001246,-31.2000069,1,0,0,response3disk,,5,17.60006053,-5.600006521,1,0,0,rectangle,17.60006053,-5.600006521,1,0,0,17.60006053,-5.600006521,1,0,0,1,65,225,106,1,,,,,,,,
,,,,,,,,,,,,,FF,,,,,,,,1.233,,,,,,,,,,,,,,,,,,,,,,61036a2dc1a5986f00de0513,61036e17490b697dae7a8406,2021-07-29_22h14.02.565,Simcolourproject_2stim_asymm_v5,2020.2.10,Win32,60,61025ae37ef11b136ea224fe,,,,,,,,,2564,59.20001233,66.39999455,1,0,0,response1disk,,7,4.000011504,1.599993587,1,0,0,rectangle,4.000011504,1.599993587,1,0,0,4.000011504,1.599993587,1,0,0,1,66,226,117,1,,,,,,,,
,,,,,,,,,,,,,FF,,,,,,,,1.0164,,,,,,,,,,,,,,,,,,,,,,61036a2dc1a5986f00de0513,61036e17490b697dae7a8406,2021-07-29_22h14.02.565,Simcolourproject_2stim_asymm_v5,2020.2.10,Win32,60,61025ae37ef11b136ea224fe,,,,,,,,,2381,73.60001254,38.39999413,1,0,0,response1disk,,6,7.200011551,6.399993658,1,0,0,rectangle,7.200011551,6.399993658,1,0,0,7.200011551,6.399993658,1,0,0,1,67,227,42,1,,,,,,,,
,,,,,,,,,,,,,FF,,,,,,,,2.2825,,,,,,,,,,,,,,,,,,,,,,61036a2dc1a5986f00de0513,61036e17490b697dae7a8406,2021-07-29_22h14.02.565,Simcolourproject_2stim_asymm_v5,2020.2.10,Win32,60,61025ae37ef11b136ea224fe,,,,,,,,,4049,-77.59998971,-38.40000701,1,0,0,response5disk,,2,7.200011551,-1.600006461,1,0,0,rectangle,7.200011551,-1.600006461,1,0,0,7.200011551,-1.600006461,1,0,0,1,68,228,10,1,,,,,,,,
,,,,,,,,,,,,,FF,,,,,,,,1.2662,,,,,,,,,,,,,,,,,,,,,,61036a2dc1a5986f00de0513,61036e17490b697dae7a8406,2021-07-29_22h14.02.565,Simcolourproject_2stim_asymm_v5,2020.2.10,Win32,60,61025ae37ef11b136ea224fe,,,,,,,,,3152,22.40001178,-80.80000764,1,0,0,response3disk,,4,1.14441E-05,-5.600006521,1,0,0,rectangle,77.6000126,-26.40000683,1,0,0,2.40001148,2.399993598,1,0,0,1,69,229,55,1,,response3disk_3,TRUE,5,5,"[106,279,139,125,230,250,114,19,190,34,60,192,275,9,175,172,163,37,291,240]",1.3492,rectangle
,,,,,,,,,,,,,FF,,,,,,,,2.7492,,,,,,,,,,,,,,,,,,,,,,61036a2dc1a5986f00de0513,61036e17490b697dae7a8406,2021-07-29_22h14.02.565,Simcolourproject_2stim_asymm_v5,2020.2.10,Win32,60,61025ae37ef11b136ea224fe,,,,,,,,,1280,52.00001222,-80.00000763,1,0,0,response3disk,,4,16.00001168,-3.200006485,1,0,0,rectangle,16.00001168,-3.200006485,1,0,0,16.00001168,-3.200006485,1,0,0,1,70,230,137,1,,,,,,,,
,,,,,,,,,,,,,FF,,,,,,,,0.7999,,,,,,,,,,,,,,,,,,,,,,61036a2dc1a5986f00de0513,61036e17490b697dae7a8406,2021-07-29_22h14.02.565,Simcolourproject_2stim_asymm_v5,2020.2.10,Win32,60,61025ae37ef11b136ea224fe,,,,,,,,,370,-35.99998909,-91.2000078,1,0,0,response5disk,,3,12.80001163,-2.400006473,1,0,0,rectangle,12.80001163,-2.400006473,1,0,0,12.80001163,-2.400006473,1,0,0,1,71,231,93,1,,,,,,,,
,,,,,,,,,,,,,FF,,,,,,,,1.083,,,,,,,,,,,,,,,,,,,,,,61036a2dc1a5986f00de0513,61036e17490b697dae7a8406,2021-07-29_22h14.02.565,Simcolourproject_2stim_asymm_v5,2020.2.10,Win32,60,61025ae37ef11b136ea224fe,,,,,,,,,3295,60.80001235,23.19996949,1,0,0,response1disk,,6,24.0000118,-1.600006461,1,0,0,rectangle,24.0000118,-1.600006461,1,0,0,24.0000118,-1.600006461,1,0,0,1,72,232,79,1,,,,,,,,
,,,,,,,,,,,,,FF,,,,,,,,0.5698,,,,,,,,,,,,,,,,,,,,,,61036a2dc1a5986f00de0513,61036e17490b697dae7a8406,2021-07-29_22h14.02.565,Simcolourproject_2stim_asymm_v5,2020.2.10,Win32,60,61025ae37ef11b136ea224fe,,,,,,,,,432,57.6000123,30.39999402,1,0,0,response1disk,,6,14.40001166,3.999993622,1,0,0,rectangle,14.40001166,3.999993622,1,0,0,14.40001166,3.999993622,1,0,0,1,73,233,130,1,,,,,,,,
,,,,,,,,,,,,,FF,,,,,,,,0.4998,,,,,,,,,,,,,,,,,,,,,,61036a2dc1a5986f00de0513,61036e17490b697dae7a8406,2021-07-29_22h14.02.565,Simcolourproject_2stim_asymm_v5,2020.2.10,Win32,60,61025ae37ef11b136ea224fe,,,,,,,,,536,65.60001242,26.39999396,1,0,0,response1disk,,6,2.40001148,-6.400006533,1,0,0,rectangle,2.40001148,-6.400006533,1,0,0,2.40001148,-6.400006533,1,0,0,1,74,234,56,1,,,,,,,,
,,,,,,,,,,,,,FF,,,,,,,,1.0164,,,,,,,,,,,,,,,,,,,,,,61036a2dc1a5986f00de0513,61036e17490b697dae7a8406,2021-07-29_22h14.02.565,Simcolourproject_2stim_asymm_v5,2020.2.10,Win32,60,61025ae37ef11b136ea224fe,,,,,,,,,3470,-86.39994102,-39.20000702,1,0,0,response5disk,,2,-1.59998858,-4.000006497,1,0,0,rectangle,-1.59998858,-4.000006497,1,0,0,-1.59998858,-4.000006497,1,0,0,1,75,235,151,1,,,,,,,,
,,,,,,,,,,,,,FF,,,,,,,,0.6831,,,,,,,,,,,,,,,,,,,,,,61036a2dc1a5986f00de0513,61036e17490b697dae7a8406,2021-07-29_22h14.02.565,Simcolourproject_2stim_asymm_v5,2020.2.10,Win32,60,61025ae37ef11b136ea224fe,,,,,,,,,1306,-71.19998962,25.59999394,1,0,0,response7disk,,1,5.600060356,-0.800006449,1,0,0,rectangle,5.600060356,-0.800006449,1,0,0,5.600060356,-0.800006449,1,0,0,1,76,236,77,1,,,,,,,,
,,,,,,,,,,,,,FF,,,,,,,,0.8498,,,,,,,,,,,,,,,,,,,,,,61036a2dc1a5986f00de0513,61036e17490b697dae7a8406,2021-07-29_22h14.02.565,Simcolourproject_2stim_asymm_v5,2020.2.10,Win32,60,61025ae37ef11b136ea224fe,,,,,,,,,1719,57.6000123,-90.40000778,1,0,0,response3disk,,4,13.60006047,-5.600006521,1,0,0,rectangle,13.60006047,-5.600006521,1,0,0,13.60006047,-5.600006521,1,0,0,1,77,237,47,1,,,,,,,,
,,,,,,,,,,,,,FF,,,,,,,,0.9164,,,,,,,,,,,,,,,,,,,,,,61036a2dc1a5986f00de0513,61036e17490b697dae7a8406,2021-07-29_22h14.02.565,Simcolourproject_2stim_asymm_v5,2020.2.10,Win32,60,61025ae37ef11b136ea224fe,,,,,,,,,938,96.00001287,38.39999413,1,0,0,response1disk,,6,-8.799988687,-4.800006509,1,0,0,rectangle,-8.799988687,-4.800006509,1,0,0,-8.799988687,-4.800006509,1,0,0,1,78,238,65,1,,,,,,,,
,,,,,,,,,,,,,FF,,,,,,,,0.8832,,,,,,,,,,,,,,,,,,,,,,61036a2dc1a5986f00de0513,61036e17490b697dae7a8406,2021-07-29_22h14.02.565,Simcolourproject_2stim_asymm_v5,2020.2.10,Win32,60,61025ae37ef11b136ea224fe,,,,,,,,,3159,100.0000129,31.99999404,1,0,0,response1disk,,6,10.4000116,10.39999372,1,0,0,rectangle,48.80001217,86.39999485,1,0,0,6.400011539,3.19999361,1,0,0,1,79,239,32,1,,response1disk_3,TRUE,7,7,"[106,279,139,125,230,250,114,19,190,34,60,192,275,9,175,172,163,37,291,240]",0.9995,rectangle
,,,,,,,,,,,,,FF,,,,,,,,0.8331,,,,,,,,,,,,,,,,,,,,,,61036a2dc1a5986f00de0513,61036e17490b697dae7a8406,2021-07-29_22h14.02.565,Simcolourproject_2stim_asymm_v5,2020.2.10,Win32,60,61025ae37ef11b136ea224fe,,,,,,,,,310,30.4000119,108.7999952,1,0,0,response1disk,,7,-1.59998858,9.599993706,1,0,0,rectangle,-1.59998858,9.599993706,1,0,0,-1.59998858,9.599993706,1,0,0,1,80,240,24,1,,,,,,,,
,,,,,,,,,,,,,FF,,,,,,,,1.9993,,,,,,,,,,,,,,,,,,,,,,61036a2dc1a5986f00de0513,61036e17490b697dae7a8406,2021-07-29_22h14.02.565,Simcolourproject_2stim_asymm_v5,2020.2.10,Win32,60,61025ae37ef11b136ea224fe,,,,,,,,,4039,72.00001252,27.99999398,1,0,0,response1disk,,6,0.800011456,3.19999361,1,0,0,rectangle,0.800011456,3.19999361,1,0,0,0.800011456,3.19999361,1,0,0,1,81,241,72,1,,,,,,,,
,,,,,,,,,,,,,FF,,,,,,,,0.7831,,,,,,,,,,,,,,,,,,,,,,61036a2dc1a5986f00de0513,61036e17490b697dae7a8406,2021-07-29_22h14.02.565,Simcolourproject_2stim_asymm_v5,2020.2.10,Win32,60,61025ae37ef11b136ea224fe,,,,,,,,,2586,88.00001276,31.19996961,1,0,0,response1disk,,6,-0.799988568,-4.800006509,1,0,0,rectangle,-0.799988568,-4.800006509,1,0,0,-0.799988568,-4.800006509,1,0,0,1,82,242,114,1,,,,,,,,
