key_resp.keys,key_resp.rt,key_resp_14.keys,key_resp_14.rt,key_resp_15.keys,key_resp_15.rt,key_resp_17.keys,key_resp_17.rt,key_resp_9.keys,key_resp_9.rt,key_resp_10.keys,key_resp_10.rt,practice_comparison,Ecc,mouse_5.x,mouse_5.y,mouse_5.leftButton,mouse_5.midButton,mouse_5.rightButton,mouse_5.clicked_name,pracsimilarity,response_time,mouse_10.x,mouse_10.y,mouse_10.leftButton,mouse_10.midButton,mouse_10.rightButton,mouse_10.clicked_name,mouse_7.x,mouse_7.y,mouse_7.leftButton,mouse_7.midButton,mouse_7.rightButton,mouse_6.x,mouse_6.y,mouse_6.leftButton,mouse_6.midButton,mouse_6.rightButton,duringprac.thisRepN,duringprac.thisTrialN,duringprac.thisN,duringprac.thisIndex,duringprac.ran,participant,session,date,expName,psychopyVersion,OS,frameRate,study_id,mouse_7.clicked_name,catchpracsimilarity,catch_response_time,catchnumberprac,catchtrialorderprac,mouse_6.clicked_name,key_resp_22.keys,key_resp_22.rt,realcomparison,mouse.x,mouse.y,mouse.leftButton,mouse.midButton,mouse.rightButton,mouse.clicked_name,Colour2,similarity,mouse_2.x,mouse_2.y,mouse_2.leftButton,mouse_2.midButton,mouse_2.rightButton,mouse_2.clicked_name,mouse_3.x,mouse_3.y,mouse_3.leftButton,mouse_3.midButton,mouse_3.rightButton,mouse_11.x,mouse_11.y,mouse_11.leftButton,mouse_11.midButton,mouse_11.rightButton,trials_2.thisRepN,trials_2.thisTrialN,trials_2.thisN,trials_2.thisIndex,trials_2.ran,Colour1,mouse_3.clicked_name,catchornah,catchsimilarity,catchnumber,catchtrialorder,catchRT,mouse_11.clicked_name
space,1.927,space,10.61,space,30.011,space,5.181,space,0.782,space,5.165,89,PF,-48,96,1,0,0,response7disk_5,0,7.914,38,0,1,0,0,rectangle_8,38,0,1,0,0,38,0,1,0,0,0,0,0,4,1,6103514ec85d6a4d0c2f3375,6103650190107e826d31b1bd,2021-07-29_22h36.02.369,Simcolourproject_2stim_asymm_v5,2020.2.10,Win32,60,61025ae37ef11b136ea224fe,,,,,,,,,,,,,,,,,,,,,,,,,,,,,,,,,,,,,,,,,,,,,,
,,,,,,,,,,,,130,PF,30,108,1,0,0,response1disk_5,7,3.265,-17,1,1,0,0,rectangle_8,-52,109,1,0,0,-16,5,1,0,0,0,1,1,2,1,6103514ec85d6a4d0c2f3375,6103650190107e826d31b1bd,2021-07-29_22h36.02.369,Simcolourproject_2stim_asymm_v5,2020.2.10,Win32,60,61025ae37ef11b136ea224fe,response7disk_7,0,2.148,0,"[2,5]",rectangle_4,,,,,,,,,,,,,,,,,,,,,,,,,,,,,,,,,,,,,,,,
,,,,,,,,,,,,140,PF,53,109,1,0,0,response1disk_5,7,3.865,6,5,1,0,0,rectangle_8,6,5,1,0,0,6,5,1,0,0,0,2,2,6,1,6103514ec85d6a4d0c2f3375,6103650190107e826d31b1bd,2021-07-29_22h36.02.369,Simcolourproject_2stim_asymm_v5,2020.2.10,Win32,60,61025ae37ef11b136ea224fe,,,,,,,,,,,,,,,,,,,,,,,,,,,,,,,,,,,,,,,,,,,,,,
,,,,,,,,,,,,74,FF,30,110,1,0,0,response1disk_5,7,1.782,6,3,1,0,0,rectangle_8,6,3,1,0,0,6,3,1,0,0,0,3,3,0,1,6103514ec85d6a4d0c2f3375,6103650190107e826d31b1bd,2021-07-29_22h36.02.369,Simcolourproject_2stim_asymm_v5,2020.2.10,Win32,60,61025ae37ef11b136ea224fe,,,,,,,,,,,,,,,,,,,,,,,,,,,,,,,,,,,,,,,,,,,,,,
,,,,,,,,,,,,43,FF,42,98,1,0,0,response1disk_5,7,3.281,6,8,1,0,0,rectangle_8,-50,124,1,0,0,-3,14,1,0,0,0,4,4,3,1,6103514ec85d6a4d0c2f3375,6103650190107e826d31b1bd,2021-07-29_22h36.02.369,Simcolourproject_2stim_asymm_v5,2020.2.10,Win32,60,61025ae37ef11b136ea224fe,response7disk_7,0,1.8,0,"[2,5]",rectangle_4,,,,,,,,,,,,,,,,,,,,,,,,,,,,,,,,,,,,,,,,
,,,,,,,,,,,,52,FF,50,-94,1,0,0,response3disk_5,4,4.93,7,4,1,0,0,rectangle_8,7,4,1,0,0,7,4,1,0,0,0,5,5,5,1,6103514ec85d6a4d0c2f3375,6103650190107e826d31b1bd,2021-07-29_22h36.02.369,Simcolourproject_2stim_asymm_v5,2020.2.10,Win32,60,61025ae37ef11b136ea224fe,,,,,,,,,,,,,,,,,,,,,,,,,,,,,,,,,,,,,,,,,,,,,,
,,,,,,,,,,,,150,PF,38,-114,1,0,0,response3disk_5,4,6.096,3,2,1,0,0,rectangle_8,3,2,1,0,0,3,2,1,0,0,0,6,6,1,1,6103514ec85d6a4d0c2f3375,6103650190107e826d31b1bd,2021-07-29_22h36.02.369,Simcolourproject_2stim_asymm_v5,2020.2.10,Win32,60,61025ae37ef11b136ea224fe,,,,,,,,,,,,,,,,,,,,,,,,,,,,,,,,,,,,,,,,,,,,,,
,,,,,,,,,,,,,FF,,,,,,,,4.231,,,,,,,,,,,,,,,,,,,,,,6103514ec85d6a4d0c2f3375,6103650190107e826d31b1bd,2021-07-29_22h36.02.369,Simcolourproject_2stim_asymm_v5,2020.2.10,Win32,60,61025ae37ef11b136ea224fe,,,,,,,space,3.218,2155,56,104,1,0,0,response1disk,,7,-8,11,1,0,0,rectangle,-8,11,1,0,0,-8,11,1,0,0,0,0,0,80,1,,,,,,,,
,,,,,,,,,,,,,FF,,,,,,,,5.198,,,,,,,,,,,,,,,,,,,,,,6103514ec85d6a4d0c2f3375,6103650190107e826d31b1bd,2021-07-29_22h36.02.369,Simcolourproject_2stim_asymm_v5,2020.2.10,Win32,60,61025ae37ef11b136ea224fe,,,,,,,,,4127,-51,-106,1,0,0,response5disk,,3,-13,-3,1,0,0,rectangle,-13,-3,1,0,0,-13,-3,1,0,0,0,1,1,51,1,,,,,,,,
,,,,,,,,,,,,,FF,,,,,,,,1.532,,,,,,,,,,,,,,,,,,,,,,6103514ec85d6a4d0c2f3375,6103650190107e826d31b1bd,2021-07-29_22h36.02.369,Simcolourproject_2stim_asymm_v5,2020.2.10,Win32,60,61025ae37ef11b136ea224fe,,,,,,,,,508,36,108,1,0,0,response1disk,,7,10,7,1,0,0,rectangle,10,7,1,0,0,10,7,1,0,0,0,2,2,15,1,,,,,,,,
,,,,,,,,,,,,,FF,,,,,,,,3.732,,,,,,,,,,,,,,,,,,,,,,6103514ec85d6a4d0c2f3375,6103650190107e826d31b1bd,2021-07-29_22h36.02.369,Simcolourproject_2stim_asymm_v5,2020.2.10,Win32,60,61025ae37ef11b136ea224fe,,,,,,,,,2241,28,-100,1,0,0,response3disk,,4,-3,-3,1,0,0,rectangle,-3,-3,1,0,0,-3,-3,1,0,0,0,3,3,99,1,,,,,,,,
,,,,,,,,,,,,,FF,,,,,,,,0.949,,,,,,,,,,,,,,,,,,,,,,6103514ec85d6a4d0c2f3375,6103650190107e826d31b1bd,2021-07-29_22h36.02.369,Simcolourproject_2stim_asymm_v5,2020.2.10,Win32,60,61025ae37ef11b136ea224fe,,,,,,,,,2012,33,89,1,0,0,response1disk,,7,10,7,1,0,0,rectangle,10,7,1,0,0,10,7,1,0,0,0,4,4,79,1,,,,,,,,
,,,,,,,,,,,,,FF,,,,,,,,2.033,,,,,,,,,,,,,,,,,,,,,,6103514ec85d6a4d0c2f3375,6103650190107e826d31b1bd,2021-07-29_22h36.02.369,Simcolourproject_2stim_asymm_v5,2020.2.10,Win32,60,61025ae37ef11b136ea224fe,,,,,,,,,1072,43,-86,1,0,0,response3disk,,4,9,0,1,0,0,rectangle,9,0,1,0,0,9,0,1,0,0,0,5,5,17,1,,,,,,,,
,,,,,,,,,,,,,FF,,,,,,,,2.116,,,,,,,,,,,,,,,,,,,,,,6103514ec85d6a4d0c2f3375,6103650190107e826d31b1bd,2021-07-29_22h36.02.369,Simcolourproject_2stim_asymm_v5,2020.2.10,Win32,60,61025ae37ef11b136ea224fe,,,,,,,,,753,43,80,1,0,0,response1disk,,7,19,6,1,0,0,rectangle,19,6,1,0,0,19,6,1,0,0,0,6,6,31,1,,,,,,,,
,,,,,,,,,,,,,FF,,,,,,,,1.167,,,,,,,,,,,,,,,,,,,,,,6103514ec85d6a4d0c2f3375,6103650190107e826d31b1bd,2021-07-29_22h36.02.369,Simcolourproject_2stim_asymm_v5,2020.2.10,Win32,60,61025ae37ef11b136ea224fe,,,,,,,,,3074,29,101,1,0,0,response1disk,,7,23,-6,1,0,0,rectangle,23,-6,1,0,0,23,-6,1,0,0,0,7,7,8,1,,,,,,,,
,,,,,,,,,,,,,FF,,,,,,,,1.599,,,,,,,,,,,,,,,,,,,,,,6103514ec85d6a4d0c2f3375,6103650190107e826d31b1bd,2021-07-29_22h36.02.369,Simcolourproject_2stim_asymm_v5,2020.2.10,Win32,60,61025ae37ef11b136ea224fe,,,,,,,,,3352,35,114,1,0,0,response1disk,,7,9,2,1,0,0,rectangle,9,2,1,0,0,9,2,1,0,0,0,8,8,127,1,,,,,,,,
,,,,,,,,,,,,,FF,,,,,,,,1.35,,,,,,,,,,,,,,,,,,,,,,6103514ec85d6a4d0c2f3375,6103650190107e826d31b1bd,2021-07-29_22h36.02.369,Simcolourproject_2stim_asymm_v5,2020.2.10,Win32,60,61025ae37ef11b136ea224fe,,,,,,,,,3551,-29,98,1,0,0,response7disk,,0,7,11,1,0,0,rectangle,7,11,1,0,0,7,11,1,0,0,0,9,9,13,1,,,,,,,,
,,,,,,,,,,,,,FF,,,,,,,,0.833,,,,,,,,,,,,,,,,,,,,,,6103514ec85d6a4d0c2f3375,6103650190107e826d31b1bd,2021-07-29_22h36.02.369,Simcolourproject_2stim_asymm_v5,2020.2.10,Win32,60,61025ae37ef11b136ea224fe,,,,,,,,,1211,-30,98,1,0,0,response7disk,,0,-2,10,1,0,0,rectangle,-2,10,1,0,0,-2,10,1,0,0,0,10,10,98,1,,,,,,,,
,,,,,,,,,,,,,FF,,,,,,,,1.4,,,,,,,,,,,,,,,,,,,,,,6103514ec85d6a4d0c2f3375,6103650190107e826d31b1bd,2021-07-29_22h36.02.369,Simcolourproject_2stim_asymm_v5,2020.2.10,Win32,60,61025ae37ef11b136ea224fe,,,,,,,,,231,32,77,1,0,0,response1disk,,7,6,12,1,0,0,rectangle,6,12,1,0,0,6,12,1,0,0,0,11,11,130,1,,,,,,,,
,,,,,,,,,,,,,FF,,,,,,,,3.799,,,,,,,,,,,,,,,,,,,,,,6103514ec85d6a4d0c2f3375,6103650190107e826d31b1bd,2021-07-29_22h36.02.369,Simcolourproject_2stim_asymm_v5,2020.2.10,Win32,60,61025ae37ef11b136ea224fe,,,,,,,,,1803,52,90,1,0,0,response1disk,,7,-3,1,1,0,0,rectangle,-3,1,1,0,0,-3,1,1,0,0,0,12,12,2,1,,,,,,,,
,,,,,,,,,,,,,FF,,,,,,,,0.9,,,,,,,,,,,,,,,,,,,,,,6103514ec85d6a4d0c2f3375,6103650190107e826d31b1bd,2021-07-29_22h36.02.369,Simcolourproject_2stim_asymm_v5,2020.2.10,Win32,60,61025ae37ef11b136ea224fe,,,,,,,,,3448,58,98,1,0,0,response1disk,,7,11,1,1,0,0,rectangle,11,1,1,0,0,11,1,1,0,0,0,13,13,35,1,,,,,,,,
,,,,,,,,,,,,,FF,,,,,,,,2.582,,,,,,,,,,,,,,,,,,,,,,6103514ec85d6a4d0c2f3375,6103650190107e826d31b1bd,2021-07-29_22h36.02.369,Simcolourproject_2stim_asymm_v5,2020.2.10,Win32,60,61025ae37ef11b136ea224fe,,,,,,,,,99,-50,-80,1,0,0,response5disk,,3,-10,-2,1,0,0,rectangle,-10,-2,1,0,0,-10,-2,1,0,0,0,14,14,16,1,,,,,,,,
,,,,,,,,,,,,,FF,,,,,,,,1.616,,,,,,,,,,,,,,,,,,,,,,6103514ec85d6a4d0c2f3375,6103650190107e826d31b1bd,2021-07-29_22h36.02.369,Simcolourproject_2stim_asymm_v5,2020.2.10,Win32,60,61025ae37ef11b136ea224fe,,,,,,,,,2832,-63,41,1,0,0,response7disk,,1,-13,4,1,0,0,rectangle,-13,4,1,0,0,-13,4,1,0,0,0,15,15,112,1,,,,,,,,
,,,,,,,,,,,,,FF,,,,,,,,1.366,,,,,,,,,,,,,,,,,,,,,,6103514ec85d6a4d0c2f3375,6103650190107e826d31b1bd,2021-07-29_22h36.02.369,Simcolourproject_2stim_asymm_v5,2020.2.10,Win32,60,61025ae37ef11b136ea224fe,,,,,,,,,2016,50,82,1,0,0,response1disk,,7,18,11,1,0,0,rectangle,18,11,1,0,0,18,11,1,0,0,0,16,16,30,1,,,,,,,,
,,,,,,,,,,,,,FF,,,,,,,,2.465,,,,,,,,,,,,,,,,,,,,,,6103514ec85d6a4d0c2f3375,6103650190107e826d31b1bd,2021-07-29_22h36.02.369,Simcolourproject_2stim_asymm_v5,2020.2.10,Win32,60,61025ae37ef11b136ea224fe,,,,,,,,,980,89,-52,1,0,0,response3disk,,5,1,2,1,0,0,rectangle,1,2,1,0,0,1,2,1,0,0,0,17,17,73,1,,,,,,,,
,,,,,,,,,,,,,FF,,,,,,,,2.515,,,,,,,,,,,,,,,,,,,,,,6103514ec85d6a4d0c2f3375,6103650190107e826d31b1bd,2021-07-29_22h36.02.369,Simcolourproject_2stim_asymm_v5,2020.2.10,Win32,60,61025ae37ef11b136ea224fe,,,,,,,,,726,-118,-54,1,0,0,response5disk,,2,-25,9,1,0,0,rectangle,-25,9,1,0,0,-25,9,1,0,0,0,18,18,49,1,,,,,,,,
,,,,,,,,,,,,,FF,,,,,,,,1.349,,,,,,,,,,,,,,,,,,,,,,6103514ec85d6a4d0c2f3375,6103650190107e826d31b1bd,2021-07-29_22h36.02.369,Simcolourproject_2stim_asymm_v5,2020.2.10,Win32,60,61025ae37ef11b136ea224fe,,,,,,,,,533,-106,-42,1,0,0,response5disk,,2,-1,2,1,0,0,rectangle,-1,2,1,0,0,-1,2,1,0,0,0,19,19,52,1,,,,,,,,
,,,,,,,,,,,,,FF,,,,,,,,0.933,,,,,,,,,,,,,,,,,,,,,,6103514ec85d6a4d0c2f3375,6103650190107e826d31b1bd,2021-07-29_22h36.02.369,Simcolourproject_2stim_asymm_v5,2020.2.10,Win32,60,61025ae37ef11b136ea224fe,,,,,,,,,4046,-34,93,1,0,0,response7disk,,0,-8,2,1,0,0,rectangle,-8,2,1,0,0,-8,2,1,0,0,0,20,20,60,1,,,,,,,,
,,,,,,,,,,,,,FF,,,,,,,,2.648,,,,,,,,,,,,,,,,,,,,,,6103514ec85d6a4d0c2f3375,6103650190107e826d31b1bd,2021-07-29_22h36.02.369,Simcolourproject_2stim_asymm_v5,2020.2.10,Win32,60,61025ae37ef11b136ea224fe,,,,,,,,,3178,33,93,1,0,0,response1disk,,7,15,6,1,0,0,rectangle,15,6,1,0,0,15,6,1,0,0,0,21,21,28,1,,,,,,,,
,,,,,,,,,,,,,FF,,,,,,,,0.916,,,,,,,,,,,,,,,,,,,,,,6103514ec85d6a4d0c2f3375,6103650190107e826d31b1bd,2021-07-29_22h36.02.369,Simcolourproject_2stim_asymm_v5,2020.2.10,Win32,60,61025ae37ef11b136ea224fe,,,,,,,,,713,31,97,1,0,0,response1disk,,7,3,6,1,0,0,rectangle,3,6,1,0,0,3,6,1,0,0,0,22,22,92,1,,,,,,,,
,,,,,,,,,,,,,FF,,,,,,,,0.616,,,,,,,,,,,,,,,,,,,,,,6103514ec85d6a4d0c2f3375,6103650190107e826d31b1bd,2021-07-29_22h36.02.369,Simcolourproject_2stim_asymm_v5,2020.2.10,Win32,60,61025ae37ef11b136ea224fe,,,,,,,,,3806,27,92,1,0,0,response1disk,,7,7,10,1,0,0,rectangle,7,10,1,0,0,7,10,1,0,0,0,23,23,109,1,,,,,,,,
,,,,,,,,,,,,,FF,,,,,,,,2.415,,,,,,,,,,,,,,,,,,,,,,6103514ec85d6a4d0c2f3375,6103650190107e826d31b1bd,2021-07-29_22h36.02.369,Simcolourproject_2stim_asymm_v5,2020.2.10,Win32,60,61025ae37ef11b136ea224fe,,,,,,,,,3587,33,-88,1,0,0,response3disk,,4,9,-4,1,0,0,rectangle,9,-4,1,0,0,9,-4,1,0,0,0,24,24,59,1,,,,,,,,
,,,,,,,,,,,,,FF,,,,,,,,0.866,,,,,,,,,,,,,,,,,,,,,,6103514ec85d6a4d0c2f3375,6103650190107e826d31b1bd,2021-07-29_22h36.02.369,Simcolourproject_2stim_asymm_v5,2020.2.10,Win32,60,61025ae37ef11b136ea224fe,,,,,,,,,2976,18,112,1,0,0,response1disk,,7,3,7,1,0,0,rectangle,3,7,1,0,0,3,7,1,0,0,0,25,25,71,1,,,,,,,,
,,,,,,,,,,,,,FF,,,,,,,,0.683,,,,,,,,,,,,,,,,,,,,,,6103514ec85d6a4d0c2f3375,6103650190107e826d31b1bd,2021-07-29_22h36.02.369,Simcolourproject_2stim_asymm_v5,2020.2.10,Win32,60,61025ae37ef11b136ea224fe,,,,,,,,,939,60,110,1,0,0,response1disk,,7,-10,4,1,0,0,rectangle,-10,4,1,0,0,-10,4,1,0,0,0,26,26,77,1,,,,,,,,
,,,,,,,,,,,,,FF,,,,,,,,0.616,,,,,,,,,,,,,,,,,,,,,,6103514ec85d6a4d0c2f3375,6103650190107e826d31b1bd,2021-07-29_22h36.02.369,Simcolourproject_2stim_asymm_v5,2020.2.10,Win32,60,61025ae37ef11b136ea224fe,,,,,,,,,1779,28,85,1,0,0,response1disk,,7,-2,12,1,0,0,rectangle,-2,12,1,0,0,-2,12,1,0,0,0,27,27,46,1,,,,,,,,
,,,,,,,,,,,,,FF,,,,,,,,2.481,,,,,,,,,,,,,,,,,,,,,,6103514ec85d6a4d0c2f3375,6103650190107e826d31b1bd,2021-07-29_22h36.02.369,Simcolourproject_2stim_asymm_v5,2020.2.10,Win32,60,61025ae37ef11b136ea224fe,,,,,,,,,1396,101,-50,1,0,0,response3disk,,5,22,5,1,0,0,rectangle,22,5,1,0,0,22,5,1,0,0,0,28,28,66,1,,,,,,,,
,,,,,,,,,,,,,FF,,,,,,,,1.066,,,,,,,,,,,,,,,,,,,,,,6103514ec85d6a4d0c2f3375,6103650190107e826d31b1bd,2021-07-29_22h36.02.369,Simcolourproject_2stim_asymm_v5,2020.2.10,Win32,60,61025ae37ef11b136ea224fe,,,,,,,,,3070,37,93,1,0,0,response1disk,,7,2,14,1,0,0,rectangle,2,14,1,0,0,2,14,1,0,0,0,29,29,113,1,,,,,,,,
,,,,,,,,,,,,,FF,,,,,,,,0.566,,,,,,,,,,,,,,,,,,,,,,6103514ec85d6a4d0c2f3375,6103650190107e826d31b1bd,2021-07-29_22h36.02.369,Simcolourproject_2stim_asymm_v5,2020.2.10,Win32,60,61025ae37ef11b136ea224fe,,,,,,,,,1147,25,85,1,0,0,response1disk,,7,-1,8,1,0,0,rectangle,-1,8,1,0,0,-1,8,1,0,0,0,30,30,120,1,,,,,,,,
,,,,,,,,,,,,,FF,,,,,,,,2.066,,,,,,,,,,,,,,,,,,,,,,6103514ec85d6a4d0c2f3375,6103650190107e826d31b1bd,2021-07-29_22h36.02.369,Simcolourproject_2stim_asymm_v5,2020.2.10,Win32,60,61025ae37ef11b136ea224fe,,,,,,,,,3554,97,-59,1,0,0,response3disk,,5,-16,14,1,0,0,rectangle,-16,14,1,0,0,-16,14,1,0,0,0,31,31,74,1,,,,,,,,
,,,,,,,,,,,,,FF,,,,,,,,0.965,,,,,,,,,,,,,,,,,,,,,,6103514ec85d6a4d0c2f3375,6103650190107e826d31b1bd,2021-07-29_22h36.02.369,Simcolourproject_2stim_asymm_v5,2020.2.10,Win32,60,61025ae37ef11b136ea224fe,,,,,,,,,586,48,100,1,0,0,response1disk,,7,13,16,1,0,0,rectangle,13,16,1,0,0,13,16,1,0,0,0,32,32,37,1,,,,,,,,
,,,,,,,,,,,,,FF,,,,,,,,0.65,,,,,,,,,,,,,,,,,,,,,,6103514ec85d6a4d0c2f3375,6103650190107e826d31b1bd,2021-07-29_22h36.02.369,Simcolourproject_2stim_asymm_v5,2020.2.10,Win32,60,61025ae37ef11b136ea224fe,,,,,,,,,1695,35,78,1,0,0,response1disk,,7,17,14,1,0,0,rectangle,17,14,1,0,0,17,14,1,0,0,0,33,33,110,1,,,,,,,,
,,,,,,,,,,,,,FF,,,,,,,,4.198,,,,,,,,,,,,,,,,,,,,,,6103514ec85d6a4d0c2f3375,6103650190107e826d31b1bd,2021-07-29_22h36.02.369,Simcolourproject_2stim_asymm_v5,2020.2.10,Win32,60,61025ae37ef11b136ea224fe,,,,,,,,,2899,105,-52,1,0,0,response3disk,,5,-14,12,1,0,0,rectangle,-14,12,1,0,0,-14,12,1,0,0,0,34,34,153,1,,,,,,,,
,,,,,,,,,,,,,FF,,,,,,,,2.366,,,,,,,,,,,,,,,,,,,,,,6103514ec85d6a4d0c2f3375,6103650190107e826d31b1bd,2021-07-29_22h36.02.369,Simcolourproject_2stim_asymm_v5,2020.2.10,Win32,60,61025ae37ef11b136ea224fe,,,,,,,,,4013,33,97,1,0,0,response1disk,,7,3,12,1,0,0,rectangle,3,12,1,0,0,3,12,1,0,0,0,35,35,157,1,,,,,,,,
,,,,,,,,,,,,,FF,,,,,,,,0.716,,,,,,,,,,,,,,,,,,,,,,6103514ec85d6a4d0c2f3375,6103650190107e826d31b1bd,2021-07-29_22h36.02.369,Simcolourproject_2stim_asymm_v5,2020.2.10,Win32,60,61025ae37ef11b136ea224fe,,,,,,,,,2526,39,84,1,0,0,response1disk,,7,-2,-10,1,0,0,rectangle,-2,-10,1,0,0,-2,-10,1,0,0,0,36,36,34,1,,,,,,,,
,,,,,,,,,,,,,FF,,,,,,,,1.367,,,,,,,,,,,,,,,,,,,,,,6103514ec85d6a4d0c2f3375,6103650190107e826d31b1bd,2021-07-29_22h36.02.369,Simcolourproject_2stim_asymm_v5,2020.2.10,Win32,60,61025ae37ef11b136ea224fe,,,,,,,,,2100,-98,54,1,0,0,response7disk,,1,-22,5,1,0,0,rectangle,-22,5,1,0,0,-22,5,1,0,0,0,37,37,115,1,,,,,,,,
,,,,,,,,,,,,,FF,,,,,,,,3.481,,,,,,,,,,,,,,,,,,,,,,6103514ec85d6a4d0c2f3375,6103650190107e826d31b1bd,2021-07-29_22h36.02.369,Simcolourproject_2stim_asymm_v5,2020.2.10,Win32,60,61025ae37ef11b136ea224fe,,,,,,,,,3903,50,100,1,0,0,response1disk,,7,-23,-9,1,0,0,rectangle,-42,94,1,0,0,-27,10,1,0,0,0,38,38,85,1,,response7disk_3,TRUE,0,0,"[87,303,258,121,39,46,174,95,95,291,88,186,83,265,304,140,253,175,117,191]",1.565,rectangle
,,,,,,,,,,,,,FF,,,,,,,,1.815,,,,,,,,,,,,,,,,,,,,,,6103514ec85d6a4d0c2f3375,6103650190107e826d31b1bd,2021-07-29_22h36.02.369,Simcolourproject_2stim_asymm_v5,2020.2.10,Win32,60,61025ae37ef11b136ea224fe,,,,,,,,,1127,46,120,1,0,0,response1disk,,7,9,6,1,0,0,rectangle,9,6,1,0,0,9,6,1,0,0,0,39,39,81,1,,,,,,,,
,,,,,,,,,,,,,FF,,,,,,,,1.649,,,,,,,,,,,,,,,,,,,,,,6103514ec85d6a4d0c2f3375,6103650190107e826d31b1bd,2021-07-29_22h36.02.369,Simcolourproject_2stim_asymm_v5,2020.2.10,Win32,60,61025ae37ef11b136ea224fe,,,,,,,,,3832,30,90,1,0,0,response1disk,,7,5,6,1,0,0,rectangle,5,6,1,0,0,5,6,1,0,0,0,40,40,0,1,,,,,,,,
,,,,,,,,,,,,,FF,,,,,,,,2.333,,,,,,,,,,,,,,,,,,,,,,6103514ec85d6a4d0c2f3375,6103650190107e826d31b1bd,2021-07-29_22h36.02.369,Simcolourproject_2stim_asymm_v5,2020.2.10,Win32,60,61025ae37ef11b136ea224fe,,,,,,,,,1613,110,33,1,0,0,response1disk,,6,25,2,1,0,0,rectangle,25,2,1,0,0,25,2,1,0,0,0,41,41,4,1,,,,,,,,
,,,,,,,,,,,,,FF,,,,,,,,1.349,,,,,,,,,,,,,,,,,,,,,,6103514ec85d6a4d0c2f3375,6103650190107e826d31b1bd,2021-07-29_22h36.02.369,Simcolourproject_2stim_asymm_v5,2020.2.10,Win32,60,61025ae37ef11b136ea224fe,,,,,,,,,3814,-53,-26,1,0,0,response5disk,,2,-17,8,1,0,0,rectangle,-17,8,1,0,0,-17,8,1,0,0,0,42,42,47,1,,,,,,,,
,,,,,,,,,,,,,FF,,,,,,,,1.716,,,,,,,,,,,,,,,,,,,,,,6103514ec85d6a4d0c2f3375,6103650190107e826d31b1bd,2021-07-29_22h36.02.369,Simcolourproject_2stim_asymm_v5,2020.2.10,Win32,60,61025ae37ef11b136ea224fe,,,,,,,,,3507,39,-81,1,0,0,response3disk,,4,1,5,1,0,0,rectangle,1,5,1,0,0,1,5,1,0,0,0,43,43,78,1,,,,,,,,
,,,,,,,,,,,,,FF,,,,,,,,1.05,,,,,,,,,,,,,,,,,,,,,,6103514ec85d6a4d0c2f3375,6103650190107e826d31b1bd,2021-07-29_22h36.02.369,Simcolourproject_2stim_asymm_v5,2020.2.10,Win32,60,61025ae37ef11b136ea224fe,,,,,,,,,115,43,86,1,0,0,response1disk,,7,-6,4,1,0,0,rectangle,-6,4,1,0,0,-6,4,1,0,0,0,44,44,21,1,,,,,,,,
,,,,,,,,,,,,,FF,,,,,,,,0.55,,,,,,,,,,,,,,,,,,,,,,6103514ec85d6a4d0c2f3375,6103650190107e826d31b1bd,2021-07-29_22h36.02.369,Simcolourproject_2stim_asymm_v5,2020.2.10,Win32,60,61025ae37ef11b136ea224fe,,,,,,,,,2922,18,85,1,0,0,response1disk,,7,2,0,1,0,0,rectangle,-97,28,1,0,0,-11,2,1,0,0,0,45,45,63,1,,response7disk_3,TRUE,1,1,"[87,303,258,121,39,46,174,95,95,291,88,186,83,265,304,140,253,175,117,191]",1.649,rectangle
,,,,,,,,,,,,,FF,,,,,,,,1.999,,,,,,,,,,,,,,,,,,,,,,6103514ec85d6a4d0c2f3375,6103650190107e826d31b1bd,2021-07-29_22h36.02.369,Simcolourproject_2stim_asymm_v5,2020.2.10,Win32,60,61025ae37ef11b136ea224fe,,,,,,,,,4318,45,96,1,0,0,response1disk,,7,9,8,1,0,0,rectangle,9,8,1,0,0,9,8,1,0,0,0,46,46,155,1,,,,,,,,
,,,,,,,,,,,,,FF,,,,,,,,0.699,,,,,,,,,,,,,,,,,,,,,,6103514ec85d6a4d0c2f3375,6103650190107e826d31b1bd,2021-07-29_22h36.02.369,Simcolourproject_2stim_asymm_v5,2020.2.10,Win32,60,61025ae37ef11b136ea224fe,,,,,,,,,516,39,78,1,0,0,response1disk,,7,6,8,1,0,0,rectangle,6,8,1,0,0,6,8,1,0,0,0,47,47,94,1,,,,,,,,
,,,,,,,,,,,,,FF,,,,,,,,0.682,,,,,,,,,,,,,,,,,,,,,,6103514ec85d6a4d0c2f3375,6103650190107e826d31b1bd,2021-07-29_22h36.02.369,Simcolourproject_2stim_asymm_v5,2020.2.10,Win32,60,61025ae37ef11b136ea224fe,,,,,,,,,2689,27,86,1,0,0,response1disk,,7,-1,6,1,0,0,rectangle,-1,6,1,0,0,-1,6,1,0,0,0,48,48,33,1,,,,,,,,
,,,,,,,,,,,,,FF,,,,,,,,1.166,,,,,,,,,,,,,,,,,,,,,,6103514ec85d6a4d0c2f3375,6103650190107e826d31b1bd,2021-07-29_22h36.02.369,Simcolourproject_2stim_asymm_v5,2020.2.10,Win32,60,61025ae37ef11b136ea224fe,,,,,,,,,3815,-86,-37,1,0,0,response5disk,,2,-16,4,1,0,0,rectangle,-16,4,1,0,0,-16,4,1,0,0,0,49,49,25,1,,,,,,,,
,,,,,,,,,,,,,FF,,,,,,,,1.733,,,,,,,,,,,,,,,,,,,,,,6103514ec85d6a4d0c2f3375,6103650190107e826d31b1bd,2021-07-29_22h36.02.369,Simcolourproject_2stim_asymm_v5,2020.2.10,Win32,60,61025ae37ef11b136ea224fe,,,,,,,,,3333,117,34,1,0,0,response1disk,,6,25,-2,1,0,0,rectangle,25,-2,1,0,0,25,-2,1,0,0,0,50,50,137,1,,,,,,,,
,,,,,,,,,,,,,FF,,,,,,,,1.033,,,,,,,,,,,,,,,,,,,,,,6103514ec85d6a4d0c2f3375,6103650190107e826d31b1bd,2021-07-29_22h36.02.369,Simcolourproject_2stim_asymm_v5,2020.2.10,Win32,60,61025ae37ef11b136ea224fe,,,,,,,,,3631,51,76,1,0,0,response1disk,,7,5,12,1,0,0,rectangle,5,12,1,0,0,5,12,1,0,0,0,51,51,104,1,,,,,,,,
,,,,,,,,,,,,,FF,,,,,,,,1.549,,,,,,,,,,,,,,,,,,,,,,6103514ec85d6a4d0c2f3375,6103650190107e826d31b1bd,2021-07-29_22h36.02.369,Simcolourproject_2stim_asymm_v5,2020.2.10,Win32,60,61025ae37ef11b136ea224fe,,,,,,,,,972,52,97,1,0,0,response1disk,,7,-7,0,1,0,0,rectangle,-7,0,1,0,0,-7,0,1,0,0,0,52,52,40,1,,,,,,,,
,,,,,,,,,,,,,FF,,,,,,,,4.331,,,,,,,,,,,,,,,,,,,,,,6103514ec85d6a4d0c2f3375,6103650190107e826d31b1bd,2021-07-29_22h36.02.369,Simcolourproject_2stim_asymm_v5,2020.2.10,Win32,60,61025ae37ef11b136ea224fe,,,,,,,,,3013,105,46,1,0,0,response1disk,,6,-2,2,1,0,0,rectangle,-2,2,1,0,0,-2,2,1,0,0,0,53,53,117,1,,,,,,,,
,,,,,,,,,,,,,FF,,,,,,,,1.149,,,,,,,,,,,,,,,,,,,,,,6103514ec85d6a4d0c2f3375,6103650190107e826d31b1bd,2021-07-29_22h36.02.369,Simcolourproject_2stim_asymm_v5,2020.2.10,Win32,60,61025ae37ef11b136ea224fe,,,,,,,,,762,39,86,1,0,0,response1disk,,7,3,3,1,0,0,rectangle,3,3,1,0,0,3,3,1,0,0,0,54,54,156,1,,,,,,,,
,,,,,,,,,,,,,FF,,,,,,,,0.6,,,,,,,,,,,,,,,,,,,,,,6103514ec85d6a4d0c2f3375,6103650190107e826d31b1bd,2021-07-29_22h36.02.369,Simcolourproject_2stim_asymm_v5,2020.2.10,Win32,60,61025ae37ef11b136ea224fe,,,,,,,,,4191,25,94,1,0,0,response1disk,,7,-5,6,1,0,0,rectangle,-5,6,1,0,0,-5,6,1,0,0,0,55,55,88,1,,,,,,,,
,,,,,,,,,,,,,FF,,,,,,,,1.732,,,,,,,,,,,,,,,,,,,,,,6103514ec85d6a4d0c2f3375,6103650190107e826d31b1bd,2021-07-29_22h36.02.369,Simcolourproject_2stim_asymm_v5,2020.2.10,Win32,60,61025ae37ef11b136ea224fe,,,,,,,,,2254,45,90,1,0,0,response1disk,,7,-1,0,1,0,0,rectangle,-1,0,1,0,0,-1,0,1,0,0,0,56,56,87,1,,,,,,,,
,,,,,,,,,,,,,FF,,,,,,,,0.7,,,,,,,,,,,,,,,,,,,,,,6103514ec85d6a4d0c2f3375,6103650190107e826d31b1bd,2021-07-29_22h36.02.369,Simcolourproject_2stim_asymm_v5,2020.2.10,Win32,60,61025ae37ef11b136ea224fe,,,,,,,,,3022,43,82,1,0,0,response1disk,,7,2,2,1,0,0,rectangle,2,2,1,0,0,2,2,1,0,0,0,57,57,90,1,,,,,,,,
,,,,,,,,,,,,,FF,,,,,,,,1.133,,,,,,,,,,,,,,,,,,,,,,6103514ec85d6a4d0c2f3375,6103650190107e826d31b1bd,2021-07-29_22h36.02.369,Simcolourproject_2stim_asymm_v5,2020.2.10,Win32,60,61025ae37ef11b136ea224fe,,,,,,,,,2994,92,58,1,0,0,response1disk,,6,5,-9,1,0,0,rectangle,5,-9,1,0,0,5,-9,1,0,0,0,58,58,27,1,,,,,,,,
,,,,,,,,,,,,,FF,,,,,,,,0.617,,,,,,,,,,,,,,,,,,,,,,6103514ec85d6a4d0c2f3375,6103650190107e826d31b1bd,2021-07-29_22h36.02.369,Simcolourproject_2stim_asymm_v5,2020.2.10,Win32,60,61025ae37ef11b136ea224fe,,,,,,,,,2562,34,70,1,0,0,response1disk,,7,-6,2,1,0,0,rectangle,-6,2,1,0,0,-6,2,1,0,0,0,59,59,62,1,,,,,,,,
,,,,,,,,,,,,,FF,,,,,,,,1.099,,,,,,,,,,,,,,,,,,,,,,6103514ec85d6a4d0c2f3375,6103650190107e826d31b1bd,2021-07-29_22h36.02.369,Simcolourproject_2stim_asymm_v5,2020.2.10,Win32,60,61025ae37ef11b136ea224fe,,,,,,,,,2144,31,78,1,0,0,response1disk,,7,-5,10,1,0,0,rectangle,-5,10,1,0,0,-5,10,1,0,0,0,60,60,100,1,,,,,,,,
,,,,,,,,,,,,,FF,,,,,,,,1.333,,,,,,,,,,,,,,,,,,,,,,6103514ec85d6a4d0c2f3375,6103650190107e826d31b1bd,2021-07-29_22h36.02.369,Simcolourproject_2stim_asymm_v5,2020.2.10,Win32,60,61025ae37ef11b136ea224fe,,,,,,,,,4002,63,23,1,0,0,response1disk,,6,2,-16,1,0,0,rectangle,2,-16,1,0,0,2,-16,1,0,0,0,61,61,64,1,,,,,,,,
,,,,,,,,,,,,,FF,,,,,,,,0.566,,,,,,,,,,,,,,,,,,,,,,6103514ec85d6a4d0c2f3375,6103650190107e826d31b1bd,2021-07-29_22h36.02.369,Simcolourproject_2stim_asymm_v5,2020.2.10,Win32,60,61025ae37ef11b136ea224fe,,,,,,,,,1113,41,66,1,0,0,response1disk,,7,1,-9,1,0,0,rectangle,1,-9,1,0,0,1,-9,1,0,0,0,62,62,23,1,,,,,,,,
,,,,,,,,,,,,,FF,,,,,,,,0.933,,,,,,,,,,,,,,,,,,,,,,6103514ec85d6a4d0c2f3375,6103650190107e826d31b1bd,2021-07-29_22h36.02.369,Simcolourproject_2stim_asymm_v5,2020.2.10,Win32,60,61025ae37ef11b136ea224fe,,,,,,,,,3425,-27,84,1,0,0,response7disk,,0,-9,6,1,0,0,rectangle,-9,6,1,0,0,-9,6,1,0,0,0,63,63,102,1,,,,,,,,
,,,,,,,,,,,,,FF,,,,,,,,1.566,,,,,,,,,,,,,,,,,,,,,,6103514ec85d6a4d0c2f3375,6103650190107e826d31b1bd,2021-07-29_22h36.02.369,Simcolourproject_2stim_asymm_v5,2020.2.10,Win32,60,61025ae37ef11b136ea224fe,,,,,,,,,1144,18,89,1,0,0,response1disk,,7,10,-2,1,0,0,rectangle,10,-2,1,0,0,10,-2,1,0,0,0,64,64,105,1,,,,,,,,
,,,,,,,,,,,,,FF,,,,,,,,0.699,,,,,,,,,,,,,,,,,,,,,,6103514ec85d6a4d0c2f3375,6103650190107e826d31b1bd,2021-07-29_22h36.02.369,Simcolourproject_2stim_asymm_v5,2020.2.10,Win32,60,61025ae37ef11b136ea224fe,,,,,,,,,993,39,94,1,0,0,response1disk,,7,2,-8,1,0,0,rectangle,2,-8,1,0,0,2,-8,1,0,0,0,65,65,19,1,,,,,,,,
,,,,,,,,,,,,,FF,,,,,,,,0.5,,,,,,,,,,,,,,,,,,,,,,6103514ec85d6a4d0c2f3375,6103650190107e826d31b1bd,2021-07-29_22h36.02.369,Simcolourproject_2stim_asymm_v5,2020.2.10,Win32,60,61025ae37ef11b136ea224fe,,,,,,,,,4258,42,78,1,0,0,response1disk,,7,2,2,1,0,0,rectangle,2,2,1,0,0,2,2,1,0,0,0,66,66,150,1,,,,,,,,
,,,,,,,,,,,,,FF,,,,,,,,1.666,,,,,,,,,,,,,,,,,,,,,,6103514ec85d6a4d0c2f3375,6103650190107e826d31b1bd,2021-07-29_22h36.02.369,Simcolourproject_2stim_asymm_v5,2020.2.10,Win32,60,61025ae37ef11b136ea224fe,,,,,,,,,2903,33,96,1,0,0,response1disk,,7,7,-4,1,0,0,rectangle,7,-4,1,0,0,7,-4,1,0,0,0,67,67,96,1,,,,,,,,
,,,,,,,,,,,,,FF,,,,,,,,0.716,,,,,,,,,,,,,,,,,,,,,,6103514ec85d6a4d0c2f3375,6103650190107e826d31b1bd,2021-07-29_22h36.02.369,Simcolourproject_2stim_asymm_v5,2020.2.10,Win32,60,61025ae37ef11b136ea224fe,,,,,,,,,847,51,101,1,0,0,response1disk,,7,-5,-2,1,0,0,rectangle,-5,-2,1,0,0,-5,-2,1,0,0,0,68,68,29,1,,,,,,,,
,,,,,,,,,,,,,FF,,,,,,,,1.899,,,,,,,,,,,,,,,,,,,,,,6103514ec85d6a4d0c2f3375,6103650190107e826d31b1bd,2021-07-29_22h36.02.369,Simcolourproject_2stim_asymm_v5,2020.2.10,Win32,60,61025ae37ef11b136ea224fe,,,,,,,,,860,82,31,1,0,0,response1disk,,6,1,-6,1,0,0,rectangle,1,-6,1,0,0,1,-6,1,0,0,0,69,69,76,1,,,,,,,,
,,,,,,,,,,,,,FF,,,,,,,,1.134,,,,,,,,,,,,,,,,,,,,,,6103514ec85d6a4d0c2f3375,6103650190107e826d31b1bd,2021-07-29_22h36.02.369,Simcolourproject_2stim_asymm_v5,2020.2.10,Win32,60,61025ae37ef11b136ea224fe,,,,,,,,,346,-106,42,1,0,0,response7disk,,1,-26,2,1,0,0,rectangle,-26,2,1,0,0,-26,2,1,0,0,0,70,70,107,1,,,,,,,,
,,,,,,,,,,,,,FF,,,,,,,,0.683,,,,,,,,,,,,,,,,,,,,,,6103514ec85d6a4d0c2f3375,6103650190107e826d31b1bd,2021-07-29_22h36.02.369,Simcolourproject_2stim_asymm_v5,2020.2.10,Win32,60,61025ae37ef11b136ea224fe,,,,,,,,,378,47,98,1,0,0,response1disk,,7,21,6,1,0,0,rectangle,21,6,1,0,0,21,6,1,0,0,0,71,71,18,1,,,,,,,,
,,,,,,,,,,,,,FF,,,,,,,,0.683,,,,,,,,,,,,,,,,,,,,,,6103514ec85d6a4d0c2f3375,6103650190107e826d31b1bd,2021-07-29_22h36.02.369,Simcolourproject_2stim_asymm_v5,2020.2.10,Win32,60,61025ae37ef11b136ea224fe,,,,,,,,,4310,34,89,1,0,0,response1disk,,7,-5,3,1,0,0,rectangle,-5,3,1,0,0,-5,3,1,0,0,0,72,72,53,1,,,,,,,,
,,,,,,,,,,,,,FF,,,,,,,,0.599,,,,,,,,,,,,,,,,,,,,,,6103514ec85d6a4d0c2f3375,6103650190107e826d31b1bd,2021-07-29_22h36.02.369,Simcolourproject_2stim_asymm_v5,2020.2.10,Win32,60,61025ae37ef11b136ea224fe,,,,,,,,,410,25,72,1,0,0,response1disk,,7,-6,4,1,0,0,rectangle,-6,4,1,0,0,-6,4,1,0,0,0,73,73,36,1,,,,,,,,
,,,,,,,,,,,,,FF,,,,,,,,1.033,,,,,,,,,,,,,,,,,,,,,,6103514ec85d6a4d0c2f3375,6103650190107e826d31b1bd,2021-07-29_22h36.02.369,Simcolourproject_2stim_asymm_v5,2020.2.10,Win32,60,61025ae37ef11b136ea224fe,,,,,,,,,2507,36,80,1,0,0,response1disk,,7,2,-1,1,0,0,rectangle,2,-1,1,0,0,2,-1,1,0,0,0,74,74,45,1,,,,,,,,
,,,,,,,,,,,,,FF,,,,,,,,0.65,,,,,,,,,,,,,,,,,,,,,,6103514ec85d6a4d0c2f3375,6103650190107e826d31b1bd,2021-07-29_22h36.02.369,Simcolourproject_2stim_asymm_v5,2020.2.10,Win32,60,61025ae37ef11b136ea224fe,,,,,,,,,835,33,74,1,0,0,response1disk,,7,-1,2,1,0,0,rectangle,-1,2,1,0,0,-1,2,1,0,0,0,75,75,54,1,,,,,,,,
,,,,,,,,,,,,,FF,,,,,,,,0.6,,,,,,,,,,,,,,,,,,,,,,6103514ec85d6a4d0c2f3375,6103650190107e826d31b1bd,2021-07-29_22h36.02.369,Simcolourproject_2stim_asymm_v5,2020.2.10,Win32,60,61025ae37ef11b136ea224fe,,,,,,,,,3576,37,64,1,0,0,response1disk,,7,10,-6,1,0,0,rectangle,10,-6,1,0,0,10,-6,1,0,0,0,76,76,10,1,,,,,,,,
,,,,,,,,,,,,,FF,,,,,,,,1.615,,,,,,,,,,,,,,,,,,,,,,6103514ec85d6a4d0c2f3375,6103650190107e826d31b1bd,2021-07-29_22h36.02.369,Simcolourproject_2stim_asymm_v5,2020.2.10,Win32,60,61025ae37ef11b136ea224fe,,,,,,,,,1431,110,30,1,0,0,response1disk,,6,5,-6,1,0,0,rectangle,5,-6,1,0,0,5,-6,1,0,0,0,77,77,82,1,,,,,,,,
,,,,,,,,,,,,,FF,,,,,,,,0.899,,,,,,,,,,,,,,,,,,,,,,6103514ec85d6a4d0c2f3375,6103650190107e826d31b1bd,2021-07-29_22h36.02.369,Simcolourproject_2stim_asymm_v5,2020.2.10,Win32,60,61025ae37ef11b136ea224fe,,,,,,,,,3982,35,82,1,0,0,response1disk,,7,-6,6,1,0,0,rectangle,-6,6,1,0,0,-6,6,1,0,0,0,78,78,24,1,,,,,,,,
,,,,,,,,,,,,,FF,,,,,,,,1.116,,,,,,,,,,,,,,,,,,,,,,6103514ec85d6a4d0c2f3375,6103650190107e826d31b1bd,2021-07-29_22h36.02.369,Simcolourproject_2stim_asymm_v5,2020.2.10,Win32,60,61025ae37ef11b136ea224fe,,,,,,,,,3752,44,90,1,0,0,response1disk,,7,-5,10,1,0,0,rectangle,-5,10,1,0,0,-5,10,1,0,0,0,79,79,159,1,,,,,,,,
,,,,,,,,,,,,,FF,,,,,,,,0.466,,,,,,,,,,,,,,,,,,,,,,6103514ec85d6a4d0c2f3375,6103650190107e826d31b1bd,2021-07-29_22h36.02.369,Simcolourproject_2stim_asymm_v5,2020.2.10,Win32,60,61025ae37ef11b136ea224fe,,,,,,,,,2253,31,66,1,0,0,response1disk,,7,-1,4,1,0,0,rectangle,-1,4,1,0,0,-1,4,1,0,0,0,80,80,129,1,,,,,,,,
,,,,,,,,,,,,,FF,,,,,,,,2.032,,,,,,,,,,,,,,,,,,,,,,6103514ec85d6a4d0c2f3375,6103650190107e826d31b1bd,2021-07-29_22h36.02.369,Simcolourproject_2stim_asymm_v5,2020.2.10,Win32,60,61025ae37ef11b136ea224fe,,,,,,,,,683,93,38,1,0,0,response1disk,,6,22,-10,1,0,0,rectangle,22,-10,1,0,0,22,-10,1,0,0,0,81,81,11,1,,,,,,,,
,,,,,,,,,,,,,FF,,,,,,,,0.7,,,,,,,,,,,,,,,,,,,,,,6103514ec85d6a4d0c2f3375,6103650190107e826d31b1bd,2021-07-29_22h36.02.369,Simcolourproject_2stim_asymm_v5,2020.2.10,Win32,60,61025ae37ef11b136ea224fe,,,,,,,,,2207,53,94,1,0,0,response1disk,,7,17,14,1,0,0,rectangle,-78,-36,1,0,0,-9,4,1,0,0,0,82,82,119,1,,response5disk_3,TRUE,2,2,"[87,303,258,121,39,46,174,95,95,291,88,186,83,265,304,140,253,175,117,191]",1.883,rectangle
,,,,,,,,,,,,,FF,,,,,,,,4.714,,,,,,,,,,,,,,,,,,,,,,6103514ec85d6a4d0c2f3375,6103650190107e826d31b1bd,2021-07-29_22h36.02.369,Simcolourproject_2stim_asymm_v5,2020.2.10,Win32,60,61025ae37ef11b136ea224fe,,,,,,,,,2043,56,92,1,0,0,response1disk,,7,2,5,1,0,0,rectangle,2,5,1,0,0,2,5,1,0,0,0,83,83,125,1,,,,,,,,
,,,,,,,,,,,,,FF,,,,,,,,1.45,,,,,,,,,,,,,,,,,,,,,,6103514ec85d6a4d0c2f3375,6103650190107e826d31b1bd,2021-07-29_22h36.02.369,Simcolourproject_2stim_asymm_v5,2020.2.10,Win32,60,61025ae37ef11b136ea224fe,,,,,,,,,3154,-42,-84,1,0,0,response5disk,,3,-1,12,1,0,0,rectangle,-1,12,1,0,0,-1,12,1,0,0,0,84,84,128,1,,,,,,,,
,,,,,,,,,,,,,FF,,,,,,,,1.716,,,,,,,,,,,,,,,,,,,,,,6103514ec85d6a4d0c2f3375,6103650190107e826d31b1bd,2021-07-29_22h36.02.369,Simcolourproject_2stim_asymm_v5,2020.2.10,Win32,60,61025ae37ef11b136ea224fe,,,,,,,,,3603,44,70,1,0,0,response1disk,,7,7,1,1,0,0,rectangle,7,1,1,0,0,7,1,1,0,0,0,85,85,147,1,,,,,,,,
,,,,,,,,,,,,,FF,,,,,,,,0.75,,,,,,,,,,,,,,,,,,,,,,6103514ec85d6a4d0c2f3375,6103650190107e826d31b1bd,2021-07-29_22h36.02.369,Simcolourproject_2stim_asymm_v5,2020.2.10,Win32,60,61025ae37ef11b136ea224fe,,,,,,,,,1237,33,102,1,0,0,response1disk,,7,-6,6,1,0,0,rectangle,-108,-42,1,0,0,-6,2,1,0,0,0,86,86,145,1,,response5disk_3,TRUE,2,2,"[87,303,258,121,39,46,174,95,95,291,88,186,83,265,304,140,253,175,117,191]",1.948,rectangle
,,,,,,,,,,,,,FF,,,,,,,,4.514,,,,,,,,,,,,,,,,,,,,,,6103514ec85d6a4d0c2f3375,6103650190107e826d31b1bd,2021-07-29_22h36.02.369,Simcolourproject_2stim_asymm_v5,2020.2.10,Win32,60,61025ae37ef11b136ea224fe,,,,,,,,,2529,62,85,1,0,0,response1disk,,7,22,6,1,0,0,rectangle,37,90,1,0,0,10,4,1,0,0,0,87,87,83,1,,response1disk_3,TRUE,7,7,"[87,303,258,121,39,46,174,95,95,291,88,186,83,265,304,140,253,175,117,191]",1.167,rectangle
,,,,,,,,,,,,,FF,,,,,,,,1.849,,,,,,,,,,,,,,,,,,,,,,6103514ec85d6a4d0c2f3375,6103650190107e826d31b1bd,2021-07-29_22h36.02.369,Simcolourproject_2stim_asymm_v5,2020.2.10,Win32,60,61025ae37ef11b136ea224fe,,,,,,,,,1689,97,38,1,0,0,response1disk,,6,31,0,1,0,0,rectangle,31,0,1,0,0,31,0,1,0,0,0,88,88,122,1,,,,,,,,
,,,,,,,,,,,,,FF,,,,,,,,1.832,,,,,,,,,,,,,,,,,,,,,,6103514ec85d6a4d0c2f3375,6103650190107e826d31b1bd,2021-07-29_22h36.02.369,Simcolourproject_2stim_asymm_v5,2020.2.10,Win32,60,61025ae37ef11b136ea224fe,,,,,,,,,71,106,34,1,0,0,response1disk,,6,30,-2,1,0,0,rectangle,30,-2,1,0,0,30,-2,1,0,0,0,89,89,141,1,,,,,,,,
,,,,,,,,,,,,,FF,,,,,,,,0.551,,,,,,,,,,,,,,,,,,,,,,6103514ec85d6a4d0c2f3375,6103650190107e826d31b1bd,2021-07-29_22h36.02.369,Simcolourproject_2stim_asymm_v5,2020.2.10,Win32,60,61025ae37ef11b136ea224fe,,,,,,,,,3177,49,58,1,0,0,response1disk,,7,10,-6,1,0,0,rectangle,10,-6,1,0,0,10,-6,1,0,0,0,90,90,20,1,,,,,,,,
,,,,,,,,,,,,,FF,,,,,,,,1.033,,,,,,,,,,,,,,,,,,,,,,6103514ec85d6a4d0c2f3375,6103650190107e826d31b1bd,2021-07-29_22h36.02.369,Simcolourproject_2stim_asymm_v5,2020.2.10,Win32,60,61025ae37ef11b136ea224fe,,,,,,,,,3847,91,45,1,0,0,response1disk,,6,22,-1,1,0,0,rectangle,22,-1,1,0,0,22,-1,1,0,0,0,91,91,9,1,,,,,,,,
,,,,,,,,,,,,,FF,,,,,,,,1.449,,,,,,,,,,,,,,,,,,,,,,6103514ec85d6a4d0c2f3375,6103650190107e826d31b1bd,2021-07-29_22h36.02.369,Simcolourproject_2stim_asymm_v5,2020.2.10,Win32,60,61025ae37ef11b136ea224fe,,,,,,,,,2735,28,69,1,0,0,response1disk,,7,5,6,1,0,0,rectangle,5,6,1,0,0,5,6,1,0,0,0,92,92,118,1,,,,,,,,
,,,,,,,,,,,,,FF,,,,,,,,1.698,,,,,,,,,,,,,,,,,,,,,,6103514ec85d6a4d0c2f3375,6103650190107e826d31b1bd,2021-07-29_22h36.02.369,Simcolourproject_2stim_asymm_v5,2020.2.10,Win32,60,61025ae37ef11b136ea224fe,,,,,,,,,3598,31,-84,1,0,0,response3disk,,4,2,1,1,0,0,rectangle,2,1,1,0,0,2,1,1,0,0,0,93,93,7,1,,,,,,,,
,,,,,,,,,,,,,FF,,,,,,,,2.032,,,,,,,,,,,,,,,,,,,,,,6103514ec85d6a4d0c2f3375,6103650190107e826d31b1bd,2021-07-29_22h36.02.369,Simcolourproject_2stim_asymm_v5,2020.2.10,Win32,60,61025ae37ef11b136ea224fe,,,,,,,,,3426,45,81,1,0,0,response1disk,,7,2,16,1,0,0,rectangle,-121,49,1,0,0,-18,10,1,0,0,0,94,94,126,1,,response7disk_3,TRUE,1,1,"[87,303,258,121,39,46,174,95,95,291,88,186,83,265,304,140,253,175,117,191]",1.582,rectangle
,,,,,,,,,,,,,FF,,,,,,,,3.281,,,,,,,,,,,,,,,,,,,,,,6103514ec85d6a4d0c2f3375,6103650190107e826d31b1bd,2021-07-29_22h36.02.369,Simcolourproject_2stim_asymm_v5,2020.2.10,Win32,60,61025ae37ef11b136ea224fe,,,,,,,,,4035,45,85,1,0,0,response1disk,,7,18,6,1,0,0,rectangle,18,6,1,0,0,18,6,1,0,0,0,95,95,70,1,,,,,,,,
,,,,,,,,,,,,,FF,,,,,,,,1.267,,,,,,,,,,,,,,,,,,,,,,6103514ec85d6a4d0c2f3375,6103650190107e826d31b1bd,2021-07-29_22h36.02.369,Simcolourproject_2stim_asymm_v5,2020.2.10,Win32,60,61025ae37ef11b136ea224fe,,,,,,,,,3719,29,73,1,0,0,response1disk,,7,14,7,1,0,0,rectangle,14,7,1,0,0,14,7,1,0,0,0,96,96,6,1,,,,,,,,
,,,,,,,,,,,,,FF,,,,,,,,0.517,,,,,,,,,,,,,,,,,,,,,,6103514ec85d6a4d0c2f3375,6103650190107e826d31b1bd,2021-07-29_22h36.02.369,Simcolourproject_2stim_asymm_v5,2020.2.10,Win32,60,61025ae37ef11b136ea224fe,,,,,,,,,1171,23,77,1,0,0,response1disk,,7,-2,6,1,0,0,rectangle,-2,6,1,0,0,-2,6,1,0,0,0,97,97,41,1,,,,,,,,
,,,,,,,,,,,,,FF,,,,,,,,0.533,,,,,,,,,,,,,,,,,,,,,,6103514ec85d6a4d0c2f3375,6103650190107e826d31b1bd,2021-07-29_22h36.02.369,Simcolourproject_2stim_asymm_v5,2020.2.10,Win32,60,61025ae37ef11b136ea224fe,,,,,,,,,1880,36,76,1,0,0,response1disk,,7,5,4,1,0,0,rectangle,5,4,1,0,0,5,4,1,0,0,0,98,98,72,1,,,,,,,,
,,,,,,,,,,,,,FF,,,,,,,,0.866,,,,,,,,,,,,,,,,,,,,,,6103514ec85d6a4d0c2f3375,6103650190107e826d31b1bd,2021-07-29_22h36.02.369,Simcolourproject_2stim_asymm_v5,2020.2.10,Win32,60,61025ae37ef11b136ea224fe,,,,,,,,,2484,37,74,1,0,0,response1disk,,7,6,-9,1,0,0,rectangle,6,-9,1,0,0,6,-9,1,0,0,0,99,99,144,1,,,,,,,,
,,,,,,,,,,,,,FF,,,,,,,,0.5,,,,,,,,,,,,,,,,,,,,,,6103514ec85d6a4d0c2f3375,6103650190107e826d31b1bd,2021-07-29_22h36.02.369,Simcolourproject_2stim_asymm_v5,2020.2.10,Win32,60,61025ae37ef11b136ea224fe,,,,,,,,,2500,28,70,1,0,0,response1disk,,7,-14,6,1,0,0,rectangle,-14,6,1,0,0,-14,6,1,0,0,0,100,100,61,1,,,,,,,,
,,,,,,,,,,,,,FF,,,,,,,,1.632,,,,,,,,,,,,,,,,,,,,,,6103514ec85d6a4d0c2f3375,6103650190107e826d31b1bd,2021-07-29_22h36.02.369,Simcolourproject_2stim_asymm_v5,2020.2.10,Win32,60,61025ae37ef11b136ea224fe,,,,,,,,,1682,30,-84,1,0,0,response3disk,,4,7,-10,1,0,0,rectangle,7,-10,1,0,0,7,-10,1,0,0,0,101,101,44,1,,,,,,,,
,,,,,,,,,,,,,FF,,,,,,,,1.15,,,,,,,,,,,,,,,,,,,,,,6103514ec85d6a4d0c2f3375,6103650190107e826d31b1bd,2021-07-29_22h36.02.369,Simcolourproject_2stim_asymm_v5,2020.2.10,Win32,60,61025ae37ef11b136ea224fe,,,,,,,,,1708,38,76,1,0,0,response1disk,,7,14,10,1,0,0,rectangle,14,10,1,0,0,14,10,1,0,0,0,102,102,86,1,,,,,,,,
,,,,,,,,,,,,,FF,,,,,,,,0.566,,,,,,,,,,,,,,,,,,,,,,6103514ec85d6a4d0c2f3375,6103650190107e826d31b1bd,2021-07-29_22h36.02.369,Simcolourproject_2stim_asymm_v5,2020.2.10,Win32,60,61025ae37ef11b136ea224fe,,,,,,,,,3485,22,74,1,0,0,response1disk,,7,-7,0,1,0,0,rectangle,-7,0,1,0,0,-7,0,1,0,0,0,103,103,26,1,,,,,,,,
,,,,,,,,,,,,,FF,,,,,,,,1.149,,,,,,,,,,,,,,,,,,,,,,6103514ec85d6a4d0c2f3375,6103650190107e826d31b1bd,2021-07-29_22h36.02.369,Simcolourproject_2stim_asymm_v5,2020.2.10,Win32,60,61025ae37ef11b136ea224fe,,,,,,,,,2941,-82,26,1,0,0,response7disk,,1,2,-8,1,0,0,rectangle,2,-8,1,0,0,2,-8,1,0,0,0,104,104,149,1,,,,,,,,
,,,,,,,,,,,,,FF,,,,,,,,0.983,,,,,,,,,,,,,,,,,,,,,,6103514ec85d6a4d0c2f3375,6103650190107e826d31b1bd,2021-07-29_22h36.02.369,Simcolourproject_2stim_asymm_v5,2020.2.10,Win32,60,61025ae37ef11b136ea224fe,,,,,,,,,1643,23,76,1,0,0,response1disk,,7,1,6,1,0,0,rectangle,1,6,1,0,0,1,6,1,0,0,0,105,105,154,1,,,,,,,,
,,,,,,,,,,,,,FF,,,,,,,,0.815,,,,,,,,,,,,,,,,,,,,,,6103514ec85d6a4d0c2f3375,6103650190107e826d31b1bd,2021-07-29_22h36.02.369,Simcolourproject_2stim_asymm_v5,2020.2.10,Win32,60,61025ae37ef11b136ea224fe,,,,,,,,,1092,29,82,1,0,0,response1disk,,7,6,-2,1,0,0,rectangle,6,-2,1,0,0,6,-2,1,0,0,0,106,106,50,1,,,,,,,,
,,,,,,,,,,,,,FF,,,,,,,,1.45,,,,,,,,,,,,,,,,,,,,,,6103514ec85d6a4d0c2f3375,6103650190107e826d31b1bd,2021-07-29_22h36.02.369,Simcolourproject_2stim_asymm_v5,2020.2.10,Win32,60,61025ae37ef11b136ea224fe,,,,,,,,,1464,29,74,1,0,0,response1disk,,7,6,-4,1,0,0,rectangle,6,-4,1,0,0,6,-4,1,0,0,0,107,107,75,1,,,,,,,,
,,,,,,,,,,,,,FF,,,,,,,,0.882,,,,,,,,,,,,,,,,,,,,,,6103514ec85d6a4d0c2f3375,6103650190107e826d31b1bd,2021-07-29_22h36.02.369,Simcolourproject_2stim_asymm_v5,2020.2.10,Win32,60,61025ae37ef11b136ea224fe,,,,,,,,,1357,30,65,1,0,0,response1disk,,7,7,7,1,0,0,rectangle,7,7,1,0,0,7,7,1,0,0,0,108,108,131,1,,,,,,,,
,,,,,,,,,,,,,FF,,,,,,,,1.016,,,,,,,,,,,,,,,,,,,,,,6103514ec85d6a4d0c2f3375,6103650190107e826d31b1bd,2021-07-29_22h36.02.369,Simcolourproject_2stim_asymm_v5,2020.2.10,Win32,60,61025ae37ef11b136ea224fe,,,,,,,,,4252,-102,-18,1,0,0,response5disk,,2,-4,2,1,0,0,rectangle,-4,2,1,0,0,-4,2,1,0,0,0,109,109,114,1,,,,,,,,
,,,,,,,,,,,,,FF,,,,,,,,0.783,,,,,,,,,,,,,,,,,,,,,,6103514ec85d6a4d0c2f3375,6103650190107e826d31b1bd,2021-07-29_22h36.02.369,Simcolourproject_2stim_asymm_v5,2020.2.10,Win32,60,61025ae37ef11b136ea224fe,,,,,,,,,2198,40,72,1,0,0,response1disk,,7,10,0,1,0,0,rectangle,10,0,1,0,0,10,0,1,0,0,0,110,110,89,1,,,,,,,,
,,,,,,,,,,,,,FF,,,,,,,,0.433,,,,,,,,,,,,,,,,,,,,,,6103514ec85d6a4d0c2f3375,6103650190107e826d31b1bd,2021-07-29_22h36.02.369,Simcolourproject_2stim_asymm_v5,2020.2.10,Win32,60,61025ae37ef11b136ea224fe,,,,,,,,,1279,29,73,1,0,0,response1disk,,7,2,-2,1,0,0,rectangle,2,-2,1,0,0,2,-2,1,0,0,0,111,111,138,1,,,,,,,,
,,,,,,,,,,,,,FF,,,,,,,,0.484,,,,,,,,,,,,,,,,,,,,,,6103514ec85d6a4d0c2f3375,6103650190107e826d31b1bd,2021-07-29_22h36.02.369,Simcolourproject_2stim_asymm_v5,2020.2.10,Win32,60,61025ae37ef11b136ea224fe,,,,,,,,,4261,32,66,1,0,0,response1disk,,7,2,0,1,0,0,rectangle,2,0,1,0,0,2,0,1,0,0,0,112,112,140,1,,,,,,,,
,,,,,,,,,,,,,FF,,,,,,,,0.9,,,,,,,,,,,,,,,,,,,,,,6103514ec85d6a4d0c2f3375,6103650190107e826d31b1bd,2021-07-29_22h36.02.369,Simcolourproject_2stim_asymm_v5,2020.2.10,Win32,60,61025ae37ef11b136ea224fe,,,,,,,,,2188,104,46,1,0,0,response1disk,,6,18,2,1,0,0,rectangle,18,2,1,0,0,18,2,1,0,0,0,113,113,93,1,,,,,,,,
,,,,,,,,,,,,,FF,,,,,,,,0.634,,,,,,,,,,,,,,,,,,,,,,6103514ec85d6a4d0c2f3375,6103650190107e826d31b1bd,2021-07-29_22h36.02.369,Simcolourproject_2stim_asymm_v5,2020.2.10,Win32,60,61025ae37ef11b136ea224fe,,,,,,,,,340,41,66,1,0,0,response1disk,,7,-1,-1,1,0,0,rectangle,-1,-1,1,0,0,-1,-1,1,0,0,0,114,114,12,1,,,,,,,,
,,,,,,,,,,,,,FF,,,,,,,,0.899,,,,,,,,,,,,,,,,,,,,,,6103514ec85d6a4d0c2f3375,6103650190107e826d31b1bd,2021-07-29_22h36.02.369,Simcolourproject_2stim_asymm_v5,2020.2.10,Win32,60,61025ae37ef11b136ea224fe,,,,,,,,,1095,31,68,1,0,0,response1disk,,7,1,-2,1,0,0,rectangle,1,-2,1,0,0,1,-2,1,0,0,0,115,115,42,1,,,,,,,,
,,,,,,,,,,,,,FF,,,,,,,,1.316,,,,,,,,,,,,,,,,,,,,,,6103514ec85d6a4d0c2f3375,6103650190107e826d31b1bd,2021-07-29_22h36.02.369,Simcolourproject_2stim_asymm_v5,2020.2.10,Win32,60,61025ae37ef11b136ea224fe,,,,,,,,,3392,89,-26,1,0,0,response3disk,,5,18,0,1,0,0,rectangle,106,-36,1,0,0,-9,10,1,0,0,0,116,116,39,1,,response3disk_3,TRUE,5,5,"[87,303,258,121,39,46,174,95,95,291,88,186,83,265,304,140,253,175,117,191]",1.766,rectangle
,,,,,,,,,,,,,FF,,,,,,,,1.716,,,,,,,,,,,,,,,,,,,,,,6103514ec85d6a4d0c2f3375,6103650190107e826d31b1bd,2021-07-29_22h36.02.369,Simcolourproject_2stim_asymm_v5,2020.2.10,Win32,60,61025ae37ef11b136ea224fe,,,,,,,,,100,71,34,1,0,0,response1disk,,6,-14,2,1,0,0,rectangle,-14,2,1,0,0,-14,2,1,0,0,0,117,117,101,1,,,,,,,,
,,,,,,,,,,,,,FF,,,,,,,,0.499,,,,,,,,,,,,,,,,,,,,,,6103514ec85d6a4d0c2f3375,6103650190107e826d31b1bd,2021-07-29_22h36.02.369,Simcolourproject_2stim_asymm_v5,2020.2.10,Win32,60,61025ae37ef11b136ea224fe,,,,,,,,,2148,31,70,1,0,0,response1disk,,7,2,4,1,0,0,rectangle,2,4,1,0,0,2,4,1,0,0,0,118,118,132,1,,,,,,,,
,,,,,,,,,,,,,FF,,,,,,,,0.45,,,,,,,,,,,,,,,,,,,,,,6103514ec85d6a4d0c2f3375,6103650190107e826d31b1bd,2021-07-29_22h36.02.369,Simcolourproject_2stim_asymm_v5,2020.2.10,Win32,60,61025ae37ef11b136ea224fe,,,,,,,,,1724,23,74,1,0,0,response1disk,,7,1,10,1,0,0,rectangle,1,10,1,0,0,1,10,1,0,0,0,119,119,91,1,,,,,,,,
,,,,,,,,,,,,,FF,,,,,,,,0.466,,,,,,,,,,,,,,,,,,,,,,6103514ec85d6a4d0c2f3375,6103650190107e826d31b1bd,2021-07-29_22h36.02.369,Simcolourproject_2stim_asymm_v5,2020.2.10,Win32,60,61025ae37ef11b136ea224fe,,,,,,,,,2531,25,65,1,0,0,response1disk,,7,6,11,1,0,0,rectangle,24,85,1,0,0,6,8,1,0,0,0,120,120,1,1,,response1disk_3,TRUE,7,7,"[87,303,258,121,39,46,174,95,95,291,88,186,83,265,304,140,253,175,117,191]",1.183,rectangle
,,,,,,,,,,,,,FF,,,,,,,,1.3,,,,,,,,,,,,,,,,,,,,,,6103514ec85d6a4d0c2f3375,6103650190107e826d31b1bd,2021-07-29_22h36.02.369,Simcolourproject_2stim_asymm_v5,2020.2.10,Win32,60,61025ae37ef11b136ea224fe,,,,,,,,,2340,27,74,1,0,0,response1disk,,7,2,0,1,0,0,rectangle,2,0,1,0,0,2,0,1,0,0,0,121,121,135,1,,,,,,,,
,,,,,,,,,,,,,FF,,,,,,,,0.434,,,,,,,,,,,,,,,,,,,,,,6103514ec85d6a4d0c2f3375,6103650190107e826d31b1bd,2021-07-29_22h36.02.369,Simcolourproject_2stim_asymm_v5,2020.2.10,Win32,60,61025ae37ef11b136ea224fe,,,,,,,,,756,30,70,1,0,0,response1disk,,7,2,-12,1,0,0,rectangle,2,-12,1,0,0,2,-12,1,0,0,0,122,122,106,1,,,,,,,,
,,,,,,,,,,,,,FF,,,,,,,,0.483,,,,,,,,,,,,,,,,,,,,,,6103514ec85d6a4d0c2f3375,6103650190107e826d31b1bd,2021-07-29_22h36.02.369,Simcolourproject_2stim_asymm_v5,2020.2.10,Win32,60,61025ae37ef11b136ea224fe,,,,,,,,,1812,35,61,1,0,0,response1disk,,7,6,10,1,0,0,rectangle,6,10,1,0,0,6,10,1,0,0,0,123,123,65,1,,,,,,,,
,,,,,,,,,,,,,FF,,,,,,,,0.434,,,,,,,,,,,,,,,,,,,,,,6103514ec85d6a4d0c2f3375,6103650190107e826d31b1bd,2021-07-29_22h36.02.369,Simcolourproject_2stim_asymm_v5,2020.2.10,Win32,60,61025ae37ef11b136ea224fe,,,,,,,,,1359,26,65,1,0,0,response1disk,,7,6,2,1,0,0,rectangle,6,2,1,0,0,6,2,1,0,0,0,124,124,14,1,,,,,,,,
,,,,,,,,,,,,,FF,,,,,,,,0.466,,,,,,,,,,,,,,,,,,,,,,6103514ec85d6a4d0c2f3375,6103650190107e826d31b1bd,2021-07-29_22h36.02.369,Simcolourproject_2stim_asymm_v5,2020.2.10,Win32,60,61025ae37ef11b136ea224fe,,,,,,,,,1679,27,73,1,0,0,response1disk,,7,-5,14,1,0,0,rectangle,-5,14,1,0,0,-5,14,1,0,0,0,125,125,121,1,,,,,,,,
,,,,,,,,,,,,,FF,,,,,,,,0.417,,,,,,,,,,,,,,,,,,,,,,6103514ec85d6a4d0c2f3375,6103650190107e826d31b1bd,2021-07-29_22h36.02.369,Simcolourproject_2stim_asymm_v5,2020.2.10,Win32,60,61025ae37ef11b136ea224fe,,,,,,,,,679,33,84,1,0,0,response1disk,,7,2,2,1,0,0,rectangle,2,2,1,0,0,2,2,1,0,0,0,126,126,56,1,,,,,,,,
,,,,,,,,,,,,,FF,,,,,,,,2.166,,,,,,,,,,,,,,,,,,,,,,6103514ec85d6a4d0c2f3375,6103650190107e826d31b1bd,2021-07-29_22h36.02.369,Simcolourproject_2stim_asymm_v5,2020.2.10,Win32,60,61025ae37ef11b136ea224fe,,,,,,,,,2668,78,-55,1,0,0,response3disk,,5,-1,6,1,0,0,rectangle,-1,6,1,0,0,-1,6,1,0,0,0,127,127,38,1,,,,,,,,
,,,,,,,,,,,,,FF,,,,,,,,1.215,,,,,,,,,,,,,,,,,,,,,,6103514ec85d6a4d0c2f3375,6103650190107e826d31b1bd,2021-07-29_22h36.02.369,Simcolourproject_2stim_asymm_v5,2020.2.10,Win32,60,61025ae37ef11b136ea224fe,,,,,,,,,3715,42,90,1,0,0,response1disk,,7,6,-14,1,0,0,rectangle,6,-14,1,0,0,6,-14,1,0,0,0,128,128,48,1,,,,,,,,
,,,,,,,,,,,,,FF,,,,,,,,0.449,,,,,,,,,,,,,,,,,,,,,,6103514ec85d6a4d0c2f3375,6103650190107e826d31b1bd,2021-07-29_22h36.02.369,Simcolourproject_2stim_asymm_v5,2020.2.10,Win32,60,61025ae37ef11b136ea224fe,,,,,,,,,3393,22,70,1,0,0,response1disk,,7,9,6,1,0,0,rectangle,9,6,1,0,0,9,6,1,0,0,0,129,129,67,1,,,,,,,,
,,,,,,,,,,,,,FF,,,,,,,,0.384,,,,,,,,,,,,,,,,,,,,,,6103514ec85d6a4d0c2f3375,6103650190107e826d31b1bd,2021-07-29_22h36.02.369,Simcolourproject_2stim_asymm_v5,2020.2.10,Win32,60,61025ae37ef11b136ea224fe,,,,,,,,,1123,24,58,1,0,0,response1disk,,7,7,10,1,0,0,rectangle,7,10,1,0,0,7,10,1,0,0,0,130,130,97,1,,,,,,,,
,,,,,,,,,,,,,FF,,,,,,,,0.35,,,,,,,,,,,,,,,,,,,,,,6103514ec85d6a4d0c2f3375,6103650190107e826d31b1bd,2021-07-29_22h36.02.369,Simcolourproject_2stim_asymm_v5,2020.2.10,Win32,60,61025ae37ef11b136ea224fe,,,,,,,,,2045,30,62,1,0,0,response1disk,,7,2,6,1,0,0,rectangle,2,6,1,0,0,2,6,1,0,0,0,131,131,139,1,,,,,,,,
,,,,,,,,,,,,,FF,,,,,,,,1.765,,,,,,,,,,,,,,,,,,,,,,6103514ec85d6a4d0c2f3375,6103650190107e826d31b1bd,2021-07-29_22h36.02.369,Simcolourproject_2stim_asymm_v5,2020.2.10,Win32,60,61025ae37ef11b136ea224fe,,,,,,,,,81,92,40,1,0,0,response1disk,,6,10,3,1,0,0,rectangle,10,3,1,0,0,10,3,1,0,0,0,132,132,158,1,,,,,,,,
,,,,,,,,,,,,,FF,,,,,,,,0.45,,,,,,,,,,,,,,,,,,,,,,6103514ec85d6a4d0c2f3375,6103650190107e826d31b1bd,2021-07-29_22h36.02.369,Simcolourproject_2stim_asymm_v5,2020.2.10,Win32,60,61025ae37ef11b136ea224fe,,,,,,,,,558,25,81,1,0,0,response1disk,,7,-2,-2,1,0,0,rectangle,-2,-2,1,0,0,-2,-2,1,0,0,0,133,133,152,1,,,,,,,,
,,,,,,,,,,,,,FF,,,,,,,,0.4,,,,,,,,,,,,,,,,,,,,,,6103514ec85d6a4d0c2f3375,6103650190107e826d31b1bd,2021-07-29_22h36.02.369,Simcolourproject_2stim_asymm_v5,2020.2.10,Win32,60,61025ae37ef11b136ea224fe,,,,,,,,,1783,36,60,1,0,0,response1disk,,7,10,0,1,0,0,rectangle,10,0,1,0,0,10,0,1,0,0,0,134,134,146,1,,,,,,,,
,,,,,,,,,,,,,FF,,,,,,,,2.848,,,,,,,,,,,,,,,,,,,,,,6103514ec85d6a4d0c2f3375,6103650190107e826d31b1bd,2021-07-29_22h36.02.369,Simcolourproject_2stim_asymm_v5,2020.2.10,Win32,60,61025ae37ef11b136ea224fe,,,,,,,,,1304,30,-90,1,0,0,response3disk,,4,-5,-5,1,0,0,rectangle,-5,-5,1,0,0,-5,-5,1,0,0,0,135,135,58,1,,,,,,,,
,,,,,,,,,,,,,FF,,,,,,,,0.55,,,,,,,,,,,,,,,,,,,,,,6103514ec85d6a4d0c2f3375,6103650190107e826d31b1bd,2021-07-29_22h36.02.369,Simcolourproject_2stim_asymm_v5,2020.2.10,Win32,60,61025ae37ef11b136ea224fe,,,,,,,,,34,26,70,1,0,0,response1disk,,7,1,4,1,0,0,rectangle,1,4,1,0,0,1,4,1,0,0,0,136,136,69,1,,,,,,,,
,,,,,,,,,,,,,FF,,,,,,,,0.416,,,,,,,,,,,,,,,,,,,,,,6103514ec85d6a4d0c2f3375,6103650190107e826d31b1bd,2021-07-29_22h36.02.369,Simcolourproject_2stim_asymm_v5,2020.2.10,Win32,60,61025ae37ef11b136ea224fe,,,,,,,,,2918,23,62,1,0,0,response1disk,,7,-2,3,1,0,0,rectangle,-2,3,1,0,0,-2,3,1,0,0,0,137,137,22,1,,,,,,,,
,,,,,,,,,,,,,FF,,,,,,,,0.417,,,,,,,,,,,,,,,,,,,,,,6103514ec85d6a4d0c2f3375,6103650190107e826d31b1bd,2021-07-29_22h36.02.369,Simcolourproject_2stim_asymm_v5,2020.2.10,Win32,60,61025ae37ef11b136ea224fe,,,,,,,,,3762,24,61,1,0,0,response1disk,,7,6,11,1,0,0,rectangle,6,11,1,0,0,6,11,1,0,0,0,138,138,134,1,,,,,,,,
,,,,,,,,,,,,,FF,,,,,,,,0.45,,,,,,,,,,,,,,,,,,,,,,6103514ec85d6a4d0c2f3375,6103650190107e826d31b1bd,2021-07-29_22h36.02.369,Simcolourproject_2stim_asymm_v5,2020.2.10,Win32,60,61025ae37ef11b136ea224fe,,,,,,,,,3854,28,64,1,0,0,response1disk,,7,11,8,1,0,0,rectangle,-52,106,1,0,0,-18,2,1,0,0,0,139,139,151,1,,response7disk_3,TRUE,0,0,"[87,303,258,121,39,46,174,95,95,291,88,186,83,265,304,140,253,175,117,191]",1.465,rectangle
,,,,,,,,,,,,,FF,,,,,,,,0.467,,,,,,,,,,,,,,,,,,,,,,6103514ec85d6a4d0c2f3375,6103650190107e826d31b1bd,2021-07-29_22h36.02.369,Simcolourproject_2stim_asymm_v5,2020.2.10,Win32,60,61025ae37ef11b136ea224fe,,,,,,,,,2348,41,65,1,0,0,response1disk,,7,23,0,1,0,0,rectangle,23,0,1,0,0,23,0,1,0,0,0,140,140,43,1,,,,,,,,
,,,,,,,,,,,,,FF,,,,,,,,0.433,,,,,,,,,,,,,,,,,,,,,,6103514ec85d6a4d0c2f3375,6103650190107e826d31b1bd,2021-07-29_22h36.02.369,Simcolourproject_2stim_asymm_v5,2020.2.10,Win32,60,61025ae37ef11b136ea224fe,,,,,,,,,4212,31,81,1,0,0,response1disk,,7,3,12,1,0,0,rectangle,3,12,1,0,0,3,12,1,0,0,0,141,141,143,1,,,,,,,,
,,,,,,,,,,,,,FF,,,,,,,,1.333,,,,,,,,,,,,,,,,,,,,,,6103514ec85d6a4d0c2f3375,6103650190107e826d31b1bd,2021-07-29_22h36.02.369,Simcolourproject_2stim_asymm_v5,2020.2.10,Win32,60,61025ae37ef11b136ea224fe,,,,,,,,,1684,-74,-52,1,0,0,response5disk,,2,-10,17,1,0,0,rectangle,-10,17,1,0,0,-10,17,1,0,0,0,142,142,124,1,,,,,,,,
,,,,,,,,,,,,,FF,,,,,,,,0.5,,,,,,,,,,,,,,,,,,,,,,6103514ec85d6a4d0c2f3375,6103650190107e826d31b1bd,2021-07-29_22h36.02.369,Simcolourproject_2stim_asymm_v5,2020.2.10,Win32,60,61025ae37ef11b136ea224fe,,,,,,,,,2370,35,74,1,0,0,response1disk,,7,18,-6,1,0,0,rectangle,18,-6,1,0,0,18,-6,1,0,0,0,143,143,136,1,,,,,,,,
,,,,,,,,,,,,,FF,,,,,,,,0.366,,,,,,,,,,,,,,,,,,,,,,6103514ec85d6a4d0c2f3375,6103650190107e826d31b1bd,2021-07-29_22h36.02.369,Simcolourproject_2stim_asymm_v5,2020.2.10,Win32,60,61025ae37ef11b136ea224fe,,,,,,,,,2412,30,60,1,0,0,response1disk,,7,6,2,1,0,0,rectangle,6,2,1,0,0,6,2,1,0,0,0,144,144,84,1,,,,,,,,
,,,,,,,,,,,,,FF,,,,,,,,0.417,,,,,,,,,,,,,,,,,,,,,,6103514ec85d6a4d0c2f3375,6103650190107e826d31b1bd,2021-07-29_22h36.02.369,Simcolourproject_2stim_asymm_v5,2020.2.10,Win32,60,61025ae37ef11b136ea224fe,,,,,,,,,143,33,68,1,0,0,response1disk,,7,6,8,1,0,0,rectangle,6,8,1,0,0,6,8,1,0,0,0,145,145,55,1,,,,,,,,
,,,,,,,,,,,,,FF,,,,,,,,0.533,,,,,,,,,,,,,,,,,,,,,,6103514ec85d6a4d0c2f3375,6103650190107e826d31b1bd,2021-07-29_22h36.02.369,Simcolourproject_2stim_asymm_v5,2020.2.10,Win32,60,61025ae37ef11b136ea224fe,,,,,,,,,2540,31,68,1,0,0,response1disk,,7,-1,2,1,0,0,rectangle,-1,2,1,0,0,-1,2,1,0,0,0,146,146,68,1,,,,,,,,
,,,,,,,,,,,,,FF,,,,,,,,1.966,,,,,,,,,,,,,,,,,,,,,,6103514ec85d6a4d0c2f3375,6103650190107e826d31b1bd,2021-07-29_22h36.02.369,Simcolourproject_2stim_asymm_v5,2020.2.10,Win32,60,61025ae37ef11b136ea224fe,,,,,,,,,3504,31,65,1,0,0,response1disk,,7,6,14,1,0,0,rectangle,6,14,1,0,0,6,14,1,0,0,0,147,147,108,1,,,,,,,,
,,,,,,,,,,,,,FF,,,,,,,,0.383,,,,,,,,,,,,,,,,,,,,,,6103514ec85d6a4d0c2f3375,6103650190107e826d31b1bd,2021-07-29_22h36.02.369,Simcolourproject_2stim_asymm_v5,2020.2.10,Win32,60,61025ae37ef11b136ea224fe,,,,,,,,,4089,29,70,1,0,0,response1disk,,7,5,2,1,0,0,rectangle,5,2,1,0,0,5,2,1,0,0,0,148,148,3,1,,,,,,,,
,,,,,,,,,,,,,FF,,,,,,,,0.35,,,,,,,,,,,,,,,,,,,,,,6103514ec85d6a4d0c2f3375,6103650190107e826d31b1bd,2021-07-29_22h36.02.369,Simcolourproject_2stim_asymm_v5,2020.2.10,Win32,60,61025ae37ef11b136ea224fe,,,,,,,,,3076,25,60,1,0,0,response1disk,,7,-2,2,1,0,0,rectangle,-2,2,1,0,0,-2,2,1,0,0,0,149,149,142,1,,,,,,,,
,,,,,,,,,,,,,FF,,,,,,,,0.416,,,,,,,,,,,,,,,,,,,,,,6103514ec85d6a4d0c2f3375,6103650190107e826d31b1bd,2021-07-29_22h36.02.369,Simcolourproject_2stim_asymm_v5,2020.2.10,Win32,60,61025ae37ef11b136ea224fe,,,,,,,,,3924,25,64,1,0,0,response1disk,,7,-10,11,1,0,0,rectangle,-10,11,1,0,0,-10,11,1,0,0,0,150,150,95,1,,,,,,,,
,,,,,,,,,,,,,FF,,,,,,,,0.366,,,,,,,,,,,,,,,,,,,,,,6103514ec85d6a4d0c2f3375,6103650190107e826d31b1bd,2021-07-29_22h36.02.369,Simcolourproject_2stim_asymm_v5,2020.2.10,Win32,60,61025ae37ef11b136ea224fe,,,,,,,,,4117,34,72,1,0,0,response1disk,,7,6,10,1,0,0,rectangle,6,10,1,0,0,6,10,1,0,0,0,151,151,116,1,,,,,,,,
,,,,,,,,,,,,,FF,,,,,,,,0.416,,,,,,,,,,,,,,,,,,,,,,6103514ec85d6a4d0c2f3375,6103650190107e826d31b1bd,2021-07-29_22h36.02.369,Simcolourproject_2stim_asymm_v5,2020.2.10,Win32,60,61025ae37ef11b136ea224fe,,,,,,,,,3601,29,70,1,0,0,response1disk,,7,5,7,1,0,0,rectangle,5,7,1,0,0,5,7,1,0,0,0,152,152,123,1,,,,,,,,
,,,,,,,,,,,,,FF,,,,,,,,0.384,,,,,,,,,,,,,,,,,,,,,,6103514ec85d6a4d0c2f3375,6103650190107e826d31b1bd,2021-07-29_22h36.02.369,Simcolourproject_2stim_asymm_v5,2020.2.10,Win32,60,61025ae37ef11b136ea224fe,,,,,,,,,3608,40,66,1,0,0,response1disk,,7,10,7,1,0,0,rectangle,10,7,1,0,0,10,7,1,0,0,0,153,153,103,1,,,,,,,,
,,,,,,,,,,,,,FF,,,,,,,,0.317,,,,,,,,,,,,,,,,,,,,,,6103514ec85d6a4d0c2f3375,6103650190107e826d31b1bd,2021-07-29_22h36.02.369,Simcolourproject_2stim_asymm_v5,2020.2.10,Win32,60,61025ae37ef11b136ea224fe,,,,,,,,,4323,48,68,1,0,0,response1disk,,7,2,3,1,0,0,rectangle,2,3,1,0,0,2,3,1,0,0,0,154,154,111,1,,,,,,,,
,,,,,,,,,,,,,FF,,,,,,,,0.316,,,,,,,,,,,,,,,,,,,,,,6103514ec85d6a4d0c2f3375,6103650190107e826d31b1bd,2021-07-29_22h36.02.369,Simcolourproject_2stim_asymm_v5,2020.2.10,Win32,60,61025ae37ef11b136ea224fe,,,,,,,,,75,49,66,1,0,0,response1disk,,7,-6,2,1,0,0,rectangle,-6,2,1,0,0,-6,2,1,0,0,0,155,155,133,1,,,,,,,,
,,,,,,,,,,,,,FF,,,,,,,,0.35,,,,,,,,,,,,,,,,,,,,,,6103514ec85d6a4d0c2f3375,6103650190107e826d31b1bd,2021-07-29_22h36.02.369,Simcolourproject_2stim_asymm_v5,2020.2.10,Win32,60,61025ae37ef11b136ea224fe,,,,,,,,,125,31,64,1,0,0,response1disk,,7,7,4,1,0,0,rectangle,7,4,1,0,0,7,4,1,0,0,0,156,156,5,1,,,,,,,,
,,,,,,,,,,,,,FF,,,,,,,,0.333,,,,,,,,,,,,,,,,,,,,,,6103514ec85d6a4d0c2f3375,6103650190107e826d31b1bd,2021-07-29_22h36.02.369,Simcolourproject_2stim_asymm_v5,2020.2.10,Win32,60,61025ae37ef11b136ea224fe,,,,,,,,,3367,27,60,1,0,0,response1disk,,7,6,11,1,0,0,rectangle,6,11,1,0,0,6,11,1,0,0,0,157,157,148,1,,,,,,,,
,,,,,,,,,,,,,FF,,,,,,,,0.482,,,,,,,,,,,,,,,,,,,,,,6103514ec85d6a4d0c2f3375,6103650190107e826d31b1bd,2021-07-29_22h36.02.369,Simcolourproject_2stim_asymm_v5,2020.2.10,Win32,60,61025ae37ef11b136ea224fe,,,,,,,,,1767,30,69,1,0,0,response1disk,,7,2,10,1,0,0,rectangle,2,10,1,0,0,2,10,1,0,0,0,158,158,57,1,,,,,,,,
,,,,,,,,,,,,,FF,,,,,,,,0.35,,,,,,,,,,,,,,,,,,,,,,6103514ec85d6a4d0c2f3375,6103650190107e826d31b1bd,2021-07-29_22h36.02.369,Simcolourproject_2stim_asymm_v5,2020.2.10,Win32,60,61025ae37ef11b136ea224fe,,,,,,,,,1128,36,65,1,0,0,response1disk,,7,5,8,1,0,0,rectangle,5,8,1,0,0,5,8,1,0,0,0,159,159,32,1,,,,,,,,
,,,,,,,,,,,,,FF,,,,,,,,0.466,,,,,,,,,,,,,,,,,,,,,,6103514ec85d6a4d0c2f3375,6103650190107e826d31b1bd,2021-07-29_22h36.02.369,Simcolourproject_2stim_asymm_v5,2020.2.10,Win32,60,61025ae37ef11b136ea224fe,,,,,,,,,2155,34,68,1,0,0,response1disk,,7,5,10,1,0,0,rectangle,5,10,1,0,0,5,10,1,0,0,1,0,160,112,1,,,,,,,,
,,,,,,,,,,,,,FF,,,,,,,,1.383,,,,,,,,,,,,,,,,,,,,,,6103514ec85d6a4d0c2f3375,6103650190107e826d31b1bd,2021-07-29_22h36.02.369,Simcolourproject_2stim_asymm_v5,2020.2.10,Win32,60,61025ae37ef11b136ea224fe,,,,,,,,,4127,30,54,1,0,0,response1disk,,7,5,6,1,0,0,rectangle,5,6,1,0,0,5,6,1,0,0,1,1,161,117,1,,,,,,,,
,,,,,,,,,,,,,FF,,,,,,,,0.384,,,,,,,,,,,,,,,,,,,,,,6103514ec85d6a4d0c2f3375,6103650190107e826d31b1bd,2021-07-29_22h36.02.369,Simcolourproject_2stim_asymm_v5,2020.2.10,Win32,60,61025ae37ef11b136ea224fe,,,,,,,,,508,27,65,1,0,0,response1disk,,7,5,10,1,0,0,rectangle,5,10,1,0,0,5,10,1,0,0,1,2,162,37,1,,,,,,,,
,,,,,,,,,,,,,FF,,,,,,,,1.832,,,,,,,,,,,,,,,,,,,,,,6103514ec85d6a4d0c2f3375,6103650190107e826d31b1bd,2021-07-29_22h36.02.369,Simcolourproject_2stim_asymm_v5,2020.2.10,Win32,60,61025ae37ef11b136ea224fe,,,,,,,,,2241,72,54,1,0,0,response1disk,,6,14,12,1,0,0,rectangle,14,12,1,0,0,14,12,1,0,0,1,3,163,44,1,,,,,,,,
,,,,,,,,,,,,,FF,,,,,,,,0.333,,,,,,,,,,,,,,,,,,,,,,6103514ec85d6a4d0c2f3375,6103650190107e826d31b1bd,2021-07-29_22h36.02.369,Simcolourproject_2stim_asymm_v5,2020.2.10,Win32,60,61025ae37ef11b136ea224fe,,,,,,,,,2012,33,66,1,0,0,response1disk,,7,-1,-4,1,0,0,rectangle,-1,-4,1,0,0,-1,-4,1,0,0,1,4,164,82,1,,,,,,,,
,,,,,,,,,,,,,FF,,,,,,,,1.332,,,,,,,,,,,,,,,,,,,,,,6103514ec85d6a4d0c2f3375,6103650190107e826d31b1bd,2021-07-29_22h36.02.369,Simcolourproject_2stim_asymm_v5,2020.2.10,Win32,60,61025ae37ef11b136ea224fe,,,,,,,,,1072,69,39,1,0,0,response1disk,,6,-3,3,1,0,0,rectangle,-3,3,1,0,0,-3,3,1,0,0,1,5,165,80,1,,,,,,,,
,,,,,,,,,,,,,FF,,,,,,,,0.533,,,,,,,,,,,,,,,,,,,,,,6103514ec85d6a4d0c2f3375,6103650190107e826d31b1bd,2021-07-29_22h36.02.369,Simcolourproject_2stim_asymm_v5,2020.2.10,Win32,60,61025ae37ef11b136ea224fe,,,,,,,,,753,31,70,1,0,0,response1disk,,7,3,2,1,0,0,rectangle,3,2,1,0,0,3,2,1,0,0,1,6,166,115,1,,,,,,,,
,,,,,,,,,,,,,FF,,,,,,,,0.35,,,,,,,,,,,,,,,,,,,,,,6103514ec85d6a4d0c2f3375,6103650190107e826d31b1bd,2021-07-29_22h36.02.369,Simcolourproject_2stim_asymm_v5,2020.2.10,Win32,60,61025ae37ef11b136ea224fe,,,,,,,,,3074,24,65,1,0,0,response1disk,,7,-1,2,1,0,0,rectangle,-1,2,1,0,0,-1,2,1,0,0,1,7,167,93,1,,,,,,,,
,,,,,,,,,,,,,FF,,,,,,,,0.332,,,,,,,,,,,,,,,,,,,,,,6103514ec85d6a4d0c2f3375,6103650190107e826d31b1bd,2021-07-29_22h36.02.369,Simcolourproject_2stim_asymm_v5,2020.2.10,Win32,60,61025ae37ef11b136ea224fe,,,,,,,,,3352,36,77,1,0,0,response1disk,,7,6,3,1,0,0,rectangle,6,3,1,0,0,6,3,1,0,0,1,8,168,90,1,,,,,,,,
,,,,,,,,,,,,,FF,,,,,,,,0.898,,,,,,,,,,,,,,,,,,,,,,6103514ec85d6a4d0c2f3375,6103650190107e826d31b1bd,2021-07-29_22h36.02.369,Simcolourproject_2stim_asymm_v5,2020.2.10,Win32,60,61025ae37ef11b136ea224fe,,,,,,,,,3551,-27,80,1,0,0,response7disk,,0,4,0,1,0,0,rectangle,4,0,1,0,0,4,0,1,0,0,1,9,169,73,1,,,,,,,,
,,,,,,,,,,,,,FF,,,,,,,,0.516,,,,,,,,,,,,,,,,,,,,,,6103514ec85d6a4d0c2f3375,6103650190107e826d31b1bd,2021-07-29_22h36.02.369,Simcolourproject_2stim_asymm_v5,2020.2.10,Win32,60,61025ae37ef11b136ea224fe,,,,,,,,,1211,-38,76,1,0,0,response7disk,,0,-16,-2,1,0,0,rectangle,-16,-2,1,0,0,-16,-2,1,0,0,1,10,170,47,1,,,,,,,,
,,,,,,,,,,,,,FF,,,,,,,,0.8,,,,,,,,,,,,,,,,,,,,,,6103514ec85d6a4d0c2f3375,6103650190107e826d31b1bd,2021-07-29_22h36.02.369,Simcolourproject_2stim_asymm_v5,2020.2.10,Win32,60,61025ae37ef11b136ea224fe,,,,,,,,,231,29,58,1,0,0,response1disk,,7,6,0,1,0,0,rectangle,6,0,1,0,0,6,0,1,0,0,1,11,171,11,1,,,,,,,,
,,,,,,,,,,,,,FF,,,,,,,,0.45,,,,,,,,,,,,,,,,,,,,,,6103514ec85d6a4d0c2f3375,6103650190107e826d31b1bd,2021-07-29_22h36.02.369,Simcolourproject_2stim_asymm_v5,2020.2.10,Win32,60,61025ae37ef11b136ea224fe,,,,,,,,,1803,29,62,1,0,0,response1disk,,7,3,2,1,0,0,rectangle,3,2,1,0,0,3,2,1,0,0,1,12,172,128,1,,,,,,,,
,,,,,,,,,,,,,FF,,,,,,,,0.5,,,,,,,,,,,,,,,,,,,,,,6103514ec85d6a4d0c2f3375,6103650190107e826d31b1bd,2021-07-29_22h36.02.369,Simcolourproject_2stim_asymm_v5,2020.2.10,Win32,60,61025ae37ef11b136ea224fe,,,,,,,,,3448,26,90,1,0,0,response1disk,,7,2,-6,1,0,0,rectangle,-49,-94,1,0,0,1,6,1,0,0,1,13,173,110,1,,response5disk_3,TRUE,3,3,"[87,303,258,121,39,46,174,95,95,291,88,186,83,265,304,140,253,175,117,191]",1.798,rectangle
,,,,,,,,,,,,,FF,,,,,,,,4.197,,,,,,,,,,,,,,,,,,,,,,6103514ec85d6a4d0c2f3375,6103650190107e826d31b1bd,2021-07-29_22h36.02.369,Simcolourproject_2stim_asymm_v5,2020.2.10,Win32,60,61025ae37ef11b136ea224fe,,,,,,,,,99,45,-72,1,0,0,response3disk,,4,14,-16,1,0,0,rectangle,59,118,1,0,0,-6,2,1,0,0,1,14,174,58,1,,response1disk_3,TRUE,7,7,"[87,303,258,121,39,46,174,95,95,291,88,186,83,265,304,140,253,175,117,191]",1.466,rectangle
,,,,,,,,,,,,,FF,,,,,,,,1.116,,,,,,,,,,,,,,,,,,,,,,6103514ec85d6a4d0c2f3375,6103650190107e826d31b1bd,2021-07-29_22h36.02.369,Simcolourproject_2stim_asymm_v5,2020.2.10,Win32,60,61025ae37ef11b136ea224fe,,,,,,,,,2832,-81,50,1,0,0,response7disk,,1,6,2,1,0,0,rectangle,6,2,1,0,0,6,2,1,0,0,1,15,175,130,1,,,,,,,,
,,,,,,,,,,,,,FF,,,,,,,,0.65,,,,,,,,,,,,,,,,,,,,,,6103514ec85d6a4d0c2f3375,6103650190107e826d31b1bd,2021-07-29_22h36.02.369,Simcolourproject_2stim_asymm_v5,2020.2.10,Win32,60,61025ae37ef11b136ea224fe,,,,,,,,,2016,39,74,1,0,0,response1disk,,7,6,-10,1,0,0,rectangle,6,-10,1,0,0,6,-10,1,0,0,1,16,176,76,1,,,,,,,,
,,,,,,,,,,,,,FF,,,,,,,,1.05,,,,,,,,,,,,,,,,,,,,,,6103514ec85d6a4d0c2f3375,6103650190107e826d31b1bd,2021-07-29_22h36.02.369,Simcolourproject_2stim_asymm_v5,2020.2.10,Win32,60,61025ae37ef11b136ea224fe,,,,,,,,,980,21,70,1,0,0,response1disk,,7,3,3,1,0,0,rectangle,3,3,1,0,0,3,3,1,0,0,1,17,177,52,1,,,,,,,,
,,,,,,,,,,,,,FF,,,,,,,,1.316,,,,,,,,,,,,,,,,,,,,,,6103514ec85d6a4d0c2f3375,6103650190107e826d31b1bd,2021-07-29_22h36.02.369,Simcolourproject_2stim_asymm_v5,2020.2.10,Win32,60,61025ae37ef11b136ea224fe,,,,,,,,,726,-37,-80,1,0,0,response5disk,,3,-4,4,1,0,0,rectangle,-4,4,1,0,0,-4,4,1,0,0,1,18,178,103,1,,,,,,,,
,,,,,,,,,,,,,FF,,,,,,,,1.782,,,,,,,,,,,,,,,,,,,,,,6103514ec85d6a4d0c2f3375,6103650190107e826d31b1bd,2021-07-29_22h36.02.369,Simcolourproject_2stim_asymm_v5,2020.2.10,Win32,60,61025ae37ef11b136ea224fe,,,,,,,,,533,-39,-97,1,0,0,response5disk,,3,-8,-6,1,0,0,rectangle,-8,-6,1,0,0,-8,-6,1,0,0,1,19,179,34,1,,,,,,,,
,,,,,,,,,,,,,FF,,,,,,,,1.915,,,,,,,,,,,,,,,,,,,,,,6103514ec85d6a4d0c2f3375,6103650190107e826d31b1bd,2021-07-29_22h36.02.369,Simcolourproject_2stim_asymm_v5,2020.2.10,Win32,60,61025ae37ef11b136ea224fe,,,,,,,,,4046,-41,60,1,0,0,response7disk,,0,-11,6,1,0,0,rectangle,-11,6,1,0,0,-11,6,1,0,0,1,20,180,35,1,,,,,,,,
,,,,,,,,,,,,,FF,,,,,,,,0.566,,,,,,,,,,,,,,,,,,,,,,6103514ec85d6a4d0c2f3375,6103650190107e826d31b1bd,2021-07-29_22h36.02.369,Simcolourproject_2stim_asymm_v5,2020.2.10,Win32,60,61025ae37ef11b136ea224fe,,,,,,,,,3178,57,86,1,0,0,response1disk,,7,-1,-6,1,0,0,rectangle,-1,-6,1,0,0,-1,-6,1,0,0,1,21,181,49,1,,,,,,,,
,,,,,,,,,,,,,FF,,,,,,,,1.232,,,,,,,,,,,,,,,,,,,,,,6103514ec85d6a4d0c2f3375,6103650190107e826d31b1bd,2021-07-29_22h36.02.369,Simcolourproject_2stim_asymm_v5,2020.2.10,Win32,60,61025ae37ef11b136ea224fe,,,,,,,,,713,42,85,1,0,0,response1disk,,7,-11,-6,1,0,0,rectangle,-11,-6,1,0,0,-11,-6,1,0,0,1,22,182,126,1,,,,,,,,
,,,,,,,,,,,,,FF,,,,,,,,0.384,,,,,,,,,,,,,,,,,,,,,,6103514ec85d6a4d0c2f3375,6103650190107e826d31b1bd,2021-07-29_22h36.02.369,Simcolourproject_2stim_asymm_v5,2020.2.10,Win32,60,61025ae37ef11b136ea224fe,,,,,,,,,3806,29,74,1,0,0,response1disk,,7,-3,12,1,0,0,rectangle,-3,12,1,0,0,-3,12,1,0,0,1,23,183,57,1,,,,,,,,
,,,,,,,,,,,,,FF,,,,,,,,0.733,,,,,,,,,,,,,,,,,,,,,,6103514ec85d6a4d0c2f3375,6103650190107e826d31b1bd,2021-07-29_22h36.02.369,Simcolourproject_2stim_asymm_v5,2020.2.10,Win32,60,61025ae37ef11b136ea224fe,,,,,,,,,3587,46,90,1,0,0,response1disk,,7,2,2,1,0,0,rectangle,2,2,1,0,0,2,2,1,0,0,1,24,184,134,1,,,,,,,,
,,,,,,,,,,,,,FF,,,,,,,,0.516,,,,,,,,,,,,,,,,,,,,,,6103514ec85d6a4d0c2f3375,6103650190107e826d31b1bd,2021-07-29_22h36.02.369,Simcolourproject_2stim_asymm_v5,2020.2.10,Win32,60,61025ae37ef11b136ea224fe,,,,,,,,,2976,37,76,1,0,0,response1disk,,7,-11,2,1,0,0,rectangle,57,-101,1,0,0,9,-12,1,0,0,1,25,185,6,1,,response3disk_3,TRUE,4,4,"[87,303,258,121,39,46,174,95,95,291,88,186,83,265,304,140,253,175,117,191]",1.832,rectangle
,,,,,,,,,,,,,FF,,,,,,,,1.449,,,,,,,,,,,,,,,,,,,,,,6103514ec85d6a4d0c2f3375,6103650190107e826d31b1bd,2021-07-29_22h36.02.369,Simcolourproject_2stim_asymm_v5,2020.2.10,Win32,60,61025ae37ef11b136ea224fe,,,,,,,,,939,60,115,1,0,0,response1disk,,7,5,0,1,0,0,rectangle,5,0,1,0,0,5,0,1,0,0,1,26,186,91,1,,,,,,,,
,,,,,,,,,,,,,FF,,,,,,,,0.533,,,,,,,,,,,,,,,,,,,,,,6103514ec85d6a4d0c2f3375,6103650190107e826d31b1bd,2021-07-29_22h36.02.369,Simcolourproject_2stim_asymm_v5,2020.2.10,Win32,60,61025ae37ef11b136ea224fe,,,,,,,,,1779,45,86,1,0,0,response1disk,,7,6,0,1,0,0,rectangle,6,0,1,0,0,6,0,1,0,0,1,27,187,142,1,,,,,,,,
,,,,,,,,,,,,,FF,,,,,,,,0.6,,,,,,,,,,,,,,,,,,,,,,6103514ec85d6a4d0c2f3375,6103650190107e826d31b1bd,2021-07-29_22h36.02.369,Simcolourproject_2stim_asymm_v5,2020.2.10,Win32,60,61025ae37ef11b136ea224fe,,,,,,,,,1396,45,94,1,0,0,response1disk,,7,4,2,1,0,0,rectangle,4,2,1,0,0,4,2,1,0,0,1,28,188,48,1,,,,,,,,
,,,,,,,,,,,,,FF,,,,,,,,0.616,,,,,,,,,,,,,,,,,,,,,,6103514ec85d6a4d0c2f3375,6103650190107e826d31b1bd,2021-07-29_22h36.02.369,Simcolourproject_2stim_asymm_v5,2020.2.10,Win32,60,61025ae37ef11b136ea224fe,,,,,,,,,3070,46,82,1,0,0,response1disk,,7,1,0,1,0,0,rectangle,1,0,1,0,0,1,0,1,0,0,1,29,189,30,1,,,,,,,,
,,,,,,,,,,,,,FF,,,,,,,,1.032,,,,,,,,,,,,,,,,,,,,,,6103514ec85d6a4d0c2f3375,6103650190107e826d31b1bd,2021-07-29_22h36.02.369,Simcolourproject_2stim_asymm_v5,2020.2.10,Win32,60,61025ae37ef11b136ea224fe,,,,,,,,,1147,51,109,1,0,0,response1disk,,7,-2,6,1,0,0,rectangle,-20,102,1,0,0,6,6,1,0,0,1,30,190,119,1,,response7disk_3,TRUE,0,0,"[87,303,258,121,39,46,174,95,95,291,88,186,83,265,304,140,253,175,117,191]",1.383,rectangle
,,,,,,,,,,,,,FF,,,,,,,,1.483,,,,,,,,,,,,,,,,,,,,,,6103514ec85d6a4d0c2f3375,6103650190107e826d31b1bd,2021-07-29_22h36.02.369,Simcolourproject_2stim_asymm_v5,2020.2.10,Win32,60,61025ae37ef11b136ea224fe,,,,,,,,,3554,110,58,1,0,0,response1disk,,6,-2,2,1,0,0,rectangle,-2,2,1,0,0,-2,2,1,0,0,1,31,191,15,1,,,,,,,,
,,,,,,,,,,,,,FF,,,,,,,,0.566,,,,,,,,,,,,,,,,,,,,,,6103514ec85d6a4d0c2f3375,6103650190107e826d31b1bd,2021-07-29_22h36.02.369,Simcolourproject_2stim_asymm_v5,2020.2.10,Win32,60,61025ae37ef11b136ea224fe,,,,,,,,,586,51,94,1,0,0,response1disk,,7,14,-2,1,0,0,rectangle,14,-2,1,0,0,14,-2,1,0,0,1,32,192,38,1,,,,,,,,
,,,,,,,,,,,,,FF,,,,,,,,0.549,,,,,,,,,,,,,,,,,,,,,,6103514ec85d6a4d0c2f3375,6103650190107e826d31b1bd,2021-07-29_22h36.02.369,Simcolourproject_2stim_asymm_v5,2020.2.10,Win32,60,61025ae37ef11b136ea224fe,,,,,,,,,1695,51,87,1,0,0,response1disk,,7,2,2,1,0,0,rectangle,2,2,1,0,0,2,2,1,0,0,1,33,193,118,1,,,,,,,,
,,,,,,,,,,,,,FF,,,,,,,,0.717,,,,,,,,,,,,,,,,,,,,,,6103514ec85d6a4d0c2f3375,6103650190107e826d31b1bd,2021-07-29_22h36.02.369,Simcolourproject_2stim_asymm_v5,2020.2.10,Win32,60,61025ae37ef11b136ea224fe,,,,,,,,,2899,65,98,1,0,0,response1disk,,7,1,5,1,0,0,rectangle,1,5,1,0,0,1,5,1,0,0,1,34,194,143,1,,,,,,,,
,,,,,,,,,,,,,FF,,,,,,,,0.633,,,,,,,,,,,,,,,,,,,,,,6103514ec85d6a4d0c2f3375,6103650190107e826d31b1bd,2021-07-29_22h36.02.369,Simcolourproject_2stim_asymm_v5,2020.2.10,Win32,60,61025ae37ef11b136ea224fe,,,,,,,,,4013,54,111,1,0,0,response1disk,,7,12,6,1,0,0,rectangle,12,6,1,0,0,12,6,1,0,0,1,35,195,24,1,,,,,,,,
,,,,,,,,,,,,,FF,,,,,,,,0.517,,,,,,,,,,,,,,,,,,,,,,6103514ec85d6a4d0c2f3375,6103650190107e826d31b1bd,2021-07-29_22h36.02.369,Simcolourproject_2stim_asymm_v5,2020.2.10,Win32,60,61025ae37ef11b136ea224fe,,,,,,,,,2526,63,108,1,0,0,response1disk,,7,8,4,1,0,0,rectangle,8,4,1,0,0,8,4,1,0,0,1,36,196,7,1,,,,,,,,
,,,,,,,,,,,,,FF,,,,,,,,3.082,,,,,,,,,,,,,,,,,,,,,,6103514ec85d6a4d0c2f3375,6103650190107e826d31b1bd,2021-07-29_22h36.02.369,Simcolourproject_2stim_asymm_v5,2020.2.10,Win32,60,61025ae37ef11b136ea224fe,,,,,,,,,2100,-92,34,1,0,0,response7disk,,1,1,-4,1,0,0,rectangle,1,-4,1,0,0,1,-4,1,0,0,1,37,197,39,1,,,,,,,,
,,,,,,,,,,,,,FF,,,,,,,,0.567,,,,,,,,,,,,,,,,,,,,,,6103514ec85d6a4d0c2f3375,6103650190107e826d31b1bd,2021-07-29_22h36.02.369,Simcolourproject_2stim_asymm_v5,2020.2.10,Win32,60,61025ae37ef11b136ea224fe,,,,,,,,,3903,49,79,1,0,0,response1disk,,7,-1,-9,1,0,0,rectangle,-1,-9,1,0,0,-1,-9,1,0,0,1,38,198,120,1,,,,,,,,
,,,,,,,,,,,,,FF,,,,,,,,0.483,,,,,,,,,,,,,,,,,,,,,,6103514ec85d6a4d0c2f3375,6103650190107e826d31b1bd,2021-07-29_22h36.02.369,Simcolourproject_2stim_asymm_v5,2020.2.10,Win32,60,61025ae37ef11b136ea224fe,,,,,,,,,1127,42,86,1,0,0,response1disk,,7,1,2,1,0,0,rectangle,1,2,1,0,0,1,2,1,0,0,1,39,199,63,1,,,,,,,,
,,,,,,,,,,,,,FF,,,,,,,,0.433,,,,,,,,,,,,,,,,,,,,,,6103514ec85d6a4d0c2f3375,6103650190107e826d31b1bd,2021-07-29_22h36.02.369,Simcolourproject_2stim_asymm_v5,2020.2.10,Win32,60,61025ae37ef11b136ea224fe,,,,,,,,,3832,61,98,1,0,0,response1disk,,7,10,7,1,0,0,rectangle,10,7,1,0,0,10,7,1,0,0,1,40,200,5,1,,,,,,,,
,,,,,,,,,,,,,FF,,,,,,,,1.033,,,,,,,,,,,,,,,,,,,,,,6103514ec85d6a4d0c2f3375,6103650190107e826d31b1bd,2021-07-29_22h36.02.369,Simcolourproject_2stim_asymm_v5,2020.2.10,Win32,60,61025ae37ef11b136ea224fe,,,,,,,,,1613,63,96,1,0,0,response1disk,,7,4,1,1,0,0,rectangle,4,1,1,0,0,4,1,1,0,0,1,41,201,42,1,,,,,,,,
,,,,,,,,,,,,,FF,,,,,,,,1.948,,,,,,,,,,,,,,,,,,,,,,6103514ec85d6a4d0c2f3375,6103650190107e826d31b1bd,2021-07-29_22h36.02.369,Simcolourproject_2stim_asymm_v5,2020.2.10,Win32,60,61025ae37ef11b136ea224fe,,,,,,,,,3814,110,-49,1,0,0,response3disk,,5,7,10,1,0,0,rectangle,7,10,1,0,0,7,10,1,0,0,1,42,202,25,1,,,,,,,,
,,,,,,,,,,,,,FF,,,,,,,,0.667,,,,,,,,,,,,,,,,,,,,,,6103514ec85d6a4d0c2f3375,6103650190107e826d31b1bd,2021-07-29_22h36.02.369,Simcolourproject_2stim_asymm_v5,2020.2.10,Win32,60,61025ae37ef11b136ea224fe,,,,,,,,,3507,46,102,1,0,0,response1disk,,7,14,5,1,0,0,rectangle,14,5,1,0,0,14,5,1,0,0,1,43,203,122,1,,,,,,,,
,,,,,,,,,,,,,FF,,,,,,,,0.767,,,,,,,,,,,,,,,,,,,,,,6103514ec85d6a4d0c2f3375,6103650190107e826d31b1bd,2021-07-29_22h36.02.369,Simcolourproject_2stim_asymm_v5,2020.2.10,Win32,60,61025ae37ef11b136ea224fe,,,,,,,,,115,61,101,1,0,0,response1disk,,7,-2,-1,1,0,0,rectangle,-2,-1,1,0,0,-2,-1,1,0,0,1,44,204,3,1,,,,,,,,
,,,,,,,,,,,,,FF,,,,,,,,0.45,,,,,,,,,,,,,,,,,,,,,,6103514ec85d6a4d0c2f3375,6103650190107e826d31b1bd,2021-07-29_22h36.02.369,Simcolourproject_2stim_asymm_v5,2020.2.10,Win32,60,61025ae37ef11b136ea224fe,,,,,,,,,2922,51,97,1,0,0,response1disk,,7,10,-8,1,0,0,rectangle,10,-8,1,0,0,10,-8,1,0,0,1,45,205,111,1,,,,,,,,
,,,,,,,,,,,,,FF,,,,,,,,1.366,,,,,,,,,,,,,,,,,,,,,,6103514ec85d6a4d0c2f3375,6103650190107e826d31b1bd,2021-07-29_22h36.02.369,Simcolourproject_2stim_asymm_v5,2020.2.10,Win32,60,61025ae37ef11b136ea224fe,,,,,,,,,4318,98,62,1,0,0,response1disk,,6,8,0,1,0,0,rectangle,8,0,1,0,0,8,0,1,0,0,1,46,206,108,1,,,,,,,,
,,,,,,,,,,,,,FF,,,,,,,,0.616,,,,,,,,,,,,,,,,,,,,,,6103514ec85d6a4d0c2f3375,6103650190107e826d31b1bd,2021-07-29_22h36.02.369,Simcolourproject_2stim_asymm_v5,2020.2.10,Win32,60,61025ae37ef11b136ea224fe,,,,,,,,,516,46,96,1,0,0,response1disk,,7,2,3,1,0,0,rectangle,2,3,1,0,0,2,3,1,0,0,1,47,207,140,1,,,,,,,,
,,,,,,,,,,,,,FF,,,,,,,,0.482,,,,,,,,,,,,,,,,,,,,,,6103514ec85d6a4d0c2f3375,6103650190107e826d31b1bd,2021-07-29_22h36.02.369,Simcolourproject_2stim_asymm_v5,2020.2.10,Win32,60,61025ae37ef11b136ea224fe,,,,,,,,,2689,54,96,1,0,0,response1disk,,7,16,0,1,0,0,rectangle,16,0,1,0,0,16,0,1,0,0,1,48,208,29,1,,,,,,,,
,,,,,,,,,,,,,FF,,,,,,,,1.7,,,,,,,,,,,,,,,,,,,,,,6103514ec85d6a4d0c2f3375,6103650190107e826d31b1bd,2021-07-29_22h36.02.369,Simcolourproject_2stim_asymm_v5,2020.2.10,Win32,60,61025ae37ef11b136ea224fe,,,,,,,,,3815,100,-38,1,0,0,response3disk,,5,19,1,1,0,0,rectangle,19,1,1,0,0,19,1,1,0,0,1,49,209,74,1,,,,,,,,
,,,,,,,,,,,,,FF,,,,,,,,0.483,,,,,,,,,,,,,,,,,,,,,,6103514ec85d6a4d0c2f3375,6103650190107e826d31b1bd,2021-07-29_22h36.02.369,Simcolourproject_2stim_asymm_v5,2020.2.10,Win32,60,61025ae37ef11b136ea224fe,,,,,,,,,3333,55,102,1,0,0,response1disk,,7,18,-3,1,0,0,rectangle,18,-3,1,0,0,18,-3,1,0,0,1,50,210,65,1,,,,,,,,
,,,,,,,,,,,,,FF,,,,,,,,0.517,,,,,,,,,,,,,,,,,,,,,,6103514ec85d6a4d0c2f3375,6103650190107e826d31b1bd,2021-07-29_22h36.02.369,Simcolourproject_2stim_asymm_v5,2020.2.10,Win32,60,61025ae37ef11b136ea224fe,,,,,,,,,3631,45,90,1,0,0,response1disk,,7,14,11,1,0,0,rectangle,14,11,1,0,0,14,11,1,0,0,1,51,211,68,1,,,,,,,,
,,,,,,,,,,,,,FF,,,,,,,,1.065,,,,,,,,,,,,,,,,,,,,,,6103514ec85d6a4d0c2f3375,6103650190107e826d31b1bd,2021-07-29_22h36.02.369,Simcolourproject_2stim_asymm_v5,2020.2.10,Win32,60,61025ae37ef11b136ea224fe,,,,,,,,,972,64,104,1,0,0,response1disk,,7,9,10,1,0,0,rectangle,9,10,1,0,0,9,10,1,0,0,1,52,212,31,1,,,,,,,,
,,,,,,,,,,,,,FF,,,,,,,,0.482,,,,,,,,,,,,,,,,,,,,,,6103514ec85d6a4d0c2f3375,6103650190107e826d31b1bd,2021-07-29_22h36.02.369,Simcolourproject_2stim_asymm_v5,2020.2.10,Win32,60,61025ae37ef11b136ea224fe,,,,,,,,,3013,48,85,1,0,0,response1disk,,7,14,-1,1,0,0,rectangle,14,-1,1,0,0,14,-1,1,0,0,1,53,213,150,1,,,,,,,,
,,,,,,,,,,,,,FF,,,,,,,,0.466,,,,,,,,,,,,,,,,,,,,,,6103514ec85d6a4d0c2f3375,6103650190107e826d31b1bd,2021-07-29_22h36.02.369,Simcolourproject_2stim_asymm_v5,2020.2.10,Win32,60,61025ae37ef11b136ea224fe,,,,,,,,,762,59,99,1,0,0,response1disk,,7,12,0,1,0,0,rectangle,12,0,1,0,0,12,0,1,0,0,1,54,214,45,1,,,,,,,,
,,,,,,,,,,,,,FF,,,,,,,,0.399,,,,,,,,,,,,,,,,,,,,,,6103514ec85d6a4d0c2f3375,6103650190107e826d31b1bd,2021-07-29_22h36.02.369,Simcolourproject_2stim_asymm_v5,2020.2.10,Win32,60,61025ae37ef11b136ea224fe,,,,,,,,,4191,61,90,1,0,0,response1disk,,7,15,2,1,0,0,rectangle,15,2,1,0,0,15,2,1,0,0,1,55,215,136,1,,,,,,,,
,,,,,,,,,,,,,FF,,,,,,,,0.566,,,,,,,,,,,,,,,,,,,,,,6103514ec85d6a4d0c2f3375,6103650190107e826d31b1bd,2021-07-29_22h36.02.369,Simcolourproject_2stim_asymm_v5,2020.2.10,Win32,60,61025ae37ef11b136ea224fe,,,,,,,,,2254,47,86,1,0,0,response1disk,,7,20,2,1,0,0,rectangle,20,2,1,0,0,20,2,1,0,0,1,56,216,88,1,,,,,,,,
,,,,,,,,,,,,,FF,,,,,,,,0.483,,,,,,,,,,,,,,,,,,,,,,6103514ec85d6a4d0c2f3375,6103650190107e826d31b1bd,2021-07-29_22h36.02.369,Simcolourproject_2stim_asymm_v5,2020.2.10,Win32,60,61025ae37ef11b136ea224fe,,,,,,,,,3022,49,88,1,0,0,response1disk,,7,10,-13,1,0,0,rectangle,10,-13,1,0,0,10,-13,1,0,0,1,57,217,59,1,,,,,,,,
,,,,,,,,,,,,,FF,,,,,,,,0.517,,,,,,,,,,,,,,,,,,,,,,6103514ec85d6a4d0c2f3375,6103650190107e826d31b1bd,2021-07-29_22h36.02.369,Simcolourproject_2stim_asymm_v5,2020.2.10,Win32,60,61025ae37ef11b136ea224fe,,,,,,,,,2994,54,99,1,0,0,response1disk,,7,10,1,1,0,0,rectangle,10,1,1,0,0,10,1,1,0,0,1,58,218,78,1,,,,,,,,
,,,,,,,,,,,,,FF,,,,,,,,0.466,,,,,,,,,,,,,,,,,,,,,,6103514ec85d6a4d0c2f3375,6103650190107e826d31b1bd,2021-07-29_22h36.02.369,Simcolourproject_2stim_asymm_v5,2020.2.10,Win32,60,61025ae37ef11b136ea224fe,,,,,,,,,2562,46,96,1,0,0,response1disk,,7,10,-11,1,0,0,rectangle,10,-11,1,0,0,10,-11,1,0,0,1,59,219,139,1,,,,,,,,
,,,,,,,,,,,,,FF,,,,,,,,0.899,,,,,,,,,,,,,,,,,,,,,,6103514ec85d6a4d0c2f3375,6103650190107e826d31b1bd,2021-07-29_22h36.02.369,Simcolourproject_2stim_asymm_v5,2020.2.10,Win32,60,61025ae37ef11b136ea224fe,,,,,,,,,2144,58,97,1,0,0,response1disk,,7,19,1,1,0,0,rectangle,19,1,1,0,0,19,1,1,0,0,1,60,220,153,1,,,,,,,,
,,,,,,,,,,,,,FF,,,,,,,,0.449,,,,,,,,,,,,,,,,,,,,,,6103514ec85d6a4d0c2f3375,6103650190107e826d31b1bd,2021-07-29_22h36.02.369,Simcolourproject_2stim_asymm_v5,2020.2.10,Win32,60,61025ae37ef11b136ea224fe,,,,,,,,,4002,52,94,1,0,0,response1disk,,7,6,5,1,0,0,rectangle,6,5,1,0,0,6,5,1,0,0,1,61,221,36,1,,,,,,,,
,,,,,,,,,,,,,FF,,,,,,,,0.417,,,,,,,,,,,,,,,,,,,,,,6103514ec85d6a4d0c2f3375,6103650190107e826d31b1bd,2021-07-29_22h36.02.369,Simcolourproject_2stim_asymm_v5,2020.2.10,Win32,60,61025ae37ef11b136ea224fe,,,,,,,,,1113,54,86,1,0,0,response1disk,,7,8,0,1,0,0,rectangle,8,0,1,0,0,8,0,1,0,0,1,62,222,10,1,,,,,,,,
,,,,,,,,,,,,,FF,,,,,,,,4.148,,,,,,,,,,,,,,,,,,,,,,6103514ec85d6a4d0c2f3375,6103650190107e826d31b1bd,2021-07-29_22h36.02.369,Simcolourproject_2stim_asymm_v5,2020.2.10,Win32,60,61025ae37ef11b136ea224fe,,,,,,,,,3425,-29,98,1,0,0,response7disk,,0,6,2,1,0,0,rectangle,6,2,1,0,0,6,2,1,0,0,1,63,223,138,1,,,,,,,,
,,,,,,,,,,,,,FF,,,,,,,,0.616,,,,,,,,,,,,,,,,,,,,,,6103514ec85d6a4d0c2f3375,6103650190107e826d31b1bd,2021-07-29_22h36.02.369,Simcolourproject_2stim_asymm_v5,2020.2.10,Win32,60,61025ae37ef11b136ea224fe,,,,,,,,,1144,50,84,1,0,0,response1disk,,7,14,-11,1,0,0,rectangle,14,-11,1,0,0,14,-11,1,0,0,1,64,224,64,1,,,,,,,,
,,,,,,,,,,,,,FF,,,,,,,,1.499,,,,,,,,,,,,,,,,,,,,,,6103514ec85d6a4d0c2f3375,6103650190107e826d31b1bd,2021-07-29_22h36.02.369,Simcolourproject_2stim_asymm_v5,2020.2.10,Win32,60,61025ae37ef11b136ea224fe,,,,,,,,,993,58,98,1,0,0,response1disk,,7,21,4,1,0,0,rectangle,21,4,1,0,0,21,4,1,0,0,1,65,225,151,1,,,,,,,,
,,,,,,,,,,,,,FF,,,,,,,,0.533,,,,,,,,,,,,,,,,,,,,,,6103514ec85d6a4d0c2f3375,6103650190107e826d31b1bd,2021-07-29_22h36.02.369,Simcolourproject_2stim_asymm_v5,2020.2.10,Win32,60,61025ae37ef11b136ea224fe,,,,,,,,,4258,48,83,1,0,0,response1disk,,7,9,-10,1,0,0,rectangle,9,-10,1,0,0,9,-10,1,0,0,1,66,226,62,1,,,,,,,,
,,,,,,,,,,,,,FF,,,,,,,,0.833,,,,,,,,,,,,,,,,,,,,,,6103514ec85d6a4d0c2f3375,6103650190107e826d31b1bd,2021-07-29_22h36.02.369,Simcolourproject_2stim_asymm_v5,2020.2.10,Win32,60,61025ae37ef11b136ea224fe,,,,,,,,,2903,72,107,1,0,0,response1disk,,7,3,-6,1,0,0,rectangle,3,-6,1,0,0,3,-6,1,0,0,1,67,227,132,1,,,,,,,,
,,,,,,,,,,,,,FF,,,,,,,,0.4,,,,,,,,,,,,,,,,,,,,,,6103514ec85d6a4d0c2f3375,6103650190107e826d31b1bd,2021-07-29_22h36.02.369,Simcolourproject_2stim_asymm_v5,2020.2.10,Win32,60,61025ae37ef11b136ea224fe,,,,,,,,,847,60,88,1,0,0,response1disk,,7,15,9,1,0,0,rectangle,15,9,1,0,0,15,9,1,0,0,1,68,228,87,1,,,,,,,,
,,,,,,,,,,,,,FF,,,,,,,,0.417,,,,,,,,,,,,,,,,,,,,,,6103514ec85d6a4d0c2f3375,6103650190107e826d31b1bd,2021-07-29_22h36.02.369,Simcolourproject_2stim_asymm_v5,2020.2.10,Win32,60,61025ae37ef11b136ea224fe,,,,,,,,,860,66,102,1,0,0,response1disk,,7,9,-5,1,0,0,rectangle,9,-5,1,0,0,9,-5,1,0,0,1,69,229,40,1,,,,,,,,
,,,,,,,,,,,,,FF,,,,,,,,1.282,,,,,,,,,,,,,,,,,,,,,,6103514ec85d6a4d0c2f3375,6103650190107e826d31b1bd,2021-07-29_22h36.02.369,Simcolourproject_2stim_asymm_v5,2020.2.10,Win32,60,61025ae37ef11b136ea224fe,,,,,,,,,346,-75,42,1,0,0,response7disk,,1,-1,9,1,0,0,rectangle,-1,9,1,0,0,-1,9,1,0,0,1,70,230,69,1,,,,,,,,
,,,,,,,,,,,,,FF,,,,,,,,0.55,,,,,,,,,,,,,,,,,,,,,,6103514ec85d6a4d0c2f3375,6103650190107e826d31b1bd,2021-07-29_22h36.02.369,Simcolourproject_2stim_asymm_v5,2020.2.10,Win32,60,61025ae37ef11b136ea224fe,,,,,,,,,378,66,103,1,0,0,response1disk,,7,10,2,1,0,0,rectangle,10,2,1,0,0,10,2,1,0,0,1,71,231,101,1,,,,,,,,
,,,,,,,,,,,,,FF,,,,,,,,0.55,,,,,,,,,,,,,,,,,,,,,,6103514ec85d6a4d0c2f3375,6103650190107e826d31b1bd,2021-07-29_22h36.02.369,Simcolourproject_2stim_asymm_v5,2020.2.10,Win32,60,61025ae37ef11b136ea224fe,,,,,,,,,4310,52,96,1,0,0,response1disk,,7,9,-6,1,0,0,rectangle,9,-6,1,0,0,9,-6,1,0,0,1,72,232,70,1,,,,,,,,
,,,,,,,,,,,,,FF,,,,,,,,0.416,,,,,,,,,,,,,,,,,,,,,,6103514ec85d6a4d0c2f3375,6103650190107e826d31b1bd,2021-07-29_22h36.02.369,Simcolourproject_2stim_asymm_v5,2020.2.10,Win32,60,61025ae37ef11b136ea224fe,,,,,,,,,410,42,97,1,0,0,response1disk,,7,10,-1,1,0,0,rectangle,10,-1,1,0,0,10,-1,1,0,0,1,73,233,144,1,,,,,,,,
,,,,,,,,,,,,,FF,,,,,,,,0.783,,,,,,,,,,,,,,,,,,,,,,6103514ec85d6a4d0c2f3375,6103650190107e826d31b1bd,2021-07-29_22h36.02.369,Simcolourproject_2stim_asymm_v5,2020.2.10,Win32,60,61025ae37ef11b136ea224fe,,,,,,,,,2507,63,106,1,0,0,response1disk,,7,9,10,1,0,0,rectangle,9,10,1,0,0,9,10,1,0,0,1,74,234,17,1,,,,,,,,
,,,,,,,,,,,,,FF,,,,,,,,0.616,,,,,,,,,,,,,,,,,,,,,,6103514ec85d6a4d0c2f3375,6103650190107e826d31b1bd,2021-07-29_22h36.02.369,Simcolourproject_2stim_asymm_v5,2020.2.10,Win32,60,61025ae37ef11b136ea224fe,,,,,,,,,835,72,108,1,0,0,response1disk,,7,3,1,1,0,0,rectangle,3,1,1,0,0,3,1,1,0,0,1,75,235,145,1,,,,,,,,
,,,,,,,,,,,,,FF,,,,,,,,0.567,,,,,,,,,,,,,,,,,,,,,,6103514ec85d6a4d0c2f3375,6103650190107e826d31b1bd,2021-07-29_22h36.02.369,Simcolourproject_2stim_asymm_v5,2020.2.10,Win32,60,61025ae37ef11b136ea224fe,,,,,,,,,3576,66,97,1,0,0,response1disk,,7,11,3,1,0,0,rectangle,11,3,1,0,0,11,3,1,0,0,1,76,236,0,1,,,,,,,,
,,,,,,,,,,,,,FF,,,,,,,,0.533,,,,,,,,,,,,,,,,,,,,,,6103514ec85d6a4d0c2f3375,6103650190107e826d31b1bd,2021-07-29_22h36.02.369,Simcolourproject_2stim_asymm_v5,2020.2.10,Win32,60,61025ae37ef11b136ea224fe,,,,,,,,,1431,53,102,1,0,0,response1disk,,7,9,0,1,0,0,rectangle,9,0,1,0,0,9,0,1,0,0,1,77,237,131,1,,,,,,,,
,,,,,,,,,,,,,FF,,,,,,,,0.482,,,,,,,,,,,,,,,,,,,,,,6103514ec85d6a4d0c2f3375,6103650190107e826d31b1bd,2021-07-29_22h36.02.369,Simcolourproject_2stim_asymm_v5,2020.2.10,Win32,60,61025ae37ef11b136ea224fe,,,,,,,,,3982,59,106,1,0,0,response1disk,,7,14,-10,1,0,0,rectangle,14,-10,1,0,0,14,-10,1,0,0,1,78,238,21,1,,,,,,,,
,,,,,,,,,,,,,FF,,,,,,,,0.467,,,,,,,,,,,,,,,,,,,,,,6103514ec85d6a4d0c2f3375,6103650190107e826d31b1bd,2021-07-29_22h36.02.369,Simcolourproject_2stim_asymm_v5,2020.2.10,Win32,60,61025ae37ef11b136ea224fe,,,,,,,,,3752,74,114,1,0,0,response1disk,,7,16,-6,1,0,0,rectangle,16,-6,1,0,0,16,-6,1,0,0,1,79,239,53,1,,,,,,,,
,,,,,,,,,,,,,FF,,,,,,,,0.482,,,,,,,,,,,,,,,,,,,,,,6103514ec85d6a4d0c2f3375,6103650190107e826d31b1bd,2021-07-29_22h36.02.369,Simcolourproject_2stim_asymm_v5,2020.2.10,Win32,60,61025ae37ef11b136ea224fe,,,,,,,,,2253,62,104,1,0,0,response1disk,,7,9,-9,1,0,0,rectangle,9,-9,1,0,0,9,-9,1,0,0,1,80,240,83,1,,,,,,,,
,,,,,,,,,,,,,FF,,,,,,,,0.516,,,,,,,,,,,,,,,,,,,,,,6103514ec85d6a4d0c2f3375,6103650190107e826d31b1bd,2021-07-29_22h36.02.369,Simcolourproject_2stim_asymm_v5,2020.2.10,Win32,60,61025ae37ef11b136ea224fe,,,,,,,,,683,60,97,1,0,0,response1disk,,7,4,3,1,0,0,rectangle,4,3,1,0,0,4,3,1,0,0,1,81,241,156,1,,,,,,,,
,,,,,,,,,,,,,FF,,,,,,,,0.417,,,,,,,,,,,,,,,,,,,,,,6103514ec85d6a4d0c2f3375,6103650190107e826d31b1bd,2021-07-29_22h36.02.369,Simcolourproject_2stim_asymm_v5,2020.2.10,Win32,60,61025ae37ef11b136ea224fe,,,,,,,,,2207,66,96,1,0,0,response1disk,,7,9,-9,1,0,0,rectangle,9,-9,1,0,0,9,-9,1,0,0,1,82,242,28,1,,,,,,,,
,,,,,,,,,,,,,FF,,,,,,,,1.266,,,,,,,,,,,,,,,,,,,,,,6103514ec85d6a4d0c2f3375,6103650190107e826d31b1bd,2021-07-29_22h36.02.369,Simcolourproject_2stim_asymm_v5,2020.2.10,Win32,60,61025ae37ef11b136ea224fe,,,,,,,,,2043,46,108,1,0,0,response1disk,,7,-10,3,1,0,0,rectangle,-10,3,1,0,0,-10,3,1,0,0,1,83,243,46,1,,,,,,,,
,,,,,,,,,,,,,FF,,,,,,,,2.182,,,,,,,,,,,,,,,,,,,,,,6103514ec85d6a4d0c2f3375,6103650190107e826d31b1bd,2021-07-29_22h36.02.369,Simcolourproject_2stim_asymm_v5,2020.2.10,Win32,60,61025ae37ef11b136ea224fe,,,,,,,,,3154,100,45,1,0,0,response1disk,,6,-2,1,1,0,0,rectangle,-2,1,1,0,0,-2,1,1,0,0,1,84,244,113,1,,,,,,,,
,,,,,,,,,,,,,FF,,,,,,,,0.583,,,,,,,,,,,,,,,,,,,,,,6103514ec85d6a4d0c2f3375,6103650190107e826d31b1bd,2021-07-29_22h36.02.369,Simcolourproject_2stim_asymm_v5,2020.2.10,Win32,60,61025ae37ef11b136ea224fe,,,,,,,,,3603,41,62,1,0,0,response1disk,,7,2,6,1,0,0,rectangle,2,6,1,0,0,2,6,1,0,0,1,85,245,60,1,,,,,,,,
,,,,,,,,,,,,,FF,,,,,,,,0.483,,,,,,,,,,,,,,,,,,,,,,6103514ec85d6a4d0c2f3375,6103650190107e826d31b1bd,2021-07-29_22h36.02.369,Simcolourproject_2stim_asymm_v5,2020.2.10,Win32,60,61025ae37ef11b136ea224fe,,,,,,,,,1237,22,62,1,0,0,response1disk,,7,2,7,1,0,0,rectangle,2,7,1,0,0,2,7,1,0,0,1,86,246,56,1,,,,,,,,
,,,,,,,,,,,,,FF,,,,,,,,0.449,,,,,,,,,,,,,,,,,,,,,,6103514ec85d6a4d0c2f3375,6103650190107e826d31b1bd,2021-07-29_22h36.02.369,Simcolourproject_2stim_asymm_v5,2020.2.10,Win32,60,61025ae37ef11b136ea224fe,,,,,,,,,2529,40,68,1,0,0,response1disk,,7,-6,3,1,0,0,rectangle,-6,3,1,0,0,-6,3,1,0,0,1,87,247,159,1,,,,,,,,
,,,,,,,,,,,,,FF,,,,,,,,0.666,,,,,,,,,,,,,,,,,,,,,,6103514ec85d6a4d0c2f3375,6103650190107e826d31b1bd,2021-07-29_22h36.02.369,Simcolourproject_2stim_asymm_v5,2020.2.10,Win32,60,61025ae37ef11b136ea224fe,,,,,,,,,1689,41,66,1,0,0,response1disk,,7,-2,10,1,0,0,rectangle,-2,10,1,0,0,-2,10,1,0,0,1,88,248,96,1,,,,,,,,
,,,,,,,,,,,,,FF,,,,,,,,1.216,,,,,,,,,,,,,,,,,,,,,,6103514ec85d6a4d0c2f3375,6103650190107e826d31b1bd,2021-07-29_22h36.02.369,Simcolourproject_2stim_asymm_v5,2020.2.10,Win32,60,61025ae37ef11b136ea224fe,,,,,,,,,71,70,55,1,0,0,response1disk,,6,11,-4,1,0,0,rectangle,11,-4,1,0,0,11,-4,1,0,0,1,89,249,27,1,,,,,,,,
,,,,,,,,,,,,,FF,,,,,,,,0.649,,,,,,,,,,,,,,,,,,,,,,6103514ec85d6a4d0c2f3375,6103650190107e826d31b1bd,2021-07-29_22h36.02.369,Simcolourproject_2stim_asymm_v5,2020.2.10,Win32,60,61025ae37ef11b136ea224fe,,,,,,,,,3177,38,74,1,0,0,response1disk,,7,4,2,1,0,0,rectangle,4,2,1,0,0,4,2,1,0,0,1,90,250,147,1,,,,,,,,
,,,,,,,,,,,,,FF,,,,,,,,1.997,,,,,,,,,,,,,,,,,,,,,,6103514ec85d6a4d0c2f3375,6103650190107e826d31b1bd,2021-07-29_22h36.02.369,Simcolourproject_2stim_asymm_v5,2020.2.10,Win32,60,61025ae37ef11b136ea224fe,,,,,,,,,3847,27,72,1,0,0,response1disk,,7,0,4,1,0,0,rectangle,0,4,1,0,0,0,4,1,0,0,1,91,251,1,1,,,,,,,,
,,,,,,,,,,,,,FF,,,,,,,,0.516,,,,,,,,,,,,,,,,,,,,,,6103514ec85d6a4d0c2f3375,6103650190107e826d31b1bd,2021-07-29_22h36.02.369,Simcolourproject_2stim_asymm_v5,2020.2.10,Win32,60,61025ae37ef11b136ea224fe,,,,,,,,,2735,34,73,1,0,0,response1disk,,7,-1,6,1,0,0,rectangle,-96,35,1,0,0,-11,6,1,0,0,1,92,252,99,1,,response7disk_3,TRUE,1,1,"[87,303,258,121,39,46,174,95,95,291,88,186,83,265,304,140,253,175,117,191]",1.199,rectangle
,,,,,,,,,,,,,FF,,,,,,,,3.849,,,,,,,,,,,,,,,,,,,,,,6103514ec85d6a4d0c2f3375,6103650190107e826d31b1bd,2021-07-29_22h36.02.369,Simcolourproject_2stim_asymm_v5,2020.2.10,Win32,60,61025ae37ef11b136ea224fe,,,,,,,,,3598,78,50,1,0,0,response1disk,,6,30,2,1,0,0,rectangle,30,2,1,0,0,30,2,1,0,0,1,93,253,141,1,,,,,,,,
,,,,,,,,,,,,,FF,,,,,,,,0.866,,,,,,,,,,,,,,,,,,,,,,6103514ec85d6a4d0c2f3375,6103650190107e826d31b1bd,2021-07-29_22h36.02.369,Simcolourproject_2stim_asymm_v5,2020.2.10,Win32,60,61025ae37ef11b136ea224fe,,,,,,,,,3426,72,44,1,0,0,response1disk,,6,31,3,1,0,0,rectangle,31,3,1,0,0,31,3,1,0,0,1,94,254,61,1,,,,,,,,
,,,,,,,,,,,,,FF,,,,,,,,0.533,,,,,,,,,,,,,,,,,,,,,,6103514ec85d6a4d0c2f3375,6103650190107e826d31b1bd,2021-07-29_22h36.02.369,Simcolourproject_2stim_asymm_v5,2020.2.10,Win32,60,61025ae37ef11b136ea224fe,,,,,,,,,4035,34,62,1,0,0,response1disk,,7,-1,2,1,0,0,rectangle,-1,2,1,0,0,-1,2,1,0,0,1,95,255,124,1,,,,,,,,
,,,,,,,,,,,,,FF,,,,,,,,1.615,,,,,,,,,,,,,,,,,,,,,,6103514ec85d6a4d0c2f3375,6103650190107e826d31b1bd,2021-07-29_22h36.02.369,Simcolourproject_2stim_asymm_v5,2020.2.10,Win32,60,61025ae37ef11b136ea224fe,,,,,,,,,3719,33,70,1,0,0,response1disk,,7,-2,3,1,0,0,rectangle,-2,3,1,0,0,-2,3,1,0,0,1,96,256,18,1,,,,,,,,
,,,,,,,,,,,,,FF,,,,,,,,0.517,,,,,,,,,,,,,,,,,,,,,,6103514ec85d6a4d0c2f3375,6103650190107e826d31b1bd,2021-07-29_22h36.02.369,Simcolourproject_2stim_asymm_v5,2020.2.10,Win32,60,61025ae37ef11b136ea224fe,,,,,,,,,1171,34,74,1,0,0,response1disk,,7,2,7,1,0,0,rectangle,84,-30,1,0,0,6,5,1,0,0,1,97,257,154,1,,response3disk_3,TRUE,5,5,"[87,303,258,121,39,46,174,95,95,291,88,186,83,265,304,140,253,175,117,191]",1.482,rectangle
,,,,,,,,,,,,,FF,,,,,,,,2.482,,,,,,,,,,,,,,,,,,,,,,6103514ec85d6a4d0c2f3375,6103650190107e826d31b1bd,2021-07-29_22h36.02.369,Simcolourproject_2stim_asymm_v5,2020.2.10,Win32,60,61025ae37ef11b136ea224fe,,,,,,,,,1880,29,66,1,0,0,response1disk,,7,-9,2,1,0,0,rectangle,-9,2,1,0,0,-9,2,1,0,0,1,98,258,66,1,,,,,,,,
,,,,,,,,,,,,,FF,,,,,,,,0.616,,,,,,,,,,,,,,,,,,,,,,6103514ec85d6a4d0c2f3375,6103650190107e826d31b1bd,2021-07-29_22h36.02.369,Simcolourproject_2stim_asymm_v5,2020.2.10,Win32,60,61025ae37ef11b136ea224fe,,,,,,,,,2484,29,74,1,0,0,response1disk,,7,-6,10,1,0,0,rectangle,-6,10,1,0,0,-6,10,1,0,0,1,99,259,129,1,,,,,,,,
,,,,,,,,,,,,,FF,,,,,,,,0.467,,,,,,,,,,,,,,,,,,,,,,6103514ec85d6a4d0c2f3375,6103650190107e826d31b1bd,2021-07-29_22h36.02.369,Simcolourproject_2stim_asymm_v5,2020.2.10,Win32,60,61025ae37ef11b136ea224fe,,,,,,,,,2500,34,69,1,0,0,response1disk,,7,-2,6,1,0,0,rectangle,-2,6,1,0,0,-2,6,1,0,0,1,100,260,100,1,,,,,,,,
,,,,,,,,,,,,,FF,,,,,,,,3.182,,,,,,,,,,,,,,,,,,,,,,6103514ec85d6a4d0c2f3375,6103650190107e826d31b1bd,2021-07-29_22h36.02.369,Simcolourproject_2stim_asymm_v5,2020.2.10,Win32,60,61025ae37ef11b136ea224fe,,,,,,,,,1682,92,-39,1,0,0,response3disk,,5,11,6,1,0,0,rectangle,11,6,1,0,0,11,6,1,0,0,1,101,261,94,1,,,,,,,,
,,,,,,,,,,,,,FF,,,,,,,,0.466,,,,,,,,,,,,,,,,,,,,,,6103514ec85d6a4d0c2f3375,6103650190107e826d31b1bd,2021-07-29_22h36.02.369,Simcolourproject_2stim_asymm_v5,2020.2.10,Win32,60,61025ae37ef11b136ea224fe,,,,,,,,,1708,28,54,1,0,0,response1disk,,7,6,2,1,0,0,rectangle,6,2,1,0,0,6,2,1,0,0,1,102,262,79,1,,,,,,,,
,,,,,,,,,,,,,FF,,,,,,,,0.449,,,,,,,,,,,,,,,,,,,,,,6103514ec85d6a4d0c2f3375,6103650190107e826d31b1bd,2021-07-29_22h36.02.369,Simcolourproject_2stim_asymm_v5,2020.2.10,Win32,60,61025ae37ef11b136ea224fe,,,,,,,,,3485,22,60,1,0,0,response1disk,,7,-1,6,1,0,0,rectangle,-1,6,1,0,0,-1,6,1,0,0,1,103,263,67,1,,,,,,,,
,,,,,,,,,,,,,FF,,,,,,,,1.849,,,,,,,,,,,,,,,,,,,,,,6103514ec85d6a4d0c2f3375,6103650190107e826d31b1bd,2021-07-29_22h36.02.369,Simcolourproject_2stim_asymm_v5,2020.2.10,Win32,60,61025ae37ef11b136ea224fe,,,,,,,,,2941,-114,-34,1,0,0,response5disk,,2,-10,0,1,0,0,rectangle,-94,-37,1,0,0,-8,-2,1,0,0,1,104,264,97,1,,response5disk_3,TRUE,2,2,"[87,303,258,121,39,46,174,95,95,291,88,186,83,265,304,140,253,175,117,191]",1.099,rectangle
,,,,,,,,,,,,,FF,,,,,,,,1.199,,,,,,,,,,,,,,,,,,,,,,6103514ec85d6a4d0c2f3375,6103650190107e826d31b1bd,2021-07-29_22h36.02.369,Simcolourproject_2stim_asymm_v5,2020.2.10,Win32,60,61025ae37ef11b136ea224fe,,,,,,,,,1643,30,70,1,0,0,response1disk,,7,6,-2,1,0,0,rectangle,6,-2,1,0,0,6,-2,1,0,0,1,105,265,14,1,,,,,,,,
,,,,,,,,,,,,,FF,,,,,,,,0.917,,,,,,,,,,,,,,,,,,,,,,6103514ec85d6a4d0c2f3375,6103650190107e826d31b1bd,2021-07-29_22h36.02.369,Simcolourproject_2stim_asymm_v5,2020.2.10,Win32,60,61025ae37ef11b136ea224fe,,,,,,,,,1092,38,76,1,0,0,response1disk,,7,14,14,1,0,0,rectangle,14,14,1,0,0,14,14,1,0,0,1,106,266,13,1,,,,,,,,
,,,,,,,,,,,,,FF,,,,,,,,0.867,,,,,,,,,,,,,,,,,,,,,,6103514ec85d6a4d0c2f3375,6103650190107e826d31b1bd,2021-07-29_22h36.02.369,Simcolourproject_2stim_asymm_v5,2020.2.10,Win32,60,61025ae37ef11b136ea224fe,,,,,,,,,1464,46,73,1,0,0,response1disk,,7,7,6,1,0,0,rectangle,7,6,1,0,0,7,6,1,0,0,1,107,267,26,1,,,,,,,,
,,,,,,,,,,,,,FF,,,,,,,,0.418,,,,,,,,,,,,,,,,,,,,,,6103514ec85d6a4d0c2f3375,6103650190107e826d31b1bd,2021-07-29_22h36.02.369,Simcolourproject_2stim_asymm_v5,2020.2.10,Win32,60,61025ae37ef11b136ea224fe,,,,,,,,,1357,22,65,1,0,0,response1disk,,7,-2,2,1,0,0,rectangle,-2,2,1,0,0,-2,2,1,0,0,1,108,268,105,1,,,,,,,,
,,,,,,,,,,,,,FF,,,,,,,,1.533,,,,,,,,,,,,,,,,,,,,,,6103514ec85d6a4d0c2f3375,6103650190107e826d31b1bd,2021-07-29_22h36.02.369,Simcolourproject_2stim_asymm_v5,2020.2.10,Win32,60,61025ae37ef11b136ea224fe,,,,,,,,,4252,-24,-61,1,0,0,response5disk,,3,10,2,1,0,0,rectangle,10,2,1,0,0,10,2,1,0,0,1,109,269,41,1,,,,,,,,
,,,,,,,,,,,,,FF,,,,,,,,0.516,,,,,,,,,,,,,,,,,,,,,,6103514ec85d6a4d0c2f3375,6103650190107e826d31b1bd,2021-07-29_22h36.02.369,Simcolourproject_2stim_asymm_v5,2020.2.10,Win32,60,61025ae37ef11b136ea224fe,,,,,,,,,2198,29,70,1,0,0,response1disk,,7,18,10,1,0,0,rectangle,18,10,1,0,0,18,10,1,0,0,1,110,270,106,1,,,,,,,,
,,,,,,,,,,,,,FF,,,,,,,,0.449,,,,,,,,,,,,,,,,,,,,,,6103514ec85d6a4d0c2f3375,6103650190107e826d31b1bd,2021-07-29_22h36.02.369,Simcolourproject_2stim_asymm_v5,2020.2.10,Win32,60,61025ae37ef11b136ea224fe,,,,,,,,,1279,32,62,1,0,0,response1disk,,7,10,-8,1,0,0,rectangle,10,-8,1,0,0,10,-8,1,0,0,1,111,271,123,1,,,,,,,,
,,,,,,,,,,,,,FF,,,,,,,,0.8,,,,,,,,,,,,,,,,,,,,,,6103514ec85d6a4d0c2f3375,6103650190107e826d31b1bd,2021-07-29_22h36.02.369,Simcolourproject_2stim_asymm_v5,2020.2.10,Win32,60,61025ae37ef11b136ea224fe,,,,,,,,,4261,29,70,1,0,0,response1disk,,7,6,10,1,0,0,rectangle,6,10,1,0,0,6,10,1,0,0,1,112,272,55,1,,,,,,,,
,,,,,,,,,,,,,FF,,,,,,,,2.115,,,,,,,,,,,,,,,,,,,,,,6103514ec85d6a4d0c2f3375,6103650190107e826d31b1bd,2021-07-29_22h36.02.369,Simcolourproject_2stim_asymm_v5,2020.2.10,Win32,60,61025ae37ef11b136ea224fe,,,,,,,,,2188,97,-32,1,0,0,response3disk,,5,34,-3,1,0,0,rectangle,34,-3,1,0,0,34,-3,1,0,0,1,113,273,158,1,,,,,,,,
,,,,,,,,,,,,,FF,,,,,,,,0.649,,,,,,,,,,,,,,,,,,,,,,6103514ec85d6a4d0c2f3375,6103650190107e826d31b1bd,2021-07-29_22h36.02.369,Simcolourproject_2stim_asymm_v5,2020.2.10,Win32,60,61025ae37ef11b136ea224fe,,,,,,,,,340,18,66,1,0,0,response1disk,,7,10,-5,1,0,0,rectangle,10,-5,1,0,0,10,-5,1,0,0,1,114,274,89,1,,,,,,,,
,,,,,,,,,,,,,FF,,,,,,,,0.433,,,,,,,,,,,,,,,,,,,,,,6103514ec85d6a4d0c2f3375,6103650190107e826d31b1bd,2021-07-29_22h36.02.369,Simcolourproject_2stim_asymm_v5,2020.2.10,Win32,60,61025ae37ef11b136ea224fe,,,,,,,,,1095,30,62,1,0,0,response1disk,,7,6,2,1,0,0,rectangle,6,2,1,0,0,6,2,1,0,0,1,115,275,125,1,,,,,,,,
,,,,,,,,,,,,,FF,,,,,,,,1.399,,,,,,,,,,,,,,,,,,,,,,6103514ec85d6a4d0c2f3375,6103650190107e826d31b1bd,2021-07-29_22h36.02.369,Simcolourproject_2stim_asymm_v5,2020.2.10,Win32,60,61025ae37ef11b136ea224fe,,,,,,,,,3392,92,44,1,0,0,response1disk,,6,16,-1,1,0,0,rectangle,16,-1,1,0,0,16,-1,1,0,0,1,116,276,86,1,,,,,,,,
,,,,,,,,,,,,,FF,,,,,,,,1.416,,,,,,,,,,,,,,,,,,,,,,6103514ec85d6a4d0c2f3375,6103650190107e826d31b1bd,2021-07-29_22h36.02.369,Simcolourproject_2stim_asymm_v5,2020.2.10,Win32,60,61025ae37ef11b136ea224fe,,,,,,,,,100,90,-42,1,0,0,response3disk,,5,7,-11,1,0,0,rectangle,7,-11,1,0,0,7,-11,1,0,0,1,117,277,71,1,,,,,,,,
,,,,,,,,,,,,,FF,,,,,,,,0.75,,,,,,,,,,,,,,,,,,,,,,6103514ec85d6a4d0c2f3375,6103650190107e826d31b1bd,2021-07-29_22h36.02.369,Simcolourproject_2stim_asymm_v5,2020.2.10,Win32,60,61025ae37ef11b136ea224fe,,,,,,,,,2148,27,61,1,0,0,response1disk,,7,-6,3,1,0,0,rectangle,-6,3,1,0,0,-6,3,1,0,0,1,118,278,149,1,,,,,,,,
,,,,,,,,,,,,,FF,,,,,,,,0.583,,,,,,,,,,,,,,,,,,,,,,6103514ec85d6a4d0c2f3375,6103650190107e826d31b1bd,2021-07-29_22h36.02.369,Simcolourproject_2stim_asymm_v5,2020.2.10,Win32,60,61025ae37ef11b136ea224fe,,,,,,,,,1724,18,66,1,0,0,response1disk,,7,4,3,1,0,0,rectangle,4,3,1,0,0,4,3,1,0,0,1,119,279,2,1,,,,,,,,
,,,,,,,,,,,,,FF,,,,,,,,0.467,,,,,,,,,,,,,,,,,,,,,,6103514ec85d6a4d0c2f3375,6103650190107e826d31b1bd,2021-07-29_22h36.02.369,Simcolourproject_2stim_asymm_v5,2020.2.10,Win32,60,61025ae37ef11b136ea224fe,,,,,,,,,2531,48,69,1,0,0,response1disk,,7,7,0,1,0,0,rectangle,7,0,1,0,0,7,0,1,0,0,1,120,280,114,1,,,,,,,,
,,,,,,,,,,,,,FF,,,,,,,,0.716,,,,,,,,,,,,,,,,,,,,,,6103514ec85d6a4d0c2f3375,6103650190107e826d31b1bd,2021-07-29_22h36.02.369,Simcolourproject_2stim_asymm_v5,2020.2.10,Win32,60,61025ae37ef11b136ea224fe,,,,,,,,,2340,42,76,1,0,0,response1disk,,7,11,14,1,0,0,rectangle,11,14,1,0,0,11,14,1,0,0,1,121,281,133,1,,,,,,,,
,,,,,,,,,,,,,FF,,,,,,,,0.416,,,,,,,,,,,,,,,,,,,,,,6103514ec85d6a4d0c2f3375,6103650190107e826d31b1bd,2021-07-29_22h36.02.369,Simcolourproject_2stim_asymm_v5,2020.2.10,Win32,60,61025ae37ef11b136ea224fe,,,,,,,,,756,28,61,1,0,0,response1disk,,7,8,2,1,0,0,rectangle,8,2,1,0,0,8,2,1,0,0,1,122,282,8,1,,,,,,,,
,,,,,,,,,,,,,FF,,,,,,,,0.584,,,,,,,,,,,,,,,,,,,,,,6103514ec85d6a4d0c2f3375,6103650190107e826d31b1bd,2021-07-29_22h36.02.369,Simcolourproject_2stim_asymm_v5,2020.2.10,Win32,60,61025ae37ef11b136ea224fe,,,,,,,,,1812,30,70,1,0,0,response1disk,,7,-2,-1,1,0,0,rectangle,-2,-1,1,0,0,-2,-1,1,0,0,1,123,283,121,1,,,,,,,,
,,,,,,,,,,,,,FF,,,,,,,,0.416,,,,,,,,,,,,,,,,,,,,,,6103514ec85d6a4d0c2f3375,6103650190107e826d31b1bd,2021-07-29_22h36.02.369,Simcolourproject_2stim_asymm_v5,2020.2.10,Win32,60,61025ae37ef11b136ea224fe,,,,,,,,,1359,26,68,1,0,0,response1disk,,7,-1,-5,1,0,0,rectangle,-1,-5,1,0,0,-1,-5,1,0,0,1,124,284,107,1,,,,,,,,
,,,,,,,,,,,,,FF,,,,,,,,0.383,,,,,,,,,,,,,,,,,,,,,,6103514ec85d6a4d0c2f3375,6103650190107e826d31b1bd,2021-07-29_22h36.02.369,Simcolourproject_2stim_asymm_v5,2020.2.10,Win32,60,61025ae37ef11b136ea224fe,,,,,,,,,1679,36,61,1,0,0,response1disk,,7,7,2,1,0,0,rectangle,7,2,1,0,0,7,2,1,0,0,1,125,285,20,1,,,,,,,,
,,,,,,,,,,,,,FF,,,,,,,,0.366,,,,,,,,,,,,,,,,,,,,,,6103514ec85d6a4d0c2f3375,6103650190107e826d31b1bd,2021-07-29_22h36.02.369,Simcolourproject_2stim_asymm_v5,2020.2.10,Win32,60,61025ae37ef11b136ea224fe,,,,,,,,,679,28,62,1,0,0,response1disk,,7,6,10,1,0,0,rectangle,6,10,1,0,0,6,10,1,0,0,1,126,286,43,1,,,,,,,,
,,,,,,,,,,,,,FF,,,,,,,,1.583,,,,,,,,,,,,,,,,,,,,,,6103514ec85d6a4d0c2f3375,6103650190107e826d31b1bd,2021-07-29_22h36.02.369,Simcolourproject_2stim_asymm_v5,2020.2.10,Win32,60,61025ae37ef11b136ea224fe,,,,,,,,,2668,50,-71,1,0,0,response3disk,,4,-10,13,1,0,0,rectangle,-10,13,1,0,0,-10,13,1,0,0,1,127,287,75,1,,,,,,,,
,,,,,,,,,,,,,FF,,,,,,,,1.266,,,,,,,,,,,,,,,,,,,,,,6103514ec85d6a4d0c2f3375,6103650190107e826d31b1bd,2021-07-29_22h36.02.369,Simcolourproject_2stim_asymm_v5,2020.2.10,Win32,60,61025ae37ef11b136ea224fe,,,,,,,,,3715,32,68,1,0,0,response1disk,,7,-6,4,1,0,0,rectangle,-6,4,1,0,0,-6,4,1,0,0,1,128,288,85,1,,,,,,,,
,,,,,,,,,,,,,FF,,,,,,,,2.049,,,,,,,,,,,,,,,,,,,,,,6103514ec85d6a4d0c2f3375,6103650190107e826d31b1bd,2021-07-29_22h36.02.369,Simcolourproject_2stim_asymm_v5,2020.2.10,Win32,60,61025ae37ef11b136ea224fe,,,,,,,,,3393,90,-32,1,0,0,response3disk,,5,16,-2,1,0,0,rectangle,16,-2,1,0,0,16,-2,1,0,0,1,129,289,32,1,,,,,,,,
,,,,,,,,,,,,,FF,,,,,,,,0.617,,,,,,,,,,,,,,,,,,,,,,6103514ec85d6a4d0c2f3375,6103650190107e826d31b1bd,2021-07-29_22h36.02.369,Simcolourproject_2stim_asymm_v5,2020.2.10,Win32,60,61025ae37ef11b136ea224fe,,,,,,,,,1123,32,66,1,0,0,response1disk,,7,-2,6,1,0,0,rectangle,41,-84,1,0,0,-7,10,1,0,0,1,130,290,72,1,,response3disk_3,TRUE,4,4,"[87,303,258,121,39,46,174,95,95,291,88,186,83,265,304,140,253,175,117,191]",1.799,rectangle
,,,,,,,,,,,,,FF,,,,,,,,0.849,,,,,,,,,,,,,,,,,,,,,,6103514ec85d6a4d0c2f3375,6103650190107e826d31b1bd,2021-07-29_22h36.02.369,Simcolourproject_2stim_asymm_v5,2020.2.10,Win32,60,61025ae37ef11b136ea224fe,,,,,,,,,2045,50,77,1,0,0,response1disk,,7,11,-2,1,0,0,rectangle,11,-2,1,0,0,11,-2,1,0,0,1,131,291,51,1,,,,,,,,
,,,,,,,,,,,,,FF,,,,,,,,1.466,,,,,,,,,,,,,,,,,,,,,,6103514ec85d6a4d0c2f3375,6103650190107e826d31b1bd,2021-07-29_22h36.02.369,Simcolourproject_2stim_asymm_v5,2020.2.10,Win32,60,61025ae37ef11b136ea224fe,,,,,,,,,81,36,69,1,0,0,response1disk,,7,2,8,1,0,0,rectangle,2,8,1,0,0,2,8,1,0,0,1,132,292,9,1,,,,,,,,
,,,,,,,,,,,,,FF,,,,,,,,0.416,,,,,,,,,,,,,,,,,,,,,,6103514ec85d6a4d0c2f3375,6103650190107e826d31b1bd,2021-07-29_22h36.02.369,Simcolourproject_2stim_asymm_v5,2020.2.10,Win32,60,61025ae37ef11b136ea224fe,,,,,,,,,558,28,74,1,0,0,response1disk,,7,7,3,1,0,0,rectangle,7,3,1,0,0,7,3,1,0,0,1,133,293,152,1,,,,,,,,
,,,,,,,,,,,,,FF,,,,,,,,1.366,,,,,,,,,,,,,,,,,,,,,,6103514ec85d6a4d0c2f3375,6103650190107e826d31b1bd,2021-07-29_22h36.02.369,Simcolourproject_2stim_asymm_v5,2020.2.10,Win32,60,61025ae37ef11b136ea224fe,,,,,,,,,1783,30,62,1,0,0,response1disk,,7,10,2,1,0,0,rectangle,10,2,1,0,0,10,2,1,0,0,1,134,294,4,1,,,,,,,,
,,,,,,,,,,,,,FF,,,,,,,,2.048,,,,,,,,,,,,,,,,,,,,,,6103514ec85d6a4d0c2f3375,6103650190107e826d31b1bd,2021-07-29_22h36.02.369,Simcolourproject_2stim_asymm_v5,2020.2.10,Win32,60,61025ae37ef11b136ea224fe,,,,,,,,,1304,-47,-61,1,0,0,response5disk,,3,9,1,1,0,0,rectangle,9,1,1,0,0,9,1,1,0,0,1,135,295,84,1,,,,,,,,
,,,,,,,,,,,,,FF,,,,,,,,0.499,,,,,,,,,,,,,,,,,,,,,,6103514ec85d6a4d0c2f3375,6103650190107e826d31b1bd,2021-07-29_22h36.02.369,Simcolourproject_2stim_asymm_v5,2020.2.10,Win32,60,61025ae37ef11b136ea224fe,,,,,,,,,34,34,65,1,0,0,response1disk,,7,7,-1,1,0,0,rectangle,7,-1,1,0,0,7,-1,1,0,0,1,136,296,102,1,,,,,,,,
,,,,,,,,,,,,,FF,,,,,,,,0.416,,,,,,,,,,,,,,,,,,,,,,6103514ec85d6a4d0c2f3375,6103650190107e826d31b1bd,2021-07-29_22h36.02.369,Simcolourproject_2stim_asymm_v5,2020.2.10,Win32,60,61025ae37ef11b136ea224fe,,,,,,,,,2918,18,57,1,0,0,response1disk,,7,10,8,1,0,0,rectangle,10,8,1,0,0,10,8,1,0,0,1,137,297,33,1,,,,,,,,
,,,,,,,,,,,,,FF,,,,,,,,0.484,,,,,,,,,,,,,,,,,,,,,,6103514ec85d6a4d0c2f3375,6103650190107e826d31b1bd,2021-07-29_22h36.02.369,Simcolourproject_2stim_asymm_v5,2020.2.10,Win32,60,61025ae37ef11b136ea224fe,,,,,,,,,3762,30,74,1,0,0,response1disk,,7,3,14,1,0,0,rectangle,3,14,1,0,0,3,14,1,0,0,1,138,298,127,1,,,,,,,,
,,,,,,,,,,,,,FF,,,,,,,,0.367,,,,,,,,,,,,,,,,,,,,,,6103514ec85d6a4d0c2f3375,6103650190107e826d31b1bd,2021-07-29_22h36.02.369,Simcolourproject_2stim_asymm_v5,2020.2.10,Win32,60,61025ae37ef11b136ea224fe,,,,,,,,,3854,29,62,1,0,0,response1disk,,7,12,12,1,0,0,rectangle,12,12,1,0,0,12,12,1,0,0,1,139,299,157,1,,,,,,,,
,,,,,,,,,,,,,FF,,,,,,,,0.35,,,,,,,,,,,,,,,,,,,,,,6103514ec85d6a4d0c2f3375,6103650190107e826d31b1bd,2021-07-29_22h36.02.369,Simcolourproject_2stim_asymm_v5,2020.2.10,Win32,60,61025ae37ef11b136ea224fe,,,,,,,,,2348,37,70,1,0,0,response1disk,,7,8,4,1,0,0,rectangle,8,4,1,0,0,8,4,1,0,0,1,140,300,92,1,,,,,,,,
,,,,,,,,,,,,,FF,,,,,,,,0.434,,,,,,,,,,,,,,,,,,,,,,6103514ec85d6a4d0c2f3375,6103650190107e826d31b1bd,2021-07-29_22h36.02.369,Simcolourproject_2stim_asymm_v5,2020.2.10,Win32,60,61025ae37ef11b136ea224fe,,,,,,,,,4212,34,70,1,0,0,response1disk,,7,6,-1,1,0,0,rectangle,6,-1,1,0,0,6,-1,1,0,0,1,141,301,19,1,,,,,,,,
,,,,,,,,,,,,,FF,,,,,,,,2.432,,,,,,,,,,,,,,,,,,,,,,6103514ec85d6a4d0c2f3375,6103650190107e826d31b1bd,2021-07-29_22h36.02.369,Simcolourproject_2stim_asymm_v5,2020.2.10,Win32,60,61025ae37ef11b136ea224fe,,,,,,,,,1684,33,-78,1,0,0,response3disk,,4,8,1,1,0,0,rectangle,41,88,1,0,0,-6,10,1,0,0,1,142,302,155,1,,response1disk_3,TRUE,7,6,"[87,303,258,121,39,46,174,95,95,291,88,186,83,265,304,140,253,175,117,191]",0.732,rectangle
,,,,,,,,,,,,,FF,,,,,,,,0.532,,,,,,,,,,,,,,,,,,,,,,6103514ec85d6a4d0c2f3375,6103650190107e826d31b1bd,2021-07-29_22h36.02.369,Simcolourproject_2stim_asymm_v5,2020.2.10,Win32,60,61025ae37ef11b136ea224fe,,,,,,,,,2370,50,82,1,0,0,response1disk,,7,-14,6,1,0,0,rectangle,29,82,1,0,0,2,7,1,0,0,1,143,303,77,1,,response1disk_3,TRUE,7,2,"[87,303,258,121,39,46,174,95,95,291,88,186,83,265,304,140,253,175,117,191]",1.066,rectangle
,,,,,,,,,,,,,FF,,,,,,,,0.499,,,,,,,,,,,,,,,,,,,,,,6103514ec85d6a4d0c2f3375,6103650190107e826d31b1bd,2021-07-29_22h36.02.369,Simcolourproject_2stim_asymm_v5,2020.2.10,Win32,60,61025ae37ef11b136ea224fe,,,,,,,,,2412,30,77,1,0,0,response1disk,,7,8,2,1,0,0,rectangle,8,2,1,0,0,8,2,1,0,0,1,144,304,81,1,,,,,,,,
,,,,,,,,,,,,,FF,,,,,,,,0.633,,,,,,,,,,,,,,,,,,,,,,6103514ec85d6a4d0c2f3375,6103650190107e826d31b1bd,2021-07-29_22h36.02.369,Simcolourproject_2stim_asymm_v5,2020.2.10,Win32,60,61025ae37ef11b136ea224fe,,,,,,,,,143,30,78,1,0,0,response1disk,,7,6,2,1,0,0,rectangle,6,2,1,0,0,6,2,1,0,0,1,145,305,54,1,,,,,,,,
