key_resp.keys,key_resp.rt,key_resp_14.keys,key_resp_14.rt,key_resp_15.keys,key_resp_15.rt,key_resp_17.keys,key_resp_17.rt,key_resp_9.keys,key_resp_9.rt,key_resp_10.keys,key_resp_10.rt,practice_comparison,Ecc,mouse_5.x,mouse_5.y,mouse_5.leftButton,mouse_5.midButton,mouse_5.rightButton,mouse_5.clicked_name,pracsimilarity,response_time,mouse_10.x,mouse_10.y,mouse_10.leftButton,mouse_10.midButton,mouse_10.rightButton,mouse_10.clicked_name,mouse_7.x,mouse_7.y,mouse_7.leftButton,mouse_7.midButton,mouse_7.rightButton,mouse_6.x,mouse_6.y,mouse_6.leftButton,mouse_6.midButton,mouse_6.rightButton,duringprac.thisRepN,duringprac.thisTrialN,duringprac.thisN,duringprac.thisIndex,duringprac.ran,participant,session,date,expName,psychopyVersion,OS,frameRate,study_id,mouse_7.clicked_name,catchpracsimilarity,catch_response_time,catchnumberprac,catchtrialorderprac,mouse_6.clicked_name,key_resp_22.keys,key_resp_22.rt,realcomparison,mouse.x,mouse.y,mouse.leftButton,mouse.midButton,mouse.rightButton,mouse.clicked_name,Colour2,similarity,mouse_2.x,mouse_2.y,mouse_2.leftButton,mouse_2.midButton,mouse_2.rightButton,mouse_2.clicked_name,mouse_3.x,mouse_3.y,mouse_3.leftButton,mouse_3.midButton,mouse_3.rightButton,mouse_11.x,mouse_11.y,mouse_11.leftButton,mouse_11.midButton,mouse_11.rightButton,trials_2.thisRepN,trials_2.thisTrialN,trials_2.thisN,trials_2.thisIndex,trials_2.ran,Colour1,mouse_3.clicked_name,catchornah,catchsimilarity,catchnumber,catchtrialorder,catchRT,mouse_11.clicked_name
space,1.6921,space,15.1348,space,46.7854,space,7.1767,space,3.1393,space,4.7932,16,PF,-57.46069336,-136.6706543,1,0,0,response5disk_5,3,17.0189,-2.098999023,5.655212402,1,0,0,rectangle_8,-2.098999023,5.655212402,1,0,0,-2.098999023,5.655212402,1,0,0,0,0,0,1,1,6103678437cbd80e381c5863,61036ce3a4a62b80b2de0e71,2021-07-29_20h08.01.918,Simcolourproject_2stim_asymm_v5,2020.2.10,MacIntel,60,61025ae37ef11b136ea224fe,,,,,,,,,,,,,,,,,,,,,,,,,,,,,,,,,,,,,,,,,,,,,,
,,,,,,,,,,,,118,PF,-126.2514648,-48.5534668,1,0,0,response5disk_5,2,4.3351,-34.23693848,-13.62298584,1,0,0,rectangle_8,51.90014648,124.3956299,1,0,0,-2.100952148,3.799377441,1,0,0,0,1,1,2,1,6103678437cbd80e381c5863,61036ce3a4a62b80b2de0e71,2021-07-29_20h08.01.918,Simcolourproject_2stim_asymm_v5,2020.2.10,MacIntel,60,61025ae37ef11b136ea224fe,response1disk_7,7,2.8052,7,"[2,5]",rectangle_4,,,,,,,,,,,,,,,,,,,,,,,,,,,,,,,,,,,,,,,,
,,,,,,,,,,,,117,FF,-46.85229492,-107.779541,1,0,0,response5disk_5,3,2.8333,-3.609619141,1.837585449,1,0,0,rectangle_8,-3.609619141,1.837585449,1,0,0,-3.609619141,1.837585449,1,0,0,0,2,2,0,1,6103678437cbd80e381c5863,61036ce3a4a62b80b2de0e71,2021-07-29_20h08.01.918,Simcolourproject_2stim_asymm_v5,2020.2.10,MacIntel,60,61025ae37ef11b136ea224fe,,,,,,,,,,,,,,,,,,,,,,,,,,,,,,,,,,,,,,,,,,,,,,
,,,,,,,,,,,,11,PF,43.89868164,106.3516235,1,0,0,response1disk_5,7,2.501,-4.064086914,-9.750549316,1,0,0,rectangle_8,-4.064086914,-9.750549316,1,0,0,-4.064086914,-9.750549316,1,0,0,0,3,3,4,1,6103678437cbd80e381c5863,61036ce3a4a62b80b2de0e71,2021-07-29_20h08.01.918,Simcolourproject_2stim_asymm_v5,2020.2.10,MacIntel,60,61025ae37ef11b136ea224fe,,,,,,,,,,,,,,,,,,,,,,,,,,,,,,,,,,,,,,,,,,,,,,
,,,,,,,,,,,,2,PF,118.7008057,52.1463623,1,0,0,response1disk_5,6,3.3377,-2.393676758,-6.022705078,1,0,0,rectangle_8,72.67443848,139.6604004,1,0,0,-5.427368164,-13.05078125,1,0,0,0,4,4,6,1,6103678437cbd80e381c5863,61036ce3a4a62b80b2de0e71,2021-07-29_20h08.01.918,Simcolourproject_2stim_asymm_v5,2020.2.10,MacIntel,60,61025ae37ef11b136ea224fe,response1disk_7,7,1.683,7,"[2,5]",rectangle_4,,,,,,,,,,,,,,,,,,,,,,,,,,,,,,,,,,,,,,,,
,,,,,,,,,,,,88,FF,47.09277344,142.7087402,1,0,0,response1disk_5,7,6.3558,-1.474243164,7.499511719,1,0,0,rectangle_8,-1.474243164,7.499511719,1,0,0,-1.474243164,7.499511719,1,0,0,0,5,5,5,1,6103678437cbd80e381c5863,61036ce3a4a62b80b2de0e71,2021-07-29_20h08.01.918,Simcolourproject_2stim_asymm_v5,2020.2.10,MacIntel,60,61025ae37ef11b136ea224fe,,,,,,,,,,,,,,,,,,,,,,,,,,,,,,,,,,,,,,,,,,,,,,
,,,,,,,,,,,,131,FF,-54.6081543,-90.71081543,1,0,0,response5disk_5,3,2.3495,-17.46826172,-6.69354248,1,0,0,rectangle_8,-17.46826172,-6.69354248,1,0,0,-17.46826172,-6.69354248,1,0,0,0,6,6,3,1,6103678437cbd80e381c5863,61036ce3a4a62b80b2de0e71,2021-07-29_20h08.01.918,Simcolourproject_2stim_asymm_v5,2020.2.10,MacIntel,60,61025ae37ef11b136ea224fe,,,,,,,,,,,,,,,,,,,,,,,,,,,,,,,,,,,,,,,,,,,,,,
,,,,,,,,,,,,,FF,,,,,,,,3.1869,,,,,,,,,,,,,,,,,,,,,,6103678437cbd80e381c5863,61036ce3a4a62b80b2de0e71,2021-07-29_20h08.01.918,Simcolourproject_2stim_asymm_v5,2020.2.10,MacIntel,60,61025ae37ef11b136ea224fe,,,,,,,space,2.6697,2116,50.77148438,89.46765137,1,0,0,response1disk,,7,1.173095703,-0.146240234,1,0,0,rectangle,1.173095703,-0.146240234,1,0,0,1.173095703,-0.146240234,1,0,0,0,0,0,91,1,,,,,,,,
,,,,,,,,,,,,,FF,,,,,,,,3.9042,,,,,,,,,,,,,,,,,,,,,,6103678437cbd80e381c5863,61036ce3a4a62b80b2de0e71,2021-07-29_20h08.01.918,Simcolourproject_2stim_asymm_v5,2020.2.10,MacIntel,60,61025ae37ef11b136ea224fe,,,,,,,,,4369,-64.70776367,109.9747925,1,0,0,response7disk,,0,-5.149291992,-6.700622559,1,0,0,rectangle,-5.149291992,-6.700622559,1,0,0,-5.149291992,-6.700622559,1,0,0,0,1,1,34,1,,,,,,,,
,,,,,,,,,,,,,FF,,,,,,,,1.6512,,,,,,,,,,,,,,,,,,,,,,6103678437cbd80e381c5863,61036ce3a4a62b80b2de0e71,2021-07-29_20h08.01.918,Simcolourproject_2stim_asymm_v5,2020.2.10,MacIntel,60,61025ae37ef11b136ea224fe,,,,,,,,,212,105.0029297,35.22570801,1,0,0,response1disk,,6,3.119506836,3.475952148,1,0,0,rectangle,3.119506836,3.475952148,1,0,0,3.119506836,3.475952148,1,0,0,0,2,2,79,1,,,,,,,,
,,,,,,,,,,,,,FF,,,,,,,,2.135,,,,,,,,,,,,,,,,,,,,,,6103678437cbd80e381c5863,61036ce3a4a62b80b2de0e71,2021-07-29_20h08.01.918,Simcolourproject_2stim_asymm_v5,2020.2.10,MacIntel,60,61025ae37ef11b136ea224fe,,,,,,,,,1369,-126.1464844,-82.46130371,1,0,0,response5disk,,2,-23.25292969,-15.00665283,1,0,0,rectangle,-23.25292969,-15.00665283,1,0,0,-23.25292969,-15.00665283,1,0,0,0,3,3,9,1,,,,,,,,
,,,,,,,,,,,,,FF,,,,,,,,2.9373,,,,,,,,,,,,,,,,,,,,,,6103678437cbd80e381c5863,61036ce3a4a62b80b2de0e71,2021-07-29_20h08.01.918,Simcolourproject_2stim_asymm_v5,2020.2.10,MacIntel,60,61025ae37ef11b136ea224fe,,,,,,,,,2289,60.87597656,-125.472168,1,0,0,response3disk,,4,14.32006836,-13.09277344,1,0,0,rectangle,14.32006836,-13.09277344,1,0,0,14.32006836,-13.09277344,1,0,0,0,4,4,62,1,,,,,,,,
,,,,,,,,,,,,,FF,,,,,,,,2.8871,,,,,,,,,,,,,,,,,,,,,,6103678437cbd80e381c5863,61036ce3a4a62b80b2de0e71,2021-07-29_20h08.01.918,Simcolourproject_2stim_asymm_v5,2020.2.10,MacIntel,60,61025ae37ef11b136ea224fe,,,,,,,,,1763,53.42248535,-101.8534546,1,0,0,response3disk,,4,3.53527832,7.950317383,1,0,0,rectangle,3.53527832,7.950317383,1,0,0,3.53527832,7.950317383,1,0,0,0,5,5,147,1,,,,,,,,
,,,,,,,,,,,,,FF,,,,,,,,1.6872,,,,,,,,,,,,,,,,,,,,,,6103678437cbd80e381c5863,61036ce3a4a62b80b2de0e71,2021-07-29_20h08.01.918,Simcolourproject_2stim_asymm_v5,2020.2.10,MacIntel,60,61025ae37ef11b136ea224fe,,,,,,,,,2947,-98.47546387,-62.52893066,1,0,0,response5disk,,2,6.505126953,5.024841309,1,0,0,rectangle,6.505126953,5.024841309,1,0,0,6.505126953,5.024841309,1,0,0,0,6,6,68,1,,,,,,,,
,,,,,,,,,,,,,FF,,,,,,,,2.9017,,,,,,,,,,,,,,,,,,,,,,6103678437cbd80e381c5863,61036ce3a4a62b80b2de0e71,2021-07-29_20h08.01.918,Simcolourproject_2stim_asymm_v5,2020.2.10,MacIntel,60,61025ae37ef11b136ea224fe,,,,,,,,,1098,139.6162109,-79.87811279,1,0,0,response3disk,,5,-12.35437012,-2.387390137,1,0,0,rectangle,-12.35437012,-2.387390137,1,0,0,-12.35437012,-2.387390137,1,0,0,0,7,7,1,1,,,,,,,,
,,,,,,,,,,,,,FF,,,,,,,,1.7001,,,,,,,,,,,,,,,,,,,,,,6103678437cbd80e381c5863,61036ce3a4a62b80b2de0e71,2021-07-29_20h08.01.918,Simcolourproject_2stim_asymm_v5,2020.2.10,MacIntel,60,61025ae37ef11b136ea224fe,,,,,,,,,246,39.50744629,-121.0427856,1,0,0,response3disk,,4,20.89318848,-4.429260254,1,0,0,rectangle,20.89318848,-4.429260254,1,0,0,20.89318848,-4.429260254,1,0,0,0,8,8,71,1,,,,,,,,
,,,,,,,,,,,,,FF,,,,,,,,6.206,,,,,,,,,,,,,,,,,,,,,,6103678437cbd80e381c5863,61036ce3a4a62b80b2de0e71,2021-07-29_20h08.01.918,Simcolourproject_2stim_asymm_v5,2020.2.10,MacIntel,60,61025ae37ef11b136ea224fe,,,,,,,,,2535,70.17016602,-134.8909302,1,0,0,response3disk,,4,11.12939453,-7.161010742,1,0,0,rectangle,11.12939453,-7.161010742,1,0,0,11.12939453,-7.161010742,1,0,0,0,9,9,119,1,,,,,,,,
,,,,,,,,,,,,,FF,,,,,,,,1.4677,,,,,,,,,,,,,,,,,,,,,,6103678437cbd80e381c5863,61036ce3a4a62b80b2de0e71,2021-07-29_20h08.01.918,Simcolourproject_2stim_asymm_v5,2020.2.10,MacIntel,60,61025ae37ef11b136ea224fe,,,,,,,,,281,-55.03759766,-124.0418701,1,0,0,response5disk,,3,-10.50976563,-0.275512695,1,0,0,rectangle,-10.50976563,-0.275512695,1,0,0,-10.50976563,-0.275512695,1,0,0,0,10,10,17,1,,,,,,,,
,,,,,,,,,,,,,FF,,,,,,,,2.2537,,,,,,,,,,,,,,,,,,,,,,6103678437cbd80e381c5863,61036ce3a4a62b80b2de0e71,2021-07-29_20h08.01.918,Simcolourproject_2stim_asymm_v5,2020.2.10,MacIntel,60,61025ae37ef11b136ea224fe,,,,,,,,,2991,140.5882568,70.13909912,1,0,0,response1disk,,6,16.54040527,-1.640869141,1,0,0,rectangle,16.54040527,-1.640869141,1,0,0,16.54040527,-1.640869141,1,0,0,0,11,11,25,1,,,,,,,,
,,,,,,,,,,,,,FF,,,,,,,,1.8025,,,,,,,,,,,,,,,,,,,,,,6103678437cbd80e381c5863,61036ce3a4a62b80b2de0e71,2021-07-29_20h08.01.918,Simcolourproject_2stim_asymm_v5,2020.2.10,MacIntel,60,61025ae37ef11b136ea224fe,,,,,,,,,418,85.50939941,-49.08789063,1,0,0,response3disk,,5,-0.792114258,-1.439758301,1,0,0,rectangle,-0.792114258,-1.439758301,1,0,0,-0.792114258,-1.439758301,1,0,0,0,12,12,85,1,,,,,,,,
,,,,,,,,,,,,,FF,,,,,,,,27.0394,,,,,,,,,,,,,,,,,,,,,,6103678437cbd80e381c5863,61036ce3a4a62b80b2de0e71,2021-07-29_20h08.01.918,Simcolourproject_2stim_asymm_v5,2020.2.10,MacIntel,60,61025ae37ef11b136ea224fe,,,,,,,,,2778,52.01513672,-114.6802979,1,0,0,response3disk,,4,29.8927002,-17.00213623,1,0,0,rectangle,29.8927002,-17.00213623,1,0,0,29.8927002,-17.00213623,1,0,0,0,13,13,74,1,,,,,,,,
,,,,,,,,,,,,,FF,,,,,,,,1.1013,,,,,,,,,,,,,,,,,,,,,,6103678437cbd80e381c5863,61036ce3a4a62b80b2de0e71,2021-07-29_20h08.01.918,Simcolourproject_2stim_asymm_v5,2020.2.10,MacIntel,60,61025ae37ef11b136ea224fe,,,,,,,,,1375,-99.75952148,-62.50439453,1,0,0,response5disk,,2,30.72485352,-1.47869873,1,0,0,rectangle,30.72485352,-1.47869873,1,0,0,30.72485352,-1.47869873,1,0,0,0,14,14,126,1,,,,,,,,
,,,,,,,,,,,,,FF,,,,,,,,1.5513,,,,,,,,,,,,,,,,,,,,,,6103678437cbd80e381c5863,61036ce3a4a62b80b2de0e71,2021-07-29_20h08.01.918,Simcolourproject_2stim_asymm_v5,2020.2.10,MacIntel,60,61025ae37ef11b136ea224fe,,,,,,,,,248,-56.29187012,-125.1408691,1,0,0,response5disk,,3,12.59765625,4.142700195,1,0,0,rectangle,12.59765625,4.142700195,1,0,0,12.59765625,4.142700195,1,0,0,0,15,15,129,1,,,,,,,,
,,,,,,,,,,,,,FF,,,,,,,,2.7016,,,,,,,,,,,,,,,,,,,,,,6103678437cbd80e381c5863,61036ce3a4a62b80b2de0e71,2021-07-29_20h08.01.918,Simcolourproject_2stim_asymm_v5,2020.2.10,MacIntel,60,61025ae37ef11b136ea224fe,,,,,,,,,1925,57.52099609,-125.4702148,1,0,0,response3disk,,4,11.58557129,-4.272705078,1,0,0,rectangle,11.58557129,-4.272705078,1,0,0,11.58557129,-4.272705078,1,0,0,0,16,16,127,1,,,,,,,,
,,,,,,,,,,,,,FF,,,,,,,,2.302,,,,,,,,,,,,,,,,,,,,,,6103678437cbd80e381c5863,61036ce3a4a62b80b2de0e71,2021-07-29_20h08.01.918,Simcolourproject_2stim_asymm_v5,2020.2.10,MacIntel,60,61025ae37ef11b136ea224fe,,,,,,,,,878,108.2045898,73.88513184,1,0,0,response1disk,,6,6.518310547,0.887451172,1,0,0,rectangle,6.518310547,0.887451172,1,0,0,6.518310547,0.887451172,1,0,0,0,17,17,69,1,,,,,,,,
,,,,,,,,,,,,,FF,,,,,,,,1.4521,,,,,,,,,,,,,,,,,,,,,,6103678437cbd80e381c5863,61036ce3a4a62b80b2de0e71,2021-07-29_20h08.01.918,Simcolourproject_2stim_asymm_v5,2020.2.10,MacIntel,60,61025ae37ef11b136ea224fe,,,,,,,,,4239,-106.9337158,-84.1986084,1,0,0,response5disk,,2,-13.62316895,1.160827637,1,0,0,rectangle,-13.62316895,1.160827637,1,0,0,-13.62316895,1.160827637,1,0,0,0,18,18,67,1,,,,,,,,
,,,,,,,,,,,,,FF,,,,,,,,4.1548,,,,,,,,,,,,,,,,,,,,,,6103678437cbd80e381c5863,61036ce3a4a62b80b2de0e71,2021-07-29_20h08.01.918,Simcolourproject_2stim_asymm_v5,2020.2.10,MacIntel,60,61025ae37ef11b136ea224fe,,,,,,,,,2616,57.25805664,-133.6865234,1,0,0,response3disk,,4,-2.424316406,10.06396484,1,0,0,rectangle,-2.424316406,10.06396484,1,0,0,-2.424316406,10.06396484,1,0,0,0,19,19,102,1,,,,,,,,
,,,,,,,,,,,,,FF,,,,,,,,0.8999,,,,,,,,,,,,,,,,,,,,,,6103678437cbd80e381c5863,61036ce3a4a62b80b2de0e71,2021-07-29_20h08.01.918,Simcolourproject_2stim_asymm_v5,2020.2.10,MacIntel,60,61025ae37ef11b136ea224fe,,,,,,,,,2720,-95.02453613,-48.20336914,1,0,0,response5disk,,2,13.04431152,2.053588867,1,0,0,rectangle,13.04431152,2.053588867,1,0,0,13.04431152,2.053588867,1,0,0,0,20,20,23,1,,,,,,,,
,,,,,,,,,,,,,FF,,,,,,,,0.9173,,,,,,,,,,,,,,,,,,,,,,6103678437cbd80e381c5863,61036ce3a4a62b80b2de0e71,2021-07-29_20h08.01.918,Simcolourproject_2stim_asymm_v5,2020.2.10,MacIntel,60,61025ae37ef11b136ea224fe,,,,,,,,,3512,-135.2832031,48.13867188,1,0,0,response7disk,,1,-25.89416504,1.507751465,1,0,0,rectangle,-25.89416504,1.507751465,1,0,0,-25.89416504,1.507751465,1,0,0,0,21,21,97,1,,,,,,,,
,,,,,,,,,,,,,FF,,,,,,,,2.0015,,,,,,,,,,,,,,,,,,,,,,6103678437cbd80e381c5863,61036ce3a4a62b80b2de0e71,2021-07-29_20h08.01.918,Simcolourproject_2stim_asymm_v5,2020.2.10,MacIntel,60,61025ae37ef11b136ea224fe,,,,,,,,,1011,131.178833,-60.08172607,1,0,0,response3disk,,5,-20.44616699,2.288574219,1,0,0,rectangle,-20.44616699,2.288574219,1,0,0,-20.44616699,2.288574219,1,0,0,0,22,22,141,1,,,,,,,,
,,,,,,,,,,,,,FF,,,,,,,,2.6013,,,,,,,,,,,,,,,,,,,,,,6103678437cbd80e381c5863,61036ce3a4a62b80b2de0e71,2021-07-29_20h08.01.918,Simcolourproject_2stim_asymm_v5,2020.2.10,MacIntel,60,61025ae37ef11b136ea224fe,,,,,,,,,3803,100.2609863,-52.43328857,1,0,0,response3disk,,5,19.88378906,-0.704284668,1,0,0,rectangle,19.88378906,-0.704284668,1,0,0,19.88378906,-0.704284668,1,0,0,0,23,23,92,1,,,,,,,,
,,,,,,,,,,,,,FF,,,,,,,,1.67,,,,,,,,,,,,,,,,,,,,,,6103678437cbd80e381c5863,61036ce3a4a62b80b2de0e71,2021-07-29_20h08.01.918,Simcolourproject_2stim_asymm_v5,2020.2.10,MacIntel,60,61025ae37ef11b136ea224fe,,,,,,,,,4154,69.96484375,146.0464478,1,0,0,response1disk,,7,8.501220703,-3.234802246,1,0,0,rectangle,8.501220703,-3.234802246,1,0,0,8.501220703,-3.234802246,1,0,0,0,24,24,98,1,,,,,,,,
,,,,,,,,,,,,,FF,,,,,,,,1.8351,,,,,,,,,,,,,,,,,,,,,,6103678437cbd80e381c5863,61036ce3a4a62b80b2de0e71,2021-07-29_20h08.01.918,Simcolourproject_2stim_asymm_v5,2020.2.10,MacIntel,60,61025ae37ef11b136ea224fe,,,,,,,,,1228,46.75866699,-137.8908081,1,0,0,response3disk,,4,-1.750488281,-0.891418457,1,0,0,rectangle,-1.750488281,-0.891418457,1,0,0,-1.750488281,-0.891418457,1,0,0,0,25,25,157,1,,,,,,,,
,,,,,,,,,,,,,FF,,,,,,,,1.4535,,,,,,,,,,,,,,,,,,,,,,6103678437cbd80e381c5863,61036ce3a4a62b80b2de0e71,2021-07-29_20h08.01.918,Simcolourproject_2stim_asymm_v5,2020.2.10,MacIntel,60,61025ae37ef11b136ea224fe,,,,,,,,,3222,44.40649414,95.62225342,1,0,0,response1disk,,7,0.186767578,-13.40112305,1,0,0,rectangle,0.186767578,-13.40112305,1,0,0,0.186767578,-13.40112305,1,0,0,0,26,26,64,1,,,,,,,,
,,,,,,,,,,,,,FF,,,,,,,,1.4032,,,,,,,,,,,,,,,,,,,,,,6103678437cbd80e381c5863,61036ce3a4a62b80b2de0e71,2021-07-29_20h08.01.918,Simcolourproject_2stim_asymm_v5,2020.2.10,MacIntel,60,61025ae37ef11b136ea224fe,,,,,,,,,109,58.76245117,-99.96228027,1,0,0,response3disk,,4,12.05078125,3.569213867,1,0,0,rectangle,12.05078125,3.569213867,1,0,0,12.05078125,3.569213867,1,0,0,0,27,27,18,1,,,,,,,,
,,,,,,,,,,,,,FF,,,,,,,,1.85,,,,,,,,,,,,,,,,,,,,,,6103678437cbd80e381c5863,61036ce3a4a62b80b2de0e71,2021-07-29_20h08.01.918,Simcolourproject_2stim_asymm_v5,2020.2.10,MacIntel,60,61025ae37ef11b136ea224fe,,,,,,,,,3129,39.83557129,93.91870117,1,0,0,response1disk,,7,10.90405273,-13.25048828,1,0,0,rectangle,10.90405273,-13.25048828,1,0,0,10.90405273,-13.25048828,1,0,0,0,28,28,14,1,,,,,,,,
,,,,,,,,,,,,,FF,,,,,,,,1.754,,,,,,,,,,,,,,,,,,,,,,6103678437cbd80e381c5863,61036ce3a4a62b80b2de0e71,2021-07-29_20h08.01.918,Simcolourproject_2stim_asymm_v5,2020.2.10,MacIntel,60,61025ae37ef11b136ea224fe,,,,,,,,,2352,108.0031738,38.03381348,1,0,0,response1disk,,6,-2.909179688,-8.380065918,1,0,0,rectangle,-2.909179688,-8.380065918,1,0,0,-2.909179688,-8.380065918,1,0,0,0,29,29,114,1,,,,,,,,
,,,,,,,,,,,,,FF,,,,,,,,2.6029,,,,,,,,,,,,,,,,,,,,,,6103678437cbd80e381c5863,61036ce3a4a62b80b2de0e71,2021-07-29_20h08.01.918,Simcolourproject_2stim_asymm_v5,2020.2.10,MacIntel,60,61025ae37ef11b136ea224fe,,,,,,,,,363,91.78234863,60.3059082,1,0,0,response1disk,,6,-11.16870117,-1.632141113,1,0,0,rectangle,-11.16870117,-1.632141113,1,0,0,-11.16870117,-1.632141113,1,0,0,0,30,30,40,1,,,,,,,,
,,,,,,,,,,,,,FF,,,,,,,,3.2034,,,,,,,,,,,,,,,,,,,,,,6103678437cbd80e381c5863,61036ce3a4a62b80b2de0e71,2021-07-29_20h08.01.918,Simcolourproject_2stim_asymm_v5,2020.2.10,MacIntel,60,61025ae37ef11b136ea224fe,,,,,,,,,3360,126.8843994,56.62200928,1,0,0,response1disk,,6,-15.28588867,-11.54870605,1,0,0,rectangle,-15.28588867,-11.54870605,1,0,0,-15.28588867,-11.54870605,1,0,0,0,31,31,154,1,,,,,,,,
,,,,,,,,,,,,,FF,,,,,,,,3.0051,,,,,,,,,,,,,,,,,,,,,,6103678437cbd80e381c5863,61036ce3a4a62b80b2de0e71,2021-07-29_20h08.01.918,Simcolourproject_2stim_asymm_v5,2020.2.10,MacIntel,60,61025ae37ef11b136ea224fe,,,,,,,,,372,66.34472656,-107.739502,1,0,0,response3disk,,4,26.45556641,-7.431640625,1,0,0,rectangle,26.45556641,-7.431640625,1,0,0,26.45556641,-7.431640625,1,0,0,0,32,32,152,1,,,,,,,,
,,,,,,,,,,,,,FF,,,,,,,,2.5039,,,,,,,,,,,,,,,,,,,,,,6103678437cbd80e381c5863,61036ce3a4a62b80b2de0e71,2021-07-29_20h08.01.918,Simcolourproject_2stim_asymm_v5,2020.2.10,MacIntel,60,61025ae37ef11b136ea224fe,,,,,,,,,4006,-49.57409668,-147.4058228,1,0,0,response5disk,,3,30.39013672,-6.616943359,1,0,0,rectangle,30.39013672,-6.616943359,1,0,0,30.39013672,-6.616943359,1,0,0,0,33,33,60,1,,,,,,,,
,,,,,,,,,,,,,FF,,,,,,,,4.7051,,,,,,,,,,,,,,,,,,,,,,6103678437cbd80e381c5863,61036ce3a4a62b80b2de0e71,2021-07-29_20h08.01.918,Simcolourproject_2stim_asymm_v5,2020.2.10,MacIntel,60,61025ae37ef11b136ea224fe,,,,,,,,,1323,134.5523682,-39.72045898,1,0,0,response3disk,,5,31.41467285,-0.70715332,1,0,0,rectangle,31.41467285,-0.70715332,1,0,0,31.41467285,-0.70715332,1,0,0,0,34,34,121,1,,,,,,,,
,,,,,,,,,,,,,FF,,,,,,,,3.7513,,,,,,,,,,,,,,,,,,,,,,6103678437cbd80e381c5863,61036ce3a4a62b80b2de0e71,2021-07-29_20h08.01.918,Simcolourproject_2stim_asymm_v5,2020.2.10,MacIntel,60,61025ae37ef11b136ea224fe,,,,,,,,,4158,105.3000488,71.70495605,1,0,0,response1disk,,6,-19.54492188,1.387207031,1,0,0,rectangle,-19.54492188,1.387207031,1,0,0,-19.54492188,1.387207031,1,0,0,0,35,35,82,1,,,,,,,,
,,,,,,,,,,,,,FF,,,,,,,,1.9357,,,,,,,,,,,,,,,,,,,,,,6103678437cbd80e381c5863,61036ce3a4a62b80b2de0e71,2021-07-29_20h08.01.918,Simcolourproject_2stim_asymm_v5,2020.2.10,MacIntel,60,61025ae37ef11b136ea224fe,,,,,,,,,1753,-85.3692627,-58.29022217,1,0,0,response5disk,,2,-3.967895508,3.569030762,1,0,0,rectangle,-3.967895508,3.569030762,1,0,0,-3.967895508,3.569030762,1,0,0,0,36,36,75,1,,,,,,,,
,,,,,,,,,,,,,FF,,,,,,,,1.902,,,,,,,,,,,,,,,,,,,,,,6103678437cbd80e381c5863,61036ce3a4a62b80b2de0e71,2021-07-29_20h08.01.918,Simcolourproject_2stim_asymm_v5,2020.2.10,MacIntel,60,61025ae37ef11b136ea224fe,,,,,,,,,1309,-45.03747559,-129.7303467,1,0,0,response5disk,,3,-4.925170898,-16.13171387,1,0,0,rectangle,-4.925170898,-16.13171387,1,0,0,-4.925170898,-16.13171387,1,0,0,0,37,37,13,1,,,,,,,,
,,,,,,,,,,,,,FF,,,,,,,,1.5518,,,,,,,,,,,,,,,,,,,,,,6103678437cbd80e381c5863,61036ce3a4a62b80b2de0e71,2021-07-29_20h08.01.918,Simcolourproject_2stim_asymm_v5,2020.2.10,MacIntel,60,61025ae37ef11b136ea224fe,,,,,,,,,2767,56.48364258,-85.95159912,1,0,0,response3disk,,4,-2.942016602,-2.283081055,1,0,0,rectangle,-2.942016602,-2.283081055,1,0,0,-2.942016602,-2.283081055,1,0,0,0,38,38,10,1,,,,,,,,
,,,,,,,,,,,,,FF,,,,,,,,1.8524,,,,,,,,,,,,,,,,,,,,,,6103678437cbd80e381c5863,61036ce3a4a62b80b2de0e71,2021-07-29_20h08.01.918,Simcolourproject_2stim_asymm_v5,2020.2.10,MacIntel,60,61025ae37ef11b136ea224fe,,,,,,,,,758,82.0390625,43.50830078,1,0,0,response1disk,,6,25.02233887,-14.3659668,1,0,0,rectangle,25.02233887,-14.3659668,1,0,0,25.02233887,-14.3659668,1,0,0,0,39,39,80,1,,,,,,,,
,,,,,,,,,,,,,FF,,,,,,,,2.9509,,,,,,,,,,,,,,,,,,,,,,6103678437cbd80e381c5863,61036ce3a4a62b80b2de0e71,2021-07-29_20h08.01.918,Simcolourproject_2stim_asymm_v5,2020.2.10,MacIntel,60,61025ae37ef11b136ea224fe,,,,,,,,,4004,-57.56420898,-119.052002,1,0,0,response5disk,,3,11.99682617,0.005126953,1,0,0,rectangle,11.99682617,0.005126953,1,0,0,11.99682617,0.005126953,1,0,0,0,40,40,76,1,,,,,,,,
,,,,,,,,,,,,,FF,,,,,,,,3.0522,,,,,,,,,,,,,,,,,,,,,,6103678437cbd80e381c5863,61036ce3a4a62b80b2de0e71,2021-07-29_20h08.01.918,Simcolourproject_2stim_asymm_v5,2020.2.10,MacIntel,60,61025ae37ef11b136ea224fe,,,,,,,,,3264,122.8035889,-75.2399292,1,0,0,response3disk,,5,0.19140625,-15.48162842,1,0,0,rectangle,0.19140625,-15.48162842,1,0,0,0.19140625,-15.48162842,1,0,0,0,41,41,101,1,,,,,,,,
,,,,,,,,,,,,,FF,,,,,,,,1.2009,,,,,,,,,,,,,,,,,,,,,,6103678437cbd80e381c5863,61036ce3a4a62b80b2de0e71,2021-07-29_20h08.01.918,Simcolourproject_2stim_asymm_v5,2020.2.10,MacIntel,60,61025ae37ef11b136ea224fe,,,,,,,,,4037,58.16137695,102.4550171,1,0,0,response1disk,,7,-4.040161133,-8.65246582,1,0,0,rectangle,-4.040161133,-8.65246582,1,0,0,-4.040161133,-8.65246582,1,0,0,0,42,42,8,1,,,,,,,,
,,,,,,,,,,,,,FF,,,,,,,,3.1862,,,,,,,,,,,,,,,,,,,,,,6103678437cbd80e381c5863,61036ce3a4a62b80b2de0e71,2021-07-29_20h08.01.918,Simcolourproject_2stim_asymm_v5,2020.2.10,MacIntel,60,61025ae37ef11b136ea224fe,,,,,,,,,2293,-120.6242676,-89.92132568,1,0,0,response5disk,,2,-9.270141602,4.34552002,1,0,0,rectangle,-111.383667,-63.60876465,1,0,0,-10.00415039,-13.58148193,1,0,0,0,43,43,5,1,,response5disk_3,TRUE,2,2,"[75,124,51,245,200,56,256,113,107,110,128,288,209,69,91,127,279,280,198,44]",1.7023,rectangle
,,,,,,,,,,,,,FF,,,,,,,,2.4522,,,,,,,,,,,,,,,,,,,,,,6103678437cbd80e381c5863,61036ce3a4a62b80b2de0e71,2021-07-29_20h08.01.918,Simcolourproject_2stim_asymm_v5,2020.2.10,MacIntel,60,61025ae37ef11b136ea224fe,,,,,,,,,133,48.23669434,96.3614502,1,0,0,response1disk,,7,-0.60546875,-5.552062988,1,0,0,rectangle,-0.60546875,-5.552062988,1,0,0,-0.60546875,-5.552062988,1,0,0,0,44,44,125,1,,,,,,,,
,,,,,,,,,,,,,FF,,,,,,,,3.2035,,,,,,,,,,,,,,,,,,,,,,6103678437cbd80e381c5863,61036ce3a4a62b80b2de0e71,2021-07-29_20h08.01.918,Simcolourproject_2stim_asymm_v5,2020.2.10,MacIntel,60,61025ae37ef11b136ea224fe,,,,,,,,,2504,49.75866699,109.5092163,1,0,0,response1disk,,7,-5.092529297,-3.582946777,1,0,0,rectangle,-5.092529297,-3.582946777,1,0,0,-5.092529297,-3.582946777,1,0,0,0,45,45,47,1,,,,,,,,
,,,,,,,,,,,,,FF,,,,,,,,1.3023,,,,,,,,,,,,,,,,,,,,,,6103678437cbd80e381c5863,61036ce3a4a62b80b2de0e71,2021-07-29_20h08.01.918,Simcolourproject_2stim_asymm_v5,2020.2.10,MacIntel,60,61025ae37ef11b136ea224fe,,,,,,,,,956,68.3515625,-127.949646,1,0,0,response3disk,,4,26.60546875,2.593078613,1,0,0,rectangle,26.60546875,2.593078613,1,0,0,26.60546875,2.593078613,1,0,0,0,46,46,95,1,,,,,,,,
,,,,,,,,,,,,,FF,,,,,,,,2.2016,,,,,,,,,,,,,,,,,,,,,,6103678437cbd80e381c5863,61036ce3a4a62b80b2de0e71,2021-07-29_20h08.01.918,Simcolourproject_2stim_asymm_v5,2020.2.10,MacIntel,60,61025ae37ef11b136ea224fe,,,,,,,,,3885,109.8262939,32.55792236,1,0,0,response1disk,,6,-34.71032715,-7.426635742,1,0,0,rectangle,-34.71032715,-7.426635742,1,0,0,-34.71032715,-7.426635742,1,0,0,0,47,47,49,1,,,,,,,,
,,,,,,,,,,,,,FF,,,,,,,,2.4023,,,,,,,,,,,,,,,,,,,,,,6103678437cbd80e381c5863,61036ce3a4a62b80b2de0e71,2021-07-29_20h08.01.918,Simcolourproject_2stim_asymm_v5,2020.2.10,MacIntel,60,61025ae37ef11b136ea224fe,,,,,,,,,1137,-114.4637451,56.49523926,1,0,0,response7disk,,1,2.435546875,-14.49462891,1,0,0,rectangle,2.435546875,-14.49462891,1,0,0,2.435546875,-14.49462891,1,0,0,0,48,48,124,1,,,,,,,,
,,,,,,,,,,,,,FF,,,,,,,,1.5832,,,,,,,,,,,,,,,,,,,,,,6103678437cbd80e381c5863,61036ce3a4a62b80b2de0e71,2021-07-29_20h08.01.918,Simcolourproject_2stim_asymm_v5,2020.2.10,MacIntel,60,61025ae37ef11b136ea224fe,,,,,,,,,2435,-61.9161377,-120.6408691,1,0,0,response5disk,,3,-52.59106445,-11.21295166,1,0,0,rectangle,-52.59106445,-11.21295166,1,0,0,-52.59106445,-11.21295166,1,0,0,0,49,49,96,1,,,,,,,,
,,,,,,,,,,,,,FF,,,,,,,,0.7003,,,,,,,,,,,,,,,,,,,,,,6103678437cbd80e381c5863,61036ce3a4a62b80b2de0e71,2021-07-29_20h08.01.918,Simcolourproject_2stim_asymm_v5,2020.2.10,MacIntel,60,61025ae37ef11b136ea224fe,,,,,,,,,158,-56.06274414,-112.1605225,1,0,0,response5disk,,3,12.62854004,-20.90783691,1,0,0,rectangle,113.0179443,69.39941406,1,0,0,-2.810791016,-2.712341309,1,0,0,0,50,50,38,1,,response1disk_3,TRUE,6,6,"[75,124,51,245,200,56,256,113,107,110,128,288,209,69,91,127,279,280,198,44]",1.7032,rectangle
,,,,,,,,,,,,,FF,,,,,,,,1.5012,,,,,,,,,,,,,,,,,,,,,,6103678437cbd80e381c5863,61036ce3a4a62b80b2de0e71,2021-07-29_20h08.01.918,Simcolourproject_2stim_asymm_v5,2020.2.10,MacIntel,60,61025ae37ef11b136ea224fe,,,,,,,,,2907,-80.75610352,-118.0714722,1,0,0,response5disk,,3,4.727539063,9.104736328,1,0,0,rectangle,4.727539063,9.104736328,1,0,0,4.727539063,9.104736328,1,0,0,0,51,51,94,1,,,,,,,,
,,,,,,,,,,,,,FF,,,,,,,,0.8353,,,,,,,,,,,,,,,,,,,,,,6103678437cbd80e381c5863,61036ce3a4a62b80b2de0e71,2021-07-29_20h08.01.918,Simcolourproject_2stim_asymm_v5,2020.2.10,MacIntel,60,61025ae37ef11b136ea224fe,,,,,,,,,4268,-120.3961182,-51.92077637,1,0,0,response5disk,,2,5.477539063,-4.893432617,1,0,0,rectangle,5.477539063,-4.893432617,1,0,0,5.477539063,-4.893432617,1,0,0,0,52,52,41,1,,,,,,,,
,,,,,,,,,,,,,FF,,,,,,,,1.3013,,,,,,,,,,,,,,,,,,,,,,6103678437cbd80e381c5863,61036ce3a4a62b80b2de0e71,2021-07-29_20h08.01.918,Simcolourproject_2stim_asymm_v5,2020.2.10,MacIntel,60,61025ae37ef11b136ea224fe,,,,,,,,,3262,95.95056152,54.7074585,1,0,0,response1disk,,6,-12.12475586,-0.791137695,1,0,0,rectangle,-12.12475586,-0.791137695,1,0,0,-12.12475586,-0.791137695,1,0,0,0,53,53,158,1,,,,,,,,
,,,,,,,,,,,,,FF,,,,,,,,1.2497,,,,,,,,,,,,,,,,,,,,,,6103678437cbd80e381c5863,61036ce3a4a62b80b2de0e71,2021-07-29_20h08.01.918,Simcolourproject_2stim_asymm_v5,2020.2.10,MacIntel,60,61025ae37ef11b136ea224fe,,,,,,,,,717,-61.65270996,120.6677246,1,0,0,response7disk,,0,16.68444824,2.197631836,1,0,0,rectangle,16.68444824,2.197631836,1,0,0,16.68444824,2.197631836,1,0,0,0,54,54,43,1,,,,,,,,
,,,,,,,,,,,,,FF,,,,,,,,1.7851,,,,,,,,,,,,,,,,,,,,,,6103678437cbd80e381c5863,61036ce3a4a62b80b2de0e71,2021-07-29_20h08.01.918,Simcolourproject_2stim_asymm_v5,2020.2.10,MacIntel,60,61025ae37ef11b136ea224fe,,,,,,,,,2360,-94.37255859,-60.98278809,1,0,0,response5disk,,2,9.680053711,-11.15240479,1,0,0,rectangle,100.2608643,49.10247803,1,0,0,6.587890625,-5.612304688,1,0,0,0,55,55,83,1,,response1disk_3,TRUE,6,6,"[75,124,51,245,200,56,256,113,107,110,128,288,209,69,91,127,279,280,198,44]",1.2029,rectangle
,,,,,,,,,,,,,FF,,,,,,,,1.5518,,,,,,,,,,,,,,,,,,,,,,6103678437cbd80e381c5863,61036ce3a4a62b80b2de0e71,2021-07-29_20h08.01.918,Simcolourproject_2stim_asymm_v5,2020.2.10,MacIntel,60,61025ae37ef11b136ea224fe,,,,,,,,,1500,88.3079834,60.91278076,1,0,0,response1disk,,6,24.265625,-12.04138184,1,0,0,rectangle,24.265625,-12.04138184,1,0,0,24.265625,-12.04138184,1,0,0,0,56,56,93,1,,,,,,,,
,,,,,,,,,,,,,FF,,,,,,,,1.1333,,,,,,,,,,,,,,,,,,,,,,6103678437cbd80e381c5863,61036ce3a4a62b80b2de0e71,2021-07-29_20h08.01.918,Simcolourproject_2stim_asymm_v5,2020.2.10,MacIntel,60,61025ae37ef11b136ea224fe,,,,,,,,,1364,82.94470215,-39.26470947,1,0,0,response3disk,,5,-12.55029297,-16.45587158,1,0,0,rectangle,-12.55029297,-16.45587158,1,0,0,-12.55029297,-16.45587158,1,0,0,0,57,57,65,1,,,,,,,,
,,,,,,,,,,,,,FF,,,,,,,,0.9006,,,,,,,,,,,,,,,,,,,,,,6103678437cbd80e381c5863,61036ce3a4a62b80b2de0e71,2021-07-29_20h08.01.918,Simcolourproject_2stim_asymm_v5,2020.2.10,MacIntel,60,61025ae37ef11b136ea224fe,,,,,,,,,3363,57.53161621,120.1951904,1,0,0,response1disk,,7,-0.3046875,4.683532715,1,0,0,rectangle,-0.3046875,4.683532715,1,0,0,-0.3046875,4.683532715,1,0,0,0,58,58,133,1,,,,,,,,
,,,,,,,,,,,,,FF,,,,,,,,1.1516,,,,,,,,,,,,,,,,,,,,,,6103678437cbd80e381c5863,61036ce3a4a62b80b2de0e71,2021-07-29_20h08.01.918,Simcolourproject_2stim_asymm_v5,2020.2.10,MacIntel,60,61025ae37ef11b136ea224fe,,,,,,,,,45,35.14172363,85.96185303,1,0,0,response1disk,,7,0.989379883,-0.761291504,1,0,0,rectangle,0.989379883,-0.761291504,1,0,0,0.989379883,-0.761291504,1,0,0,0,59,59,84,1,,,,,,,,
,,,,,,,,,,,,,FF,,,,,,,,0.9496,,,,,,,,,,,,,,,,,,,,,,6103678437cbd80e381c5863,61036ce3a4a62b80b2de0e71,2021-07-29_20h08.01.918,Simcolourproject_2stim_asymm_v5,2020.2.10,MacIntel,60,61025ae37ef11b136ea224fe,,,,,,,,,2073,65.00244141,139.4406738,1,0,0,response1disk,,7,14.66772461,0.793457031,1,0,0,rectangle,14.66772461,0.793457031,1,0,0,14.66772461,0.793457031,1,0,0,0,60,60,99,1,,,,,,,,
,,,,,,,,,,,,,FF,,,,,,,,1.5537,,,,,,,,,,,,,,,,,,,,,,6103678437cbd80e381c5863,61036ce3a4a62b80b2de0e71,2021-07-29_20h08.01.918,Simcolourproject_2stim_asymm_v5,2020.2.10,MacIntel,60,61025ae37ef11b136ea224fe,,,,,,,,,2994,59.34289551,-149.1447144,1,0,0,response3disk,,4,-0.215454102,20.93444824,1,0,0,rectangle,-0.215454102,20.93444824,1,0,0,-0.215454102,20.93444824,1,0,0,0,61,61,146,1,,,,,,,,
,,,,,,,,,,,,,FF,,,,,,,,0.9012,,,,,,,,,,,,,,,,,,,,,,6103678437cbd80e381c5863,61036ce3a4a62b80b2de0e71,2021-07-29_20h08.01.918,Simcolourproject_2stim_asymm_v5,2020.2.10,MacIntel,60,61025ae37ef11b136ea224fe,,,,,,,,,1971,-34.42663574,-97.15551758,1,0,0,response5disk,,3,-10.61279297,-15.08685303,1,0,0,rectangle,-10.61279297,-15.08685303,1,0,0,-10.61279297,-15.08685303,1,0,0,0,62,62,87,1,,,,,,,,
,,,,,,,,,,,,,FF,,,,,,,,1.0023,,,,,,,,,,,,,,,,,,,,,,6103678437cbd80e381c5863,61036ce3a4a62b80b2de0e71,2021-07-29_20h08.01.918,Simcolourproject_2stim_asymm_v5,2020.2.10,MacIntel,60,61025ae37ef11b136ea224fe,,,,,,,,,2333,71.73266602,110.8430176,1,0,0,response1disk,,7,0.556762695,11.66210938,1,0,0,rectangle,0.556762695,11.66210938,1,0,0,0.556762695,11.66210938,1,0,0,0,63,63,26,1,,,,,,,,
,,,,,,,,,,,,,FF,,,,,,,,1.6519,,,,,,,,,,,,,,,,,,,,,,6103678437cbd80e381c5863,61036ce3a4a62b80b2de0e71,2021-07-29_20h08.01.918,Simcolourproject_2stim_asymm_v5,2020.2.10,MacIntel,60,61025ae37ef11b136ea224fe,,,,,,,,,3574,117.5986328,63.02282715,1,0,0,response1disk,,6,-11.20373535,-6.606323242,1,0,0,rectangle,-11.20373535,-6.606323242,1,0,0,-11.20373535,-6.606323242,1,0,0,0,64,64,159,1,,,,,,,,
,,,,,,,,,,,,,FF,,,,,,,,0.9012,,,,,,,,,,,,,,,,,,,,,,6103678437cbd80e381c5863,61036ce3a4a62b80b2de0e71,2021-07-29_20h08.01.918,Simcolourproject_2stim_asymm_v5,2020.2.10,MacIntel,60,61025ae37ef11b136ea224fe,,,,,,,,,473,44.50708008,-109.0511475,1,0,0,response3disk,,4,22.40856934,-10.62817383,1,0,0,rectangle,22.40856934,-10.62817383,1,0,0,22.40856934,-10.62817383,1,0,0,0,65,65,22,1,,,,,,,,
,,,,,,,,,,,,,FF,,,,,,,,1.2366,,,,,,,,,,,,,,,,,,,,,,6103678437cbd80e381c5863,61036ce3a4a62b80b2de0e71,2021-07-29_20h08.01.918,Simcolourproject_2stim_asymm_v5,2020.2.10,MacIntel,60,61025ae37ef11b136ea224fe,,,,,,,,,4074,40.42565918,-107.4481201,1,0,0,response3disk,,4,17.82446289,-4.819946289,1,0,0,rectangle,17.82446289,-4.819946289,1,0,0,17.82446289,-4.819946289,1,0,0,0,66,66,20,1,,,,,,,,
,,,,,,,,,,,,,FF,,,,,,,,1.1513,,,,,,,,,,,,,,,,,,,,,,6103678437cbd80e381c5863,61036ce3a4a62b80b2de0e71,2021-07-29_20h08.01.918,Simcolourproject_2stim_asymm_v5,2020.2.10,MacIntel,60,61025ae37ef11b136ea224fe,,,,,,,,,3269,84.90087891,42.60266113,1,0,0,response1disk,,6,-9.885375977,-9.293579102,1,0,0,rectangle,-9.885375977,-9.293579102,1,0,0,-9.885375977,-9.293579102,1,0,0,0,67,67,123,1,,,,,,,,
,,,,,,,,,,,,,FF,,,,,,,,2.3007,,,,,,,,,,,,,,,,,,,,,,6103678437cbd80e381c5863,61036ce3a4a62b80b2de0e71,2021-07-29_20h08.01.918,Simcolourproject_2stim_asymm_v5,2020.2.10,MacIntel,60,61025ae37ef11b136ea224fe,,,,,,,,,4345,-77.56738281,-46.15368652,1,0,0,response5disk,,2,-3.527587891,13.61669922,1,0,0,rectangle,-43.69934082,119.5651855,1,0,0,31.95593262,-9.987060547,1,0,0,0,68,68,63,1,,response7disk_3,TRUE,0,0,"[75,124,51,245,200,56,256,113,107,110,128,288,209,69,91,127,279,280,198,44]",1.4188,rectangle
,,,,,,,,,,,,,FF,,,,,,,,0.7001,,,,,,,,,,,,,,,,,,,,,,6103678437cbd80e381c5863,61036ce3a4a62b80b2de0e71,2021-07-29_20h08.01.918,Simcolourproject_2stim_asymm_v5,2020.2.10,MacIntel,60,61025ae37ef11b136ea224fe,,,,,,,,,3232,53.61938477,95.31451416,1,0,0,response1disk,,7,17.96081543,3.711547852,1,0,0,rectangle,17.96081543,3.711547852,1,0,0,17.96081543,3.711547852,1,0,0,0,69,69,21,1,,,,,,,,
,,,,,,,,,,,,,FF,,,,,,,,1.8024,,,,,,,,,,,,,,,,,,,,,,6103678437cbd80e381c5863,61036ce3a4a62b80b2de0e71,2021-07-29_20h08.01.918,Simcolourproject_2stim_asymm_v5,2020.2.10,MacIntel,60,61025ae37ef11b136ea224fe,,,,,,,,,1988,32.31347656,80.85327148,1,0,0,response1disk,,7,3.968994141,-6.591796875,1,0,0,rectangle,3.968994141,-6.591796875,1,0,0,3.968994141,-6.591796875,1,0,0,0,70,70,136,1,,,,,,,,
,,,,,,,,,,,,,FF,,,,,,,,0.9522,,,,,,,,,,,,,,,,,,,,,,6103678437cbd80e381c5863,61036ce3a4a62b80b2de0e71,2021-07-29_20h08.01.918,Simcolourproject_2stim_asymm_v5,2020.2.10,MacIntel,60,61025ae37ef11b136ea224fe,,,,,,,,,1852,44.5411377,75.37176514,1,0,0,response1disk,,7,-1.436157227,6.122558594,1,0,0,rectangle,-1.436157227,6.122558594,1,0,0,-1.436157227,6.122558594,1,0,0,0,71,71,148,1,,,,,,,,
,,,,,,,,,,,,,FF,,,,,,,,2.2338,,,,,,,,,,,,,,,,,,,,,,6103678437cbd80e381c5863,61036ce3a4a62b80b2de0e71,2021-07-29_20h08.01.918,Simcolourproject_2stim_asymm_v5,2020.2.10,MacIntel,60,61025ae37ef11b136ea224fe,,,,,,,,,2534,134.878418,-72.77105713,1,0,0,response3disk,,5,-4.0625,2.183105469,1,0,0,rectangle,-4.0625,2.183105469,1,0,0,-4.0625,2.183105469,1,0,0,0,72,72,4,1,,,,,,,,
,,,,,,,,,,,,,FF,,,,,,,,1.7034,,,,,,,,,,,,,,,,,,,,,,6103678437cbd80e381c5863,61036ce3a4a62b80b2de0e71,2021-07-29_20h08.01.918,Simcolourproject_2stim_asymm_v5,2020.2.10,MacIntel,60,61025ae37ef11b136ea224fe,,,,,,,,,3848,-112.9324951,41.06530762,1,0,0,response7disk,,1,12.67553711,-4.924377441,1,0,0,rectangle,12.67553711,-4.924377441,1,0,0,12.67553711,-4.924377441,1,0,0,0,73,73,44,1,,,,,,,,
,,,,,,,,,,,,,FF,,,,,,,,1.0019,,,,,,,,,,,,,,,,,,,,,,6103678437cbd80e381c5863,61036ce3a4a62b80b2de0e71,2021-07-29_20h08.01.918,Simcolourproject_2stim_asymm_v5,2020.2.10,MacIntel,60,61025ae37ef11b136ea224fe,,,,,,,,,3436,-124.0595703,59.23266602,1,0,0,response7disk,,1,17.54455566,7.918762207,1,0,0,rectangle,-141.8764648,61.67272949,1,0,0,6.678344727,-5.41809082,1,0,0,0,74,74,81,1,,response7disk_3,TRUE,1,1,"[75,124,51,245,200,56,256,113,107,110,128,288,209,69,91,127,279,280,198,44]",1.3702,rectangle
,,,,,,,,,,,,,FF,,,,,,,,1.2514,,,,,,,,,,,,,,,,,,,,,,6103678437cbd80e381c5863,61036ce3a4a62b80b2de0e71,2021-07-29_20h08.01.918,Simcolourproject_2stim_asymm_v5,2020.2.10,MacIntel,60,61025ae37ef11b136ea224fe,,,,,,,,,3188,-97.87670898,-58.52526855,1,0,0,response5disk,,2,-7.701782227,-12.87261963,1,0,0,rectangle,-7.701782227,-12.87261963,1,0,0,-7.701782227,-12.87261963,1,0,0,0,75,75,36,1,,,,,,,,
,,,,,,,,,,,,,FF,,,,,,,,1.3021,,,,,,,,,,,,,,,,,,,,,,6103678437cbd80e381c5863,61036ce3a4a62b80b2de0e71,2021-07-29_20h08.01.918,Simcolourproject_2stim_asymm_v5,2020.2.10,MacIntel,60,61025ae37ef11b136ea224fe,,,,,,,,,2181,-87.99450684,-37.14056396,1,0,0,response5disk,,2,12.93615723,14.68103027,1,0,0,rectangle,12.93615723,14.68103027,1,0,0,12.93615723,14.68103027,1,0,0,0,76,76,53,1,,,,,,,,
,,,,,,,,,,,,,FF,,,,,,,,1.9508,,,,,,,,,,,,,,,,,,,,,,6103678437cbd80e381c5863,61036ce3a4a62b80b2de0e71,2021-07-29_20h08.01.918,Simcolourproject_2stim_asymm_v5,2020.2.10,MacIntel,60,61025ae37ef11b136ea224fe,,,,,,,,,2485,104.3074951,-67.39874268,1,0,0,response3disk,,5,7.978637695,-5.889831543,1,0,0,rectangle,7.978637695,-5.889831543,1,0,0,7.978637695,-5.889831543,1,0,0,0,77,77,105,1,,,,,,,,
,,,,,,,,,,,,,FF,,,,,,,,1.6836,,,,,,,,,,,,,,,,,,,,,,6103678437cbd80e381c5863,61036ce3a4a62b80b2de0e71,2021-07-29_20h08.01.918,Simcolourproject_2stim_asymm_v5,2020.2.10,MacIntel,60,61025ae37ef11b136ea224fe,,,,,,,,,643,-66.06835938,-123.135498,1,0,0,response5disk,,3,26.43786621,5.867126465,1,0,0,rectangle,26.43786621,5.867126465,1,0,0,26.43786621,5.867126465,1,0,0,0,78,78,0,1,,,,,,,,
,,,,,,,,,,,,,FF,,,,,,,,1.4497,,,,,,,,,,,,,,,,,,,,,,6103678437cbd80e381c5863,61036ce3a4a62b80b2de0e71,2021-07-29_20h08.01.918,Simcolourproject_2stim_asymm_v5,2020.2.10,MacIntel,60,61025ae37ef11b136ea224fe,,,,,,,,,961,70.87561035,-35.93572998,1,0,0,response3disk,,5,-11.21130371,-5.473815918,1,0,0,rectangle,-11.21130371,-5.473815918,1,0,0,-11.21130371,-5.473815918,1,0,0,0,79,79,109,1,,,,,,,,
,,,,,,,,,,,,,FF,,,,,,,,2.3029,,,,,,,,,,,,,,,,,,,,,,6103678437cbd80e381c5863,61036ce3a4a62b80b2de0e71,2021-07-29_20h08.01.918,Simcolourproject_2stim_asymm_v5,2020.2.10,MacIntel,60,61025ae37ef11b136ea224fe,,,,,,,,,3981,-69.55102539,-137.4152222,1,0,0,response5disk,,3,5.697753906,4.034484863,1,0,0,rectangle,5.697753906,4.034484863,1,0,0,5.697753906,4.034484863,1,0,0,0,80,80,73,1,,,,,,,,
,,,,,,,,,,,,,FF,,,,,,,,1.0022,,,,,,,,,,,,,,,,,,,,,,6103678437cbd80e381c5863,61036ce3a4a62b80b2de0e71,2021-07-29_20h08.01.918,Simcolourproject_2stim_asymm_v5,2020.2.10,MacIntel,60,61025ae37ef11b136ea224fe,,,,,,,,,288,93.59106445,-53.3571167,1,0,0,response3disk,,5,36.04443359,-15.06304932,1,0,0,rectangle,36.04443359,-15.06304932,1,0,0,36.04443359,-15.06304932,1,0,0,0,81,81,137,1,,,,,,,,
,,,,,,,,,,,,,FF,,,,,,,,1.853,,,,,,,,,,,,,,,,,,,,,,6103678437cbd80e381c5863,61036ce3a4a62b80b2de0e71,2021-07-29_20h08.01.918,Simcolourproject_2stim_asymm_v5,2020.2.10,MacIntel,60,61025ae37ef11b136ea224fe,,,,,,,,,1749,-46.49462891,-104.4141846,1,0,0,response5disk,,3,-0.827148438,5.965881348,1,0,0,rectangle,-0.827148438,5.965881348,1,0,0,-0.827148438,5.965881348,1,0,0,0,82,82,88,1,,,,,,,,
,,,,,,,,,,,,,FF,,,,,,,,1.1487,,,,,,,,,,,,,,,,,,,,,,6103678437cbd80e381c5863,61036ce3a4a62b80b2de0e71,2021-07-29_20h08.01.918,Simcolourproject_2stim_asymm_v5,2020.2.10,MacIntel,60,61025ae37ef11b136ea224fe,,,,,,,,,1901,-46.59216309,-91.4119873,1,0,0,response5disk,,3,-6.112426758,-14.5871582,1,0,0,rectangle,-6.112426758,-14.5871582,1,0,0,-6.112426758,-14.5871582,1,0,0,0,83,83,110,1,,,,,,,,
,,,,,,,,,,,,,FF,,,,,,,,1.2525,,,,,,,,,,,,,,,,,,,,,,6103678437cbd80e381c5863,61036ce3a4a62b80b2de0e71,2021-07-29_20h08.01.918,Simcolourproject_2stim_asymm_v5,2020.2.10,MacIntel,60,61025ae37ef11b136ea224fe,,,,,,,,,1101,41.53149414,106.760498,1,0,0,response1disk,,7,6.075927734,-2.245727539,1,0,0,rectangle,6.075927734,-2.245727539,1,0,0,6.075927734,-2.245727539,1,0,0,0,84,84,86,1,,,,,,,,
,,,,,,,,,,,,,FF,,,,,,,,2.0013,,,,,,,,,,,,,,,,,,,,,,6103678437cbd80e381c5863,61036ce3a4a62b80b2de0e71,2021-07-29_20h08.01.918,Simcolourproject_2stim_asymm_v5,2020.2.10,MacIntel,60,61025ae37ef11b136ea224fe,,,,,,,,,2030,-106.1196289,-64.71472168,1,0,0,response5disk,,2,5.104370117,0.242614746,1,0,0,rectangle,5.104370117,0.242614746,1,0,0,5.104370117,0.242614746,1,0,0,0,85,85,149,1,,,,,,,,
,,,,,,,,,,,,,FF,,,,,,,,1.4684,,,,,,,,,,,,,,,,,,,,,,6103678437cbd80e381c5863,61036ce3a4a62b80b2de0e71,2021-07-29_20h08.01.918,Simcolourproject_2stim_asymm_v5,2020.2.10,MacIntel,60,61025ae37ef11b136ea224fe,,,,,,,,,2160,-73.17895508,106.3829956,1,0,0,response7disk,,0,22.50854492,0.333618164,1,0,0,rectangle,22.50854492,0.333618164,1,0,0,22.50854492,0.333618164,1,0,0,0,86,86,19,1,,,,,,,,
,,,,,,,,,,,,,FF,,,,,,,,2.0006,,,,,,,,,,,,,,,,,,,,,,6103678437cbd80e381c5863,61036ce3a4a62b80b2de0e71,2021-07-29_20h08.01.918,Simcolourproject_2stim_asymm_v5,2020.2.10,MacIntel,60,61025ae37ef11b136ea224fe,,,,,,,,,1194,-45.82971191,-112.739563,1,0,0,response5disk,,3,-2.092285156,2.753723145,1,0,0,rectangle,-2.092285156,2.753723145,1,0,0,-2.092285156,2.753723145,1,0,0,0,87,87,39,1,,,,,,,,
,,,,,,,,,,,,,FF,,,,,,,,2.3023,,,,,,,,,,,,,,,,,,,,,,6103678437cbd80e381c5863,61036ce3a4a62b80b2de0e71,2021-07-29_20h08.01.918,Simcolourproject_2stim_asymm_v5,2020.2.10,MacIntel,60,61025ae37ef11b136ea224fe,,,,,,,,,2325,136.8969727,63.48571777,1,0,0,response1disk,,6,-45.47143555,-15.55944824,1,0,0,rectangle,-45.47143555,-15.55944824,1,0,0,-45.47143555,-15.55944824,1,0,0,0,88,88,11,1,,,,,,,,
,,,,,,,,,,,,,FF,,,,,,,,3.405,,,,,,,,,,,,,,,,,,,,,,6103678437cbd80e381c5863,61036ce3a4a62b80b2de0e71,2021-07-29_20h08.01.918,Simcolourproject_2stim_asymm_v5,2020.2.10,MacIntel,60,61025ae37ef11b136ea224fe,,,,,,,,,2062,68.77490234,-126.0431519,1,0,0,response3disk,,4,10.88671875,-2.711425781,1,0,0,rectangle,10.88671875,-2.711425781,1,0,0,10.88671875,-2.711425781,1,0,0,0,89,89,29,1,,,,,,,,
,,,,,,,,,,,,,FF,,,,,,,,2.0522,,,,,,,,,,,,,,,,,,,,,,6103678437cbd80e381c5863,61036ce3a4a62b80b2de0e71,2021-07-29_20h08.01.918,Simcolourproject_2stim_asymm_v5,2020.2.10,MacIntel,60,61025ae37ef11b136ea224fe,,,,,,,,,3073,59.23461914,-126.2179565,1,0,0,response3disk,,4,-13.60717773,11.01416016,1,0,0,rectangle,-67.48242188,-144.781189,1,0,0,19.21276855,-1.079772949,1,0,0,0,90,90,70,1,,response5disk_3,TRUE,3,3,"[75,124,51,245,200,56,256,113,107,110,128,288,209,69,91,127,279,280,198,44]",1.603,rectangle
,,,,,,,,,,,,,FF,,,,,,,,2.3526,,,,,,,,,,,,,,,,,,,,,,6103678437cbd80e381c5863,61036ce3a4a62b80b2de0e71,2021-07-29_20h08.01.918,Simcolourproject_2stim_asymm_v5,2020.2.10,MacIntel,60,61025ae37ef11b136ea224fe,,,,,,,,,1515,75.46447754,-135.9061279,1,0,0,response3disk,,4,27.83215332,-19.91888428,1,0,0,rectangle,27.83215332,-19.91888428,1,0,0,27.83215332,-19.91888428,1,0,0,0,91,91,139,1,,,,,,,,
,,,,,,,,,,,,,FF,,,,,,,,2.406,,,,,,,,,,,,,,,,,,,,,,6103678437cbd80e381c5863,61036ce3a4a62b80b2de0e71,2021-07-29_20h08.01.918,Simcolourproject_2stim_asymm_v5,2020.2.10,MacIntel,60,61025ae37ef11b136ea224fe,,,,,,,,,2914,40.42053223,-83.10681152,1,0,0,response3disk,,4,16.45849609,-5.867126465,1,0,0,rectangle,16.45849609,-5.867126465,1,0,0,16.45849609,-5.867126465,1,0,0,0,92,92,66,1,,,,,,,,
,,,,,,,,,,,,,FF,,,,,,,,1.7201,,,,,,,,,,,,,,,,,,,,,,6103678437cbd80e381c5863,61036ce3a4a62b80b2de0e71,2021-07-29_20h08.01.918,Simcolourproject_2stim_asymm_v5,2020.2.10,MacIntel,60,61025ae37ef11b136ea224fe,,,,,,,,,844,96.28833008,40.79089355,1,0,0,response1disk,,6,1.419677734,-15.54681396,1,0,0,rectangle,1.419677734,-15.54681396,1,0,0,1.419677734,-15.54681396,1,0,0,0,93,93,37,1,,,,,,,,
,,,,,,,,,,,,,FF,,,,,,,,2.4528,,,,,,,,,,,,,,,,,,,,,,6103678437cbd80e381c5863,61036ce3a4a62b80b2de0e71,2021-07-29_20h08.01.918,Simcolourproject_2stim_asymm_v5,2020.2.10,MacIntel,60,61025ae37ef11b136ea224fe,,,,,,,,,3121,115.7911377,47.97113037,1,0,0,response1disk,,6,43.51184082,3.989379883,1,0,0,rectangle,43.51184082,3.989379883,1,0,0,43.51184082,3.989379883,1,0,0,0,94,94,45,1,,,,,,,,
,,,,,,,,,,,,,FF,,,,,,,,1.6828,,,,,,,,,,,,,,,,,,,,,,6103678437cbd80e381c5863,61036ce3a4a62b80b2de0e71,2021-07-29_20h08.01.918,Simcolourproject_2stim_asymm_v5,2020.2.10,MacIntel,60,61025ae37ef11b136ea224fe,,,,,,,,,2880,48.09814453,-74.4979248,1,0,0,response3disk,,4,14.6932373,-15.60455322,1,0,0,rectangle,14.6932373,-15.60455322,1,0,0,14.6932373,-15.60455322,1,0,0,0,95,95,72,1,,,,,,,,
,,,,,,,,,,,,,FF,,,,,,,,1.3017,,,,,,,,,,,,,,,,,,,,,,6103678437cbd80e381c5863,61036ce3a4a62b80b2de0e71,2021-07-29_20h08.01.918,Simcolourproject_2stim_asymm_v5,2020.2.10,MacIntel,60,61025ae37ef11b136ea224fe,,,,,,,,,4048,-37.86621094,-79.76312256,1,0,0,response5disk,,3,-10.265625,7.006591797,1,0,0,rectangle,-10.265625,7.006591797,1,0,0,-10.265625,7.006591797,1,0,0,0,96,96,35,1,,,,,,,,
,,,,,,,,,,,,,FF,,,,,,,,1.6348,,,,,,,,,,,,,,,,,,,,,,6103678437cbd80e381c5863,61036ce3a4a62b80b2de0e71,2021-07-29_20h08.01.918,Simcolourproject_2stim_asymm_v5,2020.2.10,MacIntel,60,61025ae37ef11b136ea224fe,,,,,,,,,3038,-69.61621094,-121.6325073,1,0,0,response5disk,,3,8.222167969,6.485595703,1,0,0,rectangle,8.222167969,6.485595703,1,0,0,8.222167969,6.485595703,1,0,0,0,97,97,27,1,,,,,,,,
,,,,,,,,,,,,,FF,,,,,,,,1.2009,,,,,,,,,,,,,,,,,,,,,,6103678437cbd80e381c5863,61036ce3a4a62b80b2de0e71,2021-07-29_20h08.01.918,Simcolourproject_2stim_asymm_v5,2020.2.10,MacIntel,60,61025ae37ef11b136ea224fe,,,,,,,,,3244,-133.3186035,62.53149414,1,0,0,response7disk,,1,-11.73925781,-12.47290039,1,0,0,rectangle,-11.73925781,-12.47290039,1,0,0,-11.73925781,-12.47290039,1,0,0,0,98,98,118,1,,,,,,,,
,,,,,,,,,,,,,FF,,,,,,,,2.2016,,,,,,,,,,,,,,,,,,,,,,6103678437cbd80e381c5863,61036ce3a4a62b80b2de0e71,2021-07-29_20h08.01.918,Simcolourproject_2stim_asymm_v5,2020.2.10,MacIntel,60,61025ae37ef11b136ea224fe,,,,,,,,,3954,139.5452881,-69.68878174,1,0,0,response3disk,,5,29.14379883,-8.698120117,1,0,0,rectangle,29.14379883,-8.698120117,1,0,0,29.14379883,-8.698120117,1,0,0,0,99,99,153,1,,,,,,,,
,,,,,,,,,,,,,FF,,,,,,,,2.1041,,,,,,,,,,,,,,,,,,,,,,6103678437cbd80e381c5863,61036ce3a4a62b80b2de0e71,2021-07-29_20h08.01.918,Simcolourproject_2stim_asymm_v5,2020.2.10,MacIntel,60,61025ae37ef11b136ea224fe,,,,,,,,,837,145.4520264,66.73022461,1,0,0,response1disk,,6,-14.71594238,2.033813477,1,0,0,rectangle,-14.71594238,2.033813477,1,0,0,-14.71594238,2.033813477,1,0,0,0,100,100,52,1,,,,,,,,
,,,,,,,,,,,,,FF,,,,,,,,1.5029,,,,,,,,,,,,,,,,,,,,,,6103678437cbd80e381c5863,61036ce3a4a62b80b2de0e71,2021-07-29_20h08.01.918,Simcolourproject_2stim_asymm_v5,2020.2.10,MacIntel,60,61025ae37ef11b136ea224fe,,,,,,,,,1455,-106.2001953,-71.55456543,1,0,0,response5disk,,2,-4.357666016,-8.87701416,1,0,0,rectangle,-4.357666016,-8.87701416,1,0,0,-4.357666016,-8.87701416,1,0,0,0,101,101,122,1,,,,,,,,
,,,,,,,,,,,,,FF,,,,,,,,2.2348,,,,,,,,,,,,,,,,,,,,,,6103678437cbd80e381c5863,61036ce3a4a62b80b2de0e71,2021-07-29_20h08.01.918,Simcolourproject_2stim_asymm_v5,2020.2.10,MacIntel,60,61025ae37ef11b136ea224fe,,,,,,,,,2309,69.44067383,-106.3352661,1,0,0,response3disk,,4,8.729858398,-5.317016602,1,0,0,rectangle,8.729858398,-5.317016602,1,0,0,8.729858398,-5.317016602,1,0,0,0,102,102,24,1,,,,,,,,
,,,,,,,,,,,,,FF,,,,,,,,0.8023,,,,,,,,,,,,,,,,,,,,,,6103678437cbd80e381c5863,61036ce3a4a62b80b2de0e71,2021-07-29_20h08.01.918,Simcolourproject_2stim_asymm_v5,2020.2.10,MacIntel,60,61025ae37ef11b136ea224fe,,,,,,,,,2566,51.66479492,104.8401489,1,0,0,response1disk,,7,-7.460449219,6.667358398,1,0,0,rectangle,-7.460449219,6.667358398,1,0,0,-7.460449219,6.667358398,1,0,0,0,103,103,156,1,,,,,,,,
,,,,,,,,,,,,,FF,,,,,,,,1.852,,,,,,,,,,,,,,,,,,,,,,6103678437cbd80e381c5863,61036ce3a4a62b80b2de0e71,2021-07-29_20h08.01.918,Simcolourproject_2stim_asymm_v5,2020.2.10,MacIntel,60,61025ae37ef11b136ea224fe,,,,,,,,,3874,111.0498047,51.51721191,1,0,0,response1disk,,6,-10.77832031,4.598571777,1,0,0,rectangle,-10.77832031,4.598571777,1,0,0,-10.77832031,4.598571777,1,0,0,0,104,104,144,1,,,,,,,,
,,,,,,,,,,,,,FF,,,,,,,,1.1508,,,,,,,,,,,,,,,,,,,,,,6103678437cbd80e381c5863,61036ce3a4a62b80b2de0e71,2021-07-29_20h08.01.918,Simcolourproject_2stim_asymm_v5,2020.2.10,MacIntel,60,61025ae37ef11b136ea224fe,,,,,,,,,3908,-104.736084,-67.36730957,1,0,0,response5disk,,2,10.77746582,2.760498047,1,0,0,rectangle,10.77746582,2.760498047,1,0,0,10.77746582,2.760498047,1,0,0,0,105,105,106,1,,,,,,,,
,,,,,,,,,,,,,FF,,,,,,,,0.8002,,,,,,,,,,,,,,,,,,,,,,6103678437cbd80e381c5863,61036ce3a4a62b80b2de0e71,2021-07-29_20h08.01.918,Simcolourproject_2stim_asymm_v5,2020.2.10,MacIntel,60,61025ae37ef11b136ea224fe,,,,,,,,,4366,-119.6459961,53.4654541,1,0,0,response7disk,,1,-19.49743652,14.2989502,1,0,0,rectangle,149.3966064,57.02978516,1,0,0,-0.07019043,-15.39349365,1,0,0,0,106,106,117,1,,response1disk_3,TRUE,6,6,"[75,124,51,245,200,56,256,113,107,110,128,288,209,69,91,127,279,280,198,44]",1.5023,rectangle
,,,,,,,,,,,,,FF,,,,,,,,1.4846,,,,,,,,,,,,,,,,,,,,,,6103678437cbd80e381c5863,61036ce3a4a62b80b2de0e71,2021-07-29_20h08.01.918,Simcolourproject_2stim_asymm_v5,2020.2.10,MacIntel,60,61025ae37ef11b136ea224fe,,,,,,,,,1347,62.07751465,-106.4762573,1,0,0,response3disk,,4,-16.64978027,-1.747619629,1,0,0,rectangle,-16.64978027,-1.747619629,1,0,0,-16.64978027,-1.747619629,1,0,0,0,107,107,12,1,,,,,,,,
,,,,,,,,,,,,,FF,,,,,,,,3.8548,,,,,,,,,,,,,,,,,,,,,,6103678437cbd80e381c5863,61036ce3a4a62b80b2de0e71,2021-07-29_20h08.01.918,Simcolourproject_2stim_asymm_v5,2020.2.10,MacIntel,60,61025ae37ef11b136ea224fe,,,,,,,,,3629,125.5639648,46.79052734,1,0,0,response1disk,,6,-1.878662109,8.893920898,1,0,0,rectangle,-1.878662109,8.893920898,1,0,0,-1.878662109,8.893920898,1,0,0,0,108,108,31,1,,,,,,,,
,,,,,,,,,,,,,FF,,,,,,,,1.3007,,,,,,,,,,,,,,,,,,,,,,6103678437cbd80e381c5863,61036ce3a4a62b80b2de0e71,2021-07-29_20h08.01.918,Simcolourproject_2stim_asymm_v5,2020.2.10,MacIntel,60,61025ae37ef11b136ea224fe,,,,,,,,,41,109.0014648,67.47662354,1,0,0,response1disk,,6,13.76843262,7.32800293,1,0,0,rectangle,-70.53930664,108.5303345,1,0,0,0.582885742,-7.092773438,1,0,0,0,109,109,32,1,,response7disk_3,TRUE,0,0,"[75,124,51,245,200,56,256,113,107,110,128,288,209,69,91,127,279,280,198,44]",1.4031,rectangle
,,,,,,,,,,,,,FF,,,,,,,,1.6512,,,,,,,,,,,,,,,,,,,,,,6103678437cbd80e381c5863,61036ce3a4a62b80b2de0e71,2021-07-29_20h08.01.918,Simcolourproject_2stim_asymm_v5,2020.2.10,MacIntel,60,61025ae37ef11b136ea224fe,,,,,,,,,1588,46.39440918,-94.34039307,1,0,0,response3disk,,4,16.77709961,2.731079102,1,0,0,rectangle,16.77709961,2.731079102,1,0,0,16.77709961,2.731079102,1,0,0,0,110,110,59,1,,,,,,,,
,,,,,,,,,,,,,FF,,,,,,,,1.401,,,,,,,,,,,,,,,,,,,,,,6103678437cbd80e381c5863,61036ce3a4a62b80b2de0e71,2021-07-29_20h08.01.918,Simcolourproject_2stim_asymm_v5,2020.2.10,MacIntel,60,61025ae37ef11b136ea224fe,,,,,,,,,2376,52.5279541,-117.2607422,1,0,0,response3disk,,4,13.7833252,-14.25048828,1,0,0,rectangle,13.7833252,-14.25048828,1,0,0,13.7833252,-14.25048828,1,0,0,0,111,111,55,1,,,,,,,,
,,,,,,,,,,,,,FF,,,,,,,,0.7523,,,,,,,,,,,,,,,,,,,,,,6103678437cbd80e381c5863,61036ce3a4a62b80b2de0e71,2021-07-29_20h08.01.918,Simcolourproject_2stim_asymm_v5,2020.2.10,MacIntel,60,61025ae37ef11b136ea224fe,,,,,,,,,2005,50.53955078,119.6478271,1,0,0,response1disk,,7,15.37792969,0.811279297,1,0,0,rectangle,-62.42163086,123.5999146,1,0,0,-9.510620117,3.625488281,1,0,0,0,112,112,111,1,,response7disk_3,TRUE,0,0,"[75,124,51,245,200,56,256,113,107,110,128,288,209,69,91,127,279,280,198,44]",1.4027,rectangle
,,,,,,,,,,,,,FF,,,,,,,,0.7482,,,,,,,,,,,,,,,,,,,,,,6103678437cbd80e381c5863,61036ce3a4a62b80b2de0e71,2021-07-29_20h08.01.918,Simcolourproject_2stim_asymm_v5,2020.2.10,MacIntel,60,61025ae37ef11b136ea224fe,,,,,,,,,3225,73.24243164,116.1452637,1,0,0,response1disk,,7,15.14050293,1.109313965,1,0,0,rectangle,15.14050293,1.109313965,1,0,0,15.14050293,1.109313965,1,0,0,0,113,113,16,1,,,,,,,,
,,,,,,,,,,,,,FF,,,,,,,,1.5496,,,,,,,,,,,,,,,,,,,,,,6103678437cbd80e381c5863,61036ce3a4a62b80b2de0e71,2021-07-29_20h08.01.918,Simcolourproject_2stim_asymm_v5,2020.2.10,MacIntel,60,61025ae37ef11b136ea224fe,,,,,,,,,81,-49.27563477,-116.2191162,1,0,0,response5disk,,3,-7.364013672,10.11401367,1,0,0,rectangle,-7.364013672,10.11401367,1,0,0,-7.364013672,10.11401367,1,0,0,0,114,114,51,1,,,,,,,,
,,,,,,,,,,,,,FF,,,,,,,,3.2043,,,,,,,,,,,,,,,,,,,,,,6103678437cbd80e381c5863,61036ce3a4a62b80b2de0e71,2021-07-29_20h08.01.918,Simcolourproject_2stim_asymm_v5,2020.2.10,MacIntel,60,61025ae37ef11b136ea224fe,,,,,,,,,2039,-44.12561035,-95.43395996,1,0,0,response5disk,,3,-9.220825195,-4.375732422,1,0,0,rectangle,-9.220825195,-4.375732422,1,0,0,-9.220825195,-4.375732422,1,0,0,0,115,115,48,1,,,,,,,,
,,,,,,,,,,,,,FF,,,,,,,,0.9526,,,,,,,,,,,,,,,,,,,,,,6103678437cbd80e381c5863,61036ce3a4a62b80b2de0e71,2021-07-29_20h08.01.918,Simcolourproject_2stim_asymm_v5,2020.2.10,MacIntel,60,61025ae37ef11b136ea224fe,,,,,,,,,3057,-107.239502,-56.46606445,1,0,0,response5disk,,2,-15.18457031,9.385498047,1,0,0,rectangle,-15.18457031,9.385498047,1,0,0,-15.18457031,9.385498047,1,0,0,0,116,116,54,1,,,,,,,,
,,,,,,,,,,,,,FF,,,,,,,,1.4994,,,,,,,,,,,,,,,,,,,,,,6103678437cbd80e381c5863,61036ce3a4a62b80b2de0e71,2021-07-29_20h08.01.918,Simcolourproject_2stim_asymm_v5,2020.2.10,MacIntel,60,61025ae37ef11b136ea224fe,,,,,,,,,789,-49.85583496,-111.1100464,1,0,0,response5disk,,3,-1.274291992,-12.3861084,1,0,0,rectangle,-1.274291992,-12.3861084,1,0,0,-1.274291992,-12.3861084,1,0,0,0,117,117,30,1,,,,,,,,
,,,,,,,,,,,,,FF,,,,,,,,1.867,,,,,,,,,,,,,,,,,,,,,,6103678437cbd80e381c5863,61036ce3a4a62b80b2de0e71,2021-07-29_20h08.01.918,Simcolourproject_2stim_asymm_v5,2020.2.10,MacIntel,60,61025ae37ef11b136ea224fe,,,,,,,,,280,-58.37145996,-150.1212769,1,0,0,response5disk,,3,-7.121459961,1.736450195,1,0,0,rectangle,-7.121459961,1.736450195,1,0,0,-7.121459961,1.736450195,1,0,0,0,118,118,108,1,,,,,,,,
,,,,,,,,,,,,,FF,,,,,,,,3.206,,,,,,,,,,,,,,,,,,,,,,6103678437cbd80e381c5863,61036ce3a4a62b80b2de0e71,2021-07-29_20h08.01.918,Simcolourproject_2stim_asymm_v5,2020.2.10,MacIntel,60,61025ae37ef11b136ea224fe,,,,,,,,,1884,149.9501953,47.16748047,1,0,0,response1disk,,6,23.68969727,-2.87902832,1,0,0,rectangle,23.68969727,-2.87902832,1,0,0,23.68969727,-2.87902832,1,0,0,0,119,119,142,1,,,,,,,,
,,,,,,,,,,,,,FF,,,,,,,,1.5025,,,,,,,,,,,,,,,,,,,,,,6103678437cbd80e381c5863,61036ce3a4a62b80b2de0e71,2021-07-29_20h08.01.918,Simcolourproject_2stim_asymm_v5,2020.2.10,MacIntel,60,61025ae37ef11b136ea224fe,,,,,,,,,3452,113.7877197,-66.90393066,1,0,0,response3disk,,5,41.41186523,-13.62194824,1,0,0,rectangle,41.41186523,-13.62194824,1,0,0,41.41186523,-13.62194824,1,0,0,0,120,120,42,1,,,,,,,,
,,,,,,,,,,,,,FF,,,,,,,,1.5006,,,,,,,,,,,,,,,,,,,,,,6103678437cbd80e381c5863,61036ce3a4a62b80b2de0e71,2021-07-29_20h08.01.918,Simcolourproject_2stim_asymm_v5,2020.2.10,MacIntel,60,61025ae37ef11b136ea224fe,,,,,,,,,3242,85.50683594,129.3567505,1,0,0,response1disk,,7,13.92382813,3.420288086,1,0,0,rectangle,13.92382813,3.420288086,1,0,0,13.92382813,3.420288086,1,0,0,0,121,121,89,1,,,,,,,,
,,,,,,,,,,,,,FF,,,,,,,,1.6027,,,,,,,,,,,,,,,,,,,,,,6103678437cbd80e381c5863,61036ce3a4a62b80b2de0e71,2021-07-29_20h08.01.918,Simcolourproject_2stim_asymm_v5,2020.2.10,MacIntel,60,61025ae37ef11b136ea224fe,,,,,,,,,4340,46.58349609,-84.65612793,1,0,0,response3disk,,4,7.291015625,7.081848145,1,0,0,rectangle,7.291015625,7.081848145,1,0,0,7.291015625,7.081848145,1,0,0,0,122,122,145,1,,,,,,,,
,,,,,,,,,,,,,FF,,,,,,,,1.0834,,,,,,,,,,,,,,,,,,,,,,6103678437cbd80e381c5863,61036ce3a4a62b80b2de0e71,2021-07-29_20h08.01.918,Simcolourproject_2stim_asymm_v5,2020.2.10,MacIntel,60,61025ae37ef11b136ea224fe,,,,,,,,,4121,-44.5045166,-85.56207275,1,0,0,response5disk,,3,-3.30859375,1.030578613,1,0,0,rectangle,-89.99377441,40.72033691,1,0,0,23.33227539,-24.32214355,1,0,0,0,123,123,116,1,,response7disk_3,TRUE,1,1,"[75,124,51,245,200,56,256,113,107,110,128,288,209,69,91,127,279,280,198,44]",1.3014,rectangle
,,,,,,,,,,,,,FF,,,,,,,,1.35,,,,,,,,,,,,,,,,,,,,,,6103678437cbd80e381c5863,61036ce3a4a62b80b2de0e71,2021-07-29_20h08.01.918,Simcolourproject_2stim_asymm_v5,2020.2.10,MacIntel,60,61025ae37ef11b136ea224fe,,,,,,,,,3375,-46.86987305,-87.98474121,1,0,0,response5disk,,3,-1.605834961,-12.699646,1,0,0,rectangle,-1.605834961,-12.699646,1,0,0,-1.605834961,-12.699646,1,0,0,0,124,124,15,1,,,,,,,,
,,,,,,,,,,,,,FF,,,,,,,,3.7029,,,,,,,,,,,,,,,,,,,,,,6103678437cbd80e381c5863,61036ce3a4a62b80b2de0e71,2021-07-29_20h08.01.918,Simcolourproject_2stim_asymm_v5,2020.2.10,MacIntel,60,61025ae37ef11b136ea224fe,,,,,,,,,1482,123.7382813,-66.07867432,1,0,0,response3disk,,5,3.204589844,10.48168945,1,0,0,rectangle,3.204589844,10.48168945,1,0,0,3.204589844,10.48168945,1,0,0,0,125,125,134,1,,,,,,,,
,,,,,,,,,,,,,FF,,,,,,,,1.0488,,,,,,,,,,,,,,,,,,,,,,6103678437cbd80e381c5863,61036ce3a4a62b80b2de0e71,2021-07-29_20h08.01.918,Simcolourproject_2stim_asymm_v5,2020.2.10,MacIntel,60,61025ae37ef11b136ea224fe,,,,,,,,,615,59.02954102,-99.66186523,1,0,0,response3disk,,4,10.92297363,-10.97064209,1,0,0,rectangle,123.6162109,68.79669189,1,0,0,33.01806641,0.169677734,1,0,0,0,126,126,6,1,,response1disk_3,TRUE,6,6,"[75,124,51,245,200,56,256,113,107,110,128,288,209,69,91,127,279,280,198,44]",2.2532,rectangle
,,,,,,,,,,,,,FF,,,,,,,,2.951,,,,,,,,,,,,,,,,,,,,,,6103678437cbd80e381c5863,61036ce3a4a62b80b2de0e71,2021-07-29_20h08.01.918,Simcolourproject_2stim_asymm_v5,2020.2.10,MacIntel,60,61025ae37ef11b136ea224fe,,,,,,,,,4086,130.7004395,-77.05517578,1,0,0,response3disk,,5,27.43640137,-11.62371826,1,0,0,rectangle,-54.93432617,96.47137451,1,0,0,9.904296875,1.87677002,1,0,0,0,127,127,150,1,,response7disk_3,TRUE,0,0,"[75,124,51,245,200,56,256,113,107,110,128,288,209,69,91,127,279,280,198,44]",1.2011,rectangle
,,,,,,,,,,,,,FF,,,,,,,,2.2037,,,,,,,,,,,,,,,,,,,,,,6103678437cbd80e381c5863,61036ce3a4a62b80b2de0e71,2021-07-29_20h08.01.918,Simcolourproject_2stim_asymm_v5,2020.2.10,MacIntel,60,61025ae37ef11b136ea224fe,,,,,,,,,1629,42.66772461,78.97290039,1,0,0,response1disk,,7,4.649291992,13.52246094,1,0,0,rectangle,4.649291992,13.52246094,1,0,0,4.649291992,13.52246094,1,0,0,0,128,128,132,1,,,,,,,,
,,,,,,,,,,,,,FF,,,,,,,,3.0007,,,,,,,,,,,,,,,,,,,,,,6103678437cbd80e381c5863,61036ce3a4a62b80b2de0e71,2021-07-29_20h08.01.918,Simcolourproject_2stim_asymm_v5,2020.2.10,MacIntel,60,61025ae37ef11b136ea224fe,,,,,,,,,3958,100.6347656,-49.10681152,1,0,0,response3disk,,5,38.91308594,-1.915893555,1,0,0,rectangle,38.91308594,-1.915893555,1,0,0,38.91308594,-1.915893555,1,0,0,0,129,129,143,1,,,,,,,,
,,,,,,,,,,,,,FF,,,,,,,,1.0516,,,,,,,,,,,,,,,,,,,,,,6103678437cbd80e381c5863,61036ce3a4a62b80b2de0e71,2021-07-29_20h08.01.918,Simcolourproject_2stim_asymm_v5,2020.2.10,MacIntel,60,61025ae37ef11b136ea224fe,,,,,,,,,3265,39.36804199,-131.8450317,1,0,0,response3disk,,4,6.462890625,6.777282715,1,0,0,rectangle,6.462890625,6.777282715,1,0,0,6.462890625,6.777282715,1,0,0,0,130,130,155,1,,,,,,,,
,,,,,,,,,,,,,FF,,,,,,,,1.5868,,,,,,,,,,,,,,,,,,,,,,6103678437cbd80e381c5863,61036ce3a4a62b80b2de0e71,2021-07-29_20h08.01.918,Simcolourproject_2stim_asymm_v5,2020.2.10,MacIntel,60,61025ae37ef11b136ea224fe,,,,,,,,,4099,-78.58410645,-109.2671509,1,0,0,response5disk,,3,-20.34277344,-12.90472412,1,0,0,rectangle,-20.34277344,-12.90472412,1,0,0,-20.34277344,-12.90472412,1,0,0,0,131,131,2,1,,,,,,,,
,,,,,,,,,,,,,FF,,,,,,,,2.454,,,,,,,,,,,,,,,,,,,,,,6103678437cbd80e381c5863,61036ce3a4a62b80b2de0e71,2021-07-29_20h08.01.918,Simcolourproject_2stim_asymm_v5,2020.2.10,MacIntel,60,61025ae37ef11b136ea224fe,,,,,,,,,2450,102.4743652,66.56573486,1,0,0,response1disk,,6,-3.991699219,-3.345214844,1,0,0,rectangle,-3.991699219,-3.345214844,1,0,0,-3.991699219,-3.345214844,1,0,0,0,132,132,151,1,,,,,,,,
,,,,,,,,,,,,,FF,,,,,,,,1.8021,,,,,,,,,,,,,,,,,,,,,,6103678437cbd80e381c5863,61036ce3a4a62b80b2de0e71,2021-07-29_20h08.01.918,Simcolourproject_2stim_asymm_v5,2020.2.10,MacIntel,60,61025ae37ef11b136ea224fe,,,,,,,,,112,94.47570801,-55.73339844,1,0,0,response3disk,,5,-28.79846191,-15.88269043,1,0,0,rectangle,-28.79846191,-15.88269043,1,0,0,-28.79846191,-15.88269043,1,0,0,0,133,133,140,1,,,,,,,,
,,,,,,,,,,,,,FF,,,,,,,,1.3492,,,,,,,,,,,,,,,,,,,,,,6103678437cbd80e381c5863,61036ce3a4a62b80b2de0e71,2021-07-29_20h08.01.918,Simcolourproject_2stim_asymm_v5,2020.2.10,MacIntel,60,61025ae37ef11b136ea224fe,,,,,,,,,2892,-111.2470703,-82.43444824,1,0,0,response5disk,,2,-4.320800781,-6.335205078,1,0,0,rectangle,-4.320800781,-6.335205078,1,0,0,-4.320800781,-6.335205078,1,0,0,0,134,134,112,1,,,,,,,,
,,,,,,,,,,,,,FF,,,,,,,,0.9011,,,,,,,,,,,,,,,,,,,,,,6103678437cbd80e381c5863,61036ce3a4a62b80b2de0e71,2021-07-29_20h08.01.918,Simcolourproject_2stim_asymm_v5,2020.2.10,MacIntel,60,61025ae37ef11b136ea224fe,,,,,,,,,970,-104.6525879,34.83111572,1,0,0,response7disk,,1,-21.24938965,7.487670898,1,0,0,rectangle,-21.24938965,7.487670898,1,0,0,-21.24938965,7.487670898,1,0,0,0,135,135,104,1,,,,,,,,
,,,,,,,,,,,,,FF,,,,,,,,1.4514,,,,,,,,,,,,,,,,,,,,,,6103678437cbd80e381c5863,61036ce3a4a62b80b2de0e71,2021-07-29_20h08.01.918,Simcolourproject_2stim_asymm_v5,2020.2.10,MacIntel,60,61025ae37ef11b136ea224fe,,,,,,,,,452,41.04418945,-91.16436768,1,0,0,response3disk,,4,7.151000977,-7.660217285,1,0,0,rectangle,7.151000977,-7.660217285,1,0,0,7.151000977,-7.660217285,1,0,0,0,136,136,115,1,,,,,,,,
,,,,,,,,,,,,,FF,,,,,,,,1.1998,,,,,,,,,,,,,,,,,,,,,,6103678437cbd80e381c5863,61036ce3a4a62b80b2de0e71,2021-07-29_20h08.01.918,Simcolourproject_2stim_asymm_v5,2020.2.10,MacIntel,60,61025ae37ef11b136ea224fe,,,,,,,,,1934,52.5435791,104.9851685,1,0,0,response1disk,,7,-27.78833008,-18.46557617,1,0,0,rectangle,-27.78833008,-18.46557617,1,0,0,-27.78833008,-18.46557617,1,0,0,0,137,137,46,1,,,,,,,,
,,,,,,,,,,,,,FF,,,,,,,,2.984,,,,,,,,,,,,,,,,,,,,,,6103678437cbd80e381c5863,61036ce3a4a62b80b2de0e71,2021-07-29_20h08.01.918,Simcolourproject_2stim_asymm_v5,2020.2.10,MacIntel,60,61025ae37ef11b136ea224fe,,,,,,,,,3350,-112.0148926,-91.95550537,1,0,0,response5disk,,2,-10.76586914,1.301208496,1,0,0,rectangle,-10.76586914,1.301208496,1,0,0,-10.76586914,1.301208496,1,0,0,0,138,138,103,1,,,,,,,,
,,,,,,,,,,,,,FF,,,,,,,,1.8538,,,,,,,,,,,,,,,,,,,,,,6103678437cbd80e381c5863,61036ce3a4a62b80b2de0e71,2021-07-29_20h08.01.918,Simcolourproject_2stim_asymm_v5,2020.2.10,MacIntel,60,61025ae37ef11b136ea224fe,,,,,,,,,2621,-78.13220215,-105.7900391,1,0,0,response5disk,,3,-21.84973145,-16.2364502,1,0,0,rectangle,-21.84973145,-16.2364502,1,0,0,-21.84973145,-16.2364502,1,0,0,0,139,139,56,1,,,,,,,,
,,,,,,,,,,,,,FF,,,,,,,,1.0011,,,,,,,,,,,,,,,,,,,,,,6103678437cbd80e381c5863,61036ce3a4a62b80b2de0e71,2021-07-29_20h08.01.918,Simcolourproject_2stim_asymm_v5,2020.2.10,MacIntel,60,61025ae37ef11b136ea224fe,,,,,,,,,1216,-110.5074463,-47.96887207,1,0,0,response5disk,,2,-8.953125,1.642578125,1,0,0,rectangle,-8.953125,1.642578125,1,0,0,-8.953125,1.642578125,1,0,0,0,140,140,138,1,,,,,,,,
,,,,,,,,,,,,,FF,,,,,,,,0.8672,,,,,,,,,,,,,,,,,,,,,,6103678437cbd80e381c5863,61036ce3a4a62b80b2de0e71,2021-07-29_20h08.01.918,Simcolourproject_2stim_asymm_v5,2020.2.10,MacIntel,60,61025ae37ef11b136ea224fe,,,,,,,,,4097,-104.7718506,-43.83197021,1,0,0,response5disk,,2,-25.78686523,-10.07904053,1,0,0,rectangle,-25.78686523,-10.07904053,1,0,0,-25.78686523,-10.07904053,1,0,0,0,141,141,7,1,,,,,,,,
,,,,,,,,,,,,,FF,,,,,,,,1.3533,,,,,,,,,,,,,,,,,,,,,,6103678437cbd80e381c5863,61036ce3a4a62b80b2de0e71,2021-07-29_20h08.01.918,Simcolourproject_2stim_asymm_v5,2020.2.10,MacIntel,60,61025ae37ef11b136ea224fe,,,,,,,,,207,96.13916016,-54.34643555,1,0,0,response3disk,,5,6.103759766,-22.47607422,1,0,0,rectangle,6.103759766,-22.47607422,1,0,0,6.103759766,-22.47607422,1,0,0,0,142,142,130,1,,,,,,,,
,,,,,,,,,,,,,FF,,,,,,,,1.1855,,,,,,,,,,,,,,,,,,,,,,6103678437cbd80e381c5863,61036ce3a4a62b80b2de0e71,2021-07-29_20h08.01.918,Simcolourproject_2stim_asymm_v5,2020.2.10,MacIntel,60,61025ae37ef11b136ea224fe,,,,,,,,,1039,60.17199707,-118.5753174,1,0,0,response3disk,,4,7.952758789,-13.68286133,1,0,0,rectangle,7.952758789,-13.68286133,1,0,0,7.952758789,-13.68286133,1,0,0,0,143,143,120,1,,,,,,,,
,,,,,,,,,,,,,FF,,,,,,,,1.3017,,,,,,,,,,,,,,,,,,,,,,6103678437cbd80e381c5863,61036ce3a4a62b80b2de0e71,2021-07-29_20h08.01.918,Simcolourproject_2stim_asymm_v5,2020.2.10,MacIntel,60,61025ae37ef11b136ea224fe,,,,,,,,,380,-56.7401123,-122.3428345,1,0,0,response5disk,,3,-16.25622559,-1.205688477,1,0,0,rectangle,-16.25622559,-1.205688477,1,0,0,-16.25622559,-1.205688477,1,0,0,0,144,144,107,1,,,,,,,,
,,,,,,,,,,,,,FF,,,,,,,,1.1344,,,,,,,,,,,,,,,,,,,,,,6103678437cbd80e381c5863,61036ce3a4a62b80b2de0e71,2021-07-29_20h08.01.918,Simcolourproject_2stim_asymm_v5,2020.2.10,MacIntel,60,61025ae37ef11b136ea224fe,,,,,,,,,1989,34.76086426,87.09973145,1,0,0,response1disk,,7,-21.05285645,-2.260314941,1,0,0,rectangle,-21.05285645,-2.260314941,1,0,0,-21.05285645,-2.260314941,1,0,0,0,145,145,77,1,,,,,,,,
,,,,,,,,,,,,,FF,,,,,,,,1.8523,,,,,,,,,,,,,,,,,,,,,,6103678437cbd80e381c5863,61036ce3a4a62b80b2de0e71,2021-07-29_20h08.01.918,Simcolourproject_2stim_asymm_v5,2020.2.10,MacIntel,60,61025ae37ef11b136ea224fe,,,,,,,,,2903,47.07287598,90.24804688,1,0,0,response1disk,,7,1.943115234,-1.433349609,1,0,0,rectangle,1.943115234,-1.433349609,1,0,0,1.943115234,-1.433349609,1,0,0,0,146,146,3,1,,,,,,,,
,,,,,,,,,,,,,FF,,,,,,,,1.4996,,,,,,,,,,,,,,,,,,,,,,6103678437cbd80e381c5863,61036ce3a4a62b80b2de0e71,2021-07-29_20h08.01.918,Simcolourproject_2stim_asymm_v5,2020.2.10,MacIntel,60,61025ae37ef11b136ea224fe,,,,,,,,,943,104.4772949,54.93127441,1,0,0,response1disk,,6,-9.088500977,-13.54730225,1,0,0,rectangle,-9.088500977,-13.54730225,1,0,0,-9.088500977,-13.54730225,1,0,0,0,147,147,90,1,,,,,,,,
,,,,,,,,,,,,,FF,,,,,,,,2.0498,,,,,,,,,,,,,,,,,,,,,,6103678437cbd80e381c5863,61036ce3a4a62b80b2de0e71,2021-07-29_20h08.01.918,Simcolourproject_2stim_asymm_v5,2020.2.10,MacIntel,60,61025ae37ef11b136ea224fe,,,,,,,,,998,153.2613525,57.91149902,1,0,0,response1disk,,6,22.44274902,-2.56451416,1,0,0,rectangle,22.44274902,-2.56451416,1,0,0,22.44274902,-2.56451416,1,0,0,0,148,148,58,1,,,,,,,,
,,,,,,,,,,,,,FF,,,,,,,,1.687,,,,,,,,,,,,,,,,,,,,,,6103678437cbd80e381c5863,61036ce3a4a62b80b2de0e71,2021-07-29_20h08.01.918,Simcolourproject_2stim_asymm_v5,2020.2.10,MacIntel,60,61025ae37ef11b136ea224fe,,,,,,,,,515,120.730835,-61.08776855,1,0,0,response3disk,,5,3.177001953,8.694458008,1,0,0,rectangle,3.177001953,8.694458008,1,0,0,3.177001953,8.694458008,1,0,0,0,149,149,50,1,,,,,,,,
,,,,,,,,,,,,,FF,,,,,,,,1.1014,,,,,,,,,,,,,,,,,,,,,,6103678437cbd80e381c5863,61036ce3a4a62b80b2de0e71,2021-07-29_20h08.01.918,Simcolourproject_2stim_asymm_v5,2020.2.10,MacIntel,60,61025ae37ef11b136ea224fe,,,,,,,,,1438,52.47570801,-103.6535645,1,0,0,response3disk,,4,12.00695801,-7.922607422,1,0,0,rectangle,12.00695801,-7.922607422,1,0,0,12.00695801,-7.922607422,1,0,0,0,150,150,131,1,,,,,,,,
,,,,,,,,,,,,,FF,,,,,,,,2.1028,,,,,,,,,,,,,,,,,,,,,,6103678437cbd80e381c5863,61036ce3a4a62b80b2de0e71,2021-07-29_20h08.01.918,Simcolourproject_2stim_asymm_v5,2020.2.10,MacIntel,60,61025ae37ef11b136ea224fe,,,,,,,,,3736,130.3946533,-72.81134033,1,0,0,response3disk,,5,18.71118164,-8.598815918,1,0,0,rectangle,18.71118164,-8.598815918,1,0,0,18.71118164,-8.598815918,1,0,0,0,151,151,78,1,,,,,,,,
,,,,,,,,,,,,,FF,,,,,,,,1.1512,,,,,,,,,,,,,,,,,,,,,,6103678437cbd80e381c5863,61036ce3a4a62b80b2de0e71,2021-07-29_20h08.01.918,Simcolourproject_2stim_asymm_v5,2020.2.10,MacIntel,60,61025ae37ef11b136ea224fe,,,,,,,,,1344,101.5528564,-73.33221436,1,0,0,response3disk,,5,9.135864258,0.307495117,1,0,0,rectangle,9.135864258,0.307495117,1,0,0,9.135864258,0.307495117,1,0,0,0,152,152,100,1,,,,,,,,
,,,,,,,,,,,,,FF,,,,,,,,1.2026,,,,,,,,,,,,,,,,,,,,,,6103678437cbd80e381c5863,61036ce3a4a62b80b2de0e71,2021-07-29_20h08.01.918,Simcolourproject_2stim_asymm_v5,2020.2.10,MacIntel,60,61025ae37ef11b136ea224fe,,,,,,,,,3851,-64.86682129,-111.3309326,1,0,0,response5disk,,3,-2.405395508,0.278747559,1,0,0,rectangle,-2.405395508,0.278747559,1,0,0,-2.405395508,0.278747559,1,0,0,0,153,153,135,1,,,,,,,,
,,,,,,,,,,,,,FF,,,,,,,,0.9528,,,,,,,,,,,,,,,,,,,,,,6103678437cbd80e381c5863,61036ce3a4a62b80b2de0e71,2021-07-29_20h08.01.918,Simcolourproject_2stim_asymm_v5,2020.2.10,MacIntel,60,61025ae37ef11b136ea224fe,,,,,,,,,3761,37.27478027,-126.055603,1,0,0,response3disk,,4,-11.40905762,-5.415527344,1,0,0,rectangle,-11.40905762,-5.415527344,1,0,0,-11.40905762,-5.415527344,1,0,0,0,154,154,128,1,,,,,,,,
,,,,,,,,,,,,,FF,,,,,,,,0.9009,,,,,,,,,,,,,,,,,,,,,,6103678437cbd80e381c5863,61036ce3a4a62b80b2de0e71,2021-07-29_20h08.01.918,Simcolourproject_2stim_asymm_v5,2020.2.10,MacIntel,60,61025ae37ef11b136ea224fe,,,,,,,,,1900,-47.21435547,-107.3546753,1,0,0,response5disk,,3,-6.118164063,5.620300293,1,0,0,rectangle,-6.118164063,5.620300293,1,0,0,-6.118164063,5.620300293,1,0,0,0,155,155,33,1,,,,,,,,
,,,,,,,,,,,,,FF,,,,,,,,1.3492,,,,,,,,,,,,,,,,,,,,,,6103678437cbd80e381c5863,61036ce3a4a62b80b2de0e71,2021-07-29_20h08.01.918,Simcolourproject_2stim_asymm_v5,2020.2.10,MacIntel,60,61025ae37ef11b136ea224fe,,,,,,,,,1732,109.8331299,-76.38946533,1,0,0,response3disk,,5,-6.664428711,-3.594299316,1,0,0,rectangle,-6.664428711,-3.594299316,1,0,0,-6.664428711,-3.594299316,1,0,0,0,156,156,28,1,,,,,,,,
,,,,,,,,,,,,,FF,,,,,,,,1.9033,,,,,,,,,,,,,,,,,,,,,,6103678437cbd80e381c5863,61036ce3a4a62b80b2de0e71,2021-07-29_20h08.01.918,Simcolourproject_2stim_asymm_v5,2020.2.10,MacIntel,60,61025ae37ef11b136ea224fe,,,,,,,,,2554,62.77783203,-134.3102417,1,0,0,response3disk,,4,30.6394043,-13.21936035,1,0,0,rectangle,30.6394043,-13.21936035,1,0,0,30.6394043,-13.21936035,1,0,0,0,157,157,61,1,,,,,,,,
,,,,,,,,,,,,,FF,,,,,,,,1.6494,,,,,,,,,,,,,,,,,,,,,,6103678437cbd80e381c5863,61036ce3a4a62b80b2de0e71,2021-07-29_20h08.01.918,Simcolourproject_2stim_asymm_v5,2020.2.10,MacIntel,60,61025ae37ef11b136ea224fe,,,,,,,,,2608,-136.3955078,84.82836914,1,0,0,response7disk,,1,22.99499512,6.621887207,1,0,0,rectangle,22.99499512,6.621887207,1,0,0,22.99499512,6.621887207,1,0,0,0,158,158,57,1,,,,,,,,
,,,,,,,,,,,,,FF,,,,,,,,1.6338,,,,,,,,,,,,,,,,,,,,,,6103678437cbd80e381c5863,61036ce3a4a62b80b2de0e71,2021-07-29_20h08.01.918,Simcolourproject_2stim_asymm_v5,2020.2.10,MacIntel,60,61025ae37ef11b136ea224fe,,,,,,,,,2384,98.60290527,-56.1104126,1,0,0,response3disk,,5,25.87158203,-21.84692383,1,0,0,rectangle,25.87158203,-21.84692383,1,0,0,25.87158203,-21.84692383,1,0,0,0,159,159,113,1,,,,,,,,
,,,,,,,,,,,,,FF,,,,,,,,0.8514,,,,,,,,,,,,,,,,,,,,,,6103678437cbd80e381c5863,61036ce3a4a62b80b2de0e71,2021-07-29_20h08.01.918,Simcolourproject_2stim_asymm_v5,2020.2.10,MacIntel,60,61025ae37ef11b136ea224fe,,,,,,,,,2116,59.85290527,116.0529175,1,0,0,response1disk,,7,12.95043945,-11.02142334,1,0,0,rectangle,12.95043945,-11.02142334,1,0,0,12.95043945,-11.02142334,1,0,0,1,0,160,22,1,,,,,,,,
,,,,,,,,,,,,,FF,,,,,,,,1.2981,,,,,,,,,,,,,,,,,,,,,,6103678437cbd80e381c5863,61036ce3a4a62b80b2de0e71,2021-07-29_20h08.01.918,Simcolourproject_2stim_asymm_v5,2020.2.10,MacIntel,60,61025ae37ef11b136ea224fe,,,,,,,,,4369,-62.21191406,112.1375122,1,0,0,response7disk,,0,-9.559692383,-8.848266602,1,0,0,rectangle,-9.559692383,-8.848266602,1,0,0,-9.559692383,-8.848266602,1,0,0,1,1,161,106,1,,,,,,,,
,,,,,,,,,,,,,FF,,,,,,,,1.0865,,,,,,,,,,,,,,,,,,,,,,6103678437cbd80e381c5863,61036ce3a4a62b80b2de0e71,2021-07-29_20h08.01.918,Simcolourproject_2stim_asymm_v5,2020.2.10,MacIntel,60,61025ae37ef11b136ea224fe,,,,,,,,,212,110.7062988,51.56109619,1,0,0,response1disk,,6,-18.75012207,12.28460693,1,0,0,rectangle,-18.75012207,12.28460693,1,0,0,-18.75012207,12.28460693,1,0,0,1,2,162,21,1,,,,,,,,
,,,,,,,,,,,,,FF,,,,,,,,1.0847,,,,,,,,,,,,,,,,,,,,,,6103678437cbd80e381c5863,61036ce3a4a62b80b2de0e71,2021-07-29_20h08.01.918,Simcolourproject_2stim_asymm_v5,2020.2.10,MacIntel,60,61025ae37ef11b136ea224fe,,,,,,,,,1369,-92.92993164,-68.64990234,1,0,0,response5disk,,2,-6.125366211,-13.04003906,1,0,0,rectangle,-6.125366211,-13.04003906,1,0,0,-6.125366211,-13.04003906,1,0,0,1,3,163,89,1,,,,,,,,
,,,,,,,,,,,,,FF,,,,,,,,1.1012,,,,,,,,,,,,,,,,,,,,,,6103678437cbd80e381c5863,61036ce3a4a62b80b2de0e71,2021-07-29_20h08.01.918,Simcolourproject_2stim_asymm_v5,2020.2.10,MacIntel,60,61025ae37ef11b136ea224fe,,,,,,,,,2289,100.9354248,-68.58239746,1,0,0,response3disk,,5,-29.24841309,1.768676758,1,0,0,rectangle,-29.24841309,1.768676758,1,0,0,-29.24841309,1.768676758,1,0,0,1,4,164,12,1,,,,,,,,
,,,,,,,,,,,,,FF,,,,,,,,0.8022,,,,,,,,,,,,,,,,,,,,,,6103678437cbd80e381c5863,61036ce3a4a62b80b2de0e71,2021-07-29_20h08.01.918,Simcolourproject_2stim_asymm_v5,2020.2.10,MacIntel,60,61025ae37ef11b136ea224fe,,,,,,,,,1763,120.645874,-72.66516113,1,0,0,response3disk,,5,-6.453613281,-9.349853516,1,0,0,rectangle,-6.453613281,-9.349853516,1,0,0,-6.453613281,-9.349853516,1,0,0,1,5,165,5,1,,,,,,,,
,,,,,,,,,,,,,FF,,,,,,,,0.8991,,,,,,,,,,,,,,,,,,,,,,6103678437cbd80e381c5863,61036ce3a4a62b80b2de0e71,2021-07-29_20h08.01.918,Simcolourproject_2stim_asymm_v5,2020.2.10,MacIntel,60,61025ae37ef11b136ea224fe,,,,,,,,,2947,-111.0788574,-62.82757568,1,0,0,response5disk,,2,-8.776000977,3.881591797,1,0,0,rectangle,-8.776000977,3.881591797,1,0,0,-8.776000977,3.881591797,1,0,0,1,6,166,152,1,,,,,,,,
,,,,,,,,,,,,,FF,,,,,,,,1.902,,,,,,,,,,,,,,,,,,,,,,6103678437cbd80e381c5863,61036ce3a4a62b80b2de0e71,2021-07-29_20h08.01.918,Simcolourproject_2stim_asymm_v5,2020.2.10,MacIntel,60,61025ae37ef11b136ea224fe,,,,,,,,,1098,121.4567871,35.35144043,1,0,0,response1disk,,6,-0.780517578,-8.387329102,1,0,0,rectangle,-0.780517578,-8.387329102,1,0,0,-0.780517578,-8.387329102,1,0,0,1,7,167,77,1,,,,,,,,
,,,,,,,,,,,,,FF,,,,,,,,1.1014,,,,,,,,,,,,,,,,,,,,,,6103678437cbd80e381c5863,61036ce3a4a62b80b2de0e71,2021-07-29_20h08.01.918,Simcolourproject_2stim_asymm_v5,2020.2.10,MacIntel,60,61025ae37ef11b136ea224fe,,,,,,,,,246,116.0772705,-54.63806152,1,0,0,response3disk,,5,20.22387695,-15.68774414,1,0,0,rectangle,20.22387695,-15.68774414,1,0,0,20.22387695,-15.68774414,1,0,0,1,8,168,90,1,,,,,,,,
,,,,,,,,,,,,,FF,,,,,,,,1.653,,,,,,,,,,,,,,,,,,,,,,6103678437cbd80e381c5863,61036ce3a4a62b80b2de0e71,2021-07-29_20h08.01.918,Simcolourproject_2stim_asymm_v5,2020.2.10,MacIntel,60,61025ae37ef11b136ea224fe,,,,,,,,,2535,86.96777344,-65.20391846,1,0,0,response3disk,,5,21.9284668,-1.073608398,1,0,0,rectangle,21.9284668,-1.073608398,1,0,0,21.9284668,-1.073608398,1,0,0,1,9,169,11,1,,,,,,,,
,,,,,,,,,,,,,FF,,,,,,,,1.0324,,,,,,,,,,,,,,,,,,,,,,6103678437cbd80e381c5863,61036ce3a4a62b80b2de0e71,2021-07-29_20h08.01.918,Simcolourproject_2stim_asymm_v5,2020.2.10,MacIntel,60,61025ae37ef11b136ea224fe,,,,,,,,,281,57.82165527,-96.83990479,1,0,0,response3disk,,4,9.343017578,-6.561218262,1,0,0,rectangle,9.343017578,-6.561218262,1,0,0,9.343017578,-6.561218262,1,0,0,1,10,170,4,1,,,,,,,,
,,,,,,,,,,,,,FF,,,,,,,,1.4504,,,,,,,,,,,,,,,,,,,,,,6103678437cbd80e381c5863,61036ce3a4a62b80b2de0e71,2021-07-29_20h08.01.918,Simcolourproject_2stim_asymm_v5,2020.2.10,MacIntel,60,61025ae37ef11b136ea224fe,,,,,,,,,2991,44.79833984,94.73071289,1,0,0,response1disk,,7,-10.6932373,-19.44586182,1,0,0,rectangle,-10.6932373,-19.44586182,1,0,0,-10.6932373,-19.44586182,1,0,0,1,11,171,53,1,,,,,,,,
,,,,,,,,,,,,,FF,,,,,,,,1.7018,,,,,,,,,,,,,,,,,,,,,,6103678437cbd80e381c5863,61036ce3a4a62b80b2de0e71,2021-07-29_20h08.01.918,Simcolourproject_2stim_asymm_v5,2020.2.10,MacIntel,60,61025ae37ef11b136ea224fe,,,,,,,,,418,106.7572021,84.95495605,1,0,0,response1disk,,6,38.77307129,-11.25549316,1,0,0,rectangle,38.77307129,-11.25549316,1,0,0,38.77307129,-11.25549316,1,0,0,1,12,172,78,1,,,,,,,,
,,,,,,,,,,,,,FF,,,,,,,,0.8491,,,,,,,,,,,,,,,,,,,,,,6103678437cbd80e381c5863,61036ce3a4a62b80b2de0e71,2021-07-29_20h08.01.918,Simcolourproject_2stim_asymm_v5,2020.2.10,MacIntel,60,61025ae37ef11b136ea224fe,,,,,,,,,2778,-60.38085938,-149.3397827,1,0,0,response5disk,,3,-1.051757813,5.661865234,1,0,0,rectangle,-1.051757813,5.661865234,1,0,0,-1.051757813,5.661865234,1,0,0,1,13,173,88,1,,,,,,,,
,,,,,,,,,,,,,FF,,,,,,,,1.2169,,,,,,,,,,,,,,,,,,,,,,6103678437cbd80e381c5863,61036ce3a4a62b80b2de0e71,2021-07-29_20h08.01.918,Simcolourproject_2stim_asymm_v5,2020.2.10,MacIntel,60,61025ae37ef11b136ea224fe,,,,,,,,,1375,-119.5734863,-50.33190918,1,0,0,response5disk,,2,13.91931152,21.63568115,1,0,0,rectangle,13.91931152,21.63568115,1,0,0,13.91931152,21.63568115,1,0,0,1,14,174,93,1,,,,,,,,
,,,,,,,,,,,,,FF,,,,,,,,2.0032,,,,,,,,,,,,,,,,,,,,,,6103678437cbd80e381c5863,61036ce3a4a62b80b2de0e71,2021-07-29_20h08.01.918,Simcolourproject_2stim_asymm_v5,2020.2.10,MacIntel,60,61025ae37ef11b136ea224fe,,,,,,,,,248,-52.36914063,-127.2766113,1,0,0,response5disk,,3,-3.301025391,-8.823120117,1,0,0,rectangle,-3.301025391,-8.823120117,1,0,0,-3.301025391,-8.823120117,1,0,0,1,15,175,131,1,,,,,,,,
,,,,,,,,,,,,,FF,,,,,,,,1.1503,,,,,,,,,,,,,,,,,,,,,,6103678437cbd80e381c5863,61036ce3a4a62b80b2de0e71,2021-07-29_20h08.01.918,Simcolourproject_2stim_asymm_v5,2020.2.10,MacIntel,60,61025ae37ef11b136ea224fe,,,,,,,,,1925,71.85107422,-96.98498535,1,0,0,response3disk,,4,2.209716797,-3.825683594,1,0,0,rectangle,2.209716797,-3.825683594,1,0,0,2.209716797,-3.825683594,1,0,0,1,16,176,129,1,,,,,,,,
,,,,,,,,,,,,,FF,,,,,,,,1.2515,,,,,,,,,,,,,,,,,,,,,,6103678437cbd80e381c5863,61036ce3a4a62b80b2de0e71,2021-07-29_20h08.01.918,Simcolourproject_2stim_asymm_v5,2020.2.10,MacIntel,60,61025ae37ef11b136ea224fe,,,,,,,,,878,146.0559082,-76.921875,1,0,0,response3disk,,5,32.16992188,-15.70544434,1,0,0,rectangle,32.16992188,-15.70544434,1,0,0,32.16992188,-15.70544434,1,0,0,1,17,177,110,1,,,,,,,,
,,,,,,,,,,,,,FF,,,,,,,,0.8497,,,,,,,,,,,,,,,,,,,,,,6103678437cbd80e381c5863,61036ce3a4a62b80b2de0e71,2021-07-29_20h08.01.918,Simcolourproject_2stim_asymm_v5,2020.2.10,MacIntel,60,61025ae37ef11b136ea224fe,,,,,,,,,4239,-69.35913086,-113.9195557,1,0,0,response5disk,,3,-12.62841797,-8.207214355,1,0,0,rectangle,-12.62841797,-8.207214355,1,0,0,-12.62841797,-8.207214355,1,0,0,1,18,178,87,1,,,,,,,,
,,,,,,,,,,,,,FF,,,,,,,,1.2013,,,,,,,,,,,,,,,,,,,,,,6103678437cbd80e381c5863,61036ce3a4a62b80b2de0e71,2021-07-29_20h08.01.918,Simcolourproject_2stim_asymm_v5,2020.2.10,MacIntel,60,61025ae37ef11b136ea224fe,,,,,,,,,2616,120.9919434,66.96905518,1,0,0,response1disk,,6,11.95422363,-3.739990234,1,0,0,rectangle,11.95422363,-3.739990234,1,0,0,11.95422363,-3.739990234,1,0,0,1,19,179,37,1,,,,,,,,
,,,,,,,,,,,,,FF,,,,,,,,1.1972,,,,,,,,,,,,,,,,,,,,,,6103678437cbd80e381c5863,61036ce3a4a62b80b2de0e71,2021-07-29_20h08.01.918,Simcolourproject_2stim_asymm_v5,2020.2.10,MacIntel,60,61025ae37ef11b136ea224fe,,,,,,,,,2720,-128.7906494,-69.37237549,1,0,0,response5disk,,2,33.04089355,-5.985290527,1,0,0,rectangle,33.04089355,-5.985290527,1,0,0,33.04089355,-5.985290527,1,0,0,1,20,180,46,1,,,,,,,,
,,,,,,,,,,,,,FF,,,,,,,,0.9524,,,,,,,,,,,,,,,,,,,,,,6103678437cbd80e381c5863,61036ce3a4a62b80b2de0e71,2021-07-29_20h08.01.918,Simcolourproject_2stim_asymm_v5,2020.2.10,MacIntel,60,61025ae37ef11b136ea224fe,,,,,,,,,3512,-138.8742676,-71.70159912,1,0,0,response5disk,,2,-23.95458984,-11.24621582,1,0,0,rectangle,-23.95458984,-11.24621582,1,0,0,-23.95458984,-11.24621582,1,0,0,1,21,181,111,1,,,,,,,,
,,,,,,,,,,,,,FF,,,,,,,,1.0496,,,,,,,,,,,,,,,,,,,,,,6103678437cbd80e381c5863,61036ce3a4a62b80b2de0e71,2021-07-29_20h08.01.918,Simcolourproject_2stim_asymm_v5,2020.2.10,MacIntel,60,61025ae37ef11b136ea224fe,,,,,,,,,1011,108.0063477,42.15490723,1,0,0,response1disk,,6,-6.83190918,5.012817383,1,0,0,rectangle,-6.83190918,5.012817383,1,0,0,-6.83190918,5.012817383,1,0,0,1,22,182,119,1,,,,,,,,
,,,,,,,,,,,,,FF,,,,,,,,1.0021,,,,,,,,,,,,,,,,,,,,,,6103678437cbd80e381c5863,61036ce3a4a62b80b2de0e71,2021-07-29_20h08.01.918,Simcolourproject_2stim_asymm_v5,2020.2.10,MacIntel,60,61025ae37ef11b136ea224fe,,,,,,,,,3803,58.81481934,81.31945801,1,0,0,response1disk,,7,-2.444702148,-1.544616699,1,0,0,rectangle,-2.444702148,-1.544616699,1,0,0,-2.444702148,-1.544616699,1,0,0,1,23,183,69,1,,,,,,,,
,,,,,,,,,,,,,FF,,,,,,,,1.9534,,,,,,,,,,,,,,,,,,,,,,6103678437cbd80e381c5863,61036ce3a4a62b80b2de0e71,2021-07-29_20h08.01.918,Simcolourproject_2stim_asymm_v5,2020.2.10,MacIntel,60,61025ae37ef11b136ea224fe,,,,,,,,,4154,56.09545898,89.49951172,1,0,0,response1disk,,7,-1.769897461,4.367797852,1,0,0,rectangle,-1.769897461,4.367797852,1,0,0,-1.769897461,4.367797852,1,0,0,1,24,184,97,1,,,,,,,,
,,,,,,,,,,,,,FF,,,,,,,,1.8352,,,,,,,,,,,,,,,,,,,,,,6103678437cbd80e381c5863,61036ce3a4a62b80b2de0e71,2021-07-29_20h08.01.918,Simcolourproject_2stim_asymm_v5,2020.2.10,MacIntel,60,61025ae37ef11b136ea224fe,,,,,,,,,1228,48.48828125,-123.9805908,1,0,0,response3disk,,4,9.185546875,9.08013916,1,0,0,rectangle,9.185546875,9.08013916,1,0,0,9.185546875,9.08013916,1,0,0,1,25,185,24,1,,,,,,,,
,,,,,,,,,,,,,FF,,,,,,,,1.3846,,,,,,,,,,,,,,,,,,,,,,6103678437cbd80e381c5863,61036ce3a4a62b80b2de0e71,2021-07-29_20h08.01.918,Simcolourproject_2stim_asymm_v5,2020.2.10,MacIntel,60,61025ae37ef11b136ea224fe,,,,,,,,,3222,129.6022949,65.57458496,1,0,0,response1disk,,6,4.998168945,-12.0770874,1,0,0,rectangle,4.998168945,-12.0770874,1,0,0,4.998168945,-12.0770874,1,0,0,1,26,186,159,1,,,,,,,,
,,,,,,,,,,,,,FF,,,,,,,,1.1512,,,,,,,,,,,,,,,,,,,,,,6103678437cbd80e381c5863,61036ce3a4a62b80b2de0e71,2021-07-29_20h08.01.918,Simcolourproject_2stim_asymm_v5,2020.2.10,MacIntel,60,61025ae37ef11b136ea224fe,,,,,,,,,109,122.3116455,48.18341064,1,0,0,response1disk,,6,21.59228516,3.103027344,1,0,0,rectangle,21.59228516,3.103027344,1,0,0,21.59228516,3.103027344,1,0,0,1,27,187,122,1,,,,,,,,
,,,,,,,,,,,,,FF,,,,,,,,0.7515,,,,,,,,,,,,,,,,,,,,,,6103678437cbd80e381c5863,61036ce3a4a62b80b2de0e71,2021-07-29_20h08.01.918,Simcolourproject_2stim_asymm_v5,2020.2.10,MacIntel,60,61025ae37ef11b136ea224fe,,,,,,,,,3129,70.5411377,118.5858765,1,0,0,response1disk,,7,-1.257080078,-12.05249023,1,0,0,rectangle,-1.257080078,-12.05249023,1,0,0,-1.257080078,-12.05249023,1,0,0,1,28,188,105,1,,,,,,,,
,,,,,,,,,,,,,FF,,,,,,,,1.0006,,,,,,,,,,,,,,,,,,,,,,6103678437cbd80e381c5863,61036ce3a4a62b80b2de0e71,2021-07-29_20h08.01.918,Simcolourproject_2stim_asymm_v5,2020.2.10,MacIntel,60,61025ae37ef11b136ea224fe,,,,,,,,,2352,105.4185791,-75.84289551,1,0,0,response3disk,,5,17.22229004,11.52313232,1,0,0,rectangle,17.22229004,11.52313232,1,0,0,17.22229004,11.52313232,1,0,0,1,29,189,32,1,,,,,,,,
,,,,,,,,,,,,,FF,,,,,,,,0.9507,,,,,,,,,,,,,,,,,,,,,,6103678437cbd80e381c5863,61036ce3a4a62b80b2de0e71,2021-07-29_20h08.01.918,Simcolourproject_2stim_asymm_v5,2020.2.10,MacIntel,60,61025ae37ef11b136ea224fe,,,,,,,,,363,98.97021484,-39.36132813,1,0,0,response3disk,,5,37.32543945,-18.17236328,1,0,0,rectangle,37.32543945,-18.17236328,1,0,0,37.32543945,-18.17236328,1,0,0,1,30,190,1,1,,,,,,,,
,,,,,,,,,,,,,FF,,,,,,,,1.0656,,,,,,,,,,,,,,,,,,,,,,6103678437cbd80e381c5863,61036ce3a4a62b80b2de0e71,2021-07-29_20h08.01.918,Simcolourproject_2stim_asymm_v5,2020.2.10,MacIntel,60,61025ae37ef11b136ea224fe,,,,,,,,,3360,134.862915,75.38800049,1,0,0,response1disk,,6,6.341308594,7.194641113,1,0,0,rectangle,6.341308594,7.194641113,1,0,0,6.341308594,7.194641113,1,0,0,1,31,191,107,1,,,,,,,,
,,,,,,,,,,,,,FF,,,,,,,,1.8499,,,,,,,,,,,,,,,,,,,,,,6103678437cbd80e381c5863,61036ce3a4a62b80b2de0e71,2021-07-29_20h08.01.918,Simcolourproject_2stim_asymm_v5,2020.2.10,MacIntel,60,61025ae37ef11b136ea224fe,,,,,,,,,372,-45.40234375,-138.4169922,1,0,0,response5disk,,3,-10.92919922,-12.28497314,1,0,0,rectangle,-10.92919922,-12.28497314,1,0,0,-10.92919922,-12.28497314,1,0,0,1,32,192,145,1,,,,,,,,
,,,,,,,,,,,,,FF,,,,,,,,1.6526,,,,,,,,,,,,,,,,,,,,,,6103678437cbd80e381c5863,61036ce3a4a62b80b2de0e71,2021-07-29_20h08.01.918,Simcolourproject_2stim_asymm_v5,2020.2.10,MacIntel,60,61025ae37ef11b136ea224fe,,,,,,,,,4006,41.5189209,-107.4158325,1,0,0,response3disk,,4,10.17700195,-4.405090332,1,0,0,rectangle,10.17700195,-4.405090332,1,0,0,10.17700195,-4.405090332,1,0,0,1,33,193,112,1,,,,,,,,
,,,,,,,,,,,,,FF,,,,,,,,1.2364,,,,,,,,,,,,,,,,,,,,,,6103678437cbd80e381c5863,61036ce3a4a62b80b2de0e71,2021-07-29_20h08.01.918,Simcolourproject_2stim_asymm_v5,2020.2.10,MacIntel,60,61025ae37ef11b136ea224fe,,,,,,,,,1323,118.0970459,74.66381836,1,0,0,response1disk,,6,-1.32409668,-2.523620605,1,0,0,rectangle,-1.32409668,-2.523620605,1,0,0,-1.32409668,-2.523620605,1,0,0,1,34,194,118,1,,,,,,,,
,,,,,,,,,,,,,FF,,,,,,,,1.8016,,,,,,,,,,,,,,,,,,,,,,6103678437cbd80e381c5863,61036ce3a4a62b80b2de0e71,2021-07-29_20h08.01.918,Simcolourproject_2stim_asymm_v5,2020.2.10,MacIntel,60,61025ae37ef11b136ea224fe,,,,,,,,,4158,106.0394287,-56.43963623,1,0,0,response3disk,,5,28.18286133,-6.192016602,1,0,0,rectangle,28.18286133,-6.192016602,1,0,0,28.18286133,-6.192016602,1,0,0,1,35,195,126,1,,,,,,,,
,,,,,,,,,,,,,FF,,,,,,,,4.786,,,,,,,,,,,,,,,,,,,,,,6103678437cbd80e381c5863,61036ce3a4a62b80b2de0e71,2021-07-29_20h08.01.918,Simcolourproject_2stim_asymm_v5,2020.2.10,MacIntel,60,61025ae37ef11b136ea224fe,,,,,,,,,1753,-78.44470215,-118.8810425,1,0,0,response5disk,,3,1.129882813,-5.223449707,1,0,0,rectangle,1.129882813,-5.223449707,1,0,0,1.129882813,-5.223449707,1,0,0,1,36,196,39,1,,,,,,,,
,,,,,,,,,,,,,FF,,,,,,,,0.8028,,,,,,,,,,,,,,,,,,,,,,6103678437cbd80e381c5863,61036ce3a4a62b80b2de0e71,2021-07-29_20h08.01.918,Simcolourproject_2stim_asymm_v5,2020.2.10,MacIntel,60,61025ae37ef11b136ea224fe,,,,,,,,,1309,43.84204102,-100.9813232,1,0,0,response3disk,,4,8.459228516,-10.046875,1,0,0,rectangle,-51.3059082,108.1281738,1,0,0,16.89575195,-4.239440918,1,0,0,1,37,197,42,1,,response7disk_3,TRUE,0,0,"[75,124,51,245,200,56,256,113,107,110,128,288,209,69,91,127,279,280,198,44]",1.3008,rectangle
,,,,,,,,,,,,,FF,,,,,,,,3.2699,,,,,,,,,,,,,,,,,,,,,,6103678437cbd80e381c5863,61036ce3a4a62b80b2de0e71,2021-07-29_20h08.01.918,Simcolourproject_2stim_asymm_v5,2020.2.10,MacIntel,60,61025ae37ef11b136ea224fe,,,,,,,,,2767,67.2208252,-120.0496216,1,0,0,response3disk,,4,35.93896484,-15.14782715,1,0,0,rectangle,35.93896484,-15.14782715,1,0,0,35.93896484,-15.14782715,1,0,0,1,38,198,7,1,,,,,,,,
,,,,,,,,,,,,,FF,,,,,,,,0.9505,,,,,,,,,,,,,,,,,,,,,,6103678437cbd80e381c5863,61036ce3a4a62b80b2de0e71,2021-07-29_20h08.01.918,Simcolourproject_2stim_asymm_v5,2020.2.10,MacIntel,60,61025ae37ef11b136ea224fe,,,,,,,,,758,48.58398438,144.6052856,1,0,0,response1disk,,7,29.92773438,3.109558105,1,0,0,rectangle,137.0340576,-75.47351074,1,0,0,-15.81066895,-0.063659668,1,0,0,1,39,199,109,1,,response3disk_3,TRUE,5,5,"[75,124,51,245,200,56,256,113,107,110,128,288,209,69,91,127,279,280,198,44]",2.0539,rectangle
,,,,,,,,,,,,,FF,,,,,,,,0.919,,,,,,,,,,,,,,,,,,,,,,6103678437cbd80e381c5863,61036ce3a4a62b80b2de0e71,2021-07-29_20h08.01.918,Simcolourproject_2stim_asymm_v5,2020.2.10,MacIntel,60,61025ae37ef11b136ea224fe,,,,,,,,,4004,-41.29882813,-82.46533203,1,0,0,response5disk,,3,-3.728027344,9.19152832,1,0,0,rectangle,-3.728027344,9.19152832,1,0,0,-3.728027344,9.19152832,1,0,0,1,40,200,67,1,,,,,,,,
,,,,,,,,,,,,,FF,,,,,,,,1.3983,,,,,,,,,,,,,,,,,,,,,,6103678437cbd80e381c5863,61036ce3a4a62b80b2de0e71,2021-07-29_20h08.01.918,Simcolourproject_2stim_asymm_v5,2020.2.10,MacIntel,60,61025ae37ef11b136ea224fe,,,,,,,,,3264,92.20178223,55.56225586,1,0,0,response1disk,,6,6.420043945,1.356994629,1,0,0,rectangle,6.420043945,1.356994629,1,0,0,6.420043945,1.356994629,1,0,0,1,41,201,61,1,,,,,,,,
,,,,,,,,,,,,,FF,,,,,,,,0.7001,,,,,,,,,,,,,,,,,,,,,,6103678437cbd80e381c5863,61036ce3a4a62b80b2de0e71,2021-07-29_20h08.01.918,Simcolourproject_2stim_asymm_v5,2020.2.10,MacIntel,60,61025ae37ef11b136ea224fe,,,,,,,,,4037,51.4699707,94.1607666,1,0,0,response1disk,,7,21.80895996,-5.29296875,1,0,0,rectangle,21.80895996,-5.29296875,1,0,0,21.80895996,-5.29296875,1,0,0,1,42,202,40,1,,,,,,,,
,,,,,,,,,,,,,FF,,,,,,,,0.752,,,,,,,,,,,,,,,,,,,,,,6103678437cbd80e381c5863,61036ce3a4a62b80b2de0e71,2021-07-29_20h08.01.918,Simcolourproject_2stim_asymm_v5,2020.2.10,MacIntel,60,61025ae37ef11b136ea224fe,,,,,,,,,2293,-97.33850098,-46.89111328,1,0,0,response5disk,,2,15.03222656,8.857910156,1,0,0,rectangle,15.03222656,8.857910156,1,0,0,15.03222656,8.857910156,1,0,0,1,43,203,99,1,,,,,,,,
,,,,,,,,,,,,,FF,,,,,,,,1.5029,,,,,,,,,,,,,,,,,,,,,,6103678437cbd80e381c5863,61036ce3a4a62b80b2de0e71,2021-07-29_20h08.01.918,Simcolourproject_2stim_asymm_v5,2020.2.10,MacIntel,60,61025ae37ef11b136ea224fe,,,,,,,,,133,69.27685547,35.74151611,1,0,0,response1disk,,6,46.24743652,-1.566772461,1,0,0,rectangle,46.24743652,-1.566772461,1,0,0,46.24743652,-1.566772461,1,0,0,1,44,204,94,1,,,,,,,,
,,,,,,,,,,,,,FF,,,,,,,,1.1497,,,,,,,,,,,,,,,,,,,,,,6103678437cbd80e381c5863,61036ce3a4a62b80b2de0e71,2021-07-29_20h08.01.918,Simcolourproject_2stim_asymm_v5,2020.2.10,MacIntel,60,61025ae37ef11b136ea224fe,,,,,,,,,2504,57.76123047,94.53570557,1,0,0,response1disk,,7,4.597412109,11.2567749,1,0,0,rectangle,4.597412109,11.2567749,1,0,0,4.597412109,11.2567749,1,0,0,1,45,205,148,1,,,,,,,,
,,,,,,,,,,,,,FF,,,,,,,,1.0013,,,,,,,,,,,,,,,,,,,,,,6103678437cbd80e381c5863,61036ce3a4a62b80b2de0e71,2021-07-29_20h08.01.918,Simcolourproject_2stim_asymm_v5,2020.2.10,MacIntel,60,61025ae37ef11b136ea224fe,,,,,,,,,956,-27.8572998,-88.359375,1,0,0,response5disk,,3,14.32971191,12.19506836,1,0,0,rectangle,14.32971191,12.19506836,1,0,0,14.32971191,12.19506836,1,0,0,1,46,206,65,1,,,,,,,,
,,,,,,,,,,,,,FF,,,,,,,,1.1039,,,,,,,,,,,,,,,,,,,,,,6103678437cbd80e381c5863,61036ce3a4a62b80b2de0e71,2021-07-29_20h08.01.918,Simcolourproject_2stim_asymm_v5,2020.2.10,MacIntel,60,61025ae37ef11b136ea224fe,,,,,,,,,3885,101.3414307,60.93273926,1,0,0,response1disk,,6,-15.31506348,3.862548828,1,0,0,rectangle,-15.31506348,3.862548828,1,0,0,-15.31506348,3.862548828,1,0,0,1,47,207,63,1,,,,,,,,
,,,,,,,,,,,,,FF,,,,,,,,0.9998,,,,,,,,,,,,,,,,,,,,,,6103678437cbd80e381c5863,61036ce3a4a62b80b2de0e71,2021-07-29_20h08.01.918,Simcolourproject_2stim_asymm_v5,2020.2.10,MacIntel,60,61025ae37ef11b136ea224fe,,,,,,,,,1137,-104.1263428,-47.32702637,1,0,0,response5disk,,2,-34.35070801,-7.014648438,1,0,0,rectangle,-46.34326172,-91.0836792,1,0,0,7.482543945,-1.276367188,1,0,0,1,48,208,54,1,,response5disk_3,TRUE,3,3,"[75,124,51,245,200,56,256,113,107,110,128,288,209,69,91,127,279,280,198,44]",1.6846,rectangle
,,,,,,,,,,,,,FF,,,,,,,,1.3851,,,,,,,,,,,,,,,,,,,,,,6103678437cbd80e381c5863,61036ce3a4a62b80b2de0e71,2021-07-29_20h08.01.918,Simcolourproject_2stim_asymm_v5,2020.2.10,MacIntel,60,61025ae37ef11b136ea224fe,,,,,,,,,2435,34.94030762,-146.5545654,1,0,0,response3disk,,4,23.26147461,-18.37182617,1,0,0,rectangle,23.26147461,-18.37182617,1,0,0,23.26147461,-18.37182617,1,0,0,1,49,209,3,1,,,,,,,,
,,,,,,,,,,,,,FF,,,,,,,,1.0513,,,,,,,,,,,,,,,,,,,,,,6103678437cbd80e381c5863,61036ce3a4a62b80b2de0e71,2021-07-29_20h08.01.918,Simcolourproject_2stim_asymm_v5,2020.2.10,MacIntel,60,61025ae37ef11b136ea224fe,,,,,,,,,158,37.2532959,-109.5487671,1,0,0,response3disk,,4,-2.275390625,4.559570313,1,0,0,rectangle,-2.275390625,4.559570313,1,0,0,-2.275390625,4.559570313,1,0,0,1,50,210,62,1,,,,,,,,
,,,,,,,,,,,,,FF,,,,,,,,1.1021,,,,,,,,,,,,,,,,,,,,,,6103678437cbd80e381c5863,61036ce3a4a62b80b2de0e71,2021-07-29_20h08.01.918,Simcolourproject_2stim_asymm_v5,2020.2.10,MacIntel,60,61025ae37ef11b136ea224fe,,,,,,,,,2907,37.72167969,-100.4842529,1,0,0,response3disk,,4,-0.898925781,-20.21887207,1,0,0,rectangle,-0.898925781,-20.21887207,1,0,0,-0.898925781,-20.21887207,1,0,0,1,51,211,48,1,,,,,,,,
,,,,,,,,,,,,,FF,,,,,,,,1.1523,,,,,,,,,,,,,,,,,,,,,,6103678437cbd80e381c5863,61036ce3a4a62b80b2de0e71,2021-07-29_20h08.01.918,Simcolourproject_2stim_asymm_v5,2020.2.10,MacIntel,60,61025ae37ef11b136ea224fe,,,,,,,,,4268,-86.54272461,-117.3192749,1,0,0,response5disk,,3,-3.253173828,-7.862792969,1,0,0,rectangle,-3.253173828,-7.862792969,1,0,0,-3.253173828,-7.862792969,1,0,0,1,52,212,84,1,,,,,,,,
,,,,,,,,,,,,,FF,,,,,,,,0.8985,,,,,,,,,,,,,,,,,,,,,,6103678437cbd80e381c5863,61036ce3a4a62b80b2de0e71,2021-07-29_20h08.01.918,Simcolourproject_2stim_asymm_v5,2020.2.10,MacIntel,60,61025ae37ef11b136ea224fe,,,,,,,,,3262,118.1090088,61.80072021,1,0,0,response1disk,,6,21.89733887,16.02844238,1,0,0,rectangle,21.89733887,16.02844238,1,0,0,21.89733887,16.02844238,1,0,0,1,53,213,31,1,,,,,,,,
,,,,,,,,,,,,,FF,,,,,,,,1.0013,,,,,,,,,,,,,,,,,,,,,,6103678437cbd80e381c5863,61036ce3a4a62b80b2de0e71,2021-07-29_20h08.01.918,Simcolourproject_2stim_asymm_v5,2020.2.10,MacIntel,60,61025ae37ef11b136ea224fe,,,,,,,,,717,-72.21533203,143.2957153,1,0,0,response7disk,,0,21.4864502,4.307128906,1,0,0,rectangle,21.4864502,4.307128906,1,0,0,21.4864502,4.307128906,1,0,0,1,54,214,72,1,,,,,,,,
,,,,,,,,,,,,,FF,,,,,,,,1.0007,,,,,,,,,,,,,,,,,,,,,,6103678437cbd80e381c5863,61036ce3a4a62b80b2de0e71,2021-07-29_20h08.01.918,Simcolourproject_2stim_asymm_v5,2020.2.10,MacIntel,60,61025ae37ef11b136ea224fe,,,,,,,,,2360,-78.25061035,-53.57263184,1,0,0,response5disk,,2,-20.24365234,-5.471313477,1,0,0,rectangle,-20.24365234,-5.471313477,1,0,0,-20.24365234,-5.471313477,1,0,0,1,55,215,138,1,,,,,,,,
,,,,,,,,,,,,,FF,,,,,,,,1.1028,,,,,,,,,,,,,,,,,,,,,,6103678437cbd80e381c5863,61036ce3a4a62b80b2de0e71,2021-07-29_20h08.01.918,Simcolourproject_2stim_asymm_v5,2020.2.10,MacIntel,60,61025ae37ef11b136ea224fe,,,,,,,,,1500,28.84240723,74.1328125,1,0,0,response1disk,,7,5.821411133,4.105712891,1,0,0,rectangle,5.821411133,4.105712891,1,0,0,5.821411133,4.105712891,1,0,0,1,56,216,101,1,,,,,,,,
,,,,,,,,,,,,,FF,,,,,,,,0.9834,,,,,,,,,,,,,,,,,,,,,,6103678437cbd80e381c5863,61036ce3a4a62b80b2de0e71,2021-07-29_20h08.01.918,Simcolourproject_2stim_asymm_v5,2020.2.10,MacIntel,60,61025ae37ef11b136ea224fe,,,,,,,,,1364,91.33898926,57.87744141,1,0,0,response1disk,,6,27.54577637,2.947998047,1,0,0,rectangle,27.54577637,2.947998047,1,0,0,27.54577637,2.947998047,1,0,0,1,57,217,45,1,,,,,,,,
,,,,,,,,,,,,,FF,,,,,,,,0.8029,,,,,,,,,,,,,,,,,,,,,,6103678437cbd80e381c5863,61036ce3a4a62b80b2de0e71,2021-07-29_20h08.01.918,Simcolourproject_2stim_asymm_v5,2020.2.10,MacIntel,60,61025ae37ef11b136ea224fe,,,,,,,,,3363,62.00866699,106.9526978,1,0,0,response1disk,,7,17.48474121,10.6126709,1,0,0,rectangle,17.48474121,10.6126709,1,0,0,17.48474121,10.6126709,1,0,0,1,58,218,73,1,,,,,,,,
,,,,,,,,,,,,,FF,,,,,,,,2.5513,,,,,,,,,,,,,,,,,,,,,,6103678437cbd80e381c5863,61036ce3a4a62b80b2de0e71,2021-07-29_20h08.01.918,Simcolourproject_2stim_asymm_v5,2020.2.10,MacIntel,60,61025ae37ef11b136ea224fe,,,,,,,,,45,130.5805664,83.99536133,1,0,0,response1disk,,6,-32.54541016,2.133361816,1,0,0,rectangle,-32.54541016,2.133361816,1,0,0,-32.54541016,2.133361816,1,0,0,1,59,219,100,1,,,,,,,,
,,,,,,,,,,,,,FF,,,,,,,,0.9011,,,,,,,,,,,,,,,,,,,,,,6103678437cbd80e381c5863,61036ce3a4a62b80b2de0e71,2021-07-29_20h08.01.918,Simcolourproject_2stim_asymm_v5,2020.2.10,MacIntel,60,61025ae37ef11b136ea224fe,,,,,,,,,2073,39.31811523,83.98669434,1,0,0,response1disk,,7,8.662841797,13.92755127,1,0,0,rectangle,8.662841797,13.92755127,1,0,0,8.662841797,13.92755127,1,0,0,1,60,220,64,1,,,,,,,,
,,,,,,,,,,,,,FF,,,,,,,,0.8995,,,,,,,,,,,,,,,,,,,,,,6103678437cbd80e381c5863,61036ce3a4a62b80b2de0e71,2021-07-29_20h08.01.918,Simcolourproject_2stim_asymm_v5,2020.2.10,MacIntel,60,61025ae37ef11b136ea224fe,,,,,,,,,2994,90.8260498,-130.5047607,1,0,0,response3disk,,4,32.57739258,-7.686462402,1,0,0,rectangle,32.57739258,-7.686462402,1,0,0,32.57739258,-7.686462402,1,0,0,1,61,221,79,1,,,,,,,,
,,,,,,,,,,,,,FF,,,,,,,,1.1494,,,,,,,,,,,,,,,,,,,,,,6103678437cbd80e381c5863,61036ce3a4a62b80b2de0e71,2021-07-29_20h08.01.918,Simcolourproject_2stim_asymm_v5,2020.2.10,MacIntel,60,61025ae37ef11b136ea224fe,,,,,,,,,1971,-40.06445313,-106.5611572,1,0,0,response5disk,,3,13.8918457,-13.4375,1,0,0,rectangle,13.8918457,-13.4375,1,0,0,13.8918457,-13.4375,1,0,0,1,62,222,23,1,,,,,,,,
,,,,,,,,,,,,,FF,,,,,,,,1.0507,,,,,,,,,,,,,,,,,,,,,,6103678437cbd80e381c5863,61036ce3a4a62b80b2de0e71,2021-07-29_20h08.01.918,Simcolourproject_2stim_asymm_v5,2020.2.10,MacIntel,60,61025ae37ef11b136ea224fe,,,,,,,,,2333,84.99804688,-40.57647705,1,0,0,response3disk,,5,11.7722168,9.134399414,1,0,0,rectangle,11.7722168,9.134399414,1,0,0,11.7722168,9.134399414,1,0,0,1,63,223,124,1,,,,,,,,
,,,,,,,,,,,,,FF,,,,,,,,1.535,,,,,,,,,,,,,,,,,,,,,,6103678437cbd80e381c5863,61036ce3a4a62b80b2de0e71,2021-07-29_20h08.01.918,Simcolourproject_2stim_asymm_v5,2020.2.10,MacIntel,60,61025ae37ef11b136ea224fe,,,,,,,,,3574,99.39013672,44.87121582,1,0,0,response1disk,,6,44.10412598,1.004760742,1,0,0,rectangle,44.10412598,1.004760742,1,0,0,44.10412598,1.004760742,1,0,0,1,64,224,155,1,,,,,,,,
,,,,,,,,,,,,,FF,,,,,,,,1.2506,,,,,,,,,,,,,,,,,,,,,,6103678437cbd80e381c5863,61036ce3a4a62b80b2de0e71,2021-07-29_20h08.01.918,Simcolourproject_2stim_asymm_v5,2020.2.10,MacIntel,60,61025ae37ef11b136ea224fe,,,,,,,,,473,103.2045898,41.79992676,1,0,0,response1disk,,6,55.65966797,12.61682129,1,0,0,rectangle,55.65966797,12.61682129,1,0,0,55.65966797,12.61682129,1,0,0,1,65,225,56,1,,,,,,,,
,,,,,,,,,,,,,FF,,,,,,,,3.8532,,,,,,,,,,,,,,,,,,,,,,6103678437cbd80e381c5863,61036ce3a4a62b80b2de0e71,2021-07-29_20h08.01.918,Simcolourproject_2stim_asymm_v5,2020.2.10,MacIntel,60,61025ae37ef11b136ea224fe,,,,,,,,,4074,130.2644043,-73.44378662,1,0,0,response3disk,,5,46.25891113,-10.18322754,1,0,0,rectangle,46.25891113,-10.18322754,1,0,0,46.25891113,-10.18322754,1,0,0,1,66,226,8,1,,,,,,,,
,,,,,,,,,,,,,FF,,,,,,,,1.3845,,,,,,,,,,,,,,,,,,,,,,6103678437cbd80e381c5863,61036ce3a4a62b80b2de0e71,2021-07-29_20h08.01.918,Simcolourproject_2stim_asymm_v5,2020.2.10,MacIntel,60,61025ae37ef11b136ea224fe,,,,,,,,,3269,97.41894531,46.5022583,1,0,0,response1disk,,6,-15.65429688,3.900268555,1,0,0,rectangle,-15.65429688,3.900268555,1,0,0,-15.65429688,3.900268555,1,0,0,1,67,227,14,1,,,,,,,,
,,,,,,,,,,,,,FF,,,,,,,,1.1014,,,,,,,,,,,,,,,,,,,,,,6103678437cbd80e381c5863,61036ce3a4a62b80b2de0e71,2021-07-29_20h08.01.918,Simcolourproject_2stim_asymm_v5,2020.2.10,MacIntel,60,61025ae37ef11b136ea224fe,,,,,,,,,4345,-95.4083252,-62.52874756,1,0,0,response5disk,,2,8.284912109,-21.22009277,1,0,0,rectangle,8.284912109,-21.22009277,1,0,0,8.284912109,-21.22009277,1,0,0,1,68,228,153,1,,,,,,,,
,,,,,,,,,,,,,FF,,,,,,,,0.7527,,,,,,,,,,,,,,,,,,,,,,6103678437cbd80e381c5863,61036ce3a4a62b80b2de0e71,2021-07-29_20h08.01.918,Simcolourproject_2stim_asymm_v5,2020.2.10,MacIntel,60,61025ae37ef11b136ea224fe,,,,,,,,,3232,61.08154297,110.9610596,1,0,0,response1disk,,7,11.55456543,11.27801514,1,0,0,rectangle,11.55456543,11.27801514,1,0,0,11.55456543,11.27801514,1,0,0,1,69,229,29,1,,,,,,,,
,,,,,,,,,,,,,FF,,,,,,,,0.6015,,,,,,,,,,,,,,,,,,,,,,6103678437cbd80e381c5863,61036ce3a4a62b80b2de0e71,2021-07-29_20h08.01.918,Simcolourproject_2stim_asymm_v5,2020.2.10,MacIntel,60,61025ae37ef11b136ea224fe,,,,,,,,,1988,76.4395752,130.4393921,1,0,0,response1disk,,7,4.129150391,14.24957275,1,0,0,rectangle,4.129150391,14.24957275,1,0,0,4.129150391,14.24957275,1,0,0,1,70,230,34,1,,,,,,,,
,,,,,,,,,,,,,FF,,,,,,,,0.6526,,,,,,,,,,,,,,,,,,,,,,6103678437cbd80e381c5863,61036ce3a4a62b80b2de0e71,2021-07-29_20h08.01.918,Simcolourproject_2stim_asymm_v5,2020.2.10,MacIntel,60,61025ae37ef11b136ea224fe,,,,,,,,,1852,61.84436035,126.510498,1,0,0,response1disk,,7,9.245361328,5.520141602,1,0,0,rectangle,9.245361328,5.520141602,1,0,0,9.245361328,5.520141602,1,0,0,1,71,231,158,1,,,,,,,,
,,,,,,,,,,,,,FF,,,,,,,,0.751,,,,,,,,,,,,,,,,,,,,,,6103678437cbd80e381c5863,61036ce3a4a62b80b2de0e71,2021-07-29_20h08.01.918,Simcolourproject_2stim_asymm_v5,2020.2.10,MacIntel,60,61025ae37ef11b136ea224fe,,,,,,,,,2534,72.20227051,44.46746826,1,0,0,response1disk,,6,0.772460938,-9.709899902,1,0,0,rectangle,0.772460938,-9.709899902,1,0,0,0.772460938,-9.709899902,1,0,0,1,72,232,19,1,,,,,,,,
,,,,,,,,,,,,,FF,,,,,,,,1.034,,,,,,,,,,,,,,,,,,,,,,6103678437cbd80e381c5863,61036ce3a4a62b80b2de0e71,2021-07-29_20h08.01.918,Simcolourproject_2stim_asymm_v5,2020.2.10,MacIntel,60,61025ae37ef11b136ea224fe,,,,,,,,,3848,-91.01159668,-52.90899658,1,0,0,response5disk,,2,-7.624389648,-8.361938477,1,0,0,rectangle,-7.624389648,-8.361938477,1,0,0,-7.624389648,-8.361938477,1,0,0,1,73,233,144,1,,,,,,,,
,,,,,,,,,,,,,FF,,,,,,,,0.9484,,,,,,,,,,,,,,,,,,,,,,6103678437cbd80e381c5863,61036ce3a4a62b80b2de0e71,2021-07-29_20h08.01.918,Simcolourproject_2stim_asymm_v5,2020.2.10,MacIntel,60,61025ae37ef11b136ea224fe,,,,,,,,,3436,-69.62451172,-33.96594238,1,0,0,response5disk,,2,-18.48815918,-13.29174805,1,0,0,rectangle,-18.48815918,-13.29174805,1,0,0,-18.48815918,-13.29174805,1,0,0,1,74,234,75,1,,,,,,,,
,,,,,,,,,,,,,FF,,,,,,,,0.7996,,,,,,,,,,,,,,,,,,,,,,6103678437cbd80e381c5863,61036ce3a4a62b80b2de0e71,2021-07-29_20h08.01.918,Simcolourproject_2stim_asymm_v5,2020.2.10,MacIntel,60,61025ae37ef11b136ea224fe,,,,,,,,,3188,-76.50354004,-114.7480469,1,0,0,response5disk,,3,4.717529297,-1.938049316,1,0,0,rectangle,4.717529297,-1.938049316,1,0,0,4.717529297,-1.938049316,1,0,0,1,75,235,16,1,,,,,,,,
,,,,,,,,,,,,,FF,,,,,,,,0.8504,,,,,,,,,,,,,,,,,,,,,,6103678437cbd80e381c5863,61036ce3a4a62b80b2de0e71,2021-07-29_20h08.01.918,Simcolourproject_2stim_asymm_v5,2020.2.10,MacIntel,60,61025ae37ef11b136ea224fe,,,,,,,,,2181,-35.58398438,-68.66748047,1,0,0,response5disk,,3,3.098266602,-15.78186035,1,0,0,rectangle,3.098266602,-15.78186035,1,0,0,3.098266602,-15.78186035,1,0,0,1,76,236,47,1,,,,,,,,
,,,,,,,,,,,,,FF,,,,,,,,1.1514,,,,,,,,,,,,,,,,,,,,,,6103678437cbd80e381c5863,61036ce3a4a62b80b2de0e71,2021-07-29_20h08.01.918,Simcolourproject_2stim_asymm_v5,2020.2.10,MacIntel,60,61025ae37ef11b136ea224fe,,,,,,,,,2485,43.20166016,-81.43859863,1,0,0,response3disk,,4,12.88122559,-6.081237793,1,0,0,rectangle,12.88122559,-6.081237793,1,0,0,12.88122559,-6.081237793,1,0,0,1,77,237,33,1,,,,,,,,
,,,,,,,,,,,,,FF,,,,,,,,0.8675,,,,,,,,,,,,,,,,,,,,,,6103678437cbd80e381c5863,61036ce3a4a62b80b2de0e71,2021-07-29_20h08.01.918,Simcolourproject_2stim_asymm_v5,2020.2.10,MacIntel,60,61025ae37ef11b136ea224fe,,,,,,,,,643,65.6973877,20.39520264,1,0,0,response1disk,,6,11.86328125,-14.6784668,1,0,0,rectangle,11.86328125,-14.6784668,1,0,0,11.86328125,-14.6784668,1,0,0,1,78,238,52,1,,,,,,,,
,,,,,,,,,,,,,FF,,,,,,,,1.0503,,,,,,,,,,,,,,,,,,,,,,6103678437cbd80e381c5863,61036ce3a4a62b80b2de0e71,2021-07-29_20h08.01.918,Simcolourproject_2stim_asymm_v5,2020.2.10,MacIntel,60,61025ae37ef11b136ea224fe,,,,,,,,,961,106.7768555,52.97808838,1,0,0,response1disk,,6,14.59350586,14.33642578,1,0,0,rectangle,14.59350586,14.33642578,1,0,0,14.59350586,14.33642578,1,0,0,1,79,239,142,1,,,,,,,,
,,,,,,,,,,,,,FF,,,,,,,,1.4012,,,,,,,,,,,,,,,,,,,,,,6103678437cbd80e381c5863,61036ce3a4a62b80b2de0e71,2021-07-29_20h08.01.918,Simcolourproject_2stim_asymm_v5,2020.2.10,MacIntel,60,61025ae37ef11b136ea224fe,,,,,,,,,3981,95.02160645,-68.35333252,1,0,0,response3disk,,5,11.64611816,-2.194580078,1,0,0,rectangle,11.64611816,-2.194580078,1,0,0,11.64611816,-2.194580078,1,0,0,1,80,240,108,1,,,,,,,,
