key_resp.keys,key_resp.rt,key_resp_14.keys,key_resp_14.rt,key_resp_15.keys,key_resp_15.rt,key_resp_17.keys,key_resp_17.rt,key_resp_9.keys,key_resp_9.rt,key_resp_10.keys,key_resp_10.rt,practice_comparison,Ecc,mouse_5.x,mouse_5.y,mouse_5.leftButton,mouse_5.midButton,mouse_5.rightButton,mouse_5.clicked_name,pracsimilarity,response_time,mouse_10.x,mouse_10.y,mouse_10.leftButton,mouse_10.midButton,mouse_10.rightButton,mouse_10.clicked_name,mouse_7.x,mouse_7.y,mouse_7.leftButton,mouse_7.midButton,mouse_7.rightButton,mouse_6.x,mouse_6.y,mouse_6.leftButton,mouse_6.midButton,mouse_6.rightButton,duringprac.thisRepN,duringprac.thisTrialN,duringprac.thisN,duringprac.thisIndex,duringprac.ran,participant,session,date,expName,psychopyVersion,OS,frameRate,study_id,mouse_7.clicked_name,catchpracsimilarity,catch_response_time,catchnumberprac,catchtrialorderprac,mouse_6.clicked_name,key_resp_22.keys,key_resp_22.rt,realcomparison,mouse.x,mouse.y,mouse.leftButton,mouse.midButton,mouse.rightButton,mouse.clicked_name,Colour2,similarity,mouse_2.x,mouse_2.y,mouse_2.leftButton,mouse_2.midButton,mouse_2.rightButton,mouse_2.clicked_name,mouse_3.x,mouse_3.y,mouse_3.leftButton,mouse_3.midButton,mouse_3.rightButton,mouse_11.x,mouse_11.y,mouse_11.leftButton,mouse_11.midButton,mouse_11.rightButton,trials_2.thisRepN,trials_2.thisTrialN,trials_2.thisN,trials_2.thisIndex,trials_2.ran,Colour1,mouse_3.clicked_name,catchornah,catchsimilarity,catchnumber,catchtrialorder,catchRT,mouse_11.clicked_name
space,1.9532,space,15.3071,space,17.7235,space,20.386,space,1.5736,space,3.9359,53,PF,58.984375,102.265625,1,0,0,response1disk_5,7,3.5495,0.4609375,-3.11328125,1,0,0,rectangle_8,0.4609375,-3.11328125,1,0,0,0.4609375,-3.11328125,1,0,0,0,0,0,2,1,61035ccd030737a3d2a51a2d,61036868186d5af3e8769502,2021-07-29_22h48.46.656,Simcolourproject_2stim_asymm_v5,2020.2.10,MacIntel,60,61025ae37ef11b136ea224fe,,,,,,,,,,,,,,,,,,,,,,,,,,,,,,,,,,,,,,,,,,,,,,
,,,,,,,,,,,,158,FF,45.5546875,103.0585938,1,0,0,response1disk_5,7,4.0987,-1.19921875,-6.42578125,1,0,0,rectangle_8,-82.1015625,-33.89453125,1,0,0,-3.69140625,-4.89453125,1,0,0,0,1,1,3,1,61035ccd030737a3d2a51a2d,61036868186d5af3e8769502,2021-07-29_22h48.46.656,Simcolourproject_2stim_asymm_v5,2020.2.10,MacIntel,60,61025ae37ef11b136ea224fe,response5disk_7,2,4.4505,2,"[2,5]",rectangle_4,,,,,,,,,,,,,,,,,,,,,,,,,,,,,,,,,,,,,,,,
,,,,,,,,,,,,89,PF,-83.78125,-38.5546875,1,0,0,response5disk_5,2,6.9839,0.7109375,-6.125,1,0,0,rectangle_8,0.7109375,-6.125,1,0,0,0.7109375,-6.125,1,0,0,0,2,2,1,1,61035ccd030737a3d2a51a2d,61036868186d5af3e8769502,2021-07-29_22h48.46.656,Simcolourproject_2stim_asymm_v5,2020.2.10,MacIntel,60,61025ae37ef11b136ea224fe,,,,,,,,,,,,,,,,,,,,,,,,,,,,,,,,,,,,,,,,,,,,,,
,,,,,,,,,,,,67,PF,50.49609375,84.0234375,1,0,0,response1disk_5,7,3.1003,-13.62890625,-6.3671875,1,0,0,rectangle_8,-13.62890625,-6.3671875,1,0,0,-13.62890625,-6.3671875,1,0,0,0,3,3,4,1,61035ccd030737a3d2a51a2d,61036868186d5af3e8769502,2021-07-29_22h48.46.656,Simcolourproject_2stim_asymm_v5,2020.2.10,MacIntel,60,61025ae37ef11b136ea224fe,,,,,,,,,,,,,,,,,,,,,,,,,,,,,,,,,,,,,,,,,,,,,,
,,,,,,,,,,,,0,FF,50.32421875,-93.91796875,1,0,0,response3disk_5,4,9.6664,-4.16015625,-1.1796875,1,0,0,rectangle_8,-97.48046875,-36.03515625,1,0,0,-6.546875,-1.546875,1,0,0,0,4,4,0,1,61035ccd030737a3d2a51a2d,61036868186d5af3e8769502,2021-07-29_22h48.46.656,Simcolourproject_2stim_asymm_v5,2020.2.10,MacIntel,60,61025ae37ef11b136ea224fe,response5disk_7,2,3.0326,2,"[2,5]",rectangle_4,,,,,,,,,,,,,,,,,,,,,,,,,,,,,,,,,,,,,,,,
,,,,,,,,,,,,129,FF,-25.21875,-76.3359375,1,0,0,response5disk_5,3,3.1511,12.6171875,4.546875,1,0,0,rectangle_8,12.6171875,4.546875,1,0,0,12.6171875,4.546875,1,0,0,0,5,5,5,1,61035ccd030737a3d2a51a2d,61036868186d5af3e8769502,2021-07-29_22h48.46.656,Simcolourproject_2stim_asymm_v5,2020.2.10,MacIntel,60,61025ae37ef11b136ea224fe,,,,,,,,,,,,,,,,,,,,,,,,,,,,,,,,,,,,,,,,,,,,,,
,,,,,,,,,,,,29,PF,99.8984375,27.4921875,1,0,0,response1disk_5,6,2.983,-5.89453125,3.609375,1,0,0,rectangle_8,-5.89453125,3.609375,1,0,0,-5.89453125,3.609375,1,0,0,0,6,6,6,1,61035ccd030737a3d2a51a2d,61036868186d5af3e8769502,2021-07-29_22h48.46.656,Simcolourproject_2stim_asymm_v5,2020.2.10,MacIntel,60,61025ae37ef11b136ea224fe,,,,,,,,,,,,,,,,,,,,,,,,,,,,,,,,,,,,,,,,,,,,,,
,,,,,,,,,,,,,FF,,,,,,,,2.6679,,,,,,,,,,,,,,,,,,,,,,61035ccd030737a3d2a51a2d,61036868186d5af3e8769502,2021-07-29_22h48.46.656,Simcolourproject_2stim_asymm_v5,2020.2.10,MacIntel,60,61025ae37ef11b136ea224fe,,,,,,,space,1.6743,2475,92.39453125,-56.66796875,1,0,0,response3disk,,5,1.29296875,2.87109375,1,0,0,rectangle,1.29296875,2.87109375,1,0,0,1.29296875,2.87109375,1,0,0,0,0,0,114,1,,,,,,,,
,,,,,,,,,,,,,FF,,,,,,,,1.6337,,,,,,,,,,,,,,,,,,,,,,61035ccd030737a3d2a51a2d,61036868186d5af3e8769502,2021-07-29_22h48.46.656,Simcolourproject_2stim_asymm_v5,2020.2.10,MacIntel,60,61025ae37ef11b136ea224fe,,,,,,,,,3230,41.23046875,81.1953125,1,0,0,response1disk,,7,12.53125,4.80859375,1,0,0,rectangle,12.53125,4.80859375,1,0,0,12.53125,4.80859375,1,0,0,0,1,1,122,1,,,,,,,,
,,,,,,,,,,,,,FF,,,,,,,,1.483,,,,,,,,,,,,,,,,,,,,,,61035ccd030737a3d2a51a2d,61036868186d5af3e8769502,2021-07-29_22h48.46.656,Simcolourproject_2stim_asymm_v5,2020.2.10,MacIntel,60,61025ae37ef11b136ea224fe,,,,,,,,,619,-73.59375,35.609375,1,0,0,response7disk,,1,-7.79296875,-8.640625,1,0,0,rectangle,-7.79296875,-8.640625,1,0,0,-7.79296875,-8.640625,1,0,0,0,2,2,5,1,,,,,,,,
,,,,,,,,,,,,,FF,,,,,,,,2.0999,,,,,,,,,,,,,,,,,,,,,,61035ccd030737a3d2a51a2d,61036868186d5af3e8769502,2021-07-29_22h48.46.656,Simcolourproject_2stim_asymm_v5,2020.2.10,MacIntel,60,61025ae37ef11b136ea224fe,,,,,,,,,2817,98.2890625,24.22265625,1,0,0,response1disk,,6,-10.39453125,13.6640625,1,0,0,rectangle,-10.39453125,13.6640625,1,0,0,-10.39453125,13.6640625,1,0,0,0,3,3,38,1,,,,,,,,
,,,,,,,,,,,,,FF,,,,,,,,5.5672,,,,,,,,,,,,,,,,,,,,,,61035ccd030737a3d2a51a2d,61036868186d5af3e8769502,2021-07-29_22h48.46.656,Simcolourproject_2stim_asymm_v5,2020.2.10,MacIntel,60,61025ae37ef11b136ea224fe,,,,,,,,,1608,-82.3359375,44.40625,1,0,0,response7disk,,1,8.5,-10.7890625,1,0,0,rectangle,8.5,-10.7890625,1,0,0,8.5,-10.7890625,1,0,0,0,4,4,140,1,,,,,,,,
,,,,,,,,,,,,,FF,,,,,,,,4.7497,,,,,,,,,,,,,,,,,,,,,,61035ccd030737a3d2a51a2d,61036868186d5af3e8769502,2021-07-29_22h48.46.656,Simcolourproject_2stim_asymm_v5,2020.2.10,MacIntel,60,61025ae37ef11b136ea224fe,,,,,,,,,422,59.62890625,-76.72265625,1,0,0,response3disk,,4,19.30859375,-3.3515625,1,0,0,rectangle,19.30859375,-3.3515625,1,0,0,19.30859375,-3.3515625,1,0,0,0,5,5,58,1,,,,,,,,
,,,,,,,,,,,,,FF,,,,,,,,2.1174,,,,,,,,,,,,,,,,,,,,,,61035ccd030737a3d2a51a2d,61036868186d5af3e8769502,2021-07-29_22h48.46.656,Simcolourproject_2stim_asymm_v5,2020.2.10,MacIntel,60,61025ae37ef11b136ea224fe,,,,,,,,,2556,-49.49609375,-80.84765625,1,0,0,response5disk,,3,23.37890625,-7.45703125,1,0,0,rectangle,23.37890625,-7.45703125,1,0,0,23.37890625,-7.45703125,1,0,0,0,6,6,76,1,,,,,,,,
,,,,,,,,,,,,,FF,,,,,,,,1.3001,,,,,,,,,,,,,,,,,,,,,,61035ccd030737a3d2a51a2d,61036868186d5af3e8769502,2021-07-29_22h48.46.656,Simcolourproject_2stim_asymm_v5,2020.2.10,MacIntel,60,61025ae37ef11b136ea224fe,,,,,,,,,1096,41.1015625,76.7578125,1,0,0,response1disk,,7,11.765625,-16.046875,1,0,0,rectangle,11.765625,-16.046875,1,0,0,11.765625,-16.046875,1,0,0,0,7,7,149,1,,,,,,,,
,,,,,,,,,,,,,FF,,,,,,,,2.0168,,,,,,,,,,,,,,,,,,,,,,61035ccd030737a3d2a51a2d,61036868186d5af3e8769502,2021-07-29_22h48.46.656,Simcolourproject_2stim_asymm_v5,2020.2.10,MacIntel,60,61025ae37ef11b136ea224fe,,,,,,,,,1959,-52.37890625,-77,1,0,0,response5disk,,3,11.0703125,-4.20703125,1,0,0,rectangle,11.0703125,-4.20703125,1,0,0,11.0703125,-4.20703125,1,0,0,0,8,8,65,1,,,,,,,,
,,,,,,,,,,,,,FF,,,,,,,,1.8665,,,,,,,,,,,,,,,,,,,,,,61035ccd030737a3d2a51a2d,61036868186d5af3e8769502,2021-07-29_22h48.46.656,Simcolourproject_2stim_asymm_v5,2020.2.10,MacIntel,60,61025ae37ef11b136ea224fe,,,,,,,,,1085,97.5703125,37.78515625,1,0,0,response1disk,,6,17.9609375,-4.57421875,1,0,0,rectangle,17.9609375,-4.57421875,1,0,0,17.9609375,-4.57421875,1,0,0,0,9,9,120,1,,,,,,,,
,,,,,,,,,,,,,FF,,,,,,,,2.6672,,,,,,,,,,,,,,,,,,,,,,61035ccd030737a3d2a51a2d,61036868186d5af3e8769502,2021-07-29_22h48.46.656,Simcolourproject_2stim_asymm_v5,2020.2.10,MacIntel,60,61025ae37ef11b136ea224fe,,,,,,,,,3356,106.90625,51.53515625,1,0,0,response1disk,,6,11.71875,5.1015625,1,0,0,rectangle,11.71875,5.1015625,1,0,0,11.71875,5.1015625,1,0,0,0,10,10,64,1,,,,,,,,
,,,,,,,,,,,,,FF,,,,,,,,1.3004,,,,,,,,,,,,,,,,,,,,,,61035ccd030737a3d2a51a2d,61036868186d5af3e8769502,2021-07-29_22h48.46.656,Simcolourproject_2stim_asymm_v5,2020.2.10,MacIntel,60,61025ae37ef11b136ea224fe,,,,,,,,,4027,-86.6796875,47.828125,1,0,0,response7disk,,1,17.02734375,-3.34375,1,0,0,rectangle,99.10546875,34.51171875,1,0,0,2,-2.9453125,1,0,0,0,11,11,1,1,,response1disk_3,TRUE,6,6,"[237,121,65,12,41,89,238,299,99,161,99,300,110,287,314,216,238,125,276,264]",2.2503,rectangle
,,,,,,,,,,,,,FF,,,,,,,,6.3505,,,,,,,,,,,,,,,,,,,,,,61035ccd030737a3d2a51a2d,61036868186d5af3e8769502,2021-07-29_22h48.46.656,Simcolourproject_2stim_asymm_v5,2020.2.10,MacIntel,60,61025ae37ef11b136ea224fe,,,,,,,,,1623,53.30078125,-94.22265625,1,0,0,response3disk,,4,-1.91796875,1.4140625,1,0,0,rectangle,-1.91796875,1.4140625,1,0,0,-1.91796875,1.4140625,1,0,0,0,12,12,37,1,,,,,,,,
,,,,,,,,,,,,,FF,,,,,,,,1.3182,,,,,,,,,,,,,,,,,,,,,,61035ccd030737a3d2a51a2d,61036868186d5af3e8769502,2021-07-29_22h48.46.656,Simcolourproject_2stim_asymm_v5,2020.2.10,MacIntel,60,61025ae37ef11b136ea224fe,,,,,,,,,3059,-55.51953125,-81.015625,1,0,0,response5disk,,3,22.73046875,6.171875,1,0,0,rectangle,22.73046875,6.171875,1,0,0,22.73046875,6.171875,1,0,0,0,13,13,119,1,,,,,,,,
,,,,,,,,,,,,,FF,,,,,,,,0.984,,,,,,,,,,,,,,,,,,,,,,61035ccd030737a3d2a51a2d,61036868186d5af3e8769502,2021-07-29_22h48.46.656,Simcolourproject_2stim_asymm_v5,2020.2.10,MacIntel,60,61025ae37ef11b136ea224fe,,,,,,,,,933,89.54296875,33.9921875,1,0,0,response1disk,,6,12.5859375,-2.76953125,1,0,0,rectangle,12.5859375,-2.76953125,1,0,0,12.5859375,-2.76953125,1,0,0,0,14,14,141,1,,,,,,,,
,,,,,,,,,,,,,FF,,,,,,,,3.1848,,,,,,,,,,,,,,,,,,,,,,61035ccd030737a3d2a51a2d,61036868186d5af3e8769502,2021-07-29_22h48.46.656,Simcolourproject_2stim_asymm_v5,2020.2.10,MacIntel,60,61025ae37ef11b136ea224fe,,,,,,,,,3721,95.43359375,-61.4375,1,0,0,response3disk,,5,18.02734375,8.71484375,1,0,0,rectangle,18.02734375,8.71484375,1,0,0,18.02734375,8.71484375,1,0,0,0,15,15,56,1,,,,,,,,
,,,,,,,,,,,,,FF,,,,,,,,4.6662,,,,,,,,,,,,,,,,,,,,,,61035ccd030737a3d2a51a2d,61036868186d5af3e8769502,2021-07-29_22h48.46.656,Simcolourproject_2stim_asymm_v5,2020.2.10,MacIntel,60,61025ae37ef11b136ea224fe,,,,,,,,,1328,105.6679688,-45.52734375,1,0,0,response3disk,,5,-2.7265625,6.12890625,1,0,0,rectangle,-2.7265625,6.12890625,1,0,0,-2.7265625,6.12890625,1,0,0,0,16,16,89,1,,,,,,,,
,,,,,,,,,,,,,FF,,,,,,,,1.2837,,,,,,,,,,,,,,,,,,,,,,61035ccd030737a3d2a51a2d,61036868186d5af3e8769502,2021-07-29_22h48.46.656,Simcolourproject_2stim_asymm_v5,2020.2.10,MacIntel,60,61025ae37ef11b136ea224fe,,,,,,,,,3790,75.8203125,-49.05859375,1,0,0,response3disk,,5,2.47265625,1.09375,1,0,0,rectangle,2.47265625,1.09375,1,0,0,2.47265625,1.09375,1,0,0,0,17,17,28,1,,,,,,,,
,,,,,,,,,,,,,FF,,,,,,,,1.1825,,,,,,,,,,,,,,,,,,,,,,61035ccd030737a3d2a51a2d,61036868186d5af3e8769502,2021-07-29_22h48.46.656,Simcolourproject_2stim_asymm_v5,2020.2.10,MacIntel,60,61025ae37ef11b136ea224fe,,,,,,,,,2180,-93.60546875,-40.828125,1,0,0,response5disk,,2,1.46875,-6.4375,1,0,0,rectangle,1.46875,-6.4375,1,0,0,1.46875,-6.4375,1,0,0,0,18,18,154,1,,,,,,,,
,,,,,,,,,,,,,FF,,,,,,,,1.0179,,,,,,,,,,,,,,,,,,,,,,61035ccd030737a3d2a51a2d,61036868186d5af3e8769502,2021-07-29_22h48.46.656,Simcolourproject_2stim_asymm_v5,2020.2.10,MacIntel,60,61025ae37ef11b136ea224fe,,,,,,,,,787,-45.1875,-89.46875,1,0,0,response5disk,,3,23.875,-3.76171875,1,0,0,rectangle,23.875,-3.76171875,1,0,0,23.875,-3.76171875,1,0,0,0,19,19,74,1,,,,,,,,
,,,,,,,,,,,,,FF,,,,,,,,3.7501,,,,,,,,,,,,,,,,,,,,,,61035ccd030737a3d2a51a2d,61036868186d5af3e8769502,2021-07-29_22h48.46.656,Simcolourproject_2stim_asymm_v5,2020.2.10,MacIntel,60,61025ae37ef11b136ea224fe,,,,,,,,,2717,30.47265625,-106.0976563,1,0,0,response3disk,,4,5.79296875,-6.08203125,1,0,0,rectangle,5.79296875,-6.08203125,1,0,0,5.79296875,-6.08203125,1,0,0,0,20,20,34,1,,,,,,,,
,,,,,,,,,,,,,FF,,,,,,,,2.0495,,,,,,,,,,,,,,,,,,,,,,61035ccd030737a3d2a51a2d,61036868186d5af3e8769502,2021-07-29_22h48.46.656,Simcolourproject_2stim_asymm_v5,2020.2.10,MacIntel,60,61025ae37ef11b136ea224fe,,,,,,,,,3497,78.68359375,40.66015625,1,0,0,response1disk,,6,-9.93359375,-1.0390625,1,0,0,rectangle,-9.93359375,-1.0390625,1,0,0,-9.93359375,-1.0390625,1,0,0,0,21,21,43,1,,,,,,,,
,,,,,,,,,,,,,FF,,,,,,,,1.6495,,,,,,,,,,,,,,,,,,,,,,61035ccd030737a3d2a51a2d,61036868186d5af3e8769502,2021-07-29_22h48.46.656,Simcolourproject_2stim_asymm_v5,2020.2.10,MacIntel,60,61025ae37ef11b136ea224fe,,,,,,,,,260,-80.83203125,31.56640625,1,0,0,response7disk,,1,5.85546875,-3.390625,1,0,0,rectangle,5.85546875,-3.390625,1,0,0,5.85546875,-3.390625,1,0,0,0,22,22,14,1,,,,,,,,
,,,,,,,,,,,,,FF,,,,,,,,2.3179,,,,,,,,,,,,,,,,,,,,,,61035ccd030737a3d2a51a2d,61036868186d5af3e8769502,2021-07-29_22h48.46.656,Simcolourproject_2stim_asymm_v5,2020.2.10,MacIntel,60,61025ae37ef11b136ea224fe,,,,,,,,,18,-39.57421875,-84.00390625,1,0,0,response5disk,,3,24.390625,3.48046875,1,0,0,rectangle,24.390625,3.48046875,1,0,0,24.390625,3.48046875,1,0,0,0,23,23,150,1,,,,,,,,
,,,,,,,,,,,,,FF,,,,,,,,3.3823,,,,,,,,,,,,,,,,,,,,,,61035ccd030737a3d2a51a2d,61036868186d5af3e8769502,2021-07-29_22h48.46.656,Simcolourproject_2stim_asymm_v5,2020.2.10,MacIntel,60,61025ae37ef11b136ea224fe,,,,,,,,,3226,47.96875,94.2421875,1,0,0,response1disk,,7,-4.21484375,-7.0703125,1,0,0,rectangle,-4.21484375,-7.0703125,1,0,0,-4.21484375,-7.0703125,1,0,0,0,24,24,105,1,,,,,,,,
,,,,,,,,,,,,,FF,,,,,,,,3.6666,,,,,,,,,,,,,,,,,,,,,,61035ccd030737a3d2a51a2d,61036868186d5af3e8769502,2021-07-29_22h48.46.656,Simcolourproject_2stim_asymm_v5,2020.2.10,MacIntel,60,61025ae37ef11b136ea224fe,,,,,,,,,2758,101.09375,59.76171875,1,0,0,response1disk,,6,-3.9765625,-8.62890625,1,0,0,rectangle,-3.9765625,-8.62890625,1,0,0,-3.9765625,-8.62890625,1,0,0,0,25,25,115,1,,,,,,,,
,,,,,,,,,,,,,FF,,,,,,,,0.818,,,,,,,,,,,,,,,,,,,,,,61035ccd030737a3d2a51a2d,61036868186d5af3e8769502,2021-07-29_22h48.46.656,Simcolourproject_2stim_asymm_v5,2020.2.10,MacIntel,60,61025ae37ef11b136ea224fe,,,,,,,,,632,-81.54296875,-34.7265625,1,0,0,response5disk,,2,-2.45703125,-2.2109375,1,0,0,rectangle,-2.45703125,-2.2109375,1,0,0,-2.45703125,-2.2109375,1,0,0,0,26,26,124,1,,,,,,,,
,,,,,,,,,,,,,FF,,,,,,,,1.1491,,,,,,,,,,,,,,,,,,,,,,61035ccd030737a3d2a51a2d,61036868186d5af3e8769502,2021-07-29_22h48.46.656,Simcolourproject_2stim_asymm_v5,2020.2.10,MacIntel,60,61025ae37ef11b136ea224fe,,,,,,,,,3045,-54.671875,96.6796875,1,0,0,response7disk,,0,-2.984375,8.56640625,1,0,0,rectangle,-2.984375,8.56640625,1,0,0,-2.984375,8.56640625,1,0,0,0,27,27,29,1,,,,,,,,
,,,,,,,,,,,,,FF,,,,,,,,1.1999,,,,,,,,,,,,,,,,,,,,,,61035ccd030737a3d2a51a2d,61036868186d5af3e8769502,2021-07-29_22h48.46.656,Simcolourproject_2stim_asymm_v5,2020.2.10,MacIntel,60,61025ae37ef11b136ea224fe,,,,,,,,,3319,52.640625,87.59375,1,0,0,response1disk,,7,-1.51171875,-7.671875,1,0,0,rectangle,-1.51171875,-7.671875,1,0,0,-1.51171875,-7.671875,1,0,0,0,28,28,33,1,,,,,,,,
,,,,,,,,,,,,,FF,,,,,,,,1.1835,,,,,,,,,,,,,,,,,,,,,,61035ccd030737a3d2a51a2d,61036868186d5af3e8769502,2021-07-29_22h48.46.656,Simcolourproject_2stim_asymm_v5,2020.2.10,MacIntel,60,61025ae37ef11b136ea224fe,,,,,,,,,2275,92.74609375,55.73046875,1,0,0,response1disk,,6,6.36328125,2.29296875,1,0,0,rectangle,6.36328125,2.29296875,1,0,0,6.36328125,2.29296875,1,0,0,0,29,29,15,1,,,,,,,,
,,,,,,,,,,,,,FF,,,,,,,,1.081,,,,,,,,,,,,,,,,,,,,,,61035ccd030737a3d2a51a2d,61036868186d5af3e8769502,2021-07-29_22h48.46.656,Simcolourproject_2stim_asymm_v5,2020.2.10,MacIntel,60,61025ae37ef11b136ea224fe,,,,,,,,,4232,95.2890625,25.8515625,1,0,0,response1disk,,6,-3.2734375,3.5,1,0,0,rectangle,-3.2734375,3.5,1,0,0,-3.2734375,3.5,1,0,0,0,30,30,102,1,,,,,,,,
,,,,,,,,,,,,,FF,,,,,,,,0.9827,,,,,,,,,,,,,,,,,,,,,,61035ccd030737a3d2a51a2d,61036868186d5af3e8769502,2021-07-29_22h48.46.656,Simcolourproject_2stim_asymm_v5,2020.2.10,MacIntel,60,61025ae37ef11b136ea224fe,,,,,,,,,2595,85.6328125,-37.59375,1,0,0,response3disk,,5,24.328125,0.20703125,1,0,0,rectangle,24.328125,0.20703125,1,0,0,24.328125,0.20703125,1,0,0,0,31,31,73,1,,,,,,,,
,,,,,,,,,,,,,FF,,,,,,,,0.8329,,,,,,,,,,,,,,,,,,,,,,61035ccd030737a3d2a51a2d,61036868186d5af3e8769502,2021-07-29_22h48.46.656,Simcolourproject_2stim_asymm_v5,2020.2.10,MacIntel,60,61025ae37ef11b136ea224fe,,,,,,,,,1140,80.546875,-24.6875,1,0,0,response3disk,,5,18.9140625,6.41015625,1,0,0,rectangle,18.9140625,6.41015625,1,0,0,18.9140625,6.41015625,1,0,0,0,32,32,86,1,,,,,,,,
,,,,,,,,,,,,,FF,,,,,,,,2.8664,,,,,,,,,,,,,,,,,,,,,,61035ccd030737a3d2a51a2d,61036868186d5af3e8769502,2021-07-29_22h48.46.656,Simcolourproject_2stim_asymm_v5,2020.2.10,MacIntel,60,61025ae37ef11b136ea224fe,,,,,,,,,1708,87.359375,27.58984375,1,0,0,response1disk,,6,-13.76171875,-4.671875,1,0,0,rectangle,-13.76171875,-4.671875,1,0,0,-13.76171875,-4.671875,1,0,0,0,33,33,18,1,,,,,,,,
,,,,,,,,,,,,,FF,,,,,,,,1.1002,,,,,,,,,,,,,,,,,,,,,,61035ccd030737a3d2a51a2d,61036868186d5af3e8769502,2021-07-29_22h48.46.656,Simcolourproject_2stim_asymm_v5,2020.2.10,MacIntel,60,61025ae37ef11b136ea224fe,,,,,,,,,2232,-41.25390625,-60.77734375,1,0,0,response5disk,,3,6.16015625,2.42578125,1,0,0,rectangle,6.16015625,2.42578125,1,0,0,6.16015625,2.42578125,1,0,0,0,34,34,10,1,,,,,,,,
,,,,,,,,,,,,,FF,,,,,,,,1.3836,,,,,,,,,,,,,,,,,,,,,,61035ccd030737a3d2a51a2d,61036868186d5af3e8769502,2021-07-29_22h48.46.656,Simcolourproject_2stim_asymm_v5,2020.2.10,MacIntel,60,61025ae37ef11b136ea224fe,,,,,,,,,1768,99.06640625,26.64453125,1,0,0,response1disk,,6,22.32421875,5.08984375,1,0,0,rectangle,22.32421875,5.08984375,1,0,0,22.32421875,5.08984375,1,0,0,0,35,35,53,1,,,,,,,,
,,,,,,,,,,,,,FF,,,,,,,,1.9835,,,,,,,,,,,,,,,,,,,,,,61035ccd030737a3d2a51a2d,61036868186d5af3e8769502,2021-07-29_22h48.46.656,Simcolourproject_2stim_asymm_v5,2020.2.10,MacIntel,60,61025ae37ef11b136ea224fe,,,,,,,,,3686,98.359375,-46.69140625,1,0,0,response3disk,,5,29.12109375,-7.80078125,1,0,0,rectangle,29.12109375,-7.80078125,1,0,0,29.12109375,-7.80078125,1,0,0,0,36,36,148,1,,,,,,,,
,,,,,,,,,,,,,FF,,,,,,,,1.1003,,,,,,,,,,,,,,,,,,,,,,61035ccd030737a3d2a51a2d,61036868186d5af3e8769502,2021-07-29_22h48.46.656,Simcolourproject_2stim_asymm_v5,2020.2.10,MacIntel,60,61025ae37ef11b136ea224fe,,,,,,,,,1420,52.33203125,96.67578125,1,0,0,response1disk,,7,17.45703125,-3.70703125,1,0,0,rectangle,17.45703125,-3.70703125,1,0,0,17.45703125,-3.70703125,1,0,0,0,37,37,68,1,,,,,,,,
,,,,,,,,,,,,,FF,,,,,,,,0.8663,,,,,,,,,,,,,,,,,,,,,,61035ccd030737a3d2a51a2d,61036868186d5af3e8769502,2021-07-29_22h48.46.656,Simcolourproject_2stim_asymm_v5,2020.2.10,MacIntel,60,61025ae37ef11b136ea224fe,,,,,,,,,2866,37.50390625,77.97265625,1,0,0,response1disk,,7,8.85546875,8.328125,1,0,0,rectangle,8.85546875,8.328125,1,0,0,8.85546875,8.328125,1,0,0,0,38,38,12,1,,,,,,,,
,,,,,,,,,,,,,FF,,,,,,,,1.9162,,,,,,,,,,,,,,,,,,,,,,61035ccd030737a3d2a51a2d,61036868186d5af3e8769502,2021-07-29_22h48.46.656,Simcolourproject_2stim_asymm_v5,2020.2.10,MacIntel,60,61025ae37ef11b136ea224fe,,,,,,,,,2830,98.2265625,-40.51953125,1,0,0,response3disk,,5,17.359375,3.30859375,1,0,0,rectangle,17.359375,3.30859375,1,0,0,17.359375,3.30859375,1,0,0,0,39,39,137,1,,,,,,,,
,,,,,,,,,,,,,FF,,,,,,,,2.7506,,,,,,,,,,,,,,,,,,,,,,61035ccd030737a3d2a51a2d,61036868186d5af3e8769502,2021-07-29_22h48.46.656,Simcolourproject_2stim_asymm_v5,2020.2.10,MacIntel,60,61025ae37ef11b136ea224fe,,,,,,,,,816,99.609375,-42.44921875,1,0,0,response3disk,,5,-8.91796875,0.828125,1,0,0,rectangle,93.7578125,-67.5859375,1,0,0,5.1796875,-3.2578125,1,0,0,0,40,40,17,1,,response3disk_3,TRUE,5,5,"[237,121,65,12,41,89,238,299,99,161,99,300,110,287,314,216,238,125,276,264]",1.9826,rectangle
,,,,,,,,,,,,,FF,,,,,,,,1.1169,,,,,,,,,,,,,,,,,,,,,,61035ccd030737a3d2a51a2d,61036868186d5af3e8769502,2021-07-29_22h48.46.656,Simcolourproject_2stim_asymm_v5,2020.2.10,MacIntel,60,61025ae37ef11b136ea224fe,,,,,,,,,534,49.625,93.87109375,1,0,0,response1disk,,7,22.21875,-3.5546875,1,0,0,rectangle,22.21875,-3.5546875,1,0,0,22.21875,-3.5546875,1,0,0,0,41,41,20,1,,,,,,,,
,,,,,,,,,,,,,FF,,,,,,,,0.7823,,,,,,,,,,,,,,,,,,,,,,61035ccd030737a3d2a51a2d,61036868186d5af3e8769502,2021-07-29_22h48.46.656,Simcolourproject_2stim_asymm_v5,2020.2.10,MacIntel,60,61025ae37ef11b136ea224fe,,,,,,,,,2404,103.5976563,33.7421875,1,0,0,response1disk,,6,12.81640625,-1.24609375,1,0,0,rectangle,12.81640625,-1.24609375,1,0,0,12.81640625,-1.24609375,1,0,0,0,42,42,91,1,,,,,,,,
,,,,,,,,,,,,,FF,,,,,,,,0.6833,,,,,,,,,,,,,,,,,,,,,,61035ccd030737a3d2a51a2d,61036868186d5af3e8769502,2021-07-29_22h48.46.656,Simcolourproject_2stim_asymm_v5,2020.2.10,MacIntel,60,61025ae37ef11b136ea224fe,,,,,,,,,406,97.65625,36.80078125,1,0,0,response1disk,,6,12.33984375,-0.91796875,1,0,0,rectangle,12.33984375,-0.91796875,1,0,0,12.33984375,-0.91796875,1,0,0,0,43,43,59,1,,,,,,,,
,,,,,,,,,,,,,FF,,,,,,,,0.6517,,,,,,,,,,,,,,,,,,,,,,61035ccd030737a3d2a51a2d,61036868186d5af3e8769502,2021-07-29_22h48.46.656,Simcolourproject_2stim_asymm_v5,2020.2.10,MacIntel,60,61025ae37ef11b136ea224fe,,,,,,,,,2138,44.30078125,85.203125,1,0,0,response1disk,,7,14.125,3.51953125,1,0,0,rectangle,14.125,3.51953125,1,0,0,14.125,3.51953125,1,0,0,0,44,44,127,1,,,,,,,,
,,,,,,,,,,,,,FF,,,,,,,,0.8336,,,,,,,,,,,,,,,,,,,,,,61035ccd030737a3d2a51a2d,61036868186d5af3e8769502,2021-07-29_22h48.46.656,Simcolourproject_2stim_asymm_v5,2020.2.10,MacIntel,60,61025ae37ef11b136ea224fe,,,,,,,,,3228,25.6484375,83.68359375,1,0,0,response1disk,,7,2.359375,5.69140625,1,0,0,rectangle,2.359375,5.69140625,1,0,0,2.359375,5.69140625,1,0,0,0,45,45,21,1,,,,,,,,
,,,,,,,,,,,,,FF,,,,,,,,1.4827,,,,,,,,,,,,,,,,,,,,,,61035ccd030737a3d2a51a2d,61036868186d5af3e8769502,2021-07-29_22h48.46.656,Simcolourproject_2stim_asymm_v5,2020.2.10,MacIntel,60,61025ae37ef11b136ea224fe,,,,,,,,,731,50.921875,-95.92578125,1,0,0,response3disk,,4,18.8984375,0.10546875,1,0,0,rectangle,18.8984375,0.10546875,1,0,0,18.8984375,0.10546875,1,0,0,0,46,46,116,1,,,,,,,,
,,,,,,,,,,,,,FF,,,,,,,,1.1337,,,,,,,,,,,,,,,,,,,,,,61035ccd030737a3d2a51a2d,61036868186d5af3e8769502,2021-07-29_22h48.46.656,Simcolourproject_2stim_asymm_v5,2020.2.10,MacIntel,60,61025ae37ef11b136ea224fe,,,,,,,,,2207,85.84765625,52.4921875,1,0,0,response1disk,,6,14.52734375,2.28515625,1,0,0,rectangle,14.52734375,2.28515625,1,0,0,14.52734375,2.28515625,1,0,0,0,47,47,143,1,,,,,,,,
,,,,,,,,,,,,,FF,,,,,,,,4.2841,,,,,,,,,,,,,,,,,,,,,,61035ccd030737a3d2a51a2d,61036868186d5af3e8769502,2021-07-29_22h48.46.656,Simcolourproject_2stim_asymm_v5,2020.2.10,MacIntel,60,61025ae37ef11b136ea224fe,,,,,,,,,3185,100.3164063,51.26171875,1,0,0,response1disk,,6,-0.97265625,5.6171875,1,0,0,rectangle,-0.97265625,5.6171875,1,0,0,-0.97265625,5.6171875,1,0,0,0,48,48,155,1,,,,,,,,
,,,,,,,,,,,,,FF,,,,,,,,1.4666,,,,,,,,,,,,,,,,,,,,,,61035ccd030737a3d2a51a2d,61036868186d5af3e8769502,2021-07-29_22h48.46.656,Simcolourproject_2stim_asymm_v5,2020.2.10,MacIntel,60,61025ae37ef11b136ea224fe,,,,,,,,,3299,49.8125,-101.6914063,1,0,0,response3disk,,4,15.6328125,-0.5546875,1,0,0,rectangle,15.6328125,-0.5546875,1,0,0,15.6328125,-0.5546875,1,0,0,0,49,49,63,1,,,,,,,,
,,,,,,,,,,,,,FF,,,,,,,,1.2835,,,,,,,,,,,,,,,,,,,,,,61035ccd030737a3d2a51a2d,61036868186d5af3e8769502,2021-07-29_22h48.46.656,Simcolourproject_2stim_asymm_v5,2020.2.10,MacIntel,60,61025ae37ef11b136ea224fe,,,,,,,,,1571,112.515625,-64.59765625,1,0,0,response3disk,,5,9.5703125,-1.23828125,1,0,0,rectangle,9.5703125,-1.23828125,1,0,0,9.5703125,-1.23828125,1,0,0,0,50,50,70,1,,,,,,,,
,,,,,,,,,,,,,FF,,,,,,,,0.9012,,,,,,,,,,,,,,,,,,,,,,61035ccd030737a3d2a51a2d,61036868186d5af3e8769502,2021-07-29_22h48.46.656,Simcolourproject_2stim_asymm_v5,2020.2.10,MacIntel,60,61025ae37ef11b136ea224fe,,,,,,,,,1815,-34.67578125,87.96484375,1,0,0,response7disk,,0,-2.62109375,9.78515625,1,0,0,rectangle,-2.62109375,9.78515625,1,0,0,-2.62109375,9.78515625,1,0,0,0,51,51,113,1,,,,,,,,
,,,,,,,,,,,,,FF,,,,,,,,1.3996,,,,,,,,,,,,,,,,,,,,,,61035ccd030737a3d2a51a2d,61036868186d5af3e8769502,2021-07-29_22h48.46.656,Simcolourproject_2stim_asymm_v5,2020.2.10,MacIntel,60,61025ae37ef11b136ea224fe,,,,,,,,,1476,93.19921875,-57.51171875,1,0,0,response3disk,,5,1.8203125,0.29296875,1,0,0,rectangle,1.8203125,0.29296875,1,0,0,1.8203125,0.29296875,1,0,0,0,52,52,136,1,,,,,,,,
,,,,,,,,,,,,,FF,,,,,,,,2.2505,,,,,,,,,,,,,,,,,,,,,,61035ccd030737a3d2a51a2d,61036868186d5af3e8769502,2021-07-29_22h48.46.656,Simcolourproject_2stim_asymm_v5,2020.2.10,MacIntel,60,61025ae37ef11b136ea224fe,,,,,,,,,4319,103.796875,-45.0859375,1,0,0,response3disk,,5,11.66015625,-3.49609375,1,0,0,rectangle,11.66015625,-3.49609375,1,0,0,11.66015625,-3.49609375,1,0,0,0,53,53,22,1,,,,,,,,
,,,,,,,,,,,,,FF,,,,,,,,1.168,,,,,,,,,,,,,,,,,,,,,,61035ccd030737a3d2a51a2d,61036868186d5af3e8769502,2021-07-29_22h48.46.656,Simcolourproject_2stim_asymm_v5,2020.2.10,MacIntel,60,61025ae37ef11b136ea224fe,,,,,,,,,2395,85.2265625,-38.17578125,1,0,0,response3disk,,5,18.125,-14.78515625,1,0,0,rectangle,18.125,-14.78515625,1,0,0,18.125,-14.78515625,1,0,0,0,54,54,82,1,,,,,,,,
,,,,,,,,,,,,,FF,,,,,,,,1.2328,,,,,,,,,,,,,,,,,,,,,,61035ccd030737a3d2a51a2d,61036868186d5af3e8769502,2021-07-29_22h48.46.656,Simcolourproject_2stim_asymm_v5,2020.2.10,MacIntel,60,61025ae37ef11b136ea224fe,,,,,,,,,951,-88.69921875,-38.2109375,1,0,0,response5disk,,2,6.93359375,-4.7578125,1,0,0,rectangle,6.93359375,-4.7578125,1,0,0,6.93359375,-4.7578125,1,0,0,0,55,55,133,1,,,,,,,,
,,,,,,,,,,,,,FF,,,,,,,,1.0679,,,,,,,,,,,,,,,,,,,,,,61035ccd030737a3d2a51a2d,61036868186d5af3e8769502,2021-07-29_22h48.46.656,Simcolourproject_2stim_asymm_v5,2020.2.10,MacIntel,60,61025ae37ef11b136ea224fe,,,,,,,,,2625,98.09375,35.8125,1,0,0,response1disk,,6,15.44140625,5.96875,1,0,0,rectangle,15.44140625,5.96875,1,0,0,15.44140625,5.96875,1,0,0,0,56,56,156,1,,,,,,,,
,,,,,,,,,,,,,FF,,,,,,,,1.1497,,,,,,,,,,,,,,,,,,,,,,61035ccd030737a3d2a51a2d,61036868186d5af3e8769502,2021-07-29_22h48.46.656,Simcolourproject_2stim_asymm_v5,2020.2.10,MacIntel,60,61025ae37ef11b136ea224fe,,,,,,,,,2495,101.9023438,43.51953125,1,0,0,response1disk,,6,20.9296875,14.88671875,1,0,0,rectangle,20.9296875,14.88671875,1,0,0,20.9296875,14.88671875,1,0,0,0,57,57,52,1,,,,,,,,
,,,,,,,,,,,,,FF,,,,,,,,1.4503,,,,,,,,,,,,,,,,,,,,,,61035ccd030737a3d2a51a2d,61036868186d5af3e8769502,2021-07-29_22h48.46.656,Simcolourproject_2stim_asymm_v5,2020.2.10,MacIntel,60,61025ae37ef11b136ea224fe,,,,,,,,,1713,50.18359375,97.6796875,1,0,0,response1disk,,7,2.46484375,7.06640625,1,0,0,rectangle,2.46484375,7.06640625,1,0,0,2.46484375,7.06640625,1,0,0,0,58,58,40,1,,,,,,,,
,,,,,,,,,,,,,FF,,,,,,,,1.4,,,,,,,,,,,,,,,,,,,,,,61035ccd030737a3d2a51a2d,61036868186d5af3e8769502,2021-07-29_22h48.46.656,Simcolourproject_2stim_asymm_v5,2020.2.10,MacIntel,60,61025ae37ef11b136ea224fe,,,,,,,,,2575,85.01953125,44.0625,1,0,0,response1disk,,6,25.7734375,5.36328125,1,0,0,rectangle,25.7734375,5.36328125,1,0,0,25.7734375,5.36328125,1,0,0,0,59,59,6,1,,,,,,,,
,,,,,,,,,,,,,FF,,,,,,,,1.317,,,,,,,,,,,,,,,,,,,,,,61035ccd030737a3d2a51a2d,61036868186d5af3e8769502,2021-07-29_22h48.46.656,Simcolourproject_2stim_asymm_v5,2020.2.10,MacIntel,60,61025ae37ef11b136ea224fe,,,,,,,,,1237,101.5429688,54.17578125,1,0,0,response1disk,,6,9.83984375,-2.78515625,1,0,0,rectangle,9.83984375,-2.78515625,1,0,0,9.83984375,-2.78515625,1,0,0,0,60,60,19,1,,,,,,,,
,,,,,,,,,,,,,FF,,,,,,,,0.6996,,,,,,,,,,,,,,,,,,,,,,61035ccd030737a3d2a51a2d,61036868186d5af3e8769502,2021-07-29_22h48.46.656,Simcolourproject_2stim_asymm_v5,2020.2.10,MacIntel,60,61025ae37ef11b136ea224fe,,,,,,,,,4153,58.16015625,89.10546875,1,0,0,response1disk,,7,11.08203125,13.46875,1,0,0,rectangle,11.08203125,13.46875,1,0,0,11.08203125,13.46875,1,0,0,0,61,61,90,1,,,,,,,,
,,,,,,,,,,,,,FF,,,,,,,,1.3328,,,,,,,,,,,,,,,,,,,,,,61035ccd030737a3d2a51a2d,61036868186d5af3e8769502,2021-07-29_22h48.46.656,Simcolourproject_2stim_asymm_v5,2020.2.10,MacIntel,60,61025ae37ef11b136ea224fe,,,,,,,,,2314,48.6953125,-73.5390625,1,0,0,response3disk,,4,13.56640625,-5.86328125,1,0,0,rectangle,13.56640625,-5.86328125,1,0,0,13.56640625,-5.86328125,1,0,0,0,62,62,112,1,,,,,,,,
,,,,,,,,,,,,,FF,,,,,,,,0.9508,,,,,,,,,,,,,,,,,,,,,,61035ccd030737a3d2a51a2d,61036868186d5af3e8769502,2021-07-29_22h48.46.656,Simcolourproject_2stim_asymm_v5,2020.2.10,MacIntel,60,61025ae37ef11b136ea224fe,,,,,,,,,2692,95.06640625,39.921875,1,0,0,response1disk,,6,5.18359375,3.01953125,1,0,0,rectangle,5.18359375,3.01953125,1,0,0,5.18359375,3.01953125,1,0,0,0,63,63,8,1,,,,,,,,
,,,,,,,,,,,,,FF,,,,,,,,1.0995,,,,,,,,,,,,,,,,,,,,,,61035ccd030737a3d2a51a2d,61036868186d5af3e8769502,2021-07-29_22h48.46.656,Simcolourproject_2stim_asymm_v5,2020.2.10,MacIntel,60,61025ae37ef11b136ea224fe,,,,,,,,,849,86.1015625,20.30859375,1,0,0,response1disk,,6,-4.95703125,1.94921875,1,0,0,rectangle,-38.8046875,96.47265625,1,0,0,-2.25,5.421875,1,0,0,0,64,64,57,1,,response7disk_3,TRUE,0,0,"[237,121,65,12,41,89,238,299,99,161,99,300,110,287,314,216,238,125,276,264]",1.7666,rectangle
,,,,,,,,,,,,,FF,,,,,,,,3.2659,,,,,,,,,,,,,,,,,,,,,,61035ccd030737a3d2a51a2d,61036868186d5af3e8769502,2021-07-29_22h48.46.656,Simcolourproject_2stim_asymm_v5,2020.2.10,MacIntel,60,61025ae37ef11b136ea224fe,,,,,,,,,1124,71.55078125,-36.62890625,1,0,0,response3disk,,5,4.21484375,-9.109375,1,0,0,rectangle,4.21484375,-9.109375,1,0,0,4.21484375,-9.109375,1,0,0,0,65,65,48,1,,,,,,,,
,,,,,,,,,,,,,FF,,,,,,,,2.9846,,,,,,,,,,,,,,,,,,,,,,61035ccd030737a3d2a51a2d,61036868186d5af3e8769502,2021-07-29_22h48.46.656,Simcolourproject_2stim_asymm_v5,2020.2.10,MacIntel,60,61025ae37ef11b136ea224fe,,,,,,,,,3771,-44.49609375,-89.6796875,1,0,0,response5disk,,3,18.47265625,16.8046875,1,0,0,rectangle,18.47265625,16.8046875,1,0,0,18.47265625,16.8046875,1,0,0,0,66,66,99,1,,,,,,,,
,,,,,,,,,,,,,FF,,,,,,,,2.517,,,,,,,,,,,,,,,,,,,,,,61035ccd030737a3d2a51a2d,61036868186d5af3e8769502,2021-07-29_22h48.46.656,Simcolourproject_2stim_asymm_v5,2020.2.10,MacIntel,60,61025ae37ef11b136ea224fe,,,,,,,,,2803,75.10546875,-47.2578125,1,0,0,response3disk,,5,11.05859375,0.59375,1,0,0,rectangle,11.05859375,0.59375,1,0,0,11.05859375,0.59375,1,0,0,0,67,67,147,1,,,,,,,,
,,,,,,,,,,,,,FF,,,,,,,,3.7008,,,,,,,,,,,,,,,,,,,,,,61035ccd030737a3d2a51a2d,61036868186d5af3e8769502,2021-07-29_22h48.46.656,Simcolourproject_2stim_asymm_v5,2020.2.10,MacIntel,60,61025ae37ef11b136ea224fe,,,,,,,,,3462,102.9453125,38.125,1,0,0,response1disk,,6,4.84765625,4.24609375,1,0,0,rectangle,4.84765625,4.24609375,1,0,0,4.84765625,4.24609375,1,0,0,0,68,68,27,1,,,,,,,,
,,,,,,,,,,,,,FF,,,,,,,,3.1833,,,,,,,,,,,,,,,,,,,,,,61035ccd030737a3d2a51a2d,61036868186d5af3e8769502,2021-07-29_22h48.46.656,Simcolourproject_2stim_asymm_v5,2020.2.10,MacIntel,60,61025ae37ef11b136ea224fe,,,,,,,,,3403,84.15625,-37.46875,1,0,0,response3disk,,5,-6.29296875,7.109375,1,0,0,rectangle,-6.29296875,7.109375,1,0,0,-6.29296875,7.109375,1,0,0,0,69,69,50,1,,,,,,,,
,,,,,,,,,,,,,FF,,,,,,,,1.967,,,,,,,,,,,,,,,,,,,,,,61035ccd030737a3d2a51a2d,61036868186d5af3e8769502,2021-07-29_22h48.46.656,Simcolourproject_2stim_asymm_v5,2020.2.10,MacIntel,60,61025ae37ef11b136ea224fe,,,,,,,,,2000,88.09765625,42.05859375,1,0,0,response1disk,,6,1.703125,3.58984375,1,0,0,rectangle,1.703125,3.58984375,1,0,0,1.703125,3.58984375,1,0,0,0,70,70,16,1,,,,,,,,
,,,,,,,,,,,,,FF,,,,,,,,2.1002,,,,,,,,,,,,,,,,,,,,,,61035ccd030737a3d2a51a2d,61036868186d5af3e8769502,2021-07-29_22h48.46.656,Simcolourproject_2stim_asymm_v5,2020.2.10,MacIntel,60,61025ae37ef11b136ea224fe,,,,,,,,,74,-52.80859375,-90.71875,1,0,0,response5disk,,3,8.796875,-2.9296875,1,0,0,rectangle,8.796875,-2.9296875,1,0,0,8.796875,-2.9296875,1,0,0,0,71,71,92,1,,,,,,,,
,,,,,,,,,,,,,FF,,,,,,,,3.6339,,,,,,,,,,,,,,,,,,,,,,61035ccd030737a3d2a51a2d,61036868186d5af3e8769502,2021-07-29_22h48.46.656,Simcolourproject_2stim_asymm_v5,2020.2.10,MacIntel,60,61025ae37ef11b136ea224fe,,,,,,,,,2107,-83.14453125,-56.640625,1,0,0,response5disk,,2,9.1015625,6.9453125,1,0,0,rectangle,9.1015625,6.9453125,1,0,0,9.1015625,6.9453125,1,0,0,0,72,72,94,1,,,,,,,,
,,,,,,,,,,,,,FF,,,,,,,,5.2506,,,,,,,,,,,,,,,,,,,,,,61035ccd030737a3d2a51a2d,61036868186d5af3e8769502,2021-07-29_22h48.46.656,Simcolourproject_2stim_asymm_v5,2020.2.10,MacIntel,60,61025ae37ef11b136ea224fe,,,,,,,,,2748,103.265625,26.73828125,1,0,0,response1disk,,6,24.1640625,-1.4921875,1,0,0,rectangle,24.1640625,-1.4921875,1,0,0,24.1640625,-1.4921875,1,0,0,0,73,73,106,1,,,,,,,,
,,,,,,,,,,,,,FF,,,,,,,,2.2835,,,,,,,,,,,,,,,,,,,,,,61035ccd030737a3d2a51a2d,61036868186d5af3e8769502,2021-07-29_22h48.46.656,Simcolourproject_2stim_asymm_v5,2020.2.10,MacIntel,60,61025ae37ef11b136ea224fe,,,,,,,,,3868,-40.9921875,-81.1953125,1,0,0,response5disk,,3,1.15234375,-4.40234375,1,0,0,rectangle,1.15234375,-4.40234375,1,0,0,1.15234375,-4.40234375,1,0,0,0,74,74,9,1,,,,,,,,
,,,,,,,,,,,,,FF,,,,,,,,0.9675,,,,,,,,,,,,,,,,,,,,,,61035ccd030737a3d2a51a2d,61036868186d5af3e8769502,2021-07-29_22h48.46.656,Simcolourproject_2stim_asymm_v5,2020.2.10,MacIntel,60,61025ae37ef11b136ea224fe,,,,,,,,,3541,53.5625,74.71484375,1,0,0,response1disk,,7,2.55859375,7.65234375,1,0,0,rectangle,2.55859375,7.65234375,1,0,0,2.55859375,7.65234375,1,0,0,0,75,75,69,1,,,,,,,,
,,,,,,,,,,,,,FF,,,,,,,,1.8512,,,,,,,,,,,,,,,,,,,,,,61035ccd030737a3d2a51a2d,61036868186d5af3e8769502,2021-07-29_22h48.46.656,Simcolourproject_2stim_asymm_v5,2020.2.10,MacIntel,60,61025ae37ef11b136ea224fe,,,,,,,,,855,100.7265625,-44.390625,1,0,0,response3disk,,5,18.7421875,-2.109375,1,0,0,rectangle,18.7421875,-2.109375,1,0,0,18.7421875,-2.109375,1,0,0,0,76,76,7,1,,,,,,,,
,,,,,,,,,,,,,FF,,,,,,,,1.051,,,,,,,,,,,,,,,,,,,,,,61035ccd030737a3d2a51a2d,61036868186d5af3e8769502,2021-07-29_22h48.46.656,Simcolourproject_2stim_asymm_v5,2020.2.10,MacIntel,60,61025ae37ef11b136ea224fe,,,,,,,,,3891,61.453125,90.9453125,1,0,0,response1disk,,7,13.0625,-2.85546875,1,0,0,rectangle,13.0625,-2.85546875,1,0,0,13.0625,-2.85546875,1,0,0,0,77,77,159,1,,,,,,,,
,,,,,,,,,,,,,FF,,,,,,,,1.4837,,,,,,,,,,,,,,,,,,,,,,61035ccd030737a3d2a51a2d,61036868186d5af3e8769502,2021-07-29_22h48.46.656,Simcolourproject_2stim_asymm_v5,2020.2.10,MacIntel,60,61025ae37ef11b136ea224fe,,,,,,,,,1918,49.55859375,88.28515625,1,0,0,response1disk,,7,4.66015625,0.2109375,1,0,0,rectangle,4.66015625,0.2109375,1,0,0,4.66015625,0.2109375,1,0,0,0,78,78,125,1,,,,,,,,
,,,,,,,,,,,,,FF,,,,,,,,3.5344,,,,,,,,,,,,,,,,,,,,,,61035ccd030737a3d2a51a2d,61036868186d5af3e8769502,2021-07-29_22h48.46.656,Simcolourproject_2stim_asymm_v5,2020.2.10,MacIntel,60,61025ae37ef11b136ea224fe,,,,,,,,,2743,93.3671875,-62.84765625,1,0,0,response3disk,,5,19.96875,-3.54296875,1,0,0,rectangle,19.96875,-3.54296875,1,0,0,19.96875,-3.54296875,1,0,0,0,79,79,117,1,,,,,,,,
,,,,,,,,,,,,,FF,,,,,,,,2.2826,,,,,,,,,,,,,,,,,,,,,,61035ccd030737a3d2a51a2d,61036868186d5af3e8769502,2021-07-29_22h48.46.656,Simcolourproject_2stim_asymm_v5,2020.2.10,MacIntel,60,61025ae37ef11b136ea224fe,,,,,,,,,3022,94.4296875,33.890625,1,0,0,response1disk,,6,10.79296875,-2.28125,1,0,0,rectangle,10.79296875,-2.28125,1,0,0,10.79296875,-2.28125,1,0,0,0,80,80,55,1,,,,,,,,
,,,,,,,,,,,,,FF,,,,,,,,1.4842,,,,,,,,,,,,,,,,,,,,,,61035ccd030737a3d2a51a2d,61036868186d5af3e8769502,2021-07-29_22h48.46.656,Simcolourproject_2stim_asymm_v5,2020.2.10,MacIntel,60,61025ae37ef11b136ea224fe,,,,,,,,,3639,90.96875,40.9609375,1,0,0,response1disk,,6,14.24609375,4.38671875,1,0,0,rectangle,14.24609375,4.38671875,1,0,0,14.24609375,4.38671875,1,0,0,0,81,81,13,1,,,,,,,,
,,,,,,,,,,,,,FF,,,,,,,,2.6341,,,,,,,,,,,,,,,,,,,,,,61035ccd030737a3d2a51a2d,61036868186d5af3e8769502,2021-07-29_22h48.46.656,Simcolourproject_2stim_asymm_v5,2020.2.10,MacIntel,60,61025ae37ef11b136ea224fe,,,,,,,,,3804,36.0234375,-101.9882813,1,0,0,response3disk,,4,5.6875,-10.51171875,1,0,0,rectangle,5.6875,-10.51171875,1,0,0,5.6875,-10.51171875,1,0,0,0,82,82,75,1,,,,,,,,
,,,,,,,,,,,,,FF,,,,,,,,4.4331,,,,,,,,,,,,,,,,,,,,,,61035ccd030737a3d2a51a2d,61036868186d5af3e8769502,2021-07-29_22h48.46.656,Simcolourproject_2stim_asymm_v5,2020.2.10,MacIntel,60,61025ae37ef11b136ea224fe,,,,,,,,,4127,83.44140625,-53.7109375,1,0,0,response3disk,,5,8.609375,0.98828125,1,0,0,rectangle,8.609375,0.98828125,1,0,0,8.609375,0.98828125,1,0,0,0,83,83,135,1,,,,,,,,
,,,,,,,,,,,,,FF,,,,,,,,2.7846,,,,,,,,,,,,,,,,,,,,,,61035ccd030737a3d2a51a2d,61036868186d5af3e8769502,2021-07-29_22h48.46.656,Simcolourproject_2stim_asymm_v5,2020.2.10,MacIntel,60,61025ae37ef11b136ea224fe,,,,,,,,,2938,91.4609375,-44.63671875,1,0,0,response3disk,,5,-2.3671875,3.203125,1,0,0,rectangle,-2.3671875,3.203125,1,0,0,-2.3671875,3.203125,1,0,0,0,84,84,108,1,,,,,,,,
,,,,,,,,,,,,,FF,,,,,,,,2.2835,,,,,,,,,,,,,,,,,,,,,,61035ccd030737a3d2a51a2d,61036868186d5af3e8769502,2021-07-29_22h48.46.656,Simcolourproject_2stim_asymm_v5,2020.2.10,MacIntel,60,61025ae37ef11b136ea224fe,,,,,,,,,2881,-33.52734375,-83.5,1,0,0,response5disk,,3,27.12109375,12.53515625,1,0,0,rectangle,27.12109375,12.53515625,1,0,0,27.12109375,12.53515625,1,0,0,0,85,85,67,1,,,,,,,,
,,,,,,,,,,,,,FF,,,,,,,,3.3159,,,,,,,,,,,,,,,,,,,,,,61035ccd030737a3d2a51a2d,61036868186d5af3e8769502,2021-07-29_22h48.46.656,Simcolourproject_2stim_asymm_v5,2020.2.10,MacIntel,60,61025ae37ef11b136ea224fe,,,,,,,,,336,61.12109375,-99.40625,1,0,0,response3disk,,4,20.65234375,-12.2109375,1,0,0,rectangle,20.65234375,-12.2109375,1,0,0,20.65234375,-12.2109375,1,0,0,0,86,86,110,1,,,,,,,,
,,,,,,,,,,,,,FF,,,,,,,,1.1834,,,,,,,,,,,,,,,,,,,,,,61035ccd030737a3d2a51a2d,61036868186d5af3e8769502,2021-07-29_22h48.46.656,Simcolourproject_2stim_asymm_v5,2020.2.10,MacIntel,60,61025ae37ef11b136ea224fe,,,,,,,,,4128,-79.7109375,-24.0078125,1,0,0,response5disk,,2,0.90625,5.12890625,1,0,0,rectangle,0.90625,5.12890625,1,0,0,0.90625,5.12890625,1,0,0,0,87,87,121,1,,,,,,,,
,,,,,,,,,,,,,FF,,,,,,,,2.8002,,,,,,,,,,,,,,,,,,,,,,61035ccd030737a3d2a51a2d,61036868186d5af3e8769502,2021-07-29_22h48.46.656,Simcolourproject_2stim_asymm_v5,2020.2.10,MacIntel,60,61025ae37ef11b136ea224fe,,,,,,,,,53,79.5390625,-53.81640625,1,0,0,response3disk,,5,20.6015625,-8.48046875,1,0,0,rectangle,-37.36328125,69.703125,1,0,0,-0.78125,-8.07421875,1,0,0,0,88,88,130,1,,response7disk_3,TRUE,0,0,"[237,121,65,12,41,89,238,299,99,161,99,300,110,287,314,216,238,125,276,264]",1.4,rectangle
,,,,,,,,,,,,,FF,,,,,,,,0.9506,,,,,,,,,,,,,,,,,,,,,,61035ccd030737a3d2a51a2d,61036868186d5af3e8769502,2021-07-29_22h48.46.656,Simcolourproject_2stim_asymm_v5,2020.2.10,MacIntel,60,61025ae37ef11b136ea224fe,,,,,,,,,1615,-78.10546875,48.51953125,1,0,0,response7disk,,1,10.0390625,-4.05859375,1,0,0,rectangle,10.0390625,-4.05859375,1,0,0,10.0390625,-4.05859375,1,0,0,0,89,89,157,1,,,,,,,,
,,,,,,,,,,,,,FF,,,,,,,,0.7675,,,,,,,,,,,,,,,,,,,,,,61035ccd030737a3d2a51a2d,61036868186d5af3e8769502,2021-07-29_22h48.46.656,Simcolourproject_2stim_asymm_v5,2020.2.10,MacIntel,60,61025ae37ef11b136ea224fe,,,,,,,,,1103,92.9296875,-40.69140625,1,0,0,response3disk,,5,13.6015625,-3.75390625,1,0,0,rectangle,13.6015625,-3.75390625,1,0,0,13.6015625,-3.75390625,1,0,0,0,90,90,0,1,,,,,,,,
,,,,,,,,,,,,,FF,,,,,,,,1.1989,,,,,,,,,,,,,,,,,,,,,,61035ccd030737a3d2a51a2d,61036868186d5af3e8769502,2021-07-29_22h48.46.656,Simcolourproject_2stim_asymm_v5,2020.2.10,MacIntel,60,61025ae37ef11b136ea224fe,,,,,,,,,1867,52.73046875,85.1875,1,0,0,response1disk,,7,6.69921875,-2.546875,1,0,0,rectangle,6.69921875,-2.546875,1,0,0,6.69921875,-2.546875,1,0,0,0,91,91,118,1,,,,,,,,
,,,,,,,,,,,,,FF,,,,,,,,1.6671,,,,,,,,,,,,,,,,,,,,,,61035ccd030737a3d2a51a2d,61036868186d5af3e8769502,2021-07-29_22h48.46.656,Simcolourproject_2stim_asymm_v5,2020.2.10,MacIntel,60,61025ae37ef11b136ea224fe,,,,,,,,,4275,51.80078125,-86.1328125,1,0,0,response3disk,,4,6,-5.734375,1,0,0,rectangle,6,-5.734375,1,0,0,6,-5.734375,1,0,0,0,92,92,42,1,,,,,,,,
,,,,,,,,,,,,,FF,,,,,,,,4.3173,,,,,,,,,,,,,,,,,,,,,,61035ccd030737a3d2a51a2d,61036868186d5af3e8769502,2021-07-29_22h48.46.656,Simcolourproject_2stim_asymm_v5,2020.2.10,MacIntel,60,61025ae37ef11b136ea224fe,,,,,,,,,1516,118.8789063,-36.78125,1,0,0,response3disk,,5,15.78515625,12.0546875,1,0,0,rectangle,15.78515625,12.0546875,1,0,0,15.78515625,12.0546875,1,0,0,0,93,93,44,1,,,,,,,,
,,,,,,,,,,,,,FF,,,,,,,,1.5678,,,,,,,,,,,,,,,,,,,,,,61035ccd030737a3d2a51a2d,61036868186d5af3e8769502,2021-07-29_22h48.46.656,Simcolourproject_2stim_asymm_v5,2020.2.10,MacIntel,60,61025ae37ef11b136ea224fe,,,,,,,,,3948,-32.78125,-89.02734375,1,0,0,response5disk,,3,7.82421875,0.4140625,1,0,0,rectangle,7.82421875,0.4140625,1,0,0,7.82421875,0.4140625,1,0,0,0,94,94,61,1,,,,,,,,
,,,,,,,,,,,,,FF,,,,,,,,2.0498,,,,,,,,,,,,,,,,,,,,,,61035ccd030737a3d2a51a2d,61036868186d5af3e8769502,2021-07-29_22h48.46.656,Simcolourproject_2stim_asymm_v5,2020.2.10,MacIntel,60,61025ae37ef11b136ea224fe,,,,,,,,,4086,90.78125,-56.73046875,1,0,0,response3disk,,5,11.3984375,-2.08984375,1,0,0,rectangle,11.3984375,-2.08984375,1,0,0,11.3984375,-2.08984375,1,0,0,0,95,95,142,1,,,,,,,,
,,,,,,,,,,,,,FF,,,,,,,,0.7834,,,,,,,,,,,,,,,,,,,,,,61035ccd030737a3d2a51a2d,61036868186d5af3e8769502,2021-07-29_22h48.46.656,Simcolourproject_2stim_asymm_v5,2020.2.10,MacIntel,60,61025ae37ef11b136ea224fe,,,,,,,,,3776,-41.6875,94.1328125,1,0,0,response7disk,,0,12.171875,-2.73828125,1,0,0,rectangle,12.171875,-2.73828125,1,0,0,12.171875,-2.73828125,1,0,0,0,96,96,84,1,,,,,,,,
,,,,,,,,,,,,,FF,,,,,,,,1.416,,,,,,,,,,,,,,,,,,,,,,61035ccd030737a3d2a51a2d,61036868186d5af3e8769502,2021-07-29_22h48.46.656,Simcolourproject_2stim_asymm_v5,2020.2.10,MacIntel,60,61025ae37ef11b136ea224fe,,,,,,,,,3187,-33.4140625,-78.484375,1,0,0,response5disk,,3,-5.3515625,-3.57421875,1,0,0,rectangle,-5.3515625,-3.57421875,1,0,0,-5.3515625,-3.57421875,1,0,0,0,97,97,131,1,,,,,,,,
,,,,,,,,,,,,,FF,,,,,,,,0.9508,,,,,,,,,,,,,,,,,,,,,,61035ccd030737a3d2a51a2d,61036868186d5af3e8769502,2021-07-29_22h48.46.656,Simcolourproject_2stim_asymm_v5,2020.2.10,MacIntel,60,61025ae37ef11b136ea224fe,,,,,,,,,749,80.64453125,-30.92578125,1,0,0,response3disk,,5,34.61328125,-3.2265625,1,0,0,rectangle,39.0390625,77.7734375,1,0,0,12.5859375,-5.41015625,1,0,0,0,98,98,123,1,,response1disk_3,TRUE,7,7,"[237,121,65,12,41,89,238,299,99,161,99,300,110,287,314,216,238,125,276,264]",1.5497,rectangle
,,,,,,,,,,,,,FF,,,,,,,,1.2829,,,,,,,,,,,,,,,,,,,,,,61035ccd030737a3d2a51a2d,61036868186d5af3e8769502,2021-07-29_22h48.46.656,Simcolourproject_2stim_asymm_v5,2020.2.10,MacIntel,60,61025ae37ef11b136ea224fe,,,,,,,,,2268,51.39453125,-92,1,0,0,response3disk,,4,19.89453125,-7.4765625,1,0,0,rectangle,19.89453125,-7.4765625,1,0,0,19.89453125,-7.4765625,1,0,0,0,99,99,152,1,,,,,,,,
,,,,,,,,,,,,,FF,,,,,,,,1.4498,,,,,,,,,,,,,,,,,,,,,,61035ccd030737a3d2a51a2d,61036868186d5af3e8769502,2021-07-29_22h48.46.656,Simcolourproject_2stim_asymm_v5,2020.2.10,MacIntel,60,61025ae37ef11b136ea224fe,,,,,,,,,3216,36.54296875,85.34765625,1,0,0,response1disk,,7,8.72265625,7.62890625,1,0,0,rectangle,8.72265625,7.62890625,1,0,0,8.72265625,7.62890625,1,0,0,0,100,100,11,1,,,,,,,,
,,,,,,,,,,,,,FF,,,,,,,,2.0676,,,,,,,,,,,,,,,,,,,,,,61035ccd030737a3d2a51a2d,61036868186d5af3e8769502,2021-07-29_22h48.46.656,Simcolourproject_2stim_asymm_v5,2020.2.10,MacIntel,60,61025ae37ef11b136ea224fe,,,,,,,,,3573,60.734375,102.1210938,1,0,0,response1disk,,7,11.515625,4.59765625,1,0,0,rectangle,11.515625,4.59765625,1,0,0,11.515625,4.59765625,1,0,0,0,101,101,77,1,,,,,,,,
,,,,,,,,,,,,,FF,,,,,,,,5.5829,,,,,,,,,,,,,,,,,,,,,,61035ccd030737a3d2a51a2d,61036868186d5af3e8769502,2021-07-29_22h48.46.656,Simcolourproject_2stim_asymm_v5,2020.2.10,MacIntel,60,61025ae37ef11b136ea224fe,,,,,,,,,3745,-36.0859375,-86.63671875,1,0,0,response5disk,,3,5.953125,-9.859375,1,0,0,rectangle,5.953125,-9.859375,1,0,0,5.953125,-9.859375,1,0,0,0,102,102,60,1,,,,,,,,
,,,,,,,,,,,,,FF,,,,,,,,1.7,,,,,,,,,,,,,,,,,,,,,,61035ccd030737a3d2a51a2d,61036868186d5af3e8769502,2021-07-29_22h48.46.656,Simcolourproject_2stim_asymm_v5,2020.2.10,MacIntel,60,61025ae37ef11b136ea224fe,,,,,,,,,2051,58.15234375,-86.87890625,1,0,0,response3disk,,4,1.64453125,-12.9921875,1,0,0,rectangle,1.64453125,-12.9921875,1,0,0,1.64453125,-12.9921875,1,0,0,0,103,103,49,1,,,,,,,,
,,,,,,,,,,,,,FF,,,,,,,,2.1506,,,,,,,,,,,,,,,,,,,,,,61035ccd030737a3d2a51a2d,61036868186d5af3e8769502,2021-07-29_22h48.46.656,Simcolourproject_2stim_asymm_v5,2020.2.10,MacIntel,60,61025ae37ef11b136ea224fe,,,,,,,,,1628,63.37890625,-92.22265625,1,0,0,response3disk,,4,7.84375,4.23046875,1,0,0,rectangle,7.84375,4.23046875,1,0,0,7.84375,4.23046875,1,0,0,0,104,104,24,1,,,,,,,,
,,,,,,,,,,,,,FF,,,,,,,,0.8334,,,,,,,,,,,,,,,,,,,,,,61035ccd030737a3d2a51a2d,61036868186d5af3e8769502,2021-07-29_22h48.46.656,Simcolourproject_2stim_asymm_v5,2020.2.10,MacIntel,60,61025ae37ef11b136ea224fe,,,,,,,,,3007,-81.59765625,37.875,1,0,0,response7disk,,1,-14.76171875,-2.67578125,1,0,0,rectangle,-14.76171875,-2.67578125,1,0,0,-14.76171875,-2.67578125,1,0,0,0,105,105,51,1,,,,,,,,
,,,,,,,,,,,,,FF,,,,,,,,0.6999,,,,,,,,,,,,,,,,,,,,,,61035ccd030737a3d2a51a2d,61036868186d5af3e8769502,2021-07-29_22h48.46.656,Simcolourproject_2stim_asymm_v5,2020.2.10,MacIntel,60,61025ae37ef11b136ea224fe,,,,,,,,,4251,-35.52734375,74.8828125,1,0,0,response7disk,,0,-17.84375,-7.52734375,1,0,0,rectangle,-17.84375,-7.52734375,1,0,0,-17.84375,-7.52734375,1,0,0,0,106,106,32,1,,,,,,,,
,,,,,,,,,,,,,FF,,,,,,,,0.8332,,,,,,,,,,,,,,,,,,,,,,61035ccd030737a3d2a51a2d,61036868186d5af3e8769502,2021-07-29_22h48.46.656,Simcolourproject_2stim_asymm_v5,2020.2.10,MacIntel,60,61025ae37ef11b136ea224fe,,,,,,,,,2667,-90.32421875,32.76953125,1,0,0,response7disk,,1,-0.9453125,-14.96484375,1,0,0,rectangle,-0.9453125,-14.96484375,1,0,0,-0.9453125,-14.96484375,1,0,0,0,107,107,98,1,,,,,,,,
,,,,,,,,,,,,,FF,,,,,,,,5.2669,,,,,,,,,,,,,,,,,,,,,,61035ccd030737a3d2a51a2d,61036868186d5af3e8769502,2021-07-29_22h48.46.656,Simcolourproject_2stim_asymm_v5,2020.2.10,MacIntel,60,61025ae37ef11b136ea224fe,,,,,,,,,2229,-91.703125,-54.9609375,1,0,0,response5disk,,2,-2.58203125,-1.7109375,1,0,0,rectangle,-2.58203125,-1.7109375,1,0,0,-2.58203125,-1.7109375,1,0,0,0,108,108,81,1,,,,,,,,
,,,,,,,,,,,,,FF,,,,,,,,1.6172,,,,,,,,,,,,,,,,,,,,,,61035ccd030737a3d2a51a2d,61036868186d5af3e8769502,2021-07-29_22h48.46.656,Simcolourproject_2stim_asymm_v5,2020.2.10,MacIntel,60,61025ae37ef11b136ea224fe,,,,,,,,,2248,28.7578125,-89.66796875,1,0,0,response3disk,,4,6.37890625,-10.44921875,1,0,0,rectangle,-82.6484375,-39.83203125,1,0,0,-14.43359375,-0.8203125,1,0,0,0,109,109,85,1,,response5disk_3,TRUE,2,2,"[237,121,65,12,41,89,238,299,99,161,99,300,110,287,314,216,238,125,276,264]",1.7002,rectangle
,,,,,,,,,,,,,FF,,,,,,,,2.3165,,,,,,,,,,,,,,,,,,,,,,61035ccd030737a3d2a51a2d,61036868186d5af3e8769502,2021-07-29_22h48.46.656,Simcolourproject_2stim_asymm_v5,2020.2.10,MacIntel,60,61025ae37ef11b136ea224fe,,,,,,,,,3974,-36.32421875,-103,1,0,0,response5disk,,3,17.03515625,-1.3984375,1,0,0,rectangle,17.03515625,-1.3984375,1,0,0,17.03515625,-1.3984375,1,0,0,0,110,110,47,1,,,,,,,,
,,,,,,,,,,,,,FF,,,,,,,,2.8844,,,,,,,,,,,,,,,,,,,,,,61035ccd030737a3d2a51a2d,61036868186d5af3e8769502,2021-07-29_22h48.46.656,Simcolourproject_2stim_asymm_v5,2020.2.10,MacIntel,60,61025ae37ef11b136ea224fe,,,,,,,,,1886,59.953125,29.3515625,1,0,0,response1disk,,6,26.08984375,-1.76953125,1,0,0,rectangle,26.08984375,-1.76953125,1,0,0,26.08984375,-1.76953125,1,0,0,0,111,111,54,1,,,,,,,,
,,,,,,,,,,,,,FF,,,,,,,,4.2168,,,,,,,,,,,,,,,,,,,,,,61035ccd030737a3d2a51a2d,61036868186d5af3e8769502,2021-07-29_22h48.46.656,Simcolourproject_2stim_asymm_v5,2020.2.10,MacIntel,60,61025ae37ef11b136ea224fe,,,,,,,,,3312,73.28515625,-55.60546875,1,0,0,response3disk,,5,9.24609375,-7.5625,1,0,0,rectangle,9.24609375,-7.5625,1,0,0,9.24609375,-7.5625,1,0,0,0,112,112,80,1,,,,,,,,
,,,,,,,,,,,,,FF,,,,,,,,2.6162,,,,,,,,,,,,,,,,,,,,,,61035ccd030737a3d2a51a2d,61036868186d5af3e8769502,2021-07-29_22h48.46.656,Simcolourproject_2stim_asymm_v5,2020.2.10,MacIntel,60,61025ae37ef11b136ea224fe,,,,,,,,,600,37.9609375,-100.4296875,1,0,0,response3disk,,4,6.9765625,-3.76953125,1,0,0,rectangle,6.9765625,-3.76953125,1,0,0,6.9765625,-3.76953125,1,0,0,0,113,113,145,1,,,,,,,,
,,,,,,,,,,,,,FF,,,,,,,,0.9827,,,,,,,,,,,,,,,,,,,,,,61035ccd030737a3d2a51a2d,61036868186d5af3e8769502,2021-07-29_22h48.46.656,Simcolourproject_2stim_asymm_v5,2020.2.10,MacIntel,60,61025ae37ef11b136ea224fe,,,,,,,,,2901,-80.4375,-37.203125,1,0,0,response5disk,,2,-6.1484375,-4.7734375,1,0,0,rectangle,-6.1484375,-4.7734375,1,0,0,-6.1484375,-4.7734375,1,0,0,0,114,114,138,1,,,,,,,,
,,,,,,,,,,,,,FF,,,,,,,,1.7497,,,,,,,,,,,,,,,,,,,,,,61035ccd030737a3d2a51a2d,61036868186d5af3e8769502,2021-07-29_22h48.46.656,Simcolourproject_2stim_asymm_v5,2020.2.10,MacIntel,60,61025ae37ef11b136ea224fe,,,,,,,,,1380,48.87890625,-93.203125,1,0,0,response3disk,,4,15.15625,-3.28125,1,0,0,rectangle,15.15625,-3.28125,1,0,0,15.15625,-3.28125,1,0,0,0,115,115,36,1,,,,,,,,
,,,,,,,,,,,,,FF,,,,,,,,1.5844,,,,,,,,,,,,,,,,,,,,,,61035ccd030737a3d2a51a2d,61036868186d5af3e8769502,2021-07-29_22h48.46.656,Simcolourproject_2stim_asymm_v5,2020.2.10,MacIntel,60,61025ae37ef11b136ea224fe,,,,,,,,,2334,97.55859375,56.08203125,1,0,0,response1disk,,6,6.65234375,5.8046875,1,0,0,rectangle,6.65234375,5.8046875,1,0,0,6.65234375,5.8046875,1,0,0,0,116,116,78,1,,,,,,,,
,,,,,,,,,,,,,FF,,,,,,,,1.7843,,,,,,,,,,,,,,,,,,,,,,61035ccd030737a3d2a51a2d,61036868186d5af3e8769502,2021-07-29_22h48.46.656,Simcolourproject_2stim_asymm_v5,2020.2.10,MacIntel,60,61025ae37ef11b136ea224fe,,,,,,,,,4299,83.25,-40.61328125,1,0,0,response3disk,,5,-12.26953125,5.39453125,1,0,0,rectangle,-12.26953125,5.39453125,1,0,0,-12.26953125,5.39453125,1,0,0,0,117,117,23,1,,,,,,,,
,,,,,,,,,,,,,FF,,,,,,,,2.3003,,,,,,,,,,,,,,,,,,,,,,61035ccd030737a3d2a51a2d,61036868186d5af3e8769502,2021-07-29_22h48.46.656,Simcolourproject_2stim_asymm_v5,2020.2.10,MacIntel,60,61025ae37ef11b136ea224fe,,,,,,,,,2885,70.8671875,-111.3007813,1,0,0,response3disk,,4,5.08203125,-7.296875,1,0,0,rectangle,5.08203125,-7.296875,1,0,0,5.08203125,-7.296875,1,0,0,0,118,118,41,1,,,,,,,,
,,,,,,,,,,,,,FF,,,,,,,,1.1999,,,,,,,,,,,,,,,,,,,,,,61035ccd030737a3d2a51a2d,61036868186d5af3e8769502,2021-07-29_22h48.46.656,Simcolourproject_2stim_asymm_v5,2020.2.10,MacIntel,60,61025ae37ef11b136ea224fe,,,,,,,,,3703,-81.93359375,-47.20703125,1,0,0,response5disk,,2,-13.671875,-5.09375,1,0,0,rectangle,-13.671875,-5.09375,1,0,0,-13.671875,-5.09375,1,0,0,0,119,119,111,1,,,,,,,,
,,,,,,,,,,,,,FF,,,,,,,,0.8172,,,,,,,,,,,,,,,,,,,,,,61035ccd030737a3d2a51a2d,61036868186d5af3e8769502,2021-07-29_22h48.46.656,Simcolourproject_2stim_asymm_v5,2020.2.10,MacIntel,60,61025ae37ef11b136ea224fe,,,,,,,,,3408,48.16796875,64.3046875,1,0,0,response1disk,,7,1.9375,6.25390625,1,0,0,rectangle,93.24609375,42.0078125,1,0,0,17.6328125,3.83203125,1,0,0,0,120,120,100,1,,response1disk_3,TRUE,6,0,"[237,121,65,12,41,89,238,299,99,161,99,300,110,287,314,216,238,125,276,264]",2.0325,rectangle
,,,,,,,,,,,,,FF,,,,,,,,1.9843,,,,,,,,,,,,,,,,,,,,,,61035ccd030737a3d2a51a2d,61036868186d5af3e8769502,2021-07-29_22h48.46.656,Simcolourproject_2stim_asymm_v5,2020.2.10,MacIntel,60,61025ae37ef11b136ea224fe,,,,,,,,,4265,53.37109375,-98.73046875,1,0,0,response3disk,,4,-1.17578125,-4.19140625,1,0,0,rectangle,-1.17578125,-4.19140625,1,0,0,-1.17578125,-4.19140625,1,0,0,0,121,121,35,1,,,,,,,,
,,,,,,,,,,,,,FF,,,,,,,,4.5842,,,,,,,,,,,,,,,,,,,,,,61035ccd030737a3d2a51a2d,61036868186d5af3e8769502,2021-07-29_22h48.46.656,Simcolourproject_2stim_asymm_v5,2020.2.10,MacIntel,60,61025ae37ef11b136ea224fe,,,,,,,,,3944,-52.92578125,-93.12109375,1,0,0,response5disk,,3,-17.48046875,-6.30078125,1,0,0,rectangle,-17.48046875,-6.30078125,1,0,0,-17.48046875,-6.30078125,1,0,0,0,122,122,128,1,,,,,,,,
,,,,,,,,,,,,,FF,,,,,,,,0.9829,,,,,,,,,,,,,,,,,,,,,,61035ccd030737a3d2a51a2d,61036868186d5af3e8769502,2021-07-29_22h48.46.656,Simcolourproject_2stim_asymm_v5,2020.2.10,MacIntel,60,61025ae37ef11b136ea224fe,,,,,,,,,313,27.3515625,71.45703125,1,0,0,response1disk,,7,2.15234375,-9.86328125,1,0,0,rectangle,2.15234375,-9.86328125,1,0,0,2.15234375,-9.86328125,1,0,0,0,123,123,46,1,,,,,,,,
,,,,,,,,,,,,,FF,,,,,,,,1.0998,,,,,,,,,,,,,,,,,,,,,,61035ccd030737a3d2a51a2d,61036868186d5af3e8769502,2021-07-29_22h48.46.656,Simcolourproject_2stim_asymm_v5,2020.2.10,MacIntel,60,61025ae37ef11b136ea224fe,,,,,,,,,2448,50.1875,97.2734375,1,0,0,response1disk,,7,12.41015625,3.80078125,1,0,0,rectangle,-39.76953125,-101.6132813,1,0,0,-2.51171875,-4.625,1,0,0,0,124,124,88,1,,response5disk_3,TRUE,3,3,"[237,121,65,12,41,89,238,299,99,161,99,300,110,287,314,216,238,125,276,264]",1.4501,rectangle
,,,,,,,,,,,,,FF,,,,,,,,0.9007,,,,,,,,,,,,,,,,,,,,,,61035ccd030737a3d2a51a2d,61036868186d5af3e8769502,2021-07-29_22h48.46.656,Simcolourproject_2stim_asymm_v5,2020.2.10,MacIntel,60,61025ae37ef11b136ea224fe,,,,,,,,,3849,-70.5234375,-41.04296875,1,0,0,response5disk,,2,-9.87890625,-2.984375,1,0,0,rectangle,-9.87890625,-2.984375,1,0,0,-9.87890625,-2.984375,1,0,0,0,125,125,3,1,,,,,,,,
,,,,,,,,,,,,,FF,,,,,,,,0.8333,,,,,,,,,,,,,,,,,,,,,,61035ccd030737a3d2a51a2d,61036868186d5af3e8769502,2021-07-29_22h48.46.656,Simcolourproject_2stim_asymm_v5,2020.2.10,MacIntel,60,61025ae37ef11b136ea224fe,,,,,,,,,4228,94.5078125,42.80078125,1,0,0,response1disk,,6,16.46875,-1.28515625,1,0,0,rectangle,16.46875,-1.28515625,1,0,0,16.46875,-1.28515625,1,0,0,0,126,126,87,1,,,,,,,,
,,,,,,,,,,,,,FF,,,,,,,,1.9495,,,,,,,,,,,,,,,,,,,,,,61035ccd030737a3d2a51a2d,61036868186d5af3e8769502,2021-07-29_22h48.46.656,Simcolourproject_2stim_asymm_v5,2020.2.10,MacIntel,60,61025ae37ef11b136ea224fe,,,,,,,,,251,42.953125,-93.8203125,1,0,0,response3disk,,4,18.0234375,-15.6640625,1,0,0,rectangle,18.0234375,-15.6640625,1,0,0,18.0234375,-15.6640625,1,0,0,0,127,127,93,1,,,,,,,,
,,,,,,,,,,,,,FF,,,,,,,,0.9676,,,,,,,,,,,,,,,,,,,,,,61035ccd030737a3d2a51a2d,61036868186d5af3e8769502,2021-07-29_22h48.46.656,Simcolourproject_2stim_asymm_v5,2020.2.10,MacIntel,60,61025ae37ef11b136ea224fe,,,,,,,,,2806,85.1171875,33.85546875,1,0,0,response1disk,,6,28.25390625,-5.5546875,1,0,0,rectangle,28.25390625,-5.5546875,1,0,0,28.25390625,-5.5546875,1,0,0,0,128,128,62,1,,,,,,,,
,,,,,,,,,,,,,FF,,,,,,,,3.0835,,,,,,,,,,,,,,,,,,,,,,61035ccd030737a3d2a51a2d,61036868186d5af3e8769502,2021-07-29_22h48.46.656,Simcolourproject_2stim_asymm_v5,2020.2.10,MacIntel,60,61025ae37ef11b136ea224fe,,,,,,,,,1881,39.6484375,-91.7265625,1,0,0,response3disk,,4,17.98828125,-10.3125,1,0,0,rectangle,17.98828125,-10.3125,1,0,0,17.98828125,-10.3125,1,0,0,0,129,129,96,1,,,,,,,,
,,,,,,,,,,,,,FF,,,,,,,,1.0841,,,,,,,,,,,,,,,,,,,,,,61035ccd030737a3d2a51a2d,61036868186d5af3e8769502,2021-07-29_22h48.46.656,Simcolourproject_2stim_asymm_v5,2020.2.10,MacIntel,60,61025ae37ef11b136ea224fe,,,,,,,,,1756,43.03515625,-71.69921875,1,0,0,response3disk,,4,13.59765625,-13.00390625,1,0,0,rectangle,13.59765625,-13.00390625,1,0,0,13.59765625,-13.00390625,1,0,0,0,130,130,66,1,,,,,,,,
,,,,,,,,,,,,,FF,,,,,,,,1.0497,,,,,,,,,,,,,,,,,,,,,,61035ccd030737a3d2a51a2d,61036868186d5af3e8769502,2021-07-29_22h48.46.656,Simcolourproject_2stim_asymm_v5,2020.2.10,MacIntel,60,61025ae37ef11b136ea224fe,,,,,,,,,1070,-79.1796875,-32.51953125,1,0,0,response5disk,,2,-18.5546875,-1.72265625,1,0,0,rectangle,-18.5546875,-1.72265625,1,0,0,-18.5546875,-1.72265625,1,0,0,0,131,131,146,1,,,,,,,,
,,,,,,,,,,,,,FF,,,,,,,,1.4669,,,,,,,,,,,,,,,,,,,,,,61035ccd030737a3d2a51a2d,61036868186d5af3e8769502,2021-07-29_22h48.46.656,Simcolourproject_2stim_asymm_v5,2020.2.10,MacIntel,60,61025ae37ef11b136ea224fe,,,,,,,,,733,52.32421875,-108.4375,1,0,0,response3disk,,4,-9.7734375,9.08984375,1,0,0,rectangle,-9.7734375,9.08984375,1,0,0,-9.7734375,9.08984375,1,0,0,0,132,132,39,1,,,,,,,,
,,,,,,,,,,,,,FF,,,,,,,,0.9677,,,,,,,,,,,,,,,,,,,,,,61035ccd030737a3d2a51a2d,61036868186d5af3e8769502,2021-07-29_22h48.46.656,Simcolourproject_2stim_asymm_v5,2020.2.10,MacIntel,60,61025ae37ef11b136ea224fe,,,,,,,,,1445,-74.796875,24.16015625,1,0,0,response7disk,,1,-20.52734375,4.234375,1,0,0,rectangle,-20.52734375,4.234375,1,0,0,-20.52734375,4.234375,1,0,0,0,133,133,144,1,,,,,,,,
,,,,,,,,,,,,,FF,,,,,,,,0.9167,,,,,,,,,,,,,,,,,,,,,,61035ccd030737a3d2a51a2d,61036868186d5af3e8769502,2021-07-29_22h48.46.656,Simcolourproject_2stim_asymm_v5,2020.2.10,MacIntel,60,61025ae37ef11b136ea224fe,,,,,,,,,169,-51.0234375,-71.6953125,1,0,0,response5disk,,3,-7.3359375,5.48828125,1,0,0,rectangle,-7.3359375,5.48828125,1,0,0,-7.3359375,5.48828125,1,0,0,0,134,134,95,1,,,,,,,,
,,,,,,,,,,,,,FF,,,,,,,,1.6672,,,,,,,,,,,,,,,,,,,,,,61035ccd030737a3d2a51a2d,61036868186d5af3e8769502,2021-07-29_22h48.46.656,Simcolourproject_2stim_asymm_v5,2020.2.10,MacIntel,60,61025ae37ef11b136ea224fe,,,,,,,,,3774,-71.64453125,-26.41796875,1,0,0,response5disk,,2,-15.51171875,2.73828125,1,0,0,rectangle,-15.51171875,2.73828125,1,0,0,-15.51171875,2.73828125,1,0,0,0,135,135,30,1,,,,,,,,
,,,,,,,,,,,,,FF,,,,,,,,2.7337,,,,,,,,,,,,,,,,,,,,,,61035ccd030737a3d2a51a2d,61036868186d5af3e8769502,2021-07-29_22h48.46.656,Simcolourproject_2stim_asymm_v5,2020.2.10,MacIntel,60,61025ae37ef11b136ea224fe,,,,,,,,,3981,31.12109375,-84.67578125,1,0,0,response3disk,,4,11.3125,-7.78515625,1,0,0,rectangle,11.3125,-7.78515625,1,0,0,11.3125,-7.78515625,1,0,0,0,136,136,2,1,,,,,,,,
,,,,,,,,,,,,,FF,,,,,,,,0.8327,,,,,,,,,,,,,,,,,,,,,,61035ccd030737a3d2a51a2d,61036868186d5af3e8769502,2021-07-29_22h48.46.656,Simcolourproject_2stim_asymm_v5,2020.2.10,MacIntel,60,61025ae37ef11b136ea224fe,,,,,,,,,1963,-45.05078125,82.875,1,0,0,response7disk,,0,-0.69921875,-7.7578125,1,0,0,rectangle,-0.69921875,-7.7578125,1,0,0,-0.69921875,-7.7578125,1,0,0,0,137,137,72,1,,,,,,,,
,,,,,,,,,,,,,FF,,,,,,,,0.8503,,,,,,,,,,,,,,,,,,,,,,61035ccd030737a3d2a51a2d,61036868186d5af3e8769502,2021-07-29_22h48.46.656,Simcolourproject_2stim_asymm_v5,2020.2.10,MacIntel,60,61025ae37ef11b136ea224fe,,,,,,,,,564,-80.125,-39.8515625,1,0,0,response5disk,,2,-10.6171875,-6.5703125,1,0,0,rectangle,-10.6171875,-6.5703125,1,0,0,-10.6171875,-6.5703125,1,0,0,0,138,138,26,1,,,,,,,,
,,,,,,,,,,,,,FF,,,,,,,,1.0009,,,,,,,,,,,,,,,,,,,,,,61035ccd030737a3d2a51a2d,61036868186d5af3e8769502,2021-07-29_22h48.46.656,Simcolourproject_2stim_asymm_v5,2020.2.10,MacIntel,60,61025ae37ef11b136ea224fe,,,,,,,,,1064,-46.5078125,-83.9375,1,0,0,response5disk,,3,-16.62109375,-7.16796875,1,0,0,rectangle,-16.62109375,-7.16796875,1,0,0,-16.62109375,-7.16796875,1,0,0,0,139,139,107,1,,,,,,,,
,,,,,,,,,,,,,FF,,,,,,,,1.1835,,,,,,,,,,,,,,,,,,,,,,61035ccd030737a3d2a51a2d,61036868186d5af3e8769502,2021-07-29_22h48.46.656,Simcolourproject_2stim_asymm_v5,2020.2.10,MacIntel,60,61025ae37ef11b136ea224fe,,,,,,,,,219,95.5234375,35.47265625,1,0,0,response1disk,,6,14.84765625,8.07421875,1,0,0,rectangle,14.84765625,8.07421875,1,0,0,14.84765625,8.07421875,1,0,0,0,140,140,25,1,,,,,,,,
,,,,,,,,,,,,,FF,,,,,,,,0.7335,,,,,,,,,,,,,,,,,,,,,,61035ccd030737a3d2a51a2d,61036868186d5af3e8769502,2021-07-29_22h48.46.656,Simcolourproject_2stim_asymm_v5,2020.2.10,MacIntel,60,61025ae37ef11b136ea224fe,,,,,,,,,674,72.7265625,31.015625,1,0,0,response1disk,,6,12.61328125,1.7109375,1,0,0,rectangle,12.61328125,1.7109375,1,0,0,12.61328125,1.7109375,1,0,0,0,141,141,4,1,,,,,,,,
,,,,,,,,,,,,,FF,,,,,,,,0.8178,,,,,,,,,,,,,,,,,,,,,,61035ccd030737a3d2a51a2d,61036868186d5af3e8769502,2021-07-29_22h48.46.656,Simcolourproject_2stim_asymm_v5,2020.2.10,MacIntel,60,61025ae37ef11b136ea224fe,,,,,,,,,1985,87.59765625,47.02734375,1,0,0,response1disk,,6,19.5625,6.16796875,1,0,0,rectangle,19.5625,6.16796875,1,0,0,19.5625,6.16796875,1,0,0,0,142,142,104,1,,,,,,,,
,,,,,,,,,,,,,FF,,,,,,,,0.8674,,,,,,,,,,,,,,,,,,,,,,61035ccd030737a3d2a51a2d,61036868186d5af3e8769502,2021-07-29_22h48.46.656,Simcolourproject_2stim_asymm_v5,2020.2.10,MacIntel,60,61025ae37ef11b136ea224fe,,,,,,,,,3619,89.25,52.61328125,1,0,0,response1disk,,6,9.08984375,12.234375,1,0,0,rectangle,9.08984375,12.234375,1,0,0,9.08984375,12.234375,1,0,0,0,143,143,139,1,,,,,,,,
,,,,,,,,,,,,,FF,,,,,,,,2.0832,,,,,,,,,,,,,,,,,,,,,,61035ccd030737a3d2a51a2d,61036868186d5af3e8769502,2021-07-29_22h48.46.656,Simcolourproject_2stim_asymm_v5,2020.2.10,MacIntel,60,61025ae37ef11b136ea224fe,,,,,,,,,1323,90.046875,-45.19921875,1,0,0,response3disk,,5,20.28515625,-5.765625,1,0,0,rectangle,20.28515625,-5.765625,1,0,0,20.28515625,-5.765625,1,0,0,0,144,144,83,1,,,,,,,,
,,,,,,,,,,,,,FF,,,,,,,,0.9166,,,,,,,,,,,,,,,,,,,,,,61035ccd030737a3d2a51a2d,61036868186d5af3e8769502,2021-07-29_22h48.46.656,Simcolourproject_2stim_asymm_v5,2020.2.10,MacIntel,60,61025ae37ef11b136ea224fe,,,,,,,,,606,-48.51171875,-91.94921875,1,0,0,response5disk,,3,18.3125,16.0859375,1,0,0,rectangle,18.3125,16.0859375,1,0,0,18.3125,16.0859375,1,0,0,0,145,145,153,1,,,,,,,,
,,,,,,,,,,,,,FF,,,,,,,,1.1015,,,,,,,,,,,,,,,,,,,,,,61035ccd030737a3d2a51a2d,61036868186d5af3e8769502,2021-07-29_22h48.46.656,Simcolourproject_2stim_asymm_v5,2020.2.10,MacIntel,60,61025ae37ef11b136ea224fe,,,,,,,,,2209,94.1015625,54.6171875,1,0,0,response1disk,,6,-11.01953125,-7.2109375,1,0,0,rectangle,-11.01953125,-7.2109375,1,0,0,-11.01953125,-7.2109375,1,0,0,0,146,146,126,1,,,,,,,,
,,,,,,,,,,,,,FF,,,,,,,,0.9335,,,,,,,,,,,,,,,,,,,,,,61035ccd030737a3d2a51a2d,61036868186d5af3e8769502,2021-07-29_22h48.46.656,Simcolourproject_2stim_asymm_v5,2020.2.10,MacIntel,60,61025ae37ef11b136ea224fe,,,,,,,,,2658,46.3671875,-77.99609375,1,0,0,response3disk,,4,15.72265625,-0.07421875,1,0,0,rectangle,15.72265625,-0.07421875,1,0,0,15.72265625,-0.07421875,1,0,0,0,147,147,79,1,,,,,,,,
,,,,,,,,,,,,,FF,,,,,,,,0.9003,,,,,,,,,,,,,,,,,,,,,,61035ccd030737a3d2a51a2d,61036868186d5af3e8769502,2021-07-29_22h48.46.656,Simcolourproject_2stim_asymm_v5,2020.2.10,MacIntel,60,61025ae37ef11b136ea224fe,,,,,,,,,2757,34.43359375,56.73046875,1,0,0,response1disk,,7,-4.33984375,2.640625,1,0,0,rectangle,-4.33984375,2.640625,1,0,0,-4.33984375,2.640625,1,0,0,0,148,148,45,1,,,,,,,,
,,,,,,,,,,,,,FF,,,,,,,,0.8335,,,,,,,,,,,,,,,,,,,,,,61035ccd030737a3d2a51a2d,61036868186d5af3e8769502,2021-07-29_22h48.46.656,Simcolourproject_2stim_asymm_v5,2020.2.10,MacIntel,60,61025ae37ef11b136ea224fe,,,,,,,,,601,40.19140625,72.77734375,1,0,0,response1disk,,7,3.4453125,7.53125,1,0,0,rectangle,3.4453125,7.53125,1,0,0,3.4453125,7.53125,1,0,0,0,149,149,151,1,,,,,,,,
,,,,,,,,,,,,,FF,,,,,,,,1.2502,,,,,,,,,,,,,,,,,,,,,,61035ccd030737a3d2a51a2d,61036868186d5af3e8769502,2021-07-29_22h48.46.656,Simcolourproject_2stim_asymm_v5,2020.2.10,MacIntel,60,61025ae37ef11b136ea224fe,,,,,,,,,3270,56.15625,84.4140625,1,0,0,response1disk,,7,15.07421875,6.765625,1,0,0,rectangle,15.07421875,6.765625,1,0,0,15.07421875,6.765625,1,0,0,0,150,150,129,1,,,,,,,,
,,,,,,,,,,,,,FF,,,,,,,,0.7665,,,,,,,,,,,,,,,,,,,,,,61035ccd030737a3d2a51a2d,61036868186d5af3e8769502,2021-07-29_22h48.46.656,Simcolourproject_2stim_asymm_v5,2020.2.10,MacIntel,60,61025ae37ef11b136ea224fe,,,,,,,,,194,-29.5078125,-71.01953125,1,0,0,response5disk,,3,14.78125,15.6328125,1,0,0,rectangle,14.78125,15.6328125,1,0,0,14.78125,15.6328125,1,0,0,0,151,151,31,1,,,,,,,,
,,,,,,,,,,,,,FF,,,,,,,,0.6993,,,,,,,,,,,,,,,,,,,,,,61035ccd030737a3d2a51a2d,61036868186d5af3e8769502,2021-07-29_22h48.46.656,Simcolourproject_2stim_asymm_v5,2020.2.10,MacIntel,60,61025ae37ef11b136ea224fe,,,,,,,,,1700,51.03515625,102.609375,1,0,0,response1disk,,7,-1.4609375,12.00390625,1,0,0,rectangle,-1.4609375,12.00390625,1,0,0,-1.4609375,12.00390625,1,0,0,0,152,152,158,1,,,,,,,,
,,,,,,,,,,,,,FF,,,,,,,,0.7836,,,,,,,,,,,,,,,,,,,,,,61035ccd030737a3d2a51a2d,61036868186d5af3e8769502,2021-07-29_22h48.46.656,Simcolourproject_2stim_asymm_v5,2020.2.10,MacIntel,60,61025ae37ef11b136ea224fe,,,,,,,,,2456,40.421875,82.81640625,1,0,0,response1disk,,7,3.0625,-8.36328125,1,0,0,rectangle,3.0625,-8.36328125,1,0,0,3.0625,-8.36328125,1,0,0,0,153,153,132,1,,,,,,,,
,,,,,,,,,,,,,FF,,,,,,,,2.234,,,,,,,,,,,,,,,,,,,,,,61035ccd030737a3d2a51a2d,61036868186d5af3e8769502,2021-07-29_22h48.46.656,Simcolourproject_2stim_asymm_v5,2020.2.10,MacIntel,60,61025ae37ef11b136ea224fe,,,,,,,,,1558,98.125,-38.5859375,1,0,0,response3disk,,5,18,-3.53515625,1,0,0,rectangle,18,-3.53515625,1,0,0,18,-3.53515625,1,0,0,0,154,154,103,1,,,,,,,,
,,,,,,,,,,,,,FF,,,,,,,,1.8333,,,,,,,,,,,,,,,,,,,,,,61035ccd030737a3d2a51a2d,61036868186d5af3e8769502,2021-07-29_22h48.46.656,Simcolourproject_2stim_asymm_v5,2020.2.10,MacIntel,60,61025ae37ef11b136ea224fe,,,,,,,,,2072,88.41015625,34.46875,1,0,0,response1disk,,6,26.95703125,8.92578125,1,0,0,rectangle,26.95703125,8.92578125,1,0,0,26.95703125,8.92578125,1,0,0,0,155,155,101,1,,,,,,,,
,,,,,,,,,,,,,FF,,,,,,,,3.3662,,,,,,,,,,,,,,,,,,,,,,61035ccd030737a3d2a51a2d,61036868186d5af3e8769502,2021-07-29_22h48.46.656,Simcolourproject_2stim_asymm_v5,2020.2.10,MacIntel,60,61025ae37ef11b136ea224fe,,,,,,,,,945,87.08203125,-39.41015625,1,0,0,response3disk,,5,13.12890625,-9.43359375,1,0,0,rectangle,13.12890625,-9.43359375,1,0,0,13.12890625,-9.43359375,1,0,0,0,156,156,134,1,,,,,,,,
,,,,,,,,,,,,,FF,,,,,,,,1.2832,,,,,,,,,,,,,,,,,,,,,,61035ccd030737a3d2a51a2d,61036868186d5af3e8769502,2021-07-29_22h48.46.656,Simcolourproject_2stim_asymm_v5,2020.2.10,MacIntel,60,61025ae37ef11b136ea224fe,,,,,,,,,1863,86.01953125,25.93359375,1,0,0,response1disk,,6,15.77734375,-1.91796875,1,0,0,rectangle,15.77734375,-1.91796875,1,0,0,15.77734375,-1.91796875,1,0,0,0,157,157,97,1,,,,,,,,
,,,,,,,,,,,,,FF,,,,,,,,2.633,,,,,,,,,,,,,,,,,,,,,,61035ccd030737a3d2a51a2d,61036868186d5af3e8769502,2021-07-29_22h48.46.656,Simcolourproject_2stim_asymm_v5,2020.2.10,MacIntel,60,61025ae37ef11b136ea224fe,,,,,,,,,362,110.1796875,-60.64453125,1,0,0,response3disk,,5,9.33203125,4.703125,1,0,0,rectangle,9.33203125,4.703125,1,0,0,9.33203125,4.703125,1,0,0,0,158,158,71,1,,,,,,,,
,,,,,,,,,,,,,FF,,,,,,,,4.7003,,,,,,,,,,,,,,,,,,,,,,61035ccd030737a3d2a51a2d,61036868186d5af3e8769502,2021-07-29_22h48.46.656,Simcolourproject_2stim_asymm_v5,2020.2.10,MacIntel,60,61025ae37ef11b136ea224fe,,,,,,,,,1379,60.515625,-22.3828125,1,0,0,response3disk,,5,-5.4609375,1.9140625,1,0,0,rectangle,-5.4609375,1.9140625,1,0,0,-5.4609375,1.9140625,1,0,0,0,159,159,109,1,,,,,,,,
,,,,,,,,,,,,,FF,,,,,,,,2.3506,,,,,,,,,,,,,,,,,,,,,,61035ccd030737a3d2a51a2d,61036868186d5af3e8769502,2021-07-29_22h48.46.656,Simcolourproject_2stim_asymm_v5,2020.2.10,MacIntel,60,61025ae37ef11b136ea224fe,,,,,,,,,2475,32.3671875,-107.4375,1,0,0,response3disk,,4,-5.23046875,-12.5234375,1,0,0,rectangle,-38.29296875,-89.47265625,1,0,0,-16.19921875,-1.0234375,1,0,0,1,0,160,70,1,,response5disk_3,TRUE,3,3,"[237,121,65,12,41,89,238,299,99,161,99,300,110,287,314,216,238,125,276,264]",1.649,rectangle
,,,,,,,,,,,,,FF,,,,,,,,1.1657,,,,,,,,,,,,,,,,,,,,,,61035ccd030737a3d2a51a2d,61036868186d5af3e8769502,2021-07-29_22h48.46.656,Simcolourproject_2stim_asymm_v5,2020.2.10,MacIntel,60,61025ae37ef11b136ea224fe,,,,,,,,,3230,61.234375,87.96484375,1,0,0,response1disk,,7,5.6640625,1.36328125,1,0,0,rectangle,5.6640625,1.36328125,1,0,0,5.6640625,1.36328125,1,0,0,1,1,161,139,1,,,,,,,,
,,,,,,,,,,,,,FF,,,,,,,,1.0336,,,,,,,,,,,,,,,,,,,,,,61035ccd030737a3d2a51a2d,61036868186d5af3e8769502,2021-07-29_22h48.46.656,Simcolourproject_2stim_asymm_v5,2020.2.10,MacIntel,60,61025ae37ef11b136ea224fe,,,,,,,,,619,-79.7109375,-39.1953125,1,0,0,response5disk,,2,-6.17578125,-9.04296875,1,0,0,rectangle,-6.17578125,-9.04296875,1,0,0,-6.17578125,-9.04296875,1,0,0,1,2,162,109,1,,,,,,,,
,,,,,,,,,,,,,FF,,,,,,,,0.8995,,,,,,,,,,,,,,,,,,,,,,61035ccd030737a3d2a51a2d,61036868186d5af3e8769502,2021-07-29_22h48.46.656,Simcolourproject_2stim_asymm_v5,2020.2.10,MacIntel,60,61025ae37ef11b136ea224fe,,,,,,,,,2817,69.2734375,-39.3203125,1,0,0,response3disk,,5,10.13671875,-2.73828125,1,0,0,rectangle,10.13671875,-2.73828125,1,0,0,10.13671875,-2.73828125,1,0,0,1,3,163,62,1,,,,,,,,
,,,,,,,,,,,,,FF,,,,,,,,1.1172,,,,,,,,,,,,,,,,,,,,,,61035ccd030737a3d2a51a2d,61036868186d5af3e8769502,2021-07-29_22h48.46.656,Simcolourproject_2stim_asymm_v5,2020.2.10,MacIntel,60,61025ae37ef11b136ea224fe,,,,,,,,,1608,-83.83203125,-29.9921875,1,0,0,response5disk,,2,-25.95703125,-12.73046875,1,0,0,rectangle,-25.95703125,-12.73046875,1,0,0,-25.95703125,-12.73046875,1,0,0,1,4,164,40,1,,,,,,,,
,,,,,,,,,,,,,FF,,,,,,,,0.9333,,,,,,,,,,,,,,,,,,,,,,61035ccd030737a3d2a51a2d,61036868186d5af3e8769502,2021-07-29_22h48.46.656,Simcolourproject_2stim_asymm_v5,2020.2.10,MacIntel,60,61025ae37ef11b136ea224fe,,,,,,,,,422,85.57421875,35.0234375,1,0,0,response1disk,,6,30.1953125,5.8515625,1,0,0,rectangle,30.1953125,5.8515625,1,0,0,30.1953125,5.8515625,1,0,0,1,5,165,28,1,,,,,,,,
,,,,,,,,,,,,,FF,,,,,,,,1.0836,,,,,,,,,,,,,,,,,,,,,,61035ccd030737a3d2a51a2d,61036868186d5af3e8769502,2021-07-29_22h48.46.656,Simcolourproject_2stim_asymm_v5,2020.2.10,MacIntel,60,61025ae37ef11b136ea224fe,,,,,,,,,2556,-20.515625,-98.73046875,1,0,0,response5disk,,3,-4.3046875,-7.86328125,1,0,0,rectangle,-4.3046875,-7.86328125,1,0,0,-4.3046875,-7.86328125,1,0,0,1,6,166,29,1,,,,,,,,
,,,,,,,,,,,,,FF,,,,,,,,0.9003,,,,,,,,,,,,,,,,,,,,,,61035ccd030737a3d2a51a2d,61036868186d5af3e8769502,2021-07-29_22h48.46.656,Simcolourproject_2stim_asymm_v5,2020.2.10,MacIntel,60,61025ae37ef11b136ea224fe,,,,,,,,,1096,40.51953125,65.609375,1,0,0,response1disk,,7,17.8671875,7.484375,1,0,0,rectangle,17.8671875,7.484375,1,0,0,17.8671875,7.484375,1,0,0,1,7,167,104,1,,,,,,,,
,,,,,,,,,,,,,FF,,,,,,,,1.7665,,,,,,,,,,,,,,,,,,,,,,61035ccd030737a3d2a51a2d,61036868186d5af3e8769502,2021-07-29_22h48.46.656,Simcolourproject_2stim_asymm_v5,2020.2.10,MacIntel,60,61025ae37ef11b136ea224fe,,,,,,,,,1959,-82.46875,-49.74609375,1,0,0,response5disk,,2,2.87109375,-14.38671875,1,0,0,rectangle,2.87109375,-14.38671875,1,0,0,2.87109375,-14.38671875,1,0,0,1,8,168,21,1,,,,,,,,
,,,,,,,,,,,,,FF,,,,,,,,0.8507,,,,,,,,,,,,,,,,,,,,,,61035ccd030737a3d2a51a2d,61036868186d5af3e8769502,2021-07-29_22h48.46.656,Simcolourproject_2stim_asymm_v5,2020.2.10,MacIntel,60,61025ae37ef11b136ea224fe,,,,,,,,,1085,38.68359375,91.99609375,1,0,0,response1disk,,7,-0.703125,-2.8671875,1,0,0,rectangle,-0.703125,-2.8671875,1,0,0,-0.703125,-2.8671875,1,0,0,1,9,169,99,1,,,,,,,,
,,,,,,,,,,,,,FF,,,,,,,,2.0842,,,,,,,,,,,,,,,,,,,,,,61035ccd030737a3d2a51a2d,61036868186d5af3e8769502,2021-07-29_22h48.46.656,Simcolourproject_2stim_asymm_v5,2020.2.10,MacIntel,60,61025ae37ef11b136ea224fe,,,,,,,,,3356,92.33203125,39.7109375,1,0,0,response1disk,,6,-4.21484375,-3.26171875,1,0,0,rectangle,-4.21484375,-3.26171875,1,0,0,-4.21484375,-3.26171875,1,0,0,1,10,170,23,1,,,,,,,,
,,,,,,,,,,,,,FF,,,,,,,,5.9663,,,,,,,,,,,,,,,,,,,,,,61035ccd030737a3d2a51a2d,61036868186d5af3e8769502,2021-07-29_22h48.46.656,Simcolourproject_2stim_asymm_v5,2020.2.10,MacIntel,60,61025ae37ef11b136ea224fe,,,,,,,,,4027,-57.890625,-84.62109375,1,0,0,response5disk,,3,-0.87109375,-4.5078125,1,0,0,rectangle,-0.87109375,-4.5078125,1,0,0,-0.87109375,-4.5078125,1,0,0,1,11,171,127,1,,,,,,,,
,,,,,,,,,,,,,FF,,,,,,,,2.1682,,,,,,,,,,,,,,,,,,,,,,61035ccd030737a3d2a51a2d,61036868186d5af3e8769502,2021-07-29_22h48.46.656,Simcolourproject_2stim_asymm_v5,2020.2.10,MacIntel,60,61025ae37ef11b136ea224fe,,,,,,,,,1623,69.21875,-37.09375,1,0,0,response3disk,,5,-5.01953125,-3.42578125,1,0,0,rectangle,-5.01953125,-3.42578125,1,0,0,-5.01953125,-3.42578125,1,0,0,1,12,172,125,1,,,,,,,,
,,,,,,,,,,,,,FF,,,,,,,,1.9168,,,,,,,,,,,,,,,,,,,,,,61035ccd030737a3d2a51a2d,61036868186d5af3e8769502,2021-07-29_22h48.46.656,Simcolourproject_2stim_asymm_v5,2020.2.10,MacIntel,60,61025ae37ef11b136ea224fe,,,,,,,,,3059,-48.59765625,-95.93359375,1,0,0,response5disk,,3,-1.12890625,4.64453125,1,0,0,rectangle,-1.12890625,4.64453125,1,0,0,-1.12890625,4.64453125,1,0,0,1,13,173,25,1,,,,,,,,
,,,,,,,,,,,,,FF,,,,,,,,0.8003,,,,,,,,,,,,,,,,,,,,,,61035ccd030737a3d2a51a2d,61036868186d5af3e8769502,2021-07-29_22h48.46.656,Simcolourproject_2stim_asymm_v5,2020.2.10,MacIntel,60,61025ae37ef11b136ea224fe,,,,,,,,,933,51.3515625,64.94140625,1,0,0,response1disk,,7,12.91796875,-3.0859375,1,0,0,rectangle,12.91796875,-3.0859375,1,0,0,12.91796875,-3.0859375,1,0,0,1,14,174,34,1,,,,,,,,
,,,,,,,,,,,,,FF,,,,,,,,2.1659,,,,,,,,,,,,,,,,,,,,,,61035ccd030737a3d2a51a2d,61036868186d5af3e8769502,2021-07-29_22h48.46.656,Simcolourproject_2stim_asymm_v5,2020.2.10,MacIntel,60,61025ae37ef11b136ea224fe,,,,,,,,,3721,61.41796875,-98.02734375,1,0,0,response3disk,,4,17.76171875,-3.6953125,1,0,0,rectangle,17.76171875,-3.6953125,1,0,0,17.76171875,-3.6953125,1,0,0,1,15,175,138,1,,,,,,,,
,,,,,,,,,,,,,FF,,,,,,,,1.5835,,,,,,,,,,,,,,,,,,,,,,61035ccd030737a3d2a51a2d,61036868186d5af3e8769502,2021-07-29_22h48.46.656,Simcolourproject_2stim_asymm_v5,2020.2.10,MacIntel,60,61025ae37ef11b136ea224fe,,,,,,,,,1328,94.81640625,-42.0859375,1,0,0,response3disk,,5,8.87109375,-3.55859375,1,0,0,rectangle,8.87109375,-3.55859375,1,0,0,8.87109375,-3.55859375,1,0,0,1,16,176,89,1,,,,,,,,
,,,,,,,,,,,,,FF,,,,,,,,1.3328,,,,,,,,,,,,,,,,,,,,,,61035ccd030737a3d2a51a2d,61036868186d5af3e8769502,2021-07-29_22h48.46.656,Simcolourproject_2stim_asymm_v5,2020.2.10,MacIntel,60,61025ae37ef11b136ea224fe,,,,,,,,,3790,81.5234375,-46.4765625,1,0,0,response3disk,,5,-1.16796875,4.3046875,1,0,0,rectangle,-1.16796875,4.3046875,1,0,0,-1.16796875,4.3046875,1,0,0,1,17,177,51,1,,,,,,,,
,,,,,,,,,,,,,FF,,,,,,,,1.3497,,,,,,,,,,,,,,,,,,,,,,61035ccd030737a3d2a51a2d,61036868186d5af3e8769502,2021-07-29_22h48.46.656,Simcolourproject_2stim_asymm_v5,2020.2.10,MacIntel,60,61025ae37ef11b136ea224fe,,,,,,,,,2180,-51.20703125,-63.72265625,1,0,0,response5disk,,3,-3.76171875,-8.6875,1,0,0,rectangle,-3.76171875,-8.6875,1,0,0,-3.76171875,-8.6875,1,0,0,1,18,178,119,1,,,,,,,,
,,,,,,,,,,,,,FF,,,,,,,,1.0999,,,,,,,,,,,,,,,,,,,,,,61035ccd030737a3d2a51a2d,61036868186d5af3e8769502,2021-07-29_22h48.46.656,Simcolourproject_2stim_asymm_v5,2020.2.10,MacIntel,60,61025ae37ef11b136ea224fe,,,,,,,,,787,-40.1328125,-83.85546875,1,0,0,response5disk,,3,12.0625,-4.47265625,1,0,0,rectangle,12.0625,-4.47265625,1,0,0,12.0625,-4.47265625,1,0,0,1,19,179,31,1,,,,,,,,
,,,,,,,,,,,,,FF,,,,,,,,1.0668,,,,,,,,,,,,,,,,,,,,,,61035ccd030737a3d2a51a2d,61036868186d5af3e8769502,2021-07-29_22h48.46.656,Simcolourproject_2stim_asymm_v5,2020.2.10,MacIntel,60,61025ae37ef11b136ea224fe,,,,,,,,,2717,31.19140625,-41.515625,1,0,0,response3disk,,4,5.61328125,-2.98828125,1,0,0,rectangle,5.61328125,-2.98828125,1,0,0,5.61328125,-2.98828125,1,0,0,1,20,180,150,1,,,,,,,,
,,,,,,,,,,,,,FF,,,,,,,,1.183,,,,,,,,,,,,,,,,,,,,,,61035ccd030737a3d2a51a2d,61036868186d5af3e8769502,2021-07-29_22h48.46.656,Simcolourproject_2stim_asymm_v5,2020.2.10,MacIntel,60,61025ae37ef11b136ea224fe,,,,,,,,,3497,86.98046875,44.55078125,1,0,0,response1disk,,6,16.34765625,-7.03125,1,0,0,rectangle,16.34765625,-7.03125,1,0,0,16.34765625,-7.03125,1,0,0,1,21,181,1,1,,,,,,,,
,,,,,,,,,,,,,FF,,,,,,,,1.2331,,,,,,,,,,,,,,,,,,,,,,61035ccd030737a3d2a51a2d,61036868186d5af3e8769502,2021-07-29_22h48.46.656,Simcolourproject_2stim_asymm_v5,2020.2.10,MacIntel,60,61025ae37ef11b136ea224fe,,,,,,,,,260,-83.47265625,-32.265625,1,0,0,response5disk,,2,3.54296875,-4.14453125,1,0,0,rectangle,3.54296875,-4.14453125,1,0,0,3.54296875,-4.14453125,1,0,0,1,22,182,113,1,,,,,,,,
,,,,,,,,,,,,,FF,,,,,,,,1.2168,,,,,,,,,,,,,,,,,,,,,,61035ccd030737a3d2a51a2d,61036868186d5af3e8769502,2021-07-29_22h48.46.656,Simcolourproject_2stim_asymm_v5,2020.2.10,MacIntel,60,61025ae37ef11b136ea224fe,,,,,,,,,18,31,-74.28125,1,0,0,response3disk,,4,-3.1328125,-2.1796875,1,0,0,rectangle,-3.1328125,-2.1796875,1,0,0,-3.1328125,-2.1796875,1,0,0,1,23,183,131,1,,,,,,,,
,,,,,,,,,,,,,FF,,,,,,,,1.7659,,,,,,,,,,,,,,,,,,,,,,61035ccd030737a3d2a51a2d,61036868186d5af3e8769502,2021-07-29_22h48.46.656,Simcolourproject_2stim_asymm_v5,2020.2.10,MacIntel,60,61025ae37ef11b136ea224fe,,,,,,,,,3226,86.87109375,62.80078125,1,0,0,response1disk,,6,27.91796875,5.84375,1,0,0,rectangle,27.91796875,5.84375,1,0,0,27.91796875,5.84375,1,0,0,1,24,184,50,1,,,,,,,,
,,,,,,,,,,,,,FF,,,,,,,,1.751,,,,,,,,,,,,,,,,,,,,,,61035ccd030737a3d2a51a2d,61036868186d5af3e8769502,2021-07-29_22h48.46.656,Simcolourproject_2stim_asymm_v5,2020.2.10,MacIntel,60,61025ae37ef11b136ea224fe,,,,,,,,,2758,81.08203125,36.1796875,1,0,0,response1disk,,6,-6.9375,5.6484375,1,0,0,rectangle,-6.9375,5.6484375,1,0,0,-6.9375,5.6484375,1,0,0,1,25,185,11,1,,,,,,,,
,,,,,,,,,,,,,FF,,,,,,,,2.8175,,,,,,,,,,,,,,,,,,,,,,61035ccd030737a3d2a51a2d,61036868186d5af3e8769502,2021-07-29_22h48.46.656,Simcolourproject_2stim_asymm_v5,2020.2.10,MacIntel,60,61025ae37ef11b136ea224fe,,,,,,,,,632,-35.1328125,-88.265625,1,0,0,response5disk,,3,-13.3125,-6.6796875,1,0,0,rectangle,-13.3125,-6.6796875,1,0,0,-13.3125,-6.6796875,1,0,0,1,26,186,126,1,,,,,,,,
,,,,,,,,,,,,,FF,,,,,,,,0.7997,,,,,,,,,,,,,,,,,,,,,,61035ccd030737a3d2a51a2d,61036868186d5af3e8769502,2021-07-29_22h48.46.656,Simcolourproject_2stim_asymm_v5,2020.2.10,MacIntel,60,61025ae37ef11b136ea224fe,,,,,,,,,3045,-42.20703125,76.01953125,1,0,0,response7disk,,0,-13.0703125,-1.390625,1,0,0,rectangle,-13.0703125,-1.390625,1,0,0,-13.0703125,-1.390625,1,0,0,1,27,187,115,1,,,,,,,,
,,,,,,,,,,,,,FF,,,,,,,,1.0679,,,,,,,,,,,,,,,,,,,,,,61035ccd030737a3d2a51a2d,61036868186d5af3e8769502,2021-07-29_22h48.46.656,Simcolourproject_2stim_asymm_v5,2020.2.10,MacIntel,60,61025ae37ef11b136ea224fe,,,,,,,,,3319,94.46484375,48.4453125,1,0,0,response1disk,,6,29.40625,3.26171875,1,0,0,rectangle,29.40625,3.26171875,1,0,0,29.40625,3.26171875,1,0,0,1,28,188,144,1,,,,,,,,
,,,,,,,,,,,,,FF,,,,,,,,1.5487,,,,,,,,,,,,,,,,,,,,,,61035ccd030737a3d2a51a2d,61036868186d5af3e8769502,2021-07-29_22h48.46.656,Simcolourproject_2stim_asymm_v5,2020.2.10,MacIntel,60,61025ae37ef11b136ea224fe,,,,,,,,,2275,100.9296875,-25.17578125,1,0,0,response3disk,,5,13.3671875,2.26171875,1,0,0,rectangle,13.3671875,2.26171875,1,0,0,13.3671875,2.26171875,1,0,0,1,29,189,78,1,,,,,,,,
,,,,,,,,,,,,,FF,,,,,,,,1.4175,,,,,,,,,,,,,,,,,,,,,,61035ccd030737a3d2a51a2d,61036868186d5af3e8769502,2021-07-29_22h48.46.656,Simcolourproject_2stim_asymm_v5,2020.2.10,MacIntel,60,61025ae37ef11b136ea224fe,,,,,,,,,4232,96.01953125,66.6015625,1,0,0,response1disk,,6,-3.57421875,8.55078125,1,0,0,rectangle,-3.57421875,8.55078125,1,0,0,-3.57421875,8.55078125,1,0,0,1,30,190,60,1,,,,,,,,
,,,,,,,,,,,,,FF,,,,,,,,2.0175,,,,,,,,,,,,,,,,,,,,,,61035ccd030737a3d2a51a2d,61036868186d5af3e8769502,2021-07-29_22h48.46.656,Simcolourproject_2stim_asymm_v5,2020.2.10,MacIntel,60,61025ae37ef11b136ea224fe,,,,,,,,,2595,55.16015625,-97.94921875,1,0,0,response3disk,,4,12.4375,-10.984375,1,0,0,rectangle,12.4375,-10.984375,1,0,0,12.4375,-10.984375,1,0,0,1,31,191,128,1,,,,,,,,
,,,,,,,,,,,,,FF,,,,,,,,3.9329,,,,,,,,,,,,,,,,,,,,,,61035ccd030737a3d2a51a2d,61036868186d5af3e8769502,2021-07-29_22h48.46.656,Simcolourproject_2stim_asymm_v5,2020.2.10,MacIntel,60,61025ae37ef11b136ea224fe,,,,,,,,,1140,79.5625,-39.00390625,1,0,0,response3disk,,5,19.15234375,-2.42578125,1,0,0,rectangle,19.15234375,-2.42578125,1,0,0,19.15234375,-2.42578125,1,0,0,1,32,192,158,1,,,,,,,,
,,,,,,,,,,,,,FF,,,,,,,,2.2831,,,,,,,,,,,,,,,,,,,,,,61035ccd030737a3d2a51a2d,61036868186d5af3e8769502,2021-07-29_22h48.46.656,Simcolourproject_2stim_asymm_v5,2020.2.10,MacIntel,60,61025ae37ef11b136ea224fe,,,,,,,,,1708,69.82421875,36.07421875,1,0,0,response1disk,,6,18.0078125,4.1015625,1,0,0,rectangle,18.0078125,4.1015625,1,0,0,18.0078125,4.1015625,1,0,0,1,33,193,61,1,,,,,,,,
,,,,,,,,,,,,,FF,,,,,,,,1.9672,,,,,,,,,,,,,,,,,,,,,,61035ccd030737a3d2a51a2d,61036868186d5af3e8769502,2021-07-29_22h48.46.656,Simcolourproject_2stim_asymm_v5,2020.2.10,MacIntel,60,61025ae37ef11b136ea224fe,,,,,,,,,2232,-78.91796875,-43.6484375,1,0,0,response5disk,,2,-0.5078125,-2.5625,1,0,0,rectangle,-0.5078125,-2.5625,1,0,0,-0.5078125,-2.5625,1,0,0,1,34,194,64,1,,,,,,,,
,,,,,,,,,,,,,FF,,,,,,,,1.099,,,,,,,,,,,,,,,,,,,,,,61035ccd030737a3d2a51a2d,61036868186d5af3e8769502,2021-07-29_22h48.46.656,Simcolourproject_2stim_asymm_v5,2020.2.10,MacIntel,60,61025ae37ef11b136ea224fe,,,,,,,,,1768,100.9453125,-48.24609375,1,0,0,response3disk,,5,-9.08203125,6.953125,1,0,0,rectangle,-9.08203125,6.953125,1,0,0,-9.08203125,6.953125,1,0,0,1,35,195,76,1,,,,,,,,
,,,,,,,,,,,,,FF,,,,,,,,1.267,,,,,,,,,,,,,,,,,,,,,,61035ccd030737a3d2a51a2d,61036868186d5af3e8769502,2021-07-29_22h48.46.656,Simcolourproject_2stim_asymm_v5,2020.2.10,MacIntel,60,61025ae37ef11b136ea224fe,,,,,,,,,3686,-37.375,-101.609375,1,0,0,response5disk,,3,10.53125,15.8359375,1,0,0,rectangle,10.53125,15.8359375,1,0,0,10.53125,15.8359375,1,0,0,1,36,196,129,1,,,,,,,,
,,,,,,,,,,,,,FF,,,,,,,,1.3835,,,,,,,,,,,,,,,,,,,,,,61035ccd030737a3d2a51a2d,61036868186d5af3e8769502,2021-07-29_22h48.46.656,Simcolourproject_2stim_asymm_v5,2020.2.10,MacIntel,60,61025ae37ef11b136ea224fe,,,,,,,,,1420,99.3125,-28.76953125,1,0,0,response3disk,,5,14.7734375,-2.1328125,1,0,0,rectangle,14.7734375,-2.1328125,1,0,0,14.7734375,-2.1328125,1,0,0,1,37,197,66,1,,,,,,,,
,,,,,,,,,,,,,FF,,,,,,,,0.8155,,,,,,,,,,,,,,,,,,,,,,61035ccd030737a3d2a51a2d,61036868186d5af3e8769502,2021-07-29_22h48.46.656,Simcolourproject_2stim_asymm_v5,2020.2.10,MacIntel,60,61025ae37ef11b136ea224fe,,,,,,,,,2866,101.1875,47.38671875,1,0,0,response1disk,,6,25.76171875,-7.0703125,1,0,0,rectangle,25.76171875,-7.0703125,1,0,0,25.76171875,-7.0703125,1,0,0,1,38,198,143,1,,,,,,,,
,,,,,,,,,,,,,FF,,,,,,,,1.0329,,,,,,,,,,,,,,,,,,,,,,61035ccd030737a3d2a51a2d,61036868186d5af3e8769502,2021-07-29_22h48.46.656,Simcolourproject_2stim_asymm_v5,2020.2.10,MacIntel,60,61025ae37ef11b136ea224fe,,,,,,,,,2830,81.85546875,-44.66015625,1,0,0,response3disk,,5,26.74609375,-9.77734375,1,0,0,rectangle,26.74609375,-9.77734375,1,0,0,26.74609375,-9.77734375,1,0,0,1,39,199,135,1,,,,,,,,
,,,,,,,,,,,,,FF,,,,,,,,1.9493,,,,,,,,,,,,,,,,,,,,,,61035ccd030737a3d2a51a2d,61036868186d5af3e8769502,2021-07-29_22h48.46.656,Simcolourproject_2stim_asymm_v5,2020.2.10,MacIntel,60,61025ae37ef11b136ea224fe,,,,,,,,,816,39.94921875,-99.3515625,1,0,0,response3disk,,4,-5.3984375,-2.73828125,1,0,0,rectangle,-5.3984375,-2.73828125,1,0,0,-5.3984375,-2.73828125,1,0,0,1,40,200,9,1,,,,,,,,
,,,,,,,,,,,,,FF,,,,,,,,0.9338,,,,,,,,,,,,,,,,,,,,,,61035ccd030737a3d2a51a2d,61036868186d5af3e8769502,2021-07-29_22h48.46.656,Simcolourproject_2stim_asymm_v5,2020.2.10,MacIntel,60,61025ae37ef11b136ea224fe,,,,,,,,,534,45.15625,-77.84765625,1,0,0,response3disk,,4,9.4296875,-7.4140625,1,0,0,rectangle,9.4296875,-7.4140625,1,0,0,9.4296875,-7.4140625,1,0,0,1,41,201,145,1,,,,,,,,
,,,,,,,,,,,,,FF,,,,,,,,1.383,,,,,,,,,,,,,,,,,,,,,,61035ccd030737a3d2a51a2d,61036868186d5af3e8769502,2021-07-29_22h48.46.656,Simcolourproject_2stim_asymm_v5,2020.2.10,MacIntel,60,61025ae37ef11b136ea224fe,,,,,,,,,2404,82.6875,-25.15234375,1,0,0,response3disk,,5,5.5,9.8359375,1,0,0,rectangle,5.5,9.8359375,1,0,0,5.5,9.8359375,1,0,0,1,42,202,47,1,,,,,,,,
,,,,,,,,,,,,,FF,,,,,,,,1.882,,,,,,,,,,,,,,,,,,,,,,61035ccd030737a3d2a51a2d,61036868186d5af3e8769502,2021-07-29_22h48.46.656,Simcolourproject_2stim_asymm_v5,2020.2.10,MacIntel,60,61025ae37ef11b136ea224fe,,,,,,,,,406,98.23828125,-49.65625,1,0,0,response3disk,,5,23.04296875,-14.13671875,1,0,0,rectangle,23.04296875,-14.13671875,1,0,0,23.04296875,-14.13671875,1,0,0,1,43,203,68,1,,,,,,,,
,,,,,,,,,,,,,FF,,,,,,,,1.5003,,,,,,,,,,,,,,,,,,,,,,61035ccd030737a3d2a51a2d,61036868186d5af3e8769502,2021-07-29_22h48.46.656,Simcolourproject_2stim_asymm_v5,2020.2.10,MacIntel,60,61025ae37ef11b136ea224fe,,,,,,,,,2138,36.09765625,102.3359375,1,0,0,response1disk,,7,5.30078125,-16.921875,1,0,0,rectangle,5.30078125,-16.921875,1,0,0,5.30078125,-16.921875,1,0,0,1,44,204,149,1,,,,,,,,
,,,,,,,,,,,,,FF,,,,,,,,1.2493,,,,,,,,,,,,,,,,,,,,,,61035ccd030737a3d2a51a2d,61036868186d5af3e8769502,2021-07-29_22h48.46.656,Simcolourproject_2stim_asymm_v5,2020.2.10,MacIntel,60,61025ae37ef11b136ea224fe,,,,,,,,,3228,83.12109375,35.87109375,1,0,0,response1disk,,6,11.64453125,2.9375,1,0,0,rectangle,11.64453125,2.9375,1,0,0,11.64453125,2.9375,1,0,0,1,45,205,82,1,,,,,,,,
,,,,,,,,,,,,,FF,,,,,,,,1.5008,,,,,,,,,,,,,,,,,,,,,,61035ccd030737a3d2a51a2d,61036868186d5af3e8769502,2021-07-29_22h48.46.656,Simcolourproject_2stim_asymm_v5,2020.2.10,MacIntel,60,61025ae37ef11b136ea224fe,,,,,,,,,731,61.59375,-105.7773438,1,0,0,response3disk,,4,-10.5078125,0.55078125,1,0,0,rectangle,-10.5078125,0.55078125,1,0,0,-10.5078125,0.55078125,1,0,0,1,46,206,36,1,,,,,,,,
,,,,,,,,,,,,,FF,,,,,,,,2.0667,,,,,,,,,,,,,,,,,,,,,,61035ccd030737a3d2a51a2d,61036868186d5af3e8769502,2021-07-29_22h48.46.656,Simcolourproject_2stim_asymm_v5,2020.2.10,MacIntel,60,61025ae37ef11b136ea224fe,,,,,,,,,2207,114.5078125,36.77734375,1,0,0,response1disk,,6,8.1796875,-2.38671875,1,0,0,rectangle,8.1796875,-2.38671875,1,0,0,8.1796875,-2.38671875,1,0,0,1,47,207,123,1,,,,,,,,
,,,,,,,,,,,,,FF,,,,,,,,2.3158,,,,,,,,,,,,,,,,,,,,,,61035ccd030737a3d2a51a2d,61036868186d5af3e8769502,2021-07-29_22h48.46.656,Simcolourproject_2stim_asymm_v5,2020.2.10,MacIntel,60,61025ae37ef11b136ea224fe,,,,,,,,,3185,85.31640625,-26.0625,1,0,0,response3disk,,5,-0.62890625,10.0390625,1,0,0,rectangle,-0.62890625,10.0390625,1,0,0,-0.62890625,10.0390625,1,0,0,1,48,208,130,1,,,,,,,,
,,,,,,,,,,,,,FF,,,,,,,,1.9826,,,,,,,,,,,,,,,,,,,,,,61035ccd030737a3d2a51a2d,61036868186d5af3e8769502,2021-07-29_22h48.46.656,Simcolourproject_2stim_asymm_v5,2020.2.10,MacIntel,60,61025ae37ef11b136ea224fe,,,,,,,,,3299,43.71875,-91.078125,1,0,0,response3disk,,4,5.3515625,2.32421875,1,0,0,rectangle,5.3515625,2.32421875,1,0,0,5.3515625,2.32421875,1,0,0,1,49,209,57,1,,,,,,,,
,,,,,,,,,,,,,FF,,,,,,,,1.416,,,,,,,,,,,,,,,,,,,,,,61035ccd030737a3d2a51a2d,61036868186d5af3e8769502,2021-07-29_22h48.46.656,Simcolourproject_2stim_asymm_v5,2020.2.10,MacIntel,60,61025ae37ef11b136ea224fe,,,,,,,,,1571,71.9453125,39.86328125,1,0,0,response1disk,,6,22.4609375,13.640625,1,0,0,rectangle,22.4609375,13.640625,1,0,0,22.4609375,13.640625,1,0,0,1,50,210,27,1,,,,,,,,
,,,,,,,,,,,,,FF,,,,,,,,1.0171,,,,,,,,,,,,,,,,,,,,,,61035ccd030737a3d2a51a2d,61036868186d5af3e8769502,2021-07-29_22h48.46.656,Simcolourproject_2stim_asymm_v5,2020.2.10,MacIntel,60,61025ae37ef11b136ea224fe,,,,,,,,,1815,-69.984375,27.06640625,1,0,0,response7disk,,1,-8.09765625,11.57421875,1,0,0,rectangle,-8.09765625,11.57421875,1,0,0,-8.09765625,11.57421875,1,0,0,1,51,211,112,1,,,,,,,,
,,,,,,,,,,,,,FF,,,,,,,,1.3006,,,,,,,,,,,,,,,,,,,,,,61035ccd030737a3d2a51a2d,61036868186d5af3e8769502,2021-07-29_22h48.46.656,Simcolourproject_2stim_asymm_v5,2020.2.10,MacIntel,60,61025ae37ef11b136ea224fe,,,,,,,,,1476,29.91796875,-94.0390625,1,0,0,response3disk,,4,-2.56640625,-4.79296875,1,0,0,rectangle,-2.56640625,-4.79296875,1,0,0,-2.56640625,-4.79296875,1,0,0,1,52,212,7,1,,,,,,,,
,,,,,,,,,,,,,FF,,,,,,,,1.8993,,,,,,,,,,,,,,,,,,,,,,61035ccd030737a3d2a51a2d,61036868186d5af3e8769502,2021-07-29_22h48.46.656,Simcolourproject_2stim_asymm_v5,2020.2.10,MacIntel,60,61025ae37ef11b136ea224fe,,,,,,,,,4319,95.08203125,35.93359375,1,0,0,response1disk,,6,24.07421875,-1.2265625,1,0,0,rectangle,24.07421875,-1.2265625,1,0,0,24.07421875,-1.2265625,1,0,0,1,53,213,14,1,,,,,,,,
,,,,,,,,,,,,,FF,,,,,,,,3.1503,,,,,,,,,,,,,,,,,,,,,,61035ccd030737a3d2a51a2d,61036868186d5af3e8769502,2021-07-29_22h48.46.656,Simcolourproject_2stim_asymm_v5,2020.2.10,MacIntel,60,61025ae37ef11b136ea224fe,,,,,,,,,2395,102.0585938,38.78125,1,0,0,response1disk,,6,20.55859375,11.4296875,1,0,0,rectangle,20.55859375,11.4296875,1,0,0,20.55859375,11.4296875,1,0,0,1,54,214,42,1,,,,,,,,
,,,,,,,,,,,,,FF,,,,,,,,0.8336,,,,,,,,,,,,,,,,,,,,,,61035ccd030737a3d2a51a2d,61036868186d5af3e8769502,2021-07-29_22h48.46.656,Simcolourproject_2stim_asymm_v5,2020.2.10,MacIntel,60,61025ae37ef11b136ea224fe,,,,,,,,,951,-24.52734375,-67.08203125,1,0,0,response5disk,,3,2.4765625,-3.3671875,1,0,0,rectangle,-119.8984375,24.06640625,1,0,0,-26.60546875,1.3359375,1,0,0,1,55,215,49,1,,response7disk_3,TRUE,1,1,"[237,121,65,12,41,89,238,299,99,161,99,300,110,287,314,216,238,125,276,264]",1.4506,rectangle
,,,,,,,,,,,,,FF,,,,,,,,1.9669,,,,,,,,,,,,,,,,,,,,,,61035ccd030737a3d2a51a2d,61036868186d5af3e8769502,2021-07-29_22h48.46.656,Simcolourproject_2stim_asymm_v5,2020.2.10,MacIntel,60,61025ae37ef11b136ea224fe,,,,,,,,,2625,98.4765625,76.984375,1,0,0,response1disk,,6,9.94921875,1.921875,1,0,0,rectangle,9.94921875,1.921875,1,0,0,9.94921875,1.921875,1,0,0,1,56,216,73,1,,,,,,,,
,,,,,,,,,,,,,FF,,,,,,,,0.9013,,,,,,,,,,,,,,,,,,,,,,61035ccd030737a3d2a51a2d,61036868186d5af3e8769502,2021-07-29_22h48.46.656,Simcolourproject_2stim_asymm_v5,2020.2.10,MacIntel,60,61025ae37ef11b136ea224fe,,,,,,,,,2495,88.32421875,40.83203125,1,0,0,response1disk,,6,-1.94140625,-16.68359375,1,0,0,rectangle,-1.94140625,-16.68359375,1,0,0,-1.94140625,-16.68359375,1,0,0,1,57,217,87,1,,,,,,,,
,,,,,,,,,,,,,FF,,,,,,,,1.6826,,,,,,,,,,,,,,,,,,,,,,61035ccd030737a3d2a51a2d,61036868186d5af3e8769502,2021-07-29_22h48.46.656,Simcolourproject_2stim_asymm_v5,2020.2.10,MacIntel,60,61025ae37ef11b136ea224fe,,,,,,,,,1713,85.90625,32.1484375,1,0,0,response1disk,,6,-3.9453125,-6.140625,1,0,0,rectangle,-3.9453125,-6.140625,1,0,0,-3.9453125,-6.140625,1,0,0,1,58,218,17,1,,,,,,,,
,,,,,,,,,,,,,FF,,,,,,,,2.1834,,,,,,,,,,,,,,,,,,,,,,61035ccd030737a3d2a51a2d,61036868186d5af3e8769502,2021-07-29_22h48.46.656,Simcolourproject_2stim_asymm_v5,2020.2.10,MacIntel,60,61025ae37ef11b136ea224fe,,,,,,,,,2575,93.53125,-35,1,0,0,response3disk,,5,24.2578125,-10.54296875,1,0,0,rectangle,24.2578125,-10.54296875,1,0,0,24.2578125,-10.54296875,1,0,0,1,59,219,133,1,,,,,,,,
,,,,,,,,,,,,,FF,,,,,,,,1.1998,,,,,,,,,,,,,,,,,,,,,,61035ccd030737a3d2a51a2d,61036868186d5af3e8769502,2021-07-29_22h48.46.656,Simcolourproject_2stim_asymm_v5,2020.2.10,MacIntel,60,61025ae37ef11b136ea224fe,,,,,,,,,1237,84.62890625,-35.421875,1,0,0,response3disk,,5,25.015625,-4.6640625,1,0,0,rectangle,25.015625,-4.6640625,1,0,0,25.015625,-4.6640625,1,0,0,1,60,220,52,1,,,,,,,,
,,,,,,,,,,,,,FF,,,,,,,,0.9003,,,,,,,,,,,,,,,,,,,,,,61035ccd030737a3d2a51a2d,61036868186d5af3e8769502,2021-07-29_22h48.46.656,Simcolourproject_2stim_asymm_v5,2020.2.10,MacIntel,60,61025ae37ef11b136ea224fe,,,,,,,,,4153,91.2890625,42.3046875,1,0,0,response1disk,,6,19.94921875,-5.21484375,1,0,0,rectangle,19.94921875,-5.21484375,1,0,0,19.94921875,-5.21484375,1,0,0,1,61,221,55,1,,,,,,,,
,,,,,,,,,,,,,FF,,,,,,,,2.168,,,,,,,,,,,,,,,,,,,,,,61035ccd030737a3d2a51a2d,61036868186d5af3e8769502,2021-07-29_22h48.46.656,Simcolourproject_2stim_asymm_v5,2020.2.10,MacIntel,60,61025ae37ef11b136ea224fe,,,,,,,,,2314,82.95703125,-46.54296875,1,0,0,response3disk,,5,15.73828125,-6.96484375,1,0,0,rectangle,15.73828125,-6.96484375,1,0,0,15.73828125,-6.96484375,1,0,0,1,62,222,91,1,,,,,,,,
,,,,,,,,,,,,,FF,,,,,,,,1.0997,,,,,,,,,,,,,,,,,,,,,,61035ccd030737a3d2a51a2d,61036868186d5af3e8769502,2021-07-29_22h48.46.656,Simcolourproject_2stim_asymm_v5,2020.2.10,MacIntel,60,61025ae37ef11b136ea224fe,,,,,,,,,2692,77.05859375,-34.46484375,1,0,0,response3disk,,5,19.328125,-1.50390625,1,0,0,rectangle,19.328125,-1.50390625,1,0,0,19.328125,-1.50390625,1,0,0,1,63,223,94,1,,,,,,,,
,,,,,,,,,,,,,FF,,,,,,,,1.2015,,,,,,,,,,,,,,,,,,,,,,61035ccd030737a3d2a51a2d,61036868186d5af3e8769502,2021-07-29_22h48.46.656,Simcolourproject_2stim_asymm_v5,2020.2.10,MacIntel,60,61025ae37ef11b136ea224fe,,,,,,,,,849,92.0625,38.42578125,1,0,0,response1disk,,6,35.7265625,3.78515625,1,0,0,rectangle,35.7265625,3.78515625,1,0,0,35.7265625,3.78515625,1,0,0,1,64,224,74,1,,,,,,,,
,,,,,,,,,,,,,FF,,,,,,,,1.1502,,,,,,,,,,,,,,,,,,,,,,61035ccd030737a3d2a51a2d,61036868186d5af3e8769502,2021-07-29_22h48.46.656,Simcolourproject_2stim_asymm_v5,2020.2.10,MacIntel,60,61025ae37ef11b136ea224fe,,,,,,,,,1124,105.5703125,-47.5546875,1,0,0,response3disk,,5,23.58203125,-10.71875,1,0,0,rectangle,23.58203125,-10.71875,1,0,0,23.58203125,-10.71875,1,0,0,1,65,225,134,1,,,,,,,,
,,,,,,,,,,,,,FF,,,,,,,,1.2659,,,,,,,,,,,,,,,,,,,,,,61035ccd030737a3d2a51a2d,61036868186d5af3e8769502,2021-07-29_22h48.46.656,Simcolourproject_2stim_asymm_v5,2020.2.10,MacIntel,60,61025ae37ef11b136ea224fe,,,,,,,,,3771,-36.34765625,-89.92578125,1,0,0,response5disk,,3,3.4375,-4.5234375,1,0,0,rectangle,3.4375,-4.5234375,1,0,0,3.4375,-4.5234375,1,0,0,1,66,226,102,1,,,,,,,,
,,,,,,,,,,,,,FF,,,,,,,,0.7655,,,,,,,,,,,,,,,,,,,,,,61035ccd030737a3d2a51a2d,61036868186d5af3e8769502,2021-07-29_22h48.46.656,Simcolourproject_2stim_asymm_v5,2020.2.10,MacIntel,60,61025ae37ef11b136ea224fe,,,,,,,,,2803,67.91796875,24.41796875,1,0,0,response1disk,,6,24.8125,-0.1796875,1,0,0,rectangle,24.8125,-0.1796875,1,0,0,24.8125,-0.1796875,1,0,0,1,67,227,22,1,,,,,,,,
,,,,,,,,,,,,,FF,,,,,,,,0.9331,,,,,,,,,,,,,,,,,,,,,,61035ccd030737a3d2a51a2d,61036868186d5af3e8769502,2021-07-29_22h48.46.656,Simcolourproject_2stim_asymm_v5,2020.2.10,MacIntel,60,61025ae37ef11b136ea224fe,,,,,,,,,3462,88.6328125,27.921875,1,0,0,response1disk,,6,19.14453125,-11.76953125,1,0,0,rectangle,19.14453125,-11.76953125,1,0,0,19.14453125,-11.76953125,1,0,0,1,68,228,152,1,,,,,,,,
,,,,,,,,,,,,,FF,,,,,,,,1.4839,,,,,,,,,,,,,,,,,,,,,,61035ccd030737a3d2a51a2d,61036868186d5af3e8769502,2021-07-29_22h48.46.656,Simcolourproject_2stim_asymm_v5,2020.2.10,MacIntel,60,61025ae37ef11b136ea224fe,,,,,,,,,3403,66.69140625,-98.40234375,1,0,0,response3disk,,4,3.515625,-9.13671875,1,0,0,rectangle,3.515625,-9.13671875,1,0,0,3.515625,-9.13671875,1,0,0,1,69,229,69,1,,,,,,,,
,,,,,,,,,,,,,FF,,,,,,,,1.2498,,,,,,,,,,,,,,,,,,,,,,61035ccd030737a3d2a51a2d,61036868186d5af3e8769502,2021-07-29_22h48.46.656,Simcolourproject_2stim_asymm_v5,2020.2.10,MacIntel,60,61025ae37ef11b136ea224fe,,,,,,,,,2000,98.75,-33.40234375,1,0,0,response3disk,,5,26.453125,-0.48828125,1,0,0,rectangle,26.453125,-0.48828125,1,0,0,26.453125,-0.48828125,1,0,0,1,70,230,35,1,,,,,,,,
,,,,,,,,,,,,,FF,,,,,,,,1.7837,,,,,,,,,,,,,,,,,,,,,,61035ccd030737a3d2a51a2d,61036868186d5af3e8769502,2021-07-29_22h48.46.656,Simcolourproject_2stim_asymm_v5,2020.2.10,MacIntel,60,61025ae37ef11b136ea224fe,,,,,,,,,74,89.08984375,-60.60546875,1,0,0,response3disk,,5,6.0390625,-5.71875,1,0,0,rectangle,6.0390625,-5.71875,1,0,0,6.0390625,-5.71875,1,0,0,1,71,231,100,1,,,,,,,,
,,,,,,,,,,,,,FF,,,,,,,,1.9511,,,,,,,,,,,,,,,,,,,,,,61035ccd030737a3d2a51a2d,61036868186d5af3e8769502,2021-07-29_22h48.46.656,Simcolourproject_2stim_asymm_v5,2020.2.10,MacIntel,60,61025ae37ef11b136ea224fe,,,,,,,,,2107,-90.05859375,-58.08203125,1,0,0,response5disk,,2,-0.96875,-5.3359375,1,0,0,rectangle,-0.96875,-5.3359375,1,0,0,-0.96875,-5.3359375,1,0,0,1,72,232,120,1,,,,,,,,
,,,,,,,,,,,,,FF,,,,,,,,1.7045,,,,,,,,,,,,,,,,,,,,,,61035ccd030737a3d2a51a2d,61036868186d5af3e8769502,2021-07-29_22h48.46.656,Simcolourproject_2stim_asymm_v5,2020.2.10,MacIntel,60,61025ae37ef11b136ea224fe,,,,,,,,,2748,91.44921875,45.046875,1,0,0,response1disk,,6,17.5,5.09375,1,0,0,rectangle,17.5,5.09375,1,0,0,17.5,5.09375,1,0,0,1,73,233,75,1,,,,,,,,
,,,,,,,,,,,,,FF,,,,,,,,1.2332,,,,,,,,,,,,,,,,,,,,,,61035ccd030737a3d2a51a2d,61036868186d5af3e8769502,2021-07-29_22h48.46.656,Simcolourproject_2stim_asymm_v5,2020.2.10,MacIntel,60,61025ae37ef11b136ea224fe,,,,,,,,,3868,49.578125,-76.97265625,1,0,0,response3disk,,4,5.29296875,-1.953125,1,0,0,rectangle,5.29296875,-1.953125,1,0,0,5.29296875,-1.953125,1,0,0,1,74,234,39,1,,,,,,,,
,,,,,,,,,,,,,FF,,,,,,,,0.9338,,,,,,,,,,,,,,,,,,,,,,61035ccd030737a3d2a51a2d,61036868186d5af3e8769502,2021-07-29_22h48.46.656,Simcolourproject_2stim_asymm_v5,2020.2.10,MacIntel,60,61025ae37ef11b136ea224fe,,,,,,,,,3541,76.578125,50.25,1,0,0,response1disk,,6,28.1015625,5.796875,1,0,0,rectangle,28.1015625,5.796875,1,0,0,28.1015625,5.796875,1,0,0,1,75,235,103,1,,,,,,,,
,,,,,,,,,,,,,FF,,,,,,,,1.0158,,,,,,,,,,,,,,,,,,,,,,61035ccd030737a3d2a51a2d,61036868186d5af3e8769502,2021-07-29_22h48.46.656,Simcolourproject_2stim_asymm_v5,2020.2.10,MacIntel,60,61025ae37ef11b136ea224fe,,,,,,,,,855,-36.83984375,-68.625,1,0,0,response5disk,,3,-3.27734375,-0.203125,1,0,0,rectangle,-42.234375,99.48046875,1,0,0,-1.265625,1.35546875,1,0,0,1,76,236,96,1,,response7disk_3,TRUE,0,0,"[237,121,65,12,41,89,238,299,99,161,99,300,110,287,314,216,238,125,276,264]",1.3501,rectangle
,,,,,,,,,,,,,FF,,,,,,,,2.0328,,,,,,,,,,,,,,,,,,,,,,61035ccd030737a3d2a51a2d,61036868186d5af3e8769502,2021-07-29_22h48.46.656,Simcolourproject_2stim_asymm_v5,2020.2.10,MacIntel,60,61025ae37ef11b136ea224fe,,,,,,,,,3891,81.7265625,-36.625,1,0,0,response3disk,,5,5.03515625,8.875,1,0,0,rectangle,-35.6953125,-84.5546875,1,0,0,-8.9609375,2.28515625,1,0,0,1,77,237,159,1,,response5disk_3,TRUE,3,3,"[237,121,65,12,41,89,238,299,99,161,99,300,110,287,314,216,238,125,276,264]",1.5017,rectangle
,,,,,,,,,,,,,FF,,,,,,,,1.7175,,,,,,,,,,,,,,,,,,,,,,61035ccd030737a3d2a51a2d,61036868186d5af3e8769502,2021-07-29_22h48.46.656,Simcolourproject_2stim_asymm_v5,2020.2.10,MacIntel,60,61025ae37ef11b136ea224fe,,,,,,,,,1918,45.49609375,-93.359375,1,0,0,response3disk,,4,7.30859375,-0.484375,1,0,0,rectangle,7.30859375,-0.484375,1,0,0,7.30859375,-0.484375,1,0,0,1,78,238,154,1,,,,,,,,
,,,,,,,,,,,,,FF,,,,,,,,1.8996,,,,,,,,,,,,,,,,,,,,,,61035ccd030737a3d2a51a2d,61036868186d5af3e8769502,2021-07-29_22h48.46.656,Simcolourproject_2stim_asymm_v5,2020.2.10,MacIntel,60,61025ae37ef11b136ea224fe,,,,,,,,,2743,100.1523438,-39.19921875,1,0,0,response3disk,,5,7.54296875,2.40625,1,0,0,rectangle,7.54296875,2.40625,1,0,0,7.54296875,2.40625,1,0,0,1,79,239,26,1,,,,,,,,
,,,,,,,,,,,,,FF,,,,,,,,1.6673,,,,,,,,,,,,,,,,,,,,,,61035ccd030737a3d2a51a2d,61036868186d5af3e8769502,2021-07-29_22h48.46.656,Simcolourproject_2stim_asymm_v5,2020.2.10,MacIntel,60,61025ae37ef11b136ea224fe,,,,,,,,,3022,107.4648438,47.77734375,1,0,0,response1disk,,6,17.1484375,12.7265625,1,0,0,rectangle,17.1484375,12.7265625,1,0,0,17.1484375,12.7265625,1,0,0,1,80,240,151,1,,,,,,,,
,,,,,,,,,,,,,FF,,,,,,,,0.7166,,,,,,,,,,,,,,,,,,,,,,61035ccd030737a3d2a51a2d,61036868186d5af3e8769502,2021-07-29_22h48.46.656,Simcolourproject_2stim_asymm_v5,2020.2.10,MacIntel,60,61025ae37ef11b136ea224fe,,,,,,,,,3639,81.80078125,25.171875,1,0,0,response1disk,,6,-5.1171875,-7.40234375,1,0,0,rectangle,-5.1171875,-7.40234375,1,0,0,-5.1171875,-7.40234375,1,0,0,1,81,241,95,1,,,,,,,,
,,,,,,,,,,,,,FF,,,,,,,,1.6499,,,,,,,,,,,,,,,,,,,,,,61035ccd030737a3d2a51a2d,61036868186d5af3e8769502,2021-07-29_22h48.46.656,Simcolourproject_2stim_asymm_v5,2020.2.10,MacIntel,60,61025ae37ef11b136ea224fe,,,,,,,,,3804,58.9609375,-109.3320313,1,0,0,response3disk,,4,6.62109375,-2.55859375,1,0,0,rectangle,6.62109375,-2.55859375,1,0,0,6.62109375,-2.55859375,1,0,0,1,82,242,44,1,,,,,,,,
,,,,,,,,,,,,,FF,,,,,,,,1.934,,,,,,,,,,,,,,,,,,,,,,61035ccd030737a3d2a51a2d,61036868186d5af3e8769502,2021-07-29_22h48.46.656,Simcolourproject_2stim_asymm_v5,2020.2.10,MacIntel,60,61025ae37ef11b136ea224fe,,,,,,,,,4127,-38.7265625,-78.56640625,1,0,0,response5disk,,3,7.7109375,5.0546875,1,0,0,rectangle,7.7109375,5.0546875,1,0,0,7.7109375,5.0546875,1,0,0,1,83,243,116,1,,,,,,,,
,,,,,,,,,,,,,FF,,,,,,,,1.4671,,,,,,,,,,,,,,,,,,,,,,61035ccd030737a3d2a51a2d,61036868186d5af3e8769502,2021-07-29_22h48.46.656,Simcolourproject_2stim_asymm_v5,2020.2.10,MacIntel,60,61025ae37ef11b136ea224fe,,,,,,,,,2938,56.8125,-93.31640625,1,0,0,response3disk,,4,9.58203125,-11.6875,1,0,0,rectangle,9.58203125,-11.6875,1,0,0,9.58203125,-11.6875,1,0,0,1,84,244,13,1,,,,,,,,
,,,,,,,,,,,,,FF,,,,,,,,1.5,,,,,,,,,,,,,,,,,,,,,,61035ccd030737a3d2a51a2d,61036868186d5af3e8769502,2021-07-29_22h48.46.656,Simcolourproject_2stim_asymm_v5,2020.2.10,MacIntel,60,61025ae37ef11b136ea224fe,,,,,,,,,2881,-37.19140625,-91.68359375,1,0,0,response5disk,,3,-0.87890625,-9.57421875,1,0,0,rectangle,-0.87890625,-9.57421875,1,0,0,-0.87890625,-9.57421875,1,0,0,1,85,245,93,1,,,,,,,,
,,,,,,,,,,,,,FF,,,,,,,,0.8336,,,,,,,,,,,,,,,,,,,,,,61035ccd030737a3d2a51a2d,61036868186d5af3e8769502,2021-07-29_22h48.46.656,Simcolourproject_2stim_asymm_v5,2020.2.10,MacIntel,60,61025ae37ef11b136ea224fe,,,,,,,,,336,105.8789063,-34.58203125,1,0,0,response3disk,,5,11.3203125,-3.6875,1,0,0,rectangle,11.3203125,-3.6875,1,0,0,11.3203125,-3.6875,1,0,0,1,86,246,137,1,,,,,,,,
,,,,,,,,,,,,,FF,,,,,,,,1.6333,,,,,,,,,,,,,,,,,,,,,,61035ccd030737a3d2a51a2d,61036868186d5af3e8769502,2021-07-29_22h48.46.656,Simcolourproject_2stim_asymm_v5,2020.2.10,MacIntel,60,61025ae37ef11b136ea224fe,,,,,,,,,4128,-76.75,-51.01953125,1,0,0,response5disk,,2,-12.06640625,-10.875,1,0,0,rectangle,-12.06640625,-10.875,1,0,0,-12.06640625,-10.875,1,0,0,1,87,247,105,1,,,,,,,,
,,,,,,,,,,,,,FF,,,,,,,,1.1337,,,,,,,,,,,,,,,,,,,,,,61035ccd030737a3d2a51a2d,61036868186d5af3e8769502,2021-07-29_22h48.46.656,Simcolourproject_2stim_asymm_v5,2020.2.10,MacIntel,60,61025ae37ef11b136ea224fe,,,,,,,,,53,100.7460938,-41.89453125,1,0,0,response3disk,,5,-8.328125,11.65234375,1,0,0,rectangle,-8.328125,11.65234375,1,0,0,-8.328125,11.65234375,1,0,0,1,88,248,83,1,,,,,,,,
