key_resp.keys,key_resp.rt,key_resp_14.keys,key_resp_14.rt,key_resp_15.keys,key_resp_15.rt,key_resp_17.keys,key_resp_17.rt,key_resp_9.keys,key_resp_9.rt,key_resp_10.keys,key_resp_10.rt,practice_comparison,Ecc,mouse_5.x,mouse_5.y,mouse_5.leftButton,mouse_5.midButton,mouse_5.rightButton,mouse_5.clicked_name,pracsimilarity,response_time,mouse_10.x,mouse_10.y,mouse_10.leftButton,mouse_10.midButton,mouse_10.rightButton,mouse_10.clicked_name,mouse_7.x,mouse_7.y,mouse_7.leftButton,mouse_7.midButton,mouse_7.rightButton,mouse_6.x,mouse_6.y,mouse_6.leftButton,mouse_6.midButton,mouse_6.rightButton,duringprac.thisRepN,duringprac.thisTrialN,duringprac.thisN,duringprac.thisIndex,duringprac.ran,participant,session,date,expName,psychopyVersion,OS,frameRate,study_id,mouse_7.clicked_name,catchpracsimilarity,catch_response_time,catchnumberprac,catchtrialorderprac,mouse_6.clicked_name,key_resp_22.keys,key_resp_22.rt,realcomparison,mouse.x,mouse.y,mouse.leftButton,mouse.midButton,mouse.rightButton,mouse.clicked_name,Colour2,similarity,mouse_2.x,mouse_2.y,mouse_2.leftButton,mouse_2.midButton,mouse_2.rightButton,mouse_2.clicked_name,mouse_3.x,mouse_3.y,mouse_3.leftButton,mouse_3.midButton,mouse_3.rightButton,mouse_3.clicked_name,catchornah,catchsimilarity,catchnumber,catchtrialorder,catchRT,mouse_11.x,mouse_11.y,mouse_11.leftButton,mouse_11.midButton,mouse_11.rightButton,mouse_11.clicked_name,trials_2.thisRepN,trials_2.thisTrialN,trials_2.thisN,trials_2.thisIndex,trials_2.ran,Colour1
space,1.1501,space,9.6655,space,10.2289,space,3.6911,space,2.1777,space,5.9241,80,PF,-57,106,1,0,0,response7disk_5,0,8.7185,-11,-1,1,0,0,rectangle_8,-11,-1,1,0,0,-11,-1,1,0,0,0,0,0,1,1,610343e098c067d744ec212a,610364dc21124460e8fb2130,2021-07-29_19h33.29.442,Simcolourproject_2stim_asymm_v5,2020.2.10,Win32,60,61025ae37ef11b136ea224fe,,,,,,,,,,,,,,,,,,,,,,,,,,,,,,,,,,,,,,,,,,,,,,
,,,,,,,,,,,,113,FF,-111,57,1,0,0,response7disk_5,1,0.7001,-25,1,1,0,0,rectangle_8,134,67,1,0,0,-2,-1,1,0,0,0,1,1,5,1,610343e098c067d744ec212a,610364dc21124460e8fb2130,2021-07-29_19h33.29.442,Simcolourproject_2stim_asymm_v5,2020.2.10,Win32,60,61025ae37ef11b136ea224fe,response1disk_7,6,2.6333,6,"[2,5]",rectangle_4,,,,,,,,,,,,,,,,,,,,,,,,,,,,,,,,,,,,,,,,
,,,,,,,,,,,,127,PF,-50,123,1,0,0,response7disk_5,0,2.5165,3,0,1,0,0,rectangle_8,3,0,1,0,0,3,0,1,0,0,0,2,2,2,1,610343e098c067d744ec212a,610364dc21124460e8fb2130,2021-07-29_19h33.29.442,Simcolourproject_2stim_asymm_v5,2020.2.10,Win32,60,61025ae37ef11b136ea224fe,,,,,,,,,,,,,,,,,,,,,,,,,,,,,,,,,,,,,,,,,,,,,,
,,,,,,,,,,,,17,PF,121,58,1,0,0,response1disk_5,6,6.4334,-20,-1,1,0,0,rectangle_8,-20,-1,1,0,0,-20,-1,1,0,0,0,3,3,4,1,610343e098c067d744ec212a,610364dc21124460e8fb2130,2021-07-29_19h33.29.442,Simcolourproject_2stim_asymm_v5,2020.2.10,Win32,60,61025ae37ef11b136ea224fe,,,,,,,,,,,,,,,,,,,,,,,,,,,,,,,,,,,,,,,,,,,,,,
,,,,,,,,,,,,70,FF,53,-149,1,0,0,response3disk_5,4,2.7,23,-8,1,0,0,rectangle_8,140,51,1,0,0,28,-3,1,0,0,0,4,4,0,1,610343e098c067d744ec212a,610364dc21124460e8fb2130,2021-07-29_19h33.29.442,Simcolourproject_2stim_asymm_v5,2020.2.10,Win32,60,61025ae37ef11b136ea224fe,response1disk_7,6,1.8831,6,"[2,5]",rectangle_4,,,,,,,,,,,,,,,,,,,,,,,,,,,,,,,,,,,,,,,,
,,,,,,,,,,,,91,PF,109,-68,1,0,0,response3disk_5,5,3.2502,11,-7,1,0,0,rectangle_8,11,-7,1,0,0,11,-7,1,0,0,0,5,5,6,1,610343e098c067d744ec212a,610364dc21124460e8fb2130,2021-07-29_19h33.29.442,Simcolourproject_2stim_asymm_v5,2020.2.10,Win32,60,61025ae37ef11b136ea224fe,,,,,,,,,,,,,,,,,,,,,,,,,,,,,,,,,,,,,,,,,,,,,,
,,,,,,,,,,,,107,FF,43,85,1,0,0,response1disk_5,7,3.7166,-23,0,1,0,0,rectangle_8,-23,0,1,0,0,-23,0,1,0,0,0,6,6,3,1,610343e098c067d744ec212a,610364dc21124460e8fb2130,2021-07-29_19h33.29.442,Simcolourproject_2stim_asymm_v5,2020.2.10,Win32,60,61025ae37ef11b136ea224fe,,,,,,,,,,,,,,,,,,,,,,,,,,,,,,,,,,,,,,,,,,,,,,
,,,,,,,,,,,,,FF,,,,,,,,5.1147,,,,,,,,,,,,,,,,,,,,,,610343e098c067d744ec212a,610364dc21124460e8fb2130,2021-07-29_19h33.29.442,Simcolourproject_2stim_asymm_v5,2020.2.10,Win32,60,61025ae37ef11b136ea224fe,,,,,,,space,6.7079,1283,-37,-128,1,0,0,response5disk,,3,7,-4,1,0,0,rectangle,-50,-140,1,0,0,response5disk_3,TRUE,3,3,"[21,143,102,192,50,282,269,79,96,1,236,210,265,308,96,270,149,173,264,321]",1.7839,-10,8,1,0,0,rectangle,0,0,0,48,1,
,,,,,,,,,,,,,FF,,,,,,,,2.7528,,,,,,,,,,,,,,,,,,,,,,610343e098c067d744ec212a,610364dc21124460e8fb2130,2021-07-29_19h33.29.442,Simcolourproject_2stim_asymm_v5,2020.2.10,Win32,60,61025ae37ef11b136ea224fe,,,,,,,,,2921,36,-134,1,0,0,response3disk,,4,8,10,1,0,0,rectangle,8,10,1,0,0,,,,,,,8,10,1,0,0,,0,1,1,109,1,
,,,,,,,,,,,,,FF,,,,,,,,1.286,,,,,,,,,,,,,,,,,,,,,,610343e098c067d744ec212a,610364dc21124460e8fb2130,2021-07-29_19h33.29.442,Simcolourproject_2stim_asymm_v5,2020.2.10,Win32,60,61025ae37ef11b136ea224fe,,,,,,,,,103,62,-114,1,0,0,response3disk,,4,16,-7,1,0,0,rectangle,16,-7,1,0,0,,,,,,,16,-7,1,0,0,,0,2,2,58,1,
,,,,,,,,,,,,,FF,,,,,,,,1.9667,,,,,,,,,,,,,,,,,,,,,,610343e098c067d744ec212a,610364dc21124460e8fb2130,2021-07-29_19h33.29.442,Simcolourproject_2stim_asymm_v5,2020.2.10,Win32,60,61025ae37ef11b136ea224fe,,,,,,,,,3088,120,46,1,0,0,response1disk,,6,26,-9,1,0,0,rectangle,26,-9,1,0,0,,,,,,,26,-9,1,0,0,,0,3,3,49,1,
,,,,,,,,,,,,,FF,,,,,,,,1.4752,,,,,,,,,,,,,,,,,,,,,,610343e098c067d744ec212a,610364dc21124460e8fb2130,2021-07-29_19h33.29.442,Simcolourproject_2stim_asymm_v5,2020.2.10,Win32,60,61025ae37ef11b136ea224fe,,,,,,,,,767,57,123,1,0,0,response1disk,,7,19,12,1,0,0,rectangle,19,12,1,0,0,,,,,,,19,12,1,0,0,,0,4,4,43,1,
,,,,,,,,,,,,,FF,,,,,,,,3.1335,,,,,,,,,,,,,,,,,,,,,,610343e098c067d744ec212a,610364dc21124460e8fb2130,2021-07-29_19h33.29.442,Simcolourproject_2stim_asymm_v5,2020.2.10,Win32,60,61025ae37ef11b136ea224fe,,,,,,,,,738,107,-62,1,0,0,response3disk,,5,-14,6,1,0,0,rectangle,-14,6,1,0,0,,,,,,,-14,6,1,0,0,,0,5,5,35,1,
,,,,,,,,,,,,,FF,,,,,,,,0.6528,,,,,,,,,,,,,,,,,,,,,,610343e098c067d744ec212a,610364dc21124460e8fb2130,2021-07-29_19h33.29.442,Simcolourproject_2stim_asymm_v5,2020.2.10,Win32,60,61025ae37ef11b136ea224fe,,,,,,,,,2185,58,114,1,0,0,response1disk,,7,29,9,1,0,0,rectangle,29,9,1,0,0,,,,,,,29,9,1,0,0,,0,6,6,85,1,
,,,,,,,,,,,,,FF,,,,,,,,0.7026,,,,,,,,,,,,,,,,,,,,,,610343e098c067d744ec212a,610364dc21124460e8fb2130,2021-07-29_19h33.29.442,Simcolourproject_2stim_asymm_v5,2020.2.10,Win32,60,61025ae37ef11b136ea224fe,,,,,,,,,3828,27,114,1,0,0,response1disk,,7,7,8,1,0,0,rectangle,7,8,1,0,0,,,,,,,7,8,1,0,0,,0,7,7,110,1,
,,,,,,,,,,,,,FF,,,,,,,,0.492,,,,,,,,,,,,,,,,,,,,,,610343e098c067d744ec212a,610364dc21124460e8fb2130,2021-07-29_19h33.29.442,Simcolourproject_2stim_asymm_v5,2020.2.10,Win32,60,61025ae37ef11b136ea224fe,,,,,,,,,1924,50,122,1,0,0,response1disk,,7,8,-10,1,0,0,rectangle,8,-10,1,0,0,,,,,,,8,-10,1,0,0,,0,8,8,98,1,
,,,,,,,,,,,,,FF,,,,,,,,4.0167,,,,,,,,,,,,,,,,,,,,,,610343e098c067d744ec212a,610364dc21124460e8fb2130,2021-07-29_19h33.29.442,Simcolourproject_2stim_asymm_v5,2020.2.10,Win32,60,61025ae37ef11b136ea224fe,,,,,,,,,3069,96,48,1,0,0,response1disk,,6,8,-2,1,0,0,rectangle,8,-2,1,0,0,,,,,,,8,-2,1,0,0,,0,9,9,77,1,
,,,,,,,,,,,,,FF,,,,,,,,1.6667,,,,,,,,,,,,,,,,,,,,,,610343e098c067d744ec212a,610364dc21124460e8fb2130,2021-07-29_19h33.29.442,Simcolourproject_2stim_asymm_v5,2020.2.10,Win32,60,61025ae37ef11b136ea224fe,,,,,,,,,494,125,-66,1,0,0,response3disk,,5,16,5,1,0,0,rectangle,16,5,1,0,0,,,,,,,16,5,1,0,0,,0,10,10,120,1,
,,,,,,,,,,,,,FF,,,,,,,,1.8052,,,,,,,,,,,,,,,,,,,,,,610343e098c067d744ec212a,610364dc21124460e8fb2130,2021-07-29_19h33.29.442,Simcolourproject_2stim_asymm_v5,2020.2.10,Win32,60,61025ae37ef11b136ea224fe,,,,,,,,,2634,-50,-121,1,0,0,response5disk,,3,9,1,1,0,0,rectangle,9,1,1,0,0,,,,,,,9,1,1,0,0,,0,11,11,145,1,
,,,,,,,,,,,,,FF,,,,,,,,0.9364,,,,,,,,,,,,,,,,,,,,,,610343e098c067d744ec212a,610364dc21124460e8fb2130,2021-07-29_19h33.29.442,Simcolourproject_2stim_asymm_v5,2020.2.10,Win32,60,61025ae37ef11b136ea224fe,,,,,,,,,3001,52,-112,1,0,0,response3disk,,4,37,-6,1,0,0,rectangle,37,-6,1,0,0,,,,,,,37,-6,1,0,0,,0,12,12,51,1,
,,,,,,,,,,,,,FF,,,,,,,,2.1001,,,,,,,,,,,,,,,,,,,,,,610343e098c067d744ec212a,610364dc21124460e8fb2130,2021-07-29_19h33.29.442,Simcolourproject_2stim_asymm_v5,2020.2.10,Win32,60,61025ae37ef11b136ea224fe,,,,,,,,,621,-108,-72,1,0,0,response5disk,,2,32,-14,1,0,0,rectangle,32,-14,1,0,0,,,,,,,32,-14,1,0,0,,0,13,13,139,1,
,,,,,,,,,,,,,FF,,,,,,,,7.1058,,,,,,,,,,,,,,,,,,,,,,610343e098c067d744ec212a,610364dc21124460e8fb2130,2021-07-29_19h33.29.442,Simcolourproject_2stim_asymm_v5,2020.2.10,Win32,60,61025ae37ef11b136ea224fe,,,,,,,,,1419,42,-113,1,0,0,response3disk,,4,-12,20,1,0,0,rectangle,-12,20,1,0,0,,,,,,,-12,20,1,0,0,,0,14,14,84,1,
,,,,,,,,,,,,,FF,,,,,,,,1.631,,,,,,,,,,,,,,,,,,,,,,610343e098c067d744ec212a,610364dc21124460e8fb2130,2021-07-29_19h33.29.442,Simcolourproject_2stim_asymm_v5,2020.2.10,Win32,60,61025ae37ef11b136ea224fe,,,,,,,,,1559,30,-129,1,0,0,response3disk,,4,5,-12,1,0,0,rectangle,5,-12,1,0,0,,,,,,,5,-12,1,0,0,,0,15,15,3,1,
,,,,,,,,,,,,,FF,,,,,,,,0.6834,,,,,,,,,,,,,,,,,,,,,,610343e098c067d744ec212a,610364dc21124460e8fb2130,2021-07-29_19h33.29.442,Simcolourproject_2stim_asymm_v5,2020.2.10,Win32,60,61025ae37ef11b136ea224fe,,,,,,,,,1180,-59,-132,1,0,0,response5disk,,3,-13,-13,1,0,0,rectangle,-13,-13,1,0,0,,,,,,,-13,-13,1,0,0,,0,16,16,80,1,
,,,,,,,,,,,,,FF,,,,,,,,0.8336,,,,,,,,,,,,,,,,,,,,,,610343e098c067d744ec212a,610364dc21124460e8fb2130,2021-07-29_19h33.29.442,Simcolourproject_2stim_asymm_v5,2020.2.10,Win32,60,61025ae37ef11b136ea224fe,,,,,,,,,1204,-110,-60,1,0,0,response5disk,,2,-19,-3,1,0,0,rectangle,-19,-3,1,0,0,,,,,,,-19,-3,1,0,0,,0,17,17,101,1,
,,,,,,,,,,,,,FF,,,,,,,,0.8751,,,,,,,,,,,,,,,,,,,,,,610343e098c067d744ec212a,610364dc21124460e8fb2130,2021-07-29_19h33.29.442,Simcolourproject_2stim_asymm_v5,2020.2.10,Win32,60,61025ae37ef11b136ea224fe,,,,,,,,,353,-114,39,1,0,0,response7disk,,1,-31,-4,1,0,0,rectangle,-31,-4,1,0,0,,,,,,,-31,-4,1,0,0,,0,18,18,40,1,
,,,,,,,,,,,,,FF,,,,,,,,1.386,,,,,,,,,,,,,,,,,,,,,,610343e098c067d744ec212a,610364dc21124460e8fb2130,2021-07-29_19h33.29.442,Simcolourproject_2stim_asymm_v5,2020.2.10,Win32,60,61025ae37ef11b136ea224fe,,,,,,,,,2916,89,-79,1,0,0,response3disk,,5,29,-12,1,0,0,rectangle,29,-12,1,0,0,,,,,,,29,-12,1,0,0,,0,19,19,19,1,
,,,,,,,,,,,,,FF,,,,,,,,0.534,,,,,,,,,,,,,,,,,,,,,,610343e098c067d744ec212a,610364dc21124460e8fb2130,2021-07-29_19h33.29.442,Simcolourproject_2stim_asymm_v5,2020.2.10,Win32,60,61025ae37ef11b136ea224fe,,,,,,,,,292,111,-37,1,0,0,response3disk,,5,29,-3,1,0,0,rectangle,-54,-129,1,0,0,response5disk_3,TRUE,3,3,"[21,143,102,192,50,282,269,79,96,1,236,210,265,308,96,270,149,173,264,321]",2.1522,31,8,1,0,0,rectangle,0,20,20,6,1,
,,,,,,,,,,,,,FF,,,,,,,,1.2169,,,,,,,,,,,,,,,,,,,,,,610343e098c067d744ec212a,610364dc21124460e8fb2130,2021-07-29_19h33.29.442,Simcolourproject_2stim_asymm_v5,2020.2.10,Win32,60,61025ae37ef11b136ea224fe,,,,,,,,,3095,-59,-110,1,0,0,response5disk,,3,14,6,1,0,0,rectangle,14,6,1,0,0,,,,,,,14,6,1,0,0,,0,21,21,37,1,
,,,,,,,,,,,,,FF,,,,,,,,1.1862,,,,,,,,,,,,,,,,,,,,,,610343e098c067d744ec212a,610364dc21124460e8fb2130,2021-07-29_19h33.29.442,Simcolourproject_2stim_asymm_v5,2020.2.10,Win32,60,61025ae37ef11b136ea224fe,,,,,,,,,12,110,56,1,0,0,response1disk,,6,20,8,1,0,0,rectangle,20,8,1,0,0,,,,,,,20,8,1,0,0,,0,22,22,4,1,
,,,,,,,,,,,,,FF,,,,,,,,1.0642,,,,,,,,,,,,,,,,,,,,,,610343e098c067d744ec212a,610364dc21124460e8fb2130,2021-07-29_19h33.29.442,Simcolourproject_2stim_asymm_v5,2020.2.10,Win32,60,61025ae37ef11b136ea224fe,,,,,,,,,2420,-33,121,1,0,0,response7disk,,0,-19,12,1,0,0,rectangle,-19,12,1,0,0,,,,,,,-19,12,1,0,0,,0,23,23,129,1,
,,,,,,,,,,,,,FF,,,,,,,,1.9699,,,,,,,,,,,,,,,,,,,,,,610343e098c067d744ec212a,610364dc21124460e8fb2130,2021-07-29_19h33.29.442,Simcolourproject_2stim_asymm_v5,2020.2.10,Win32,60,61025ae37ef11b136ea224fe,,,,,,,,,1214,96,-46,1,0,0,response3disk,,5,1,-2,1,0,0,rectangle,1,-2,1,0,0,,,,,,,1,-2,1,0,0,,0,24,24,143,1,
,,,,,,,,,,,,,FF,,,,,,,,2.2843,,,,,,,,,,,,,,,,,,,,,,610343e098c067d744ec212a,610364dc21124460e8fb2130,2021-07-29_19h33.29.442,Simcolourproject_2stim_asymm_v5,2020.2.10,Win32,60,61025ae37ef11b136ea224fe,,,,,,,,,3103,78,-113,1,0,0,response3disk,,4,31,-3,1,0,0,rectangle,31,-3,1,0,0,,,,,,,31,-3,1,0,0,,0,25,25,20,1,
,,,,,,,,,,,,,FF,,,,,,,,0.7839,,,,,,,,,,,,,,,,,,,,,,610343e098c067d744ec212a,610364dc21124460e8fb2130,2021-07-29_19h33.29.442,Simcolourproject_2stim_asymm_v5,2020.2.10,Win32,60,61025ae37ef11b136ea224fe,,,,,,,,,1903,46,-92,1,0,0,response3disk,,4,-15,-5,1,0,0,rectangle,-15,-5,1,0,0,,,,,,,-15,-5,1,0,0,,0,26,26,150,1,
,,,,,,,,,,,,,FF,,,,,,,,0.8083,,,,,,,,,,,,,,,,,,,,,,610343e098c067d744ec212a,610364dc21124460e8fb2130,2021-07-29_19h33.29.442,Simcolourproject_2stim_asymm_v5,2020.2.10,Win32,60,61025ae37ef11b136ea224fe,,,,,,,,,4227,124,-53,1,0,0,response3disk,,5,29,-5,1,0,0,rectangle,29,-5,1,0,0,,,,,,,29,-5,1,0,0,,0,27,27,12,1,
,,,,,,,,,,,,,FF,,,,,,,,0.6362,,,,,,,,,,,,,,,,,,,,,,610343e098c067d744ec212a,610364dc21124460e8fb2130,2021-07-29_19h33.29.442,Simcolourproject_2stim_asymm_v5,2020.2.10,Win32,60,61025ae37ef11b136ea224fe,,,,,,,,,1478,107,46,1,0,0,response1disk,,6,12,11,1,0,0,rectangle,12,11,1,0,0,,,,,,,12,11,1,0,0,,0,28,28,63,1,
,,,,,,,,,,,,,FF,,,,,,,,0.9666,,,,,,,,,,,,,,,,,,,,,,610343e098c067d744ec212a,610364dc21124460e8fb2130,2021-07-29_19h33.29.442,Simcolourproject_2stim_asymm_v5,2020.2.10,Win32,60,61025ae37ef11b136ea224fe,,,,,,,,,550,-67,-102,1,0,0,response5disk,,3,-20,-6,1,0,0,rectangle,-20,-6,1,0,0,,,,,,,-20,-6,1,0,0,,0,29,29,96,1,
,,,,,,,,,,,,,FF,,,,,,,,0.6667,,,,,,,,,,,,,,,,,,,,,,610343e098c067d744ec212a,610364dc21124460e8fb2130,2021-07-29_19h33.29.442,Simcolourproject_2stim_asymm_v5,2020.2.10,Win32,60,61025ae37ef11b136ea224fe,,,,,,,,,524,-43,-115,1,0,0,response5disk,,3,-11,2,1,0,0,rectangle,-11,2,1,0,0,,,,,,,-11,2,1,0,0,,0,30,30,32,1,
,,,,,,,,,,,,,FF,,,,,,,,0.9835,,,,,,,,,,,,,,,,,,,,,,610343e098c067d744ec212a,610364dc21124460e8fb2130,2021-07-29_19h33.29.442,Simcolourproject_2stim_asymm_v5,2020.2.10,Win32,60,61025ae37ef11b136ea224fe,,,,,,,,,1038,-59,-115,1,0,0,response5disk,,3,-13,-7,1,0,0,rectangle,-13,-7,1,0,0,,,,,,,-13,-7,1,0,0,,0,31,31,24,1,
,,,,,,,,,,,,,FF,,,,,,,,1.1669,,,,,,,,,,,,,,,,,,,,,,610343e098c067d744ec212a,610364dc21124460e8fb2130,2021-07-29_19h33.29.442,Simcolourproject_2stim_asymm_v5,2020.2.10,Win32,60,61025ae37ef11b136ea224fe,,,,,,,,,1951,-118,-60,1,0,0,response5disk,,2,7,-7,1,0,0,rectangle,7,-7,1,0,0,,,,,,,7,-7,1,0,0,,0,32,32,92,1,
,,,,,,,,,,,,,FF,,,,,,,,1.0834,,,,,,,,,,,,,,,,,,,,,,610343e098c067d744ec212a,610364dc21124460e8fb2130,2021-07-29_19h33.29.442,Simcolourproject_2stim_asymm_v5,2020.2.10,Win32,60,61025ae37ef11b136ea224fe,,,,,,,,,2123,112,-45,1,0,0,response3disk,,5,2,2,1,0,0,rectangle,2,2,1,0,0,,,,,,,2,2,1,0,0,,0,33,33,5,1,
,,,,,,,,,,,,,FF,,,,,,,,1.2173,,,,,,,,,,,,,,,,,,,,,,610343e098c067d744ec212a,610364dc21124460e8fb2130,2021-07-29_19h33.29.442,Simcolourproject_2stim_asymm_v5,2020.2.10,Win32,60,61025ae37ef11b136ea224fe,,,,,,,,,3777,-85,53,1,0,0,response7disk,,1,-11,4,1,0,0,rectangle,-11,4,1,0,0,,,,,,,-11,4,1,0,0,,0,34,34,99,1,
,,,,,,,,,,,,,FF,,,,,,,,1.0501,,,,,,,,,,,,,,,,,,,,,,610343e098c067d744ec212a,610364dc21124460e8fb2130,2021-07-29_19h33.29.442,Simcolourproject_2stim_asymm_v5,2020.2.10,Win32,60,61025ae37ef11b136ea224fe,,,,,,,,,2595,53,-128,1,0,0,response3disk,,4,10,9,1,0,0,rectangle,10,9,1,0,0,,,,,,,10,9,1,0,0,,0,35,35,78,1,
,,,,,,,,,,,,,FF,,,,,,,,1.0757,,,,,,,,,,,,,,,,,,,,,,610343e098c067d744ec212a,610364dc21124460e8fb2130,2021-07-29_19h33.29.442,Simcolourproject_2stim_asymm_v5,2020.2.10,Win32,60,61025ae37ef11b136ea224fe,,,,,,,,,619,-53,-127,1,0,0,response5disk,,3,-33,1,1,0,0,rectangle,-33,1,1,0,0,,,,,,,-33,1,1,0,0,,0,36,36,122,1,
,,,,,,,,,,,,,FF,,,,,,,,1.4505,,,,,,,,,,,,,,,,,,,,,,610343e098c067d744ec212a,610364dc21124460e8fb2130,2021-07-29_19h33.29.442,Simcolourproject_2stim_asymm_v5,2020.2.10,Win32,60,61025ae37ef11b136ea224fe,,,,,,,,,2673,69,-122,1,0,0,response3disk,,4,5,-11,1,0,0,rectangle,5,-11,1,0,0,,,,,,,5,-11,1,0,0,,0,37,37,0,1,
,,,,,,,,,,,,,FF,,,,,,,,1.3833,,,,,,,,,,,,,,,,,,,,,,610343e098c067d744ec212a,610364dc21124460e8fb2130,2021-07-29_19h33.29.442,Simcolourproject_2stim_asymm_v5,2020.2.10,Win32,60,61025ae37ef11b136ea224fe,,,,,,,,,1328,-40,-133,1,0,0,response5disk,,3,-6,-1,1,0,0,rectangle,-6,-1,1,0,0,,,,,,,-6,-1,1,0,0,,0,38,38,147,1,
,,,,,,,,,,,,,FF,,,,,,,,0.6527,,,,,,,,,,,,,,,,,,,,,,610343e098c067d744ec212a,610364dc21124460e8fb2130,2021-07-29_19h33.29.442,Simcolourproject_2stim_asymm_v5,2020.2.10,Win32,60,61025ae37ef11b136ea224fe,,,,,,,,,914,126,-43,1,0,0,response3disk,,5,-1,-4,1,0,0,rectangle,-1,-4,1,0,0,,,,,,,-1,-4,1,0,0,,0,39,39,13,1,
,,,,,,,,,,,,,FF,,,,,,,,0.4113,,,,,,,,,,,,,,,,,,,,,,610343e098c067d744ec212a,610364dc21124460e8fb2130,2021-07-29_19h33.29.442,Simcolourproject_2stim_asymm_v5,2020.2.10,Win32,60,61025ae37ef11b136ea224fe,,,,,,,,,401,104,44,1,0,0,response1disk,,6,18,-12,1,0,0,rectangle,18,-12,1,0,0,,,,,,,18,-12,1,0,0,,0,40,40,81,1,
,,,,,,,,,,,,,FF,,,,,,,,0.7694,,,,,,,,,,,,,,,,,,,,,,610343e098c067d744ec212a,610364dc21124460e8fb2130,2021-07-29_19h33.29.442,Simcolourproject_2stim_asymm_v5,2020.2.10,Win32,60,61025ae37ef11b136ea224fe,,,,,,,,,2940,-64,120,1,0,0,response7disk,,0,-6,7,1,0,0,rectangle,-6,7,1,0,0,,,,,,,-6,7,1,0,0,,0,41,41,90,1,
,,,,,,,,,,,,,FF,,,,,,,,1.1836,,,,,,,,,,,,,,,,,,,,,,610343e098c067d744ec212a,610364dc21124460e8fb2130,2021-07-29_19h33.29.442,Simcolourproject_2stim_asymm_v5,2020.2.10,Win32,60,61025ae37ef11b136ea224fe,,,,,,,,,2959,55,116,1,0,0,response1disk,,7,17,0,1,0,0,rectangle,17,0,1,0,0,,,,,,,17,0,1,0,0,,0,42,42,93,1,
,,,,,,,,,,,,,FF,,,,,,,,0.9526,,,,,,,,,,,,,,,,,,,,,,610343e098c067d744ec212a,610364dc21124460e8fb2130,2021-07-29_19h33.29.442,Simcolourproject_2stim_asymm_v5,2020.2.10,Win32,60,61025ae37ef11b136ea224fe,,,,,,,,,1257,111,-71,1,0,0,response3disk,,5,1,7,1,0,0,rectangle,1,7,1,0,0,,,,,,,1,7,1,0,0,,0,43,43,76,1,
,,,,,,,,,,,,,FF,,,,,,,,0.7832,,,,,,,,,,,,,,,,,,,,,,610343e098c067d744ec212a,610364dc21124460e8fb2130,2021-07-29_19h33.29.442,Simcolourproject_2stim_asymm_v5,2020.2.10,Win32,60,61025ae37ef11b136ea224fe,,,,,,,,,3310,106,-49,1,0,0,response3disk,,5,13,5,1,0,0,rectangle,13,5,1,0,0,,,,,,,13,5,1,0,0,,0,44,44,18,1,
,,,,,,,,,,,,,FF,,,,,,,,1.0858,,,,,,,,,,,,,,,,,,,,,,610343e098c067d744ec212a,610364dc21124460e8fb2130,2021-07-29_19h33.29.442,Simcolourproject_2stim_asymm_v5,2020.2.10,Win32,60,61025ae37ef11b136ea224fe,,,,,,,,,3105,50,-110,1,0,0,response3disk,,4,-7,-13,1,0,0,rectangle,-7,-13,1,0,0,,,,,,,-7,-13,1,0,0,,0,45,45,38,1,
,,,,,,,,,,,,,FF,,,,,,,,1.4885,,,,,,,,,,,,,,,,,,,,,,610343e098c067d744ec212a,610364dc21124460e8fb2130,2021-07-29_19h33.29.442,Simcolourproject_2stim_asymm_v5,2020.2.10,Win32,60,61025ae37ef11b136ea224fe,,,,,,,,,3275,66,117,1,0,0,response1disk,,7,42,16,1,0,0,rectangle,42,16,1,0,0,,,,,,,42,16,1,0,0,,0,46,46,100,1,
,,,,,,,,,,,,,FF,,,,,,,,0.4573,,,,,,,,,,,,,,,,,,,,,,610343e098c067d744ec212a,610364dc21124460e8fb2130,2021-07-29_19h33.29.442,Simcolourproject_2stim_asymm_v5,2020.2.10,Win32,60,61025ae37ef11b136ea224fe,,,,,,,,,2432,28,101,1,0,0,response1disk,,7,-11,3,1,0,0,rectangle,-11,3,1,0,0,,,,,,,-11,3,1,0,0,,0,47,47,148,1,
,,,,,,,,,,,,,FF,,,,,,,,0.3547,,,,,,,,,,,,,,,,,,,,,,610343e098c067d744ec212a,610364dc21124460e8fb2130,2021-07-29_19h33.29.442,Simcolourproject_2stim_asymm_v5,2020.2.10,Win32,60,61025ae37ef11b136ea224fe,,,,,,,,,1490,50,95,1,0,0,response1disk,,7,31,7,1,0,0,rectangle,31,7,1,0,0,,,,,,,31,7,1,0,0,,0,48,48,59,1,
,,,,,,,,,,,,,FF,,,,,,,,0.2697,,,,,,,,,,,,,,,,,,,,,,610343e098c067d744ec212a,610364dc21124460e8fb2130,2021-07-29_19h33.29.442,Simcolourproject_2stim_asymm_v5,2020.2.10,Win32,60,61025ae37ef11b136ea224fe,,,,,,,,,2845,56,98,1,0,0,response1disk,,7,33,11,1,0,0,rectangle,-47,128,1,0,0,response7disk_3,TRUE,0,0,"[21,143,102,192,50,282,269,79,96,1,236,210,265,308,96,270,149,173,264,321]",1.9536,-14,3,1,0,0,rectangle,0,49,49,91,1,
,,,,,,,,,,,,,FF,,,,,,,,1.2529,,,,,,,,,,,,,,,,,,,,,,610343e098c067d744ec212a,610364dc21124460e8fb2130,2021-07-29_19h33.29.442,Simcolourproject_2stim_asymm_v5,2020.2.10,Win32,60,61025ae37ef11b136ea224fe,,,,,,,,,1003,116,-36,1,0,0,response3disk,,5,0,3,1,0,0,rectangle,0,3,1,0,0,,,,,,,0,3,1,0,0,,0,50,50,56,1,
,,,,,,,,,,,,,FF,,,,,,,,0.4887,,,,,,,,,,,,,,,,,,,,,,610343e098c067d744ec212a,610364dc21124460e8fb2130,2021-07-29_19h33.29.442,Simcolourproject_2stim_asymm_v5,2020.2.10,Win32,60,61025ae37ef11b136ea224fe,,,,,,,,,751,106,-70,1,0,0,response3disk,,5,-9,19,1,0,0,rectangle,-9,19,1,0,0,,,,,,,-9,19,1,0,0,,0,51,51,111,1,
,,,,,,,,,,,,,FF,,,,,,,,0.4512,,,,,,,,,,,,,,,,,,,,,,610343e098c067d744ec212a,610364dc21124460e8fb2130,2021-07-29_19h33.29.442,Simcolourproject_2stim_asymm_v5,2020.2.10,Win32,60,61025ae37ef11b136ea224fe,,,,,,,,,703,126,48,1,0,0,response1disk,,6,-1,13,1,0,0,rectangle,-1,13,1,0,0,,,,,,,-1,13,1,0,0,,0,52,52,27,1,
,,,,,,,,,,,,,FF,,,,,,,,0.917,,,,,,,,,,,,,,,,,,,,,,610343e098c067d744ec212a,610364dc21124460e8fb2130,2021-07-29_19h33.29.442,Simcolourproject_2stim_asymm_v5,2020.2.10,Win32,60,61025ae37ef11b136ea224fe,,,,,,,,,422,27,-115,1,0,0,response3disk,,4,-6,12,1,0,0,rectangle,-6,12,1,0,0,,,,,,,-6,12,1,0,0,,0,53,53,121,1,
,,,,,,,,,,,,,FF,,,,,,,,1.2836,,,,,,,,,,,,,,,,,,,,,,610343e098c067d744ec212a,610364dc21124460e8fb2130,2021-07-29_19h33.29.442,Simcolourproject_2stim_asymm_v5,2020.2.10,Win32,60,61025ae37ef11b136ea224fe,,,,,,,,,3412,55,120,1,0,0,response1disk,,7,36,4,1,0,0,rectangle,36,4,1,0,0,,,,,,,36,4,1,0,0,,0,54,54,144,1,
,,,,,,,,,,,,,FF,,,,,,,,0.4246,,,,,,,,,,,,,,,,,,,,,,610343e098c067d744ec212a,610364dc21124460e8fb2130,2021-07-29_19h33.29.442,Simcolourproject_2stim_asymm_v5,2020.2.10,Win32,60,61025ae37ef11b136ea224fe,,,,,,,,,301,50,117,1,0,0,response1disk,,7,32,10,1,0,0,rectangle,32,10,1,0,0,,,,,,,32,10,1,0,0,,0,55,55,86,1,
,,,,,,,,,,,,,FF,,,,,,,,0.5528,,,,,,,,,,,,,,,,,,,,,,610343e098c067d744ec212a,610364dc21124460e8fb2130,2021-07-29_19h33.29.442,Simcolourproject_2stim_asymm_v5,2020.2.10,Win32,60,61025ae37ef11b136ea224fe,,,,,,,,,1737,36,110,1,0,0,response1disk,,7,21,21,1,0,0,rectangle,21,21,1,0,0,,,,,,,21,21,1,0,0,,0,56,56,34,1,
,,,,,,,,,,,,,FF,,,,,,,,1.1737,,,,,,,,,,,,,,,,,,,,,,610343e098c067d744ec212a,610364dc21124460e8fb2130,2021-07-29_19h33.29.442,Simcolourproject_2stim_asymm_v5,2020.2.10,Win32,60,61025ae37ef11b136ea224fe,,,,,,,,,3847,-24,-127,1,0,0,response5disk,,3,34,6,1,0,0,rectangle,34,6,1,0,0,,,,,,,34,6,1,0,0,,0,57,57,97,1,
,,,,,,,,,,,,,FF,,,,,,,,0.5861,,,,,,,,,,,,,,,,,,,,,,610343e098c067d744ec212a,610364dc21124460e8fb2130,2021-07-29_19h33.29.442,Simcolourproject_2stim_asymm_v5,2020.2.10,Win32,60,61025ae37ef11b136ea224fe,,,,,,,,,4215,25,120,1,0,0,response1disk,,7,21,-1,1,0,0,rectangle,21,-1,1,0,0,,,,,,,21,-1,1,0,0,,0,58,58,30,1,
,,,,,,,,,,,,,FF,,,,,,,,1.2525,,,,,,,,,,,,,,,,,,,,,,610343e098c067d744ec212a,610364dc21124460e8fb2130,2021-07-29_19h33.29.442,Simcolourproject_2stim_asymm_v5,2020.2.10,Win32,60,61025ae37ef11b136ea224fe,,,,,,,,,253,-88,-80,1,0,0,response5disk,,2,4,-18,1,0,0,rectangle,4,-18,1,0,0,,,,,,,4,-18,1,0,0,,0,59,59,8,1,
,,,,,,,,,,,,,FF,,,,,,,,1.1183,,,,,,,,,,,,,,,,,,,,,,610343e098c067d744ec212a,610364dc21124460e8fb2130,2021-07-29_19h33.29.442,Simcolourproject_2stim_asymm_v5,2020.2.10,Win32,60,61025ae37ef11b136ea224fe,,,,,,,,,329,37,126,1,0,0,response1disk,,7,32,5,1,0,0,rectangle,32,5,1,0,0,,,,,,,32,5,1,0,0,,0,60,60,158,1,
,,,,,,,,,,,,,FF,,,,,,,,0.5408,,,,,,,,,,,,,,,,,,,,,,610343e098c067d744ec212a,610364dc21124460e8fb2130,2021-07-29_19h33.29.442,Simcolourproject_2stim_asymm_v5,2020.2.10,Win32,60,61025ae37ef11b136ea224fe,,,,,,,,,3314,37,103,1,0,0,response1disk,,7,29,8,1,0,0,rectangle,29,8,1,0,0,,,,,,,29,8,1,0,0,,0,61,61,115,1,
,,,,,,,,,,,,,FF,,,,,,,,0.4195,,,,,,,,,,,,,,,,,,,,,,610343e098c067d744ec212a,610364dc21124460e8fb2130,2021-07-29_19h33.29.442,Simcolourproject_2stim_asymm_v5,2020.2.10,Win32,60,61025ae37ef11b136ea224fe,,,,,,,,,1484,33,90,1,0,0,response1disk,,7,25,4,1,0,0,rectangle,25,4,1,0,0,,,,,,,25,4,1,0,0,,0,62,62,54,1,
,,,,,,,,,,,,,FF,,,,,,,,3.7001,,,,,,,,,,,,,,,,,,,,,,610343e098c067d744ec212a,610364dc21124460e8fb2130,2021-07-29_19h33.29.442,Simcolourproject_2stim_asymm_v5,2020.2.10,Win32,60,61025ae37ef11b136ea224fe,,,,,,,,,2824,113,45,1,0,0,response1disk,,6,12,15,1,0,0,rectangle,12,15,1,0,0,,,,,,,12,15,1,0,0,,0,63,63,1,1,
,,,,,,,,,,,,,FF,,,,,,,,0.3858,,,,,,,,,,,,,,,,,,,,,,610343e098c067d744ec212a,610364dc21124460e8fb2130,2021-07-29_19h33.29.442,Simcolourproject_2stim_asymm_v5,2020.2.10,Win32,60,61025ae37ef11b136ea224fe,,,,,,,,,1629,69,130,1,0,0,response1disk,,7,41,14,1,0,0,rectangle,41,14,1,0,0,,,,,,,41,14,1,0,0,,0,64,64,138,1,
,,,,,,,,,,,,,FF,,,,,,,,0.7904,,,,,,,,,,,,,,,,,,,,,,610343e098c067d744ec212a,610364dc21124460e8fb2130,2021-07-29_19h33.29.442,Simcolourproject_2stim_asymm_v5,2020.2.10,Win32,60,61025ae37ef11b136ea224fe,,,,,,,,,4272,60,103,1,0,0,response1disk,,7,29,18,1,0,0,rectangle,29,18,1,0,0,,,,,,,29,18,1,0,0,,0,65,65,55,1,
,,,,,,,,,,,,,FF,,,,,,,,9.4509,,,,,,,,,,,,,,,,,,,,,,610343e098c067d744ec212a,610364dc21124460e8fb2130,2021-07-29_19h33.29.442,Simcolourproject_2stim_asymm_v5,2020.2.10,Win32,60,61025ae37ef11b136ea224fe,,,,,,,,,2047,135,23,1,0,0,response1disk,,6,-17,-10,1,0,0,rectangle,-17,-10,1,0,0,,,,,,,-17,-10,1,0,0,,0,66,66,69,1,
,,,,,,,,,,,,,FF,,,,,,,,0.7819,,,,,,,,,,,,,,,,,,,,,,610343e098c067d744ec212a,610364dc21124460e8fb2130,2021-07-29_19h33.29.442,Simcolourproject_2stim_asymm_v5,2020.2.10,Win32,60,61025ae37ef11b136ea224fe,,,,,,,,,2163,-77,-120,1,0,0,response5disk,,3,-20,-9,1,0,0,rectangle,-20,-9,1,0,0,,,,,,,-20,-9,1,0,0,,0,67,67,50,1,
,,,,,,,,,,,,,FF,,,,,,,,0.6852,,,,,,,,,,,,,,,,,,,,,,610343e098c067d744ec212a,610364dc21124460e8fb2130,2021-07-29_19h33.29.442,Simcolourproject_2stim_asymm_v5,2020.2.10,Win32,60,61025ae37ef11b136ea224fe,,,,,,,,,1659,115,-116,1,0,0,response3disk,,4,3,-3,1,0,0,rectangle,3,-3,1,0,0,,,,,,,3,-3,1,0,0,,0,68,68,152,1,
,,,,,,,,,,,,,FF,,,,,,,,7.5925,,,,,,,,,,,,,,,,,,,,,,610343e098c067d744ec212a,610364dc21124460e8fb2130,2021-07-29_19h33.29.442,Simcolourproject_2stim_asymm_v5,2020.2.10,Win32,60,61025ae37ef11b136ea224fe,,,,,,,,,3127,67,-136,1,0,0,response3disk,,4,-45,-2,1,0,0,rectangle,-45,-2,1,0,0,,,,,,,-45,-2,1,0,0,,0,69,69,94,1,
,,,,,,,,,,,,,FF,,,,,,,,0.9851,,,,,,,,,,,,,,,,,,,,,,610343e098c067d744ec212a,610364dc21124460e8fb2130,2021-07-29_19h33.29.442,Simcolourproject_2stim_asymm_v5,2020.2.10,Win32,60,61025ae37ef11b136ea224fe,,,,,,,,,791,-53,-128,1,0,0,response5disk,,3,-5,-11,1,0,0,rectangle,-5,-11,1,0,0,,,,,,,-5,-11,1,0,0,,0,70,70,108,1,
,,,,,,,,,,,,,FF,,,,,,,,0.9181,,,,,,,,,,,,,,,,,,,,,,610343e098c067d744ec212a,610364dc21124460e8fb2130,2021-07-29_19h33.29.442,Simcolourproject_2stim_asymm_v5,2020.2.10,Win32,60,61025ae37ef11b136ea224fe,,,,,,,,,3331,-53,-134,1,0,0,response5disk,,3,7,-3,1,0,0,rectangle,7,-3,1,0,0,,,,,,,7,-3,1,0,0,,0,71,71,123,1,
,,,,,,,,,,,,,FF,,,,,,,,0.5859,,,,,,,,,,,,,,,,,,,,,,610343e098c067d744ec212a,610364dc21124460e8fb2130,2021-07-29_19h33.29.442,Simcolourproject_2stim_asymm_v5,2020.2.10,Win32,60,61025ae37ef11b136ea224fe,,,,,,,,,4048,60,-108,1,0,0,response3disk,,4,18,9,1,0,0,rectangle,18,9,1,0,0,,,,,,,18,9,1,0,0,,0,72,72,128,1,
,,,,,,,,,,,,,FF,,,,,,,,0.5,,,,,,,,,,,,,,,,,,,,,,610343e098c067d744ec212a,610364dc21124460e8fb2130,2021-07-29_19h33.29.442,Simcolourproject_2stim_asymm_v5,2020.2.10,Win32,60,61025ae37ef11b136ea224fe,,,,,,,,,2692,108,-51,1,0,0,response3disk,,5,-4,-3,1,0,0,rectangle,-4,-3,1,0,0,,,,,,,-4,-3,1,0,0,,0,73,73,113,1,
,,,,,,,,,,,,,FF,,,,,,,,0.4693,,,,,,,,,,,,,,,,,,,,,,610343e098c067d744ec212a,610364dc21124460e8fb2130,2021-07-29_19h33.29.442,Simcolourproject_2stim_asymm_v5,2020.2.10,Win32,60,61025ae37ef11b136ea224fe,,,,,,,,,2565,47,95,1,0,0,response1disk,,7,17,15,1,0,0,rectangle,17,15,1,0,0,,,,,,,17,15,1,0,0,,0,74,74,124,1,
,,,,,,,,,,,,,FF,,,,,,,,0.8166,,,,,,,,,,,,,,,,,,,,,,610343e098c067d744ec212a,610364dc21124460e8fb2130,2021-07-29_19h33.29.442,Simcolourproject_2stim_asymm_v5,2020.2.10,Win32,60,61025ae37ef11b136ea224fe,,,,,,,,,2054,36,-96,1,0,0,response3disk,,4,-17,2,1,0,0,rectangle,-17,2,1,0,0,,,,,,,-17,2,1,0,0,,0,75,75,60,1,
,,,,,,,,,,,,,FF,,,,,,,,0.6643,,,,,,,,,,,,,,,,,,,,,,610343e098c067d744ec212a,610364dc21124460e8fb2130,2021-07-29_19h33.29.442,Simcolourproject_2stim_asymm_v5,2020.2.10,Win32,60,61025ae37ef11b136ea224fe,,,,,,,,,2530,100,-56,1,0,0,response3disk,,5,17,-3,1,0,0,rectangle,17,-3,1,0,0,,,,,,,17,-3,1,0,0,,0,76,76,16,1,
,,,,,,,,,,,,,FF,,,,,,,,0.4042,,,,,,,,,,,,,,,,,,,,,,610343e098c067d744ec212a,610364dc21124460e8fb2130,2021-07-29_19h33.29.442,Simcolourproject_2stim_asymm_v5,2020.2.10,Win32,60,61025ae37ef11b136ea224fe,,,,,,,,,2019,36,95,1,0,0,response1disk,,7,26,11,1,0,0,rectangle,26,11,1,0,0,,,,,,,26,11,1,0,0,,0,77,77,105,1,
,,,,,,,,,,,,,FF,,,,,,,,1.0365,,,,,,,,,,,,,,,,,,,,,,610343e098c067d744ec212a,610364dc21124460e8fb2130,2021-07-29_19h33.29.442,Simcolourproject_2stim_asymm_v5,2020.2.10,Win32,60,61025ae37ef11b136ea224fe,,,,,,,,,2834,-103,-61,1,0,0,response5disk,,2,-16,-11,1,0,0,rectangle,-48,128,1,0,0,response7disk_3,TRUE,0,0,"[21,143,102,192,50,282,269,79,96,1,236,210,265,308,96,270,149,173,264,321]",1.7331,5,17,1,0,0,rectangle,0,78,78,41,1,
,,,,,,,,,,,,,FF,,,,,,,,1.0659,,,,,,,,,,,,,,,,,,,,,,610343e098c067d744ec212a,610364dc21124460e8fb2130,2021-07-29_19h33.29.442,Simcolourproject_2stim_asymm_v5,2020.2.10,Win32,60,61025ae37ef11b136ea224fe,,,,,,,,,865,65,121,1,0,0,response1disk,,7,34,12,1,0,0,rectangle,34,12,1,0,0,,,,,,,34,12,1,0,0,,0,79,79,114,1,
,,,,,,,,,,,,,FF,,,,,,,,0.3194,,,,,,,,,,,,,,,,,,,,,,610343e098c067d744ec212a,610364dc21124460e8fb2130,2021-07-29_19h33.29.442,Simcolourproject_2stim_asymm_v5,2020.2.10,Win32,60,61025ae37ef11b136ea224fe,,,,,,,,,1553,24,140,1,0,0,response1disk,,7,19,7,1,0,0,rectangle,19,7,1,0,0,,,,,,,19,7,1,0,0,,0,80,80,42,1,
,,,,,,,,,,,,,FF,,,,,,,,0.3476,,,,,,,,,,,,,,,,,,,,,,610343e098c067d744ec212a,610364dc21124460e8fb2130,2021-07-29_19h33.29.442,Simcolourproject_2stim_asymm_v5,2020.2.10,Win32,60,61025ae37ef11b136ea224fe,,,,,,,,,439,38,108,1,0,0,response1disk,,7,32,5,1,0,0,rectangle,32,5,1,0,0,,,,,,,32,5,1,0,0,,0,81,81,118,1,
,,,,,,,,,,,,,FF,,,,,,,,0.3133,,,,,,,,,,,,,,,,,,,,,,610343e098c067d744ec212a,610364dc21124460e8fb2130,2021-07-29_19h33.29.442,Simcolourproject_2stim_asymm_v5,2020.2.10,Win32,60,61025ae37ef11b136ea224fe,,,,,,,,,2102,39,107,1,0,0,response1disk,,7,16,-5,1,0,0,rectangle,16,-5,1,0,0,,,,,,,16,-5,1,0,0,,0,82,82,71,1,
,,,,,,,,,,,,,FF,,,,,,,,0.3861,,,,,,,,,,,,,,,,,,,,,,610343e098c067d744ec212a,610364dc21124460e8fb2130,2021-07-29_19h33.29.442,Simcolourproject_2stim_asymm_v5,2020.2.10,Win32,60,61025ae37ef11b136ea224fe,,,,,,,,,2279,40,112,1,0,0,response1disk,,7,6,-16,1,0,0,rectangle,6,-16,1,0,0,,,,,,,6,-16,1,0,0,,0,83,83,106,1,
,,,,,,,,,,,,,FF,,,,,,,,0.4028,,,,,,,,,,,,,,,,,,,,,,610343e098c067d744ec212a,610364dc21124460e8fb2130,2021-07-29_19h33.29.442,Simcolourproject_2stim_asymm_v5,2020.2.10,Win32,60,61025ae37ef11b136ea224fe,,,,,,,,,282,113,26,1,0,0,response1disk,,6,30,2,1,0,0,rectangle,30,2,1,0,0,,,,,,,30,2,1,0,0,,0,84,84,116,1,
,,,,,,,,,,,,,FF,,,,,,,,0.4195,,,,,,,,,,,,,,,,,,,,,,610343e098c067d744ec212a,610364dc21124460e8fb2130,2021-07-29_19h33.29.442,Simcolourproject_2stim_asymm_v5,2020.2.10,Win32,60,61025ae37ef11b136ea224fe,,,,,,,,,483,91,43,1,0,0,response1disk,,6,15,7,1,0,0,rectangle,15,7,1,0,0,,,,,,,15,7,1,0,0,,0,85,85,156,1,
,,,,,,,,,,,,,FF,,,,,,,,0.5671,,,,,,,,,,,,,,,,,,,,,,610343e098c067d744ec212a,610364dc21124460e8fb2130,2021-07-29_19h33.29.442,Simcolourproject_2stim_asymm_v5,2020.2.10,Win32,60,61025ae37ef11b136ea224fe,,,,,,,,,3351,56,128,1,0,0,response1disk,,7,29,-16,1,0,0,rectangle,29,-16,1,0,0,,,,,,,29,-16,1,0,0,,0,86,86,133,1,
,,,,,,,,,,,,,FF,,,,,,,,0.403,,,,,,,,,,,,,,,,,,,,,,610343e098c067d744ec212a,610364dc21124460e8fb2130,2021-07-29_19h33.29.442,Simcolourproject_2stim_asymm_v5,2020.2.10,Win32,60,61025ae37ef11b136ea224fe,,,,,,,,,2665,44,108,1,0,0,response1disk,,7,27,-4,1,0,0,rectangle,27,-4,1,0,0,,,,,,,27,-4,1,0,0,,0,87,87,153,1,
,,,,,,,,,,,,,FF,,,,,,,,0.4026,,,,,,,,,,,,,,,,,,,,,,610343e098c067d744ec212a,610364dc21124460e8fb2130,2021-07-29_19h33.29.442,Simcolourproject_2stim_asymm_v5,2020.2.10,Win32,60,61025ae37ef11b136ea224fe,,,,,,,,,481,21,114,1,0,0,response1disk,,7,-8,8,1,0,0,rectangle,-8,8,1,0,0,,,,,,,-8,8,1,0,0,,0,88,88,57,1,
,,,,,,,,,,,,,FF,,,,,,,,0.379,,,,,,,,,,,,,,,,,,,,,,610343e098c067d744ec212a,610364dc21124460e8fb2130,2021-07-29_19h33.29.442,Simcolourproject_2stim_asymm_v5,2020.2.10,Win32,60,61025ae37ef11b136ea224fe,,,,,,,,,4173,32,125,1,0,0,response1disk,,7,26,2,1,0,0,rectangle,26,2,1,0,0,,,,,,,26,2,1,0,0,,0,89,89,149,1,
,,,,,,,,,,,,,FF,,,,,,,,1.2667,,,,,,,,,,,,,,,,,,,,,,610343e098c067d744ec212a,610364dc21124460e8fb2130,2021-07-29_19h33.29.442,Simcolourproject_2stim_asymm_v5,2020.2.10,Win32,60,61025ae37ef11b136ea224fe,,,,,,,,,2385,-44,-120,1,0,0,response5disk,,3,16,4,1,0,0,rectangle,16,4,1,0,0,,,,,,,16,4,1,0,0,,0,90,90,67,1,
,,,,,,,,,,,,,FF,,,,,,,,0.7308,,,,,,,,,,,,,,,,,,,,,,610343e098c067d744ec212a,610364dc21124460e8fb2130,2021-07-29_19h33.29.442,Simcolourproject_2stim_asymm_v5,2020.2.10,Win32,60,61025ae37ef11b136ea224fe,,,,,,,,,3463,-86,-51,1,0,0,response5disk,,2,1,15,1,0,0,rectangle,1,15,1,0,0,,,,,,,1,15,1,0,0,,0,91,91,136,1,
,,,,,,,,,,,,,FF,,,,,,,,0.7333,,,,,,,,,,,,,,,,,,,,,,610343e098c067d744ec212a,610364dc21124460e8fb2130,2021-07-29_19h33.29.442,Simcolourproject_2stim_asymm_v5,2020.2.10,Win32,60,61025ae37ef11b136ea224fe,,,,,,,,,1100,74,-110,1,0,0,response3disk,,4,-12,3,1,0,0,rectangle,-12,3,1,0,0,,,,,,,-12,3,1,0,0,,0,92,92,9,1,
,,,,,,,,,,,,,FF,,,,,,,,0.3609,,,,,,,,,,,,,,,,,,,,,,610343e098c067d744ec212a,610364dc21124460e8fb2130,2021-07-29_19h33.29.442,Simcolourproject_2stim_asymm_v5,2020.2.10,Win32,60,61025ae37ef11b136ea224fe,,,,,,,,,3393,53,-104,1,0,0,response3disk,,4,20,16,1,0,0,rectangle,20,16,1,0,0,,,,,,,20,16,1,0,0,,0,93,93,126,1,
,,,,,,,,,,,,,FF,,,,,,,,1.5861,,,,,,,,,,,,,,,,,,,,,,610343e098c067d744ec212a,610364dc21124460e8fb2130,2021-07-29_19h33.29.442,Simcolourproject_2stim_asymm_v5,2020.2.10,Win32,60,61025ae37ef11b136ea224fe,,,,,,,,,3549,70,-82,1,0,0,response3disk,,4,10,0,1,0,0,rectangle,10,0,1,0,0,,,,,,,10,0,1,0,0,,0,94,94,104,1,
,,,,,,,,,,,,,FF,,,,,,,,1.0695,,,,,,,,,,,,,,,,,,,,,,610343e098c067d744ec212a,610364dc21124460e8fb2130,2021-07-29_19h33.29.442,Simcolourproject_2stim_asymm_v5,2020.2.10,Win32,60,61025ae37ef11b136ea224fe,,,,,,,,,3882,-107,51,1,0,0,response7disk,,1,-15,-6,1,0,0,rectangle,-35,122,1,0,0,response7disk_3,TRUE,0,0,"[21,143,102,192,50,282,269,79,96,1,236,210,265,308,96,270,149,173,264,321]",1.6003,5,4,1,0,0,rectangle,0,95,95,141,1,
,,,,,,,,,,,,,FF,,,,,,,,0.7564,,,,,,,,,,,,,,,,,,,,,,610343e098c067d744ec212a,610364dc21124460e8fb2130,2021-07-29_19h33.29.442,Simcolourproject_2stim_asymm_v5,2020.2.10,Win32,60,61025ae37ef11b136ea224fe,,,,,,,,,2069,-77,-42,1,0,0,response5disk,,2,27,-14,1,0,0,rectangle,27,-14,1,0,0,,,,,,,27,-14,1,0,0,,0,96,96,11,1,
,,,,,,,,,,,,,FF,,,,,,,,0.7669,,,,,,,,,,,,,,,,,,,,,,610343e098c067d744ec212a,610364dc21124460e8fb2130,2021-07-29_19h33.29.442,Simcolourproject_2stim_asymm_v5,2020.2.10,Win32,60,61025ae37ef11b136ea224fe,,,,,,,,,2227,-83,80,1,0,0,response7disk,,1,-1,7,1,0,0,rectangle,-1,7,1,0,0,,,,,,,-1,7,1,0,0,,0,97,97,28,1,
,,,,,,,,,,,,,FF,,,,,,,,0.8862,,,,,,,,,,,,,,,,,,,,,,610343e098c067d744ec212a,610364dc21124460e8fb2130,2021-07-29_19h33.29.442,Simcolourproject_2stim_asymm_v5,2020.2.10,Win32,60,61025ae37ef11b136ea224fe,,,,,,,,,662,-66,-125,1,0,0,response5disk,,3,-11,-8,1,0,0,rectangle,-11,-8,1,0,0,,,,,,,-11,-8,1,0,0,,0,98,98,134,1,
,,,,,,,,,,,,,FF,,,,,,,,0.4861,,,,,,,,,,,,,,,,,,,,,,610343e098c067d744ec212a,610364dc21124460e8fb2130,2021-07-29_19h33.29.442,Simcolourproject_2stim_asymm_v5,2020.2.10,Win32,60,61025ae37ef11b136ea224fe,,,,,,,,,1780,62,-111,1,0,0,response3disk,,4,17,3,1,0,0,rectangle,17,3,1,0,0,,,,,,,17,3,1,0,0,,0,99,99,132,1,
,,,,,,,,,,,,,FF,,,,,,,,0.4004,,,,,,,,,,,,,,,,,,,,,,610343e098c067d744ec212a,610364dc21124460e8fb2130,2021-07-29_19h33.29.442,Simcolourproject_2stim_asymm_v5,2020.2.10,Win32,60,61025ae37ef11b136ea224fe,,,,,,,,,2739,102,-54,1,0,0,response3disk,,5,5,-9,1,0,0,rectangle,5,-9,1,0,0,,,,,,,5,-9,1,0,0,,0,100,100,119,1,
,,,,,,,,,,,,,FF,,,,,,,,0.7233,,,,,,,,,,,,,,,,,,,,,,610343e098c067d744ec212a,610364dc21124460e8fb2130,2021-07-29_19h33.29.442,Simcolourproject_2stim_asymm_v5,2020.2.10,Win32,60,61025ae37ef11b136ea224fe,,,,,,,,,3178,46,122,1,0,0,response1disk,,7,-8,14,1,0,0,rectangle,-40,126,1,0,0,response7disk_3,TRUE,0,0,"[21,143,102,192,50,282,269,79,96,1,236,210,265,308,96,270,149,173,264,321]",1.7669,1,-4,1,0,0,rectangle,0,101,101,66,1,
,,,,,,,,,,,,,FF,,,,,,,,1.2536,,,,,,,,,,,,,,,,,,,,,,610343e098c067d744ec212a,610364dc21124460e8fb2130,2021-07-29_19h33.29.442,Simcolourproject_2stim_asymm_v5,2020.2.10,Win32,60,61025ae37ef11b136ea224fe,,,,,,,,,2656,101,49,1,0,0,response1disk,,6,22,2,1,0,0,rectangle,22,2,1,0,0,,,,,,,22,2,1,0,0,,0,102,102,46,1,
,,,,,,,,,,,,,FF,,,,,,,,0.4312,,,,,,,,,,,,,,,,,,,,,,610343e098c067d744ec212a,610364dc21124460e8fb2130,2021-07-29_19h33.29.442,Simcolourproject_2stim_asymm_v5,2020.2.10,Win32,60,61025ae37ef11b136ea224fe,,,,,,,,,425,46,105,1,0,0,response1disk,,7,26,0,1,0,0,rectangle,26,0,1,0,0,,,,,,,26,0,1,0,0,,0,103,103,107,1,
,,,,,,,,,,,,,FF,,,,,,,,0.5029,,,,,,,,,,,,,,,,,,,,,,610343e098c067d744ec212a,610364dc21124460e8fb2130,2021-07-29_19h33.29.442,Simcolourproject_2stim_asymm_v5,2020.2.10,Win32,60,61025ae37ef11b136ea224fe,,,,,,,,,1827,63,150,1,0,0,response1disk,,7,11,6,1,0,0,rectangle,11,6,1,0,0,,,,,,,11,6,1,0,0,,0,104,104,14,1,
,,,,,,,,,,,,,FF,,,,,,,,0.3338,,,,,,,,,,,,,,,,,,,,,,610343e098c067d744ec212a,610364dc21124460e8fb2130,2021-07-29_19h33.29.442,Simcolourproject_2stim_asymm_v5,2020.2.10,Win32,60,61025ae37ef11b136ea224fe,,,,,,,,,3692,34,102,1,0,0,response1disk,,7,10,-18,1,0,0,rectangle,10,-18,1,0,0,,,,,,,10,-18,1,0,0,,0,105,105,95,1,
,,,,,,,,,,,,,FF,,,,,,,,0.3383,,,,,,,,,,,,,,,,,,,,,,610343e098c067d744ec212a,610364dc21124460e8fb2130,2021-07-29_19h33.29.442,Simcolourproject_2stim_asymm_v5,2020.2.10,Win32,60,61025ae37ef11b136ea224fe,,,,,,,,,1996,41,114,1,0,0,response1disk,,7,-3,11,1,0,0,rectangle,-3,11,1,0,0,,,,,,,-3,11,1,0,0,,0,106,106,64,1,
,,,,,,,,,,,,,FF,,,,,,,,0.5004,,,,,,,,,,,,,,,,,,,,,,610343e098c067d744ec212a,610364dc21124460e8fb2130,2021-07-29_19h33.29.442,Simcolourproject_2stim_asymm_v5,2020.2.10,Win32,60,61025ae37ef11b136ea224fe,,,,,,,,,480,88,40,1,0,0,response1disk,,6,0,16,1,0,0,rectangle,0,16,1,0,0,,,,,,,0,16,1,0,0,,0,107,107,125,1,
,,,,,,,,,,,,,FF,,,,,,,,0.4831,,,,,,,,,,,,,,,,,,,,,,610343e098c067d744ec212a,610364dc21124460e8fb2130,2021-07-29_19h33.29.442,Simcolourproject_2stim_asymm_v5,2020.2.10,Win32,60,61025ae37ef11b136ea224fe,,,,,,,,,584,108,-85,1,0,0,response3disk,,5,11,1,1,0,0,rectangle,11,1,1,0,0,,,,,,,11,1,1,0,0,,0,108,108,146,1,
,,,,,,,,,,,,,FF,,,,,,,,0.9224,,,,,,,,,,,,,,,,,,,,,,610343e098c067d744ec212a,610364dc21124460e8fb2130,2021-07-29_19h33.29.442,Simcolourproject_2stim_asymm_v5,2020.2.10,Win32,60,61025ae37ef11b136ea224fe,,,,,,,,,2830,96,-48,1,0,0,response3disk,,5,2,-8,1,0,0,rectangle,2,-8,1,0,0,,,,,,,2,-8,1,0,0,,0,109,109,112,1,
,,,,,,,,,,,,,FF,,,,,,,,1.1897,,,,,,,,,,,,,,,,,,,,,,610343e098c067d744ec212a,610364dc21124460e8fb2130,2021-07-29_19h33.29.442,Simcolourproject_2stim_asymm_v5,2020.2.10,Win32,60,61025ae37ef11b136ea224fe,,,,,,,,,1053,-42,-107,1,0,0,response5disk,,3,-5,7,1,0,0,rectangle,-5,7,1,0,0,,,,,,,-5,7,1,0,0,,0,110,110,62,1,
,,,,,,,,,,,,,FF,,,,,,,,0.5876,,,,,,,,,,,,,,,,,,,,,,610343e098c067d744ec212a,610364dc21124460e8fb2130,2021-07-29_19h33.29.442,Simcolourproject_2stim_asymm_v5,2020.2.10,Win32,60,61025ae37ef11b136ea224fe,,,,,,,,,250,-70,-118,1,0,0,response5disk,,3,-22,-13,1,0,0,rectangle,-22,-13,1,0,0,,,,,,,-22,-13,1,0,0,,0,111,111,45,1,
,,,,,,,,,,,,,FF,,,,,,,,0.4704,,,,,,,,,,,,,,,,,,,,,,610343e098c067d744ec212a,610364dc21124460e8fb2130,2021-07-29_19h33.29.442,Simcolourproject_2stim_asymm_v5,2020.2.10,Win32,60,61025ae37ef11b136ea224fe,,,,,,,,,2731,39,-109,1,0,0,response3disk,,4,-13,-5,1,0,0,rectangle,-13,-5,1,0,0,,,,,,,-13,-5,1,0,0,,0,112,112,39,1,
,,,,,,,,,,,,,FF,,,,,,,,0.8504,,,,,,,,,,,,,,,,,,,,,,610343e098c067d744ec212a,610364dc21124460e8fb2130,2021-07-29_19h33.29.442,Simcolourproject_2stim_asymm_v5,2020.2.10,Win32,60,61025ae37ef11b136ea224fe,,,,,,,,,2,-131,61,1,0,0,response7disk,,1,-34,-9,1,0,0,rectangle,-34,-9,1,0,0,,,,,,,-34,-9,1,0,0,,0,113,113,25,1,
,,,,,,,,,,,,,FF,,,,,,,,1.2973,,,,,,,,,,,,,,,,,,,,,,610343e098c067d744ec212a,610364dc21124460e8fb2130,2021-07-29_19h33.29.442,Simcolourproject_2stim_asymm_v5,2020.2.10,Win32,60,61025ae37ef11b136ea224fe,,,,,,,,,1588,61,-94,1,0,0,response3disk,,4,9,14,1,0,0,rectangle,9,14,1,0,0,,,,,,,9,14,1,0,0,,0,114,114,53,1,
,,,,,,,,,,,,,FF,,,,,,,,0.6528,,,,,,,,,,,,,,,,,,,,,,610343e098c067d744ec212a,610364dc21124460e8fb2130,2021-07-29_19h33.29.442,Simcolourproject_2stim_asymm_v5,2020.2.10,Win32,60,61025ae37ef11b136ea224fe,,,,,,,,,1912,27,125,1,0,0,response1disk,,7,15,12,1,0,0,rectangle,15,12,1,0,0,,,,,,,15,12,1,0,0,,0,115,115,47,1,
,,,,,,,,,,,,,FF,,,,,,,,0.5832,,,,,,,,,,,,,,,,,,,,,,610343e098c067d744ec212a,610364dc21124460e8fb2130,2021-07-29_19h33.29.442,Simcolourproject_2stim_asymm_v5,2020.2.10,Win32,60,61025ae37ef11b136ea224fe,,,,,,,,,1698,96,83,1,0,0,response1disk,,6,45,-5,1,0,0,rectangle,45,-5,1,0,0,,,,,,,45,-5,1,0,0,,0,116,116,117,1,
,,,,,,,,,,,,,FF,,,,,,,,0.3041,,,,,,,,,,,,,,,,,,,,,,610343e098c067d744ec212a,610364dc21124460e8fb2130,2021-07-29_19h33.29.442,Simcolourproject_2stim_asymm_v5,2020.2.10,Win32,60,61025ae37ef11b136ea224fe,,,,,,,,,2819,97,-47,1,0,0,response3disk,,5,28,-7,1,0,0,rectangle,28,-7,1,0,0,,,,,,,28,-7,1,0,0,,0,117,117,130,1,
,,,,,,,,,,,,,FF,,,,,,,,0.6364,,,,,,,,,,,,,,,,,,,,,,610343e098c067d744ec212a,610364dc21124460e8fb2130,2021-07-29_19h33.29.442,Simcolourproject_2stim_asymm_v5,2020.2.10,Win32,60,61025ae37ef11b136ea224fe,,,,,,,,,3959,71,-91,1,0,0,response3disk,,4,3,-16,1,0,0,rectangle,3,-16,1,0,0,,,,,,,3,-16,1,0,0,,0,118,118,23,1,
,,,,,,,,,,,,,FF,,,,,,,,1.0167,,,,,,,,,,,,,,,,,,,,,,610343e098c067d744ec212a,610364dc21124460e8fb2130,2021-07-29_19h33.29.442,Simcolourproject_2stim_asymm_v5,2020.2.10,Win32,60,61025ae37ef11b136ea224fe,,,,,,,,,2059,114,61,1,0,0,response1disk,,6,35,4,1,0,0,rectangle,35,4,1,0,0,,,,,,,35,4,1,0,0,,0,119,119,33,1,
,,,,,,,,,,,,,FF,,,,,,,,0.5528,,,,,,,,,,,,,,,,,,,,,,610343e098c067d744ec212a,610364dc21124460e8fb2130,2021-07-29_19h33.29.442,Simcolourproject_2stim_asymm_v5,2020.2.10,Win32,60,61025ae37ef11b136ea224fe,,,,,,,,,3732,44,110,1,0,0,response1disk,,7,14,2,1,0,0,rectangle,14,2,1,0,0,,,,,,,14,2,1,0,0,,0,120,120,82,1,
,,,,,,,,,,,,,FF,,,,,,,,0.4562,,,,,,,,,,,,,,,,,,,,,,610343e098c067d744ec212a,610364dc21124460e8fb2130,2021-07-29_19h33.29.442,Simcolourproject_2stim_asymm_v5,2020.2.10,Win32,60,61025ae37ef11b136ea224fe,,,,,,,,,2193,38,75,1,0,0,response1disk,,7,12,7,1,0,0,rectangle,12,7,1,0,0,,,,,,,12,7,1,0,0,,0,121,121,31,1,
,,,,,,,,,,,,,FF,,,,,,,,0.8166,,,,,,,,,,,,,,,,,,,,,,610343e098c067d744ec212a,610364dc21124460e8fb2130,2021-07-29_19h33.29.442,Simcolourproject_2stim_asymm_v5,2020.2.10,Win32,60,61025ae37ef11b136ea224fe,,,,,,,,,1264,121,-76,1,0,0,response3disk,,5,14,12,1,0,0,rectangle,14,12,1,0,0,,,,,,,14,12,1,0,0,,0,122,122,102,1,
,,,,,,,,,,,,,FF,,,,,,,,0.4503,,,,,,,,,,,,,,,,,,,,,,610343e098c067d744ec212a,610364dc21124460e8fb2130,2021-07-29_19h33.29.442,Simcolourproject_2stim_asymm_v5,2020.2.10,Win32,60,61025ae37ef11b136ea224fe,,,,,,,,,3378,59,-114,1,0,0,response3disk,,4,15,-9,1,0,0,rectangle,15,-9,1,0,0,,,,,,,15,-9,1,0,0,,0,123,123,142,1,
,,,,,,,,,,,,,FF,,,,,,,,1.0678,,,,,,,,,,,,,,,,,,,,,,610343e098c067d744ec212a,610364dc21124460e8fb2130,2021-07-29_19h33.29.442,Simcolourproject_2stim_asymm_v5,2020.2.10,Win32,60,61025ae37ef11b136ea224fe,,,,,,,,,4033,-74,-125,1,0,0,response5disk,,3,20,-8,1,0,0,rectangle,20,-8,1,0,0,,,,,,,20,-8,1,0,0,,0,124,124,73,1,
,,,,,,,,,,,,,FF,,,,,,,,0.4218,,,,,,,,,,,,,,,,,,,,,,610343e098c067d744ec212a,610364dc21124460e8fb2130,2021-07-29_19h33.29.442,Simcolourproject_2stim_asymm_v5,2020.2.10,Win32,60,61025ae37ef11b136ea224fe,,,,,,,,,1990,61,-93,1,0,0,response3disk,,4,28,10,1,0,0,rectangle,28,10,1,0,0,,,,,,,28,10,1,0,0,,0,125,125,15,1,
,,,,,,,,,,,,,FF,,,,,,,,0.3874,,,,,,,,,,,,,,,,,,,,,,610343e098c067d744ec212a,610364dc21124460e8fb2130,2021-07-29_19h33.29.442,Simcolourproject_2stim_asymm_v5,2020.2.10,Win32,60,61025ae37ef11b136ea224fe,,,,,,,,,1703,59,-103,1,0,0,response3disk,,4,26,17,1,0,0,rectangle,26,17,1,0,0,,,,,,,26,17,1,0,0,,0,126,126,75,1,
,,,,,,,,,,,,,FF,,,,,,,,0.3661,,,,,,,,,,,,,,,,,,,,,,610343e098c067d744ec212a,610364dc21124460e8fb2130,2021-07-29_19h33.29.442,Simcolourproject_2stim_asymm_v5,2020.2.10,Win32,60,61025ae37ef11b136ea224fe,,,,,,,,,511,98,-49,1,0,0,response3disk,,5,21,-3,1,0,0,rectangle,21,-3,1,0,0,,,,,,,21,-3,1,0,0,,0,127,127,36,1,
,,,,,,,,,,,,,FF,,,,,,,,1.1306,,,,,,,,,,,,,,,,,,,,,,610343e098c067d744ec212a,610364dc21124460e8fb2130,2021-07-29_19h33.29.442,Simcolourproject_2stim_asymm_v5,2020.2.10,Win32,60,61025ae37ef11b136ea224fe,,,,,,,,,4159,127,-60,1,0,0,response3disk,,5,25,-6,1,0,0,rectangle,25,-6,1,0,0,,,,,,,25,-6,1,0,0,,0,128,128,151,1,
,,,,,,,,,,,,,FF,,,,,,,,0.3858,,,,,,,,,,,,,,,,,,,,,,610343e098c067d744ec212a,610364dc21124460e8fb2130,2021-07-29_19h33.29.442,Simcolourproject_2stim_asymm_v5,2020.2.10,Win32,60,61025ae37ef11b136ea224fe,,,,,,,,,1935,89,42,1,0,0,response1disk,,6,13,-9,1,0,0,rectangle,13,-9,1,0,0,,,,,,,13,-9,1,0,0,,0,129,129,22,1,
,,,,,,,,,,,,,FF,,,,,,,,0.4065,,,,,,,,,,,,,,,,,,,,,,610343e098c067d744ec212a,610364dc21124460e8fb2130,2021-07-29_19h33.29.442,Simcolourproject_2stim_asymm_v5,2020.2.10,Win32,60,61025ae37ef11b136ea224fe,,,,,,,,,3947,54,109,1,0,0,response1disk,,7,20,18,1,0,0,rectangle,20,18,1,0,0,,,,,,,20,18,1,0,0,,0,130,130,155,1,
,,,,,,,,,,,,,FF,,,,,,,,0.5063,,,,,,,,,,,,,,,,,,,,,,610343e098c067d744ec212a,610364dc21124460e8fb2130,2021-07-29_19h33.29.442,Simcolourproject_2stim_asymm_v5,2020.2.10,Win32,60,61025ae37ef11b136ea224fe,,,,,,,,,3852,98,39,1,0,0,response1disk,,6,45,-19,1,0,0,rectangle,45,-19,1,0,0,,,,,,,45,-19,1,0,0,,0,131,131,72,1,
,,,,,,,,,,,,,FF,,,,,,,,1.1647,,,,,,,,,,,,,,,,,,,,,,610343e098c067d744ec212a,610364dc21124460e8fb2130,2021-07-29_19h33.29.442,Simcolourproject_2stim_asymm_v5,2020.2.10,Win32,60,61025ae37ef11b136ea224fe,,,,,,,,,260,-129,-49,1,0,0,response5disk,,2,4,-11,1,0,0,rectangle,4,-11,1,0,0,,,,,,,4,-11,1,0,0,,0,132,132,159,1,
,,,,,,,,,,,,,FF,,,,,,,,0.6195,,,,,,,,,,,,,,,,,,,,,,610343e098c067d744ec212a,610364dc21124460e8fb2130,2021-07-29_19h33.29.442,Simcolourproject_2stim_asymm_v5,2020.2.10,Win32,60,61025ae37ef11b136ea224fe,,,,,,,,,1372,-84,44,1,0,0,response7disk,,1,17,-15,1,0,0,rectangle,17,-15,1,0,0,,,,,,,17,-15,1,0,0,,0,133,133,137,1,
,,,,,,,,,,,,,FF,,,,,,,,0.2667,,,,,,,,,,,,,,,,,,,,,,610343e098c067d744ec212a,610364dc21124460e8fb2130,2021-07-29_19h33.29.442,Simcolourproject_2stim_asymm_v5,2020.2.10,Win32,60,61025ae37ef11b136ea224fe,,,,,,,,,449,-107,34,1,0,0,response7disk,,1,-26,-13,1,0,0,rectangle,-26,-13,1,0,0,,,,,,,-26,-13,1,0,0,,0,134,134,65,1,
,,,,,,,,,,,,,FF,,,,,,,,0.2026,,,,,,,,,,,,,,,,,,,,,,610343e098c067d744ec212a,610364dc21124460e8fb2130,2021-07-29_19h33.29.442,Simcolourproject_2stim_asymm_v5,2020.2.10,Win32,60,61025ae37ef11b136ea224fe,,,,,,,,,2629,-110,48,1,0,0,response7disk,,1,-12,-5,1,0,0,rectangle,-12,-5,1,0,0,,,,,,,-12,-5,1,0,0,,0,135,135,10,1,
,,,,,,,,,,,,,FF,,,,,,,,0.9833,,,,,,,,,,,,,,,,,,,,,,610343e098c067d744ec212a,610364dc21124460e8fb2130,2021-07-29_19h33.29.442,Simcolourproject_2stim_asymm_v5,2020.2.10,Win32,60,61025ae37ef11b136ea224fe,,,,,,,,,2374,45,-117,1,0,0,response3disk,,4,-23,10,1,0,0,rectangle,-23,10,1,0,0,,,,,,,-23,10,1,0,0,,0,136,136,88,1,
,,,,,,,,,,,,,FF,,,,,,,,0.6834,,,,,,,,,,,,,,,,,,,,,,610343e098c067d744ec212a,610364dc21124460e8fb2130,2021-07-29_19h33.29.442,Simcolourproject_2stim_asymm_v5,2020.2.10,Win32,60,61025ae37ef11b136ea224fe,,,,,,,,,3918,114,-65,1,0,0,response3disk,,5,10,-21,1,0,0,rectangle,10,-21,1,0,0,,,,,,,10,-21,1,0,0,,0,137,137,89,1,
,,,,,,,,,,,,,FF,,,,,,,,0.7363,,,,,,,,,,,,,,,,,,,,,,610343e098c067d744ec212a,610364dc21124460e8fb2130,2021-07-29_19h33.29.442,Simcolourproject_2stim_asymm_v5,2020.2.10,Win32,60,61025ae37ef11b136ea224fe,,,,,,,,,1429,46,-100,1,0,0,response3disk,,4,12,-3,1,0,0,rectangle,12,-3,1,0,0,,,,,,,12,-3,1,0,0,,0,138,138,83,1,
,,,,,,,,,,,,,FF,,,,,,,,0.4226,,,,,,,,,,,,,,,,,,,,,,610343e098c067d744ec212a,610364dc21124460e8fb2130,2021-07-29_19h33.29.442,Simcolourproject_2stim_asymm_v5,2020.2.10,Win32,60,61025ae37ef11b136ea224fe,,,,,,,,,2597,-30,-111,1,0,0,response5disk,,3,10,-13,1,0,0,rectangle,10,-13,1,0,0,,,,,,,10,-13,1,0,0,,0,139,139,70,1,
,,,,,,,,,,,,,FF,,,,,,,,0.2832,,,,,,,,,,,,,,,,,,,,,,610343e098c067d744ec212a,610364dc21124460e8fb2130,2021-07-29_19h33.29.442,Simcolourproject_2stim_asymm_v5,2020.2.10,Win32,60,61025ae37ef11b136ea224fe,,,,,,,,,1664,104,-39,1,0,0,response3disk,,5,18,-2,1,0,0,rectangle,18,-2,1,0,0,,,,,,,18,-2,1,0,0,,0,140,140,21,1,
,,,,,,,,,,,,,FF,,,,,,,,0.9334,,,,,,,,,,,,,,,,,,,,,,610343e098c067d744ec212a,610364dc21124460e8fb2130,2021-07-29_19h33.29.442,Simcolourproject_2stim_asymm_v5,2020.2.10,Win32,60,61025ae37ef11b136ea224fe,,,,,,,,,1401,100,-56,1,0,0,response3disk,,5,39,-6,1,0,0,rectangle,39,-6,1,0,0,,,,,,,39,-6,1,0,0,,0,141,141,157,1,
,,,,,,,,,,,,,FF,,,,,,,,0.3661,,,,,,,,,,,,,,,,,,,,,,610343e098c067d744ec212a,610364dc21124460e8fb2130,2021-07-29_19h33.29.442,Simcolourproject_2stim_asymm_v5,2020.2.10,Win32,60,61025ae37ef11b136ea224fe,,,,,,,,,772,118,39,1,0,0,response1disk,,6,27,-3,1,0,0,rectangle,135,-59,1,0,0,response3disk_3,TRUE,5,5,"[21,143,102,192,50,282,269,79,96,1,236,210,265,308,96,270,149,173,264,321]",1.6691,13,-12,1,0,0,rectangle,0,142,142,52,1,
,,,,,,,,,,,,,FF,,,,,,,,0.985,,,,,,,,,,,,,,,,,,,,,,610343e098c067d744ec212a,610364dc21124460e8fb2130,2021-07-29_19h33.29.442,Simcolourproject_2stim_asymm_v5,2020.2.10,Win32,60,61025ae37ef11b136ea224fe,,,,,,,,,1575,97,-42,1,0,0,response3disk,,5,21,-10,1,0,0,rectangle,21,-10,1,0,0,,,,,,,21,-10,1,0,0,,0,143,143,131,1,
,,,,,,,,,,,,,FF,,,,,,,,0.3493,,,,,,,,,,,,,,,,,,,,,,610343e098c067d744ec212a,610364dc21124460e8fb2130,2021-07-29_19h33.29.442,Simcolourproject_2stim_asymm_v5,2020.2.10,Win32,60,61025ae37ef11b136ea224fe,,,,,,,,,1979,82,-39,1,0,0,response3disk,,5,25,-5,1,0,0,rectangle,25,-5,1,0,0,,,,,,,25,-5,1,0,0,,0,144,144,7,1,
,,,,,,,,,,,,,FF,,,,,,,,0.4517,,,,,,,,,,,,,,,,,,,,,,610343e098c067d744ec212a,610364dc21124460e8fb2130,2021-07-29_19h33.29.442,Simcolourproject_2stim_asymm_v5,2020.2.10,Win32,60,61025ae37ef11b136ea224fe,,,,,,,,,144,95,-62,1,0,0,response3disk,,5,35,-11,1,0,0,rectangle,35,-11,1,0,0,,,,,,,35,-11,1,0,0,,0,145,145,17,1,
,,,,,,,,,,,,,FF,,,,,,,,0.5056,,,,,,,,,,,,,,,,,,,,,,610343e098c067d744ec212a,610364dc21124460e8fb2130,2021-07-29_19h33.29.442,Simcolourproject_2stim_asymm_v5,2020.2.10,Win32,60,61025ae37ef11b136ea224fe,,,,,,,,,2728,24,117,1,0,0,response1disk,,7,32,5,1,0,0,rectangle,32,5,1,0,0,,,,,,,32,5,1,0,0,,0,146,146,79,1,
,,,,,,,,,,,,,FF,,,,,,,,0.4699,,,,,,,,,,,,,,,,,,,,,,610343e098c067d744ec212a,610364dc21124460e8fb2130,2021-07-29_19h33.29.442,Simcolourproject_2stim_asymm_v5,2020.2.10,Win32,60,61025ae37ef11b136ea224fe,,,,,,,,,1088,42,104,1,0,0,response1disk,,7,11,9,1,0,0,rectangle,11,9,1,0,0,,,,,,,11,9,1,0,0,,0,147,147,26,1,
,,,,,,,,,,,,,FF,,,,,,,,0.7017,,,,,,,,,,,,,,,,,,,,,,610343e098c067d744ec212a,610364dc21124460e8fb2130,2021-07-29_19h33.29.442,Simcolourproject_2stim_asymm_v5,2020.2.10,Win32,60,61025ae37ef11b136ea224fe,,,,,,,,,2037,-54,-92,1,0,0,response5disk,,3,-5,11,1,0,0,rectangle,48,-121,1,0,0,response3disk_3,TRUE,4,4,"[21,143,102,192,50,282,269,79,96,1,236,210,265,308,96,270,149,173,264,321]",1.1843,16,-3,1,0,0,rectangle,0,148,148,74,1,
,,,,,,,,,,,,,FF,,,,,,,,0.8426,,,,,,,,,,,,,,,,,,,,,,610343e098c067d744ec212a,610364dc21124460e8fb2130,2021-07-29_19h33.29.442,Simcolourproject_2stim_asymm_v5,2020.2.10,Win32,60,61025ae37ef11b136ea224fe,,,,,,,,,4214,-41,-110,1,0,0,response5disk,,3,9,-16,1,0,0,rectangle,9,-16,1,0,0,,,,,,,9,-16,1,0,0,,0,149,149,127,1,
,,,,,,,,,,,,,FF,,,,,,,,0.4185,,,,,,,,,,,,,,,,,,,,,,610343e098c067d744ec212a,610364dc21124460e8fb2130,2021-07-29_19h33.29.442,Simcolourproject_2stim_asymm_v5,2020.2.10,Win32,60,61025ae37ef11b136ea224fe,,,,,,,,,1581,-25,-92,1,0,0,response5disk,,3,19,-1,1,0,0,rectangle,19,-1,1,0,0,,,,,,,19,-1,1,0,0,,0,150,150,103,1,
,,,,,,,,,,,,,FF,,,,,,,,0.3193,,,,,,,,,,,,,,,,,,,,,,610343e098c067d744ec212a,610364dc21124460e8fb2130,2021-07-29_19h33.29.442,Simcolourproject_2stim_asymm_v5,2020.2.10,Win32,60,61025ae37ef11b136ea224fe,,,,,,,,,1838,62,-98,1,0,0,response3disk,,4,14,14,1,0,0,rectangle,14,14,1,0,0,,,,,,,14,14,1,0,0,,0,151,151,154,1,
,,,,,,,,,,,,,FF,,,,,,,,0.9167,,,,,,,,,,,,,,,,,,,,,,610343e098c067d744ec212a,610364dc21124460e8fb2130,2021-07-29_19h33.29.442,Simcolourproject_2stim_asymm_v5,2020.2.10,Win32,60,61025ae37ef11b136ea224fe,,,,,,,,,3505,97,40,1,0,0,response1disk,,6,39,-5,1,0,0,rectangle,39,-5,1,0,0,,,,,,,39,-5,1,0,0,,0,152,152,135,1,
,,,,,,,,,,,,,FF,,,,,,,,0.8849,,,,,,,,,,,,,,,,,,,,,,610343e098c067d744ec212a,610364dc21124460e8fb2130,2021-07-29_19h33.29.442,Simcolourproject_2stim_asymm_v5,2020.2.10,Win32,60,61025ae37ef11b136ea224fe,,,,,,,,,1547,104,-78,1,0,0,response3disk,,5,30,6,1,0,0,rectangle,30,6,1,0,0,,,,,,,30,6,1,0,0,,0,153,153,2,1,
,,,,,,,,,,,,,FF,,,,,,,,0.3195,,,,,,,,,,,,,,,,,,,,,,610343e098c067d744ec212a,610364dc21124460e8fb2130,2021-07-29_19h33.29.442,Simcolourproject_2stim_asymm_v5,2020.2.10,Win32,60,61025ae37ef11b136ea224fe,,,,,,,,,2747,43,-98,1,0,0,response3disk,,4,5,-1,1,0,0,rectangle,5,-1,1,0,0,,,,,,,5,-1,1,0,0,,0,154,154,68,1,
,,,,,,,,,,,,,FF,,,,,,,,0.4197,,,,,,,,,,,,,,,,,,,,,,610343e098c067d744ec212a,610364dc21124460e8fb2130,2021-07-29_19h33.29.442,Simcolourproject_2stim_asymm_v5,2020.2.10,Win32,60,61025ae37ef11b136ea224fe,,,,,,,,,3878,-34,-96,1,0,0,response5disk,,3,25,7,1,0,0,rectangle,25,7,1,0,0,,,,,,,25,7,1,0,0,,0,155,155,140,1,
,,,,,,,,,,,,,FF,,,,,,,,0.8685,,,,,,,,,,,,,,,,,,,,,,610343e098c067d744ec212a,610364dc21124460e8fb2130,2021-07-29_19h33.29.442,Simcolourproject_2stim_asymm_v5,2020.2.10,Win32,60,61025ae37ef11b136ea224fe,,,,,,,,,1816,-101,26,1,0,0,response7disk,,1,-35,-21,1,0,0,rectangle,-35,-21,1,0,0,,,,,,,-35,-21,1,0,0,,0,156,156,44,1,
,,,,,,,,,,,,,FF,,,,,,,,0.3499,,,,,,,,,,,,,,,,,,,,,,610343e098c067d744ec212a,610364dc21124460e8fb2130,2021-07-29_19h33.29.442,Simcolourproject_2stim_asymm_v5,2020.2.10,Win32,60,61025ae37ef11b136ea224fe,,,,,,,,,1131,-107,50,1,0,0,response7disk,,1,-29,7,1,0,0,rectangle,-29,7,1,0,0,,,,,,,-29,7,1,0,0,,0,157,157,29,1,
,,,,,,,,,,,,,FF,,,,,,,,0.735,,,,,,,,,,,,,,,,,,,,,,610343e098c067d744ec212a,610364dc21124460e8fb2130,2021-07-29_19h33.29.442,Simcolourproject_2stim_asymm_v5,2020.2.10,Win32,60,61025ae37ef11b136ea224fe,,,,,,,,,3672,-96,50,1,0,0,response7disk,,1,-19,4,1,0,0,rectangle,-19,4,1,0,0,,,,,,,-19,4,1,0,0,,0,158,158,87,1,
,,,,,,,,,,,,,FF,,,,,,,,1.2913,,,,,,,,,,,,,,,,,,,,,,610343e098c067d744ec212a,610364dc21124460e8fb2130,2021-07-29_19h33.29.442,Simcolourproject_2stim_asymm_v5,2020.2.10,Win32,60,61025ae37ef11b136ea224fe,,,,,,,,,464,45,-106,1,0,0,response3disk,,4,-25,-21,1,0,0,rectangle,-25,-21,1,0,0,,,,,,,-25,-21,1,0,0,,0,159,159,61,1,
,,,,,,,,,,,,,FF,,,,,,,,0.45,,,,,,,,,,,,,,,,,,,,,,610343e098c067d744ec212a,610364dc21124460e8fb2130,2021-07-29_19h33.29.442,Simcolourproject_2stim_asymm_v5,2020.2.10,Win32,60,61025ae37ef11b136ea224fe,,,,,,,,,1283,51,-99,1,0,0,response3disk,,4,0,13,1,0,0,rectangle,0,13,1,0,0,,,,,,,0,13,1,0,0,,1,0,160,121,1,
,,,,,,,,,,,,,FF,,,,,,,,0.2826,,,,,,,,,,,,,,,,,,,,,,610343e098c067d744ec212a,610364dc21124460e8fb2130,2021-07-29_19h33.29.442,Simcolourproject_2stim_asymm_v5,2020.2.10,Win32,60,61025ae37ef11b136ea224fe,,,,,,,,,2921,108,-44,1,0,0,response3disk,,5,47,13,1,0,0,rectangle,47,13,1,0,0,,,,,,,47,13,1,0,0,,1,1,161,71,1,
,,,,,,,,,,,,,FF,,,,,,,,0.3184,,,,,,,,,,,,,,,,,,,,,,610343e098c067d744ec212a,610364dc21124460e8fb2130,2021-07-29_19h33.29.442,Simcolourproject_2stim_asymm_v5,2020.2.10,Win32,60,61025ae37ef11b136ea224fe,,,,,,,,,103,59,99,1,0,0,response1disk,,7,17,20,1,0,0,rectangle,17,20,1,0,0,,,,,,,17,20,1,0,0,,1,2,162,28,1,
,,,,,,,,,,,,,FF,,,,,,,,0.2363,,,,,,,,,,,,,,,,,,,,,,610343e098c067d744ec212a,610364dc21124460e8fb2130,2021-07-29_19h33.29.442,Simcolourproject_2stim_asymm_v5,2020.2.10,Win32,60,61025ae37ef11b136ea224fe,,,,,,,,,3088,64,98,1,0,0,response1disk,,7,22,3,1,0,0,rectangle,22,3,1,0,0,,,,,,,22,3,1,0,0,,1,3,163,124,1,
,,,,,,,,,,,,,FF,,,,,,,,0.2208,,,,,,,,,,,,,,,,,,,,,,610343e098c067d744ec212a,610364dc21124460e8fb2130,2021-07-29_19h33.29.442,Simcolourproject_2stim_asymm_v5,2020.2.10,Win32,60,61025ae37ef11b136ea224fe,,,,,,,,,767,83,122,1,0,0,response1disk,,7,18,20,1,0,0,rectangle,18,20,1,0,0,,,,,,,18,20,1,0,0,,1,4,164,48,1,
,,,,,,,,,,,,,FF,,,,,,,,0.2165,,,,,,,,,,,,,,,,,,,,,,610343e098c067d744ec212a,610364dc21124460e8fb2130,2021-07-29_19h33.29.442,Simcolourproject_2stim_asymm_v5,2020.2.10,Win32,60,61025ae37ef11b136ea224fe,,,,,,,,,738,65,108,1,0,0,response1disk,,7,3,-11,1,0,0,rectangle,3,-11,1,0,0,,,,,,,3,-11,1,0,0,,1,5,165,157,1,
,,,,,,,,,,,,,FF,,,,,,,,0.8194,,,,,,,,,,,,,,,,,,,,,,610343e098c067d744ec212a,610364dc21124460e8fb2130,2021-07-29_19h33.29.442,Simcolourproject_2stim_asymm_v5,2020.2.10,Win32,60,61025ae37ef11b136ea224fe,,,,,,,,,2185,69,110,1,0,0,response1disk,,7,10,-1,1,0,0,rectangle,10,-1,1,0,0,,,,,,,10,-1,1,0,0,,1,6,166,75,1,
,,,,,,,,,,,,,FF,,,,,,,,0.1715,,,,,,,,,,,,,,,,,,,,,,610343e098c067d744ec212a,610364dc21124460e8fb2130,2021-07-29_19h33.29.442,Simcolourproject_2stim_asymm_v5,2020.2.10,Win32,60,61025ae37ef11b136ea224fe,,,,,,,,,3828,61,108,1,0,0,response1disk,,7,10,4,1,0,0,rectangle,10,4,1,0,0,,,,,,,10,4,1,0,0,,1,7,167,4,1,
,,,,,,,,,,,,,FF,,,,,,,,0.385,,,,,,,,,,,,,,,,,,,,,,610343e098c067d744ec212a,610364dc21124460e8fb2130,2021-07-29_19h33.29.442,Simcolourproject_2stim_asymm_v5,2020.2.10,Win32,60,61025ae37ef11b136ea224fe,,,,,,,,,1924,103,36,1,0,0,response1disk,,6,30,-7,1,0,0,rectangle,30,-7,1,0,0,,,,,,,30,-7,1,0,0,,1,8,168,112,1,
,,,,,,,,,,,,,FF,,,,,,,,0.8837,,,,,,,,,,,,,,,,,,,,,,610343e098c067d744ec212a,610364dc21124460e8fb2130,2021-07-29_19h33.29.442,Simcolourproject_2stim_asymm_v5,2020.2.10,Win32,60,61025ae37ef11b136ea224fe,,,,,,,,,3069,101,-55,1,0,0,response3disk,,5,26,-7,1,0,0,rectangle,26,-7,1,0,0,,,,,,,26,-7,1,0,0,,1,9,169,110,1,
,,,,,,,,,,,,,FF,,,,,,,,0.6059,,,,,,,,,,,,,,,,,,,,,,610343e098c067d744ec212a,610364dc21124460e8fb2130,2021-07-29_19h33.29.442,Simcolourproject_2stim_asymm_v5,2020.2.10,Win32,60,61025ae37ef11b136ea224fe,,,,,,,,,494,66,120,1,0,0,response1disk,,7,37,12,1,0,0,rectangle,37,12,1,0,0,,,,,,,37,12,1,0,0,,1,10,170,86,1,
,,,,,,,,,,,,,FF,,,,,,,,0.4028,,,,,,,,,,,,,,,,,,,,,,610343e098c067d744ec212a,610364dc21124460e8fb2130,2021-07-29_19h33.29.442,Simcolourproject_2stim_asymm_v5,2020.2.10,Win32,60,61025ae37ef11b136ea224fe,,,,,,,,,2634,47,-96,1,0,0,response3disk,,4,12,-6,1,0,0,rectangle,12,-6,1,0,0,,,,,,,12,-6,1,0,0,,1,11,171,135,1,
,,,,,,,,,,,,,FF,,,,,,,,0.5835,,,,,,,,,,,,,,,,,,,,,,610343e098c067d744ec212a,610364dc21124460e8fb2130,2021-07-29_19h33.29.442,Simcolourproject_2stim_asymm_v5,2020.2.10,Win32,60,61025ae37ef11b136ea224fe,,,,,,,,,3001,54,120,1,0,0,response1disk,,7,14,2,1,0,0,rectangle,-82,29,1,0,0,response7disk_3,TRUE,1,1,"[21,143,102,192,50,282,269,79,96,1,236,210,265,308,96,270,149,173,264,321]",1.3193,25,13,1,0,0,rectangle,1,12,172,99,1,
,,,,,,,,,,,,,FF,,,,,,,,0.9849,,,,,,,,,,,,,,,,,,,,,,610343e098c067d744ec212a,610364dc21124460e8fb2130,2021-07-29_19h33.29.442,Simcolourproject_2stim_asymm_v5,2020.2.10,Win32,60,61025ae37ef11b136ea224fe,,,,,,,,,621,-57,-117,1,0,0,response5disk,,3,-10,-2,1,0,0,rectangle,-10,-2,1,0,0,,,,,,,-10,-2,1,0,0,,1,13,173,3,1,
,,,,,,,,,,,,,FF,,,,,,,,0.6501,,,,,,,,,,,,,,,,,,,,,,610343e098c067d744ec212a,610364dc21124460e8fb2130,2021-07-29_19h33.29.442,Simcolourproject_2stim_asymm_v5,2020.2.10,Win32,60,61025ae37ef11b136ea224fe,,,,,,,,,1419,85,-130,1,0,0,response3disk,,4,15,1,1,0,0,rectangle,15,1,1,0,0,,,,,,,15,1,1,0,0,,1,14,174,77,1,
,,,,,,,,,,,,,FF,,,,,,,,0.4863,,,,,,,,,,,,,,,,,,,,,,610343e098c067d744ec212a,610364dc21124460e8fb2130,2021-07-29_19h33.29.442,Simcolourproject_2stim_asymm_v5,2020.2.10,Win32,60,61025ae37ef11b136ea224fe,,,,,,,,,1559,60,121,1,0,0,response1disk,,7,4,14,1,0,0,rectangle,4,14,1,0,0,,,,,,,4,14,1,0,0,,1,15,175,36,1,
,,,,,,,,,,,,,FF,,,,,,,,0.7515,,,,,,,,,,,,,,,,,,,,,,610343e098c067d744ec212a,610364dc21124460e8fb2130,2021-07-29_19h33.29.442,Simcolourproject_2stim_asymm_v5,2020.2.10,Win32,60,61025ae37ef11b136ea224fe,,,,,,,,,1180,34,-112,1,0,0,response3disk,,4,4,12,1,0,0,rectangle,4,12,1,0,0,,,,,,,4,12,1,0,0,,1,16,176,139,1,
,,,,,,,,,,,,,FF,,,,,,,,0.5359,,,,,,,,,,,,,,,,,,,,,,610343e098c067d744ec212a,610364dc21124460e8fb2130,2021-07-29_19h33.29.442,Simcolourproject_2stim_asymm_v5,2020.2.10,Win32,60,61025ae37ef11b136ea224fe,,,,,,,,,1204,57,-102,1,0,0,response3disk,,4,14,5,1,0,0,rectangle,14,5,1,0,0,,,,,,,14,5,1,0,0,,1,17,177,136,1,
,,,,,,,,,,,,,FF,,,,,,,,1.1812,,,,,,,,,,,,,,,,,,,,,,610343e098c067d744ec212a,610364dc21124460e8fb2130,2021-07-29_19h33.29.442,Simcolourproject_2stim_asymm_v5,2020.2.10,Win32,60,61025ae37ef11b136ea224fe,,,,,,,,,353,-101,42,1,0,0,response7disk,,1,-5,4,1,0,0,rectangle,-5,4,1,0,0,,,,,,,-5,4,1,0,0,,1,18,178,37,1,
,,,,,,,,,,,,,FF,,,,,,,,1.5695,,,,,,,,,,,,,,,,,,,,,,610343e098c067d744ec212a,610364dc21124460e8fb2130,2021-07-29_19h33.29.442,Simcolourproject_2stim_asymm_v5,2020.2.10,Win32,60,61025ae37ef11b136ea224fe,,,,,,,,,2916,104,51,1,0,0,response1disk,,6,42,16,1,0,0,rectangle,42,16,1,0,0,,,,,,,42,16,1,0,0,,1,19,179,106,1,
,,,,,,,,,,,,,FF,,,,,,,,0.2185,,,,,,,,,,,,,,,,,,,,,,610343e098c067d744ec212a,610364dc21124460e8fb2130,2021-07-29_19h33.29.442,Simcolourproject_2stim_asymm_v5,2020.2.10,Win32,60,61025ae37ef11b136ea224fe,,,,,,,,,292,42,109,1,0,0,response1disk,,7,4,8,1,0,0,rectangle,4,8,1,0,0,,,,,,,4,8,1,0,0,,1,20,180,92,1,
,,,,,,,,,,,,,FF,,,,,,,,0.4504,,,,,,,,,,,,,,,,,,,,,,610343e098c067d744ec212a,610364dc21124460e8fb2130,2021-07-29_19h33.29.442,Simcolourproject_2stim_asymm_v5,2020.2.10,Win32,60,61025ae37ef11b136ea224fe,,,,,,,,,3095,52,110,1,0,0,response1disk,,7,3,3,1,0,0,rectangle,3,3,1,0,0,,,,,,,3,3,1,0,0,,1,21,181,96,1,
,,,,,,,,,,,,,FF,,,,,,,,0.2334,,,,,,,,,,,,,,,,,,,,,,610343e098c067d744ec212a,610364dc21124460e8fb2130,2021-07-29_19h33.29.442,Simcolourproject_2stim_asymm_v5,2020.2.10,Win32,60,61025ae37ef11b136ea224fe,,,,,,,,,12,69,93,1,0,0,response1disk,,7,20,5,1,0,0,rectangle,20,5,1,0,0,,,,,,,20,5,1,0,0,,1,22,182,21,1,
,,,,,,,,,,,,,FF,,,,,,,,0.7348,,,,,,,,,,,,,,,,,,,,,,610343e098c067d744ec212a,610364dc21124460e8fb2130,2021-07-29_19h33.29.442,Simcolourproject_2stim_asymm_v5,2020.2.10,Win32,60,61025ae37ef11b136ea224fe,,,,,,,,,2420,-51,106,1,0,0,response7disk,,0,-11,12,1,0,0,rectangle,-11,12,1,0,0,,,,,,,-11,12,1,0,0,,1,23,183,15,1,
,,,,,,,,,,,,,FF,,,,,,,,0.6037,,,,,,,,,,,,,,,,,,,,,,610343e098c067d744ec212a,610364dc21124460e8fb2130,2021-07-29_19h33.29.442,Simcolourproject_2stim_asymm_v5,2020.2.10,Win32,60,61025ae37ef11b136ea224fe,,,,,,,,,1214,-82,45,1,0,0,response7disk,,1,-3,-15,1,0,0,rectangle,-3,-15,1,0,0,,,,,,,-3,-15,1,0,0,,1,24,184,89,1,
,,,,,,,,,,,,,FF,,,,,,,,1.136,,,,,,,,,,,,,,,,,,,,,,610343e098c067d744ec212a,610364dc21124460e8fb2130,2021-07-29_19h33.29.442,Simcolourproject_2stim_asymm_v5,2020.2.10,Win32,60,61025ae37ef11b136ea224fe,,,,,,,,,3103,107,-83,1,0,0,response3disk,,5,0,8,1,0,0,rectangle,0,8,1,0,0,,,,,,,0,8,1,0,0,,1,25,185,32,1,
,,,,,,,,,,,,,FF,,,,,,,,0.635,,,,,,,,,,,,,,,,,,,,,,610343e098c067d744ec212a,610364dc21124460e8fb2130,2021-07-29_19h33.29.442,Simcolourproject_2stim_asymm_v5,2020.2.10,Win32,60,61025ae37ef11b136ea224fe,,,,,,,,,1903,-42,-88,1,0,0,response5disk,,3,-10,-3,1,0,0,rectangle,-10,-3,1,0,0,,,,,,,-10,-3,1,0,0,,1,26,186,84,1,
,,,,,,,,,,,,,FF,,,,,,,,0.5859,,,,,,,,,,,,,,,,,,,,,,610343e098c067d744ec212a,610364dc21124460e8fb2130,2021-07-29_19h33.29.442,Simcolourproject_2stim_asymm_v5,2020.2.10,Win32,60,61025ae37ef11b136ea224fe,,,,,,,,,4227,-48,-116,1,0,0,response5disk,,3,8,2,1,0,0,rectangle,8,2,1,0,0,,,,,,,8,2,1,0,0,,1,27,187,44,1,
,,,,,,,,,,,,,FF,,,,,,,,0.2809,,,,,,,,,,,,,,,,,,,,,,610343e098c067d744ec212a,610364dc21124460e8fb2130,2021-07-29_19h33.29.442,Simcolourproject_2stim_asymm_v5,2020.2.10,Win32,60,61025ae37ef11b136ea224fe,,,,,,,,,1478,53,-107,1,0,0,response3disk,,4,4,13,1,0,0,rectangle,4,13,1,0,0,,,,,,,4,13,1,0,0,,1,28,188,88,1,
,,,,,,,,,,,,,FF,,,,,,,,0.9324,,,,,,,,,,,,,,,,,,,,,,610343e098c067d744ec212a,610364dc21124460e8fb2130,2021-07-29_19h33.29.442,Simcolourproject_2stim_asymm_v5,2020.2.10,Win32,60,61025ae37ef11b136ea224fe,,,,,,,,,550,-90,-33,1,0,0,response5disk,,2,-6,-13,1,0,0,rectangle,-6,-13,1,0,0,,,,,,,-6,-13,1,0,0,,1,29,189,27,1,
,,,,,,,,,,,,,FF,,,,,,,,0.6332,,,,,,,,,,,,,,,,,,,,,,610343e098c067d744ec212a,610364dc21124460e8fb2130,2021-07-29_19h33.29.442,Simcolourproject_2stim_asymm_v5,2020.2.10,Win32,60,61025ae37ef11b136ea224fe,,,,,,,,,524,-35,-90,1,0,0,response5disk,,3,14,-17,1,0,0,rectangle,14,-17,1,0,0,,,,,,,14,-17,1,0,0,,1,30,190,146,1,
,,,,,,,,,,,,,FF,,,,,,,,0.4668,,,,,,,,,,,,,,,,,,,,,,610343e098c067d744ec212a,610364dc21124460e8fb2130,2021-07-29_19h33.29.442,Simcolourproject_2stim_asymm_v5,2020.2.10,Win32,60,61025ae37ef11b136ea224fe,,,,,,,,,1038,54,-96,1,0,0,response3disk,,4,12,16,1,0,0,rectangle,50,-112,1,0,0,response3disk_3,TRUE,4,4,"[21,143,102,192,50,282,269,79,96,1,236,210,265,308,96,270,149,173,264,321]",1.3169,19,7,1,0,0,rectangle,1,31,191,6,1,
,,,,,,,,,,,,,FF,,,,,,,,0.8692,,,,,,,,,,,,,,,,,,,,,,610343e098c067d744ec212a,610364dc21124460e8fb2130,2021-07-29_19h33.29.442,Simcolourproject_2stim_asymm_v5,2020.2.10,Win32,60,61025ae37ef11b136ea224fe,,,,,,,,,1951,-35,104,1,0,0,response7disk,,0,8,-14,1,0,0,rectangle,8,-14,1,0,0,,,,,,,8,-14,1,0,0,,1,32,192,8,1,
,,,,,,,,,,,,,FF,,,,,,,,1.4502,,,,,,,,,,,,,,,,,,,,,,610343e098c067d744ec212a,610364dc21124460e8fb2130,2021-07-29_19h33.29.442,Simcolourproject_2stim_asymm_v5,2020.2.10,Win32,60,61025ae37ef11b136ea224fe,,,,,,,,,2123,61,108,1,0,0,response1disk,,7,25,14,1,0,0,rectangle,25,14,1,0,0,,,,,,,25,14,1,0,0,,1,33,193,62,1,
,,,,,,,,,,,,,FF,,,,,,,,0.7667,,,,,,,,,,,,,,,,,,,,,,610343e098c067d744ec212a,610364dc21124460e8fb2130,2021-07-29_19h33.29.442,Simcolourproject_2stim_asymm_v5,2020.2.10,Win32,60,61025ae37ef11b136ea224fe,,,,,,,,,3777,-94,41,1,0,0,response7disk,,1,-28,10,1,0,0,rectangle,-28,10,1,0,0,,,,,,,-28,10,1,0,0,,1,34,194,31,1,
,,,,,,,,,,,,,FF,,,,,,,,1.1723,,,,,,,,,,,,,,,,,,,,,,610343e098c067d744ec212a,610364dc21124460e8fb2130,2021-07-29_19h33.29.442,Simcolourproject_2stim_asymm_v5,2020.2.10,Win32,60,61025ae37ef11b136ea224fe,,,,,,,,,2595,56,-110,1,0,0,response3disk,,4,14,-7,1,0,0,rectangle,14,-7,1,0,0,,,,,,,14,-7,1,0,0,,1,35,195,80,1,
,,,,,,,,,,,,,FF,,,,,,,,0.6336,,,,,,,,,,,,,,,,,,,,,,610343e098c067d744ec212a,610364dc21124460e8fb2130,2021-07-29_19h33.29.442,Simcolourproject_2stim_asymm_v5,2020.2.10,Win32,60,61025ae37ef11b136ea224fe,,,,,,,,,619,99,-50,1,0,0,response3disk,,5,23,7,1,0,0,rectangle,23,7,1,0,0,,,,,,,23,7,1,0,0,,1,36,196,57,1,
,,,,,,,,,,,,,FF,,,,,,,,0.6029,,,,,,,,,,,,,,,,,,,,,,610343e098c067d744ec212a,610364dc21124460e8fb2130,2021-07-29_19h33.29.442,Simcolourproject_2stim_asymm_v5,2020.2.10,Win32,60,61025ae37ef11b136ea224fe,,,,,,,,,2673,61,130,1,0,0,response1disk,,7,27,-3,1,0,0,rectangle,27,-3,1,0,0,,,,,,,27,-3,1,0,0,,1,37,197,137,1,
,,,,,,,,,,,,,FF,,,,,,,,0.5686,,,,,,,,,,,,,,,,,,,,,,610343e098c067d744ec212a,610364dc21124460e8fb2130,2021-07-29_19h33.29.442,Simcolourproject_2stim_asymm_v5,2020.2.10,Win32,60,61025ae37ef11b136ea224fe,,,,,,,,,1328,111,38,1,0,0,response1disk,,6,18,-13,1,0,0,rectangle,18,-13,1,0,0,,,,,,,18,-13,1,0,0,,1,38,198,123,1,
,,,,,,,,,,,,,FF,,,,,,,,0.5001,,,,,,,,,,,,,,,,,,,,,,610343e098c067d744ec212a,610364dc21124460e8fb2130,2021-07-29_19h33.29.442,Simcolourproject_2stim_asymm_v5,2020.2.10,Win32,60,61025ae37ef11b136ea224fe,,,,,,,,,914,61,117,1,0,0,response1disk,,7,10,2,1,0,0,rectangle,10,2,1,0,0,,,,,,,10,2,1,0,0,,1,39,199,133,1,
,,,,,,,,,,,,,FF,,,,,,,,1.0864,,,,,,,,,,,,,,,,,,,,,,610343e098c067d744ec212a,610364dc21124460e8fb2130,2021-07-29_19h33.29.442,Simcolourproject_2stim_asymm_v5,2020.2.10,Win32,60,61025ae37ef11b136ea224fe,,,,,,,,,401,99,-69,1,0,0,response3disk,,5,18,5,1,0,0,rectangle,18,5,1,0,0,,,,,,,18,5,1,0,0,,1,40,200,81,1,
,,,,,,,,,,,,,FF,,,,,,,,0.6015,,,,,,,,,,,,,,,,,,,,,,610343e098c067d744ec212a,610364dc21124460e8fb2130,2021-07-29_19h33.29.442,Simcolourproject_2stim_asymm_v5,2020.2.10,Win32,60,61025ae37ef11b136ea224fe,,,,,,,,,2940,-59,126,1,0,0,response7disk,,0,5,14,1,0,0,rectangle,5,14,1,0,0,,,,,,,5,14,1,0,0,,1,41,201,76,1,
,,,,,,,,,,,,,FF,,,,,,,,0.7546,,,,,,,,,,,,,,,,,,,,,,610343e098c067d744ec212a,610364dc21124460e8fb2130,2021-07-29_19h33.29.442,Simcolourproject_2stim_asymm_v5,2020.2.10,Win32,60,61025ae37ef11b136ea224fe,,,,,,,,,2959,89,121,1,0,0,response1disk,,7,30,10,1,0,0,rectangle,30,10,1,0,0,,,,,,,30,10,1,0,0,,1,42,202,51,1,
,,,,,,,,,,,,,FF,,,,,,,,0.2863,,,,,,,,,,,,,,,,,,,,,,610343e098c067d744ec212a,610364dc21124460e8fb2130,2021-07-29_19h33.29.442,Simcolourproject_2stim_asymm_v5,2020.2.10,Win32,60,61025ae37ef11b136ea224fe,,,,,,,,,1257,79,106,1,0,0,response1disk,,7,29,13,1,0,0,rectangle,29,13,1,0,0,,,,,,,29,13,1,0,0,,1,43,203,130,1,
,,,,,,,,,,,,,FF,,,,,,,,0.3849,,,,,,,,,,,,,,,,,,,,,,610343e098c067d744ec212a,610364dc21124460e8fb2130,2021-07-29_19h33.29.442,Simcolourproject_2stim_asymm_v5,2020.2.10,Win32,60,61025ae37ef11b136ea224fe,,,,,,,,,3310,66,117,1,0,0,response1disk,,7,0,4,1,0,0,rectangle,0,4,1,0,0,,,,,,,0,4,1,0,0,,1,44,204,141,1,
,,,,,,,,,,,,,FF,,,,,,,,1.0692,,,,,,,,,,,,,,,,,,,,,,610343e098c067d744ec212a,610364dc21124460e8fb2130,2021-07-29_19h33.29.442,Simcolourproject_2stim_asymm_v5,2020.2.10,Win32,60,61025ae37ef11b136ea224fe,,,,,,,,,3105,54,-111,1,0,0,response3disk,,4,25,-9,1,0,0,rectangle,25,-9,1,0,0,,,,,,,25,-9,1,0,0,,1,45,205,70,1,
,,,,,,,,,,,,,FF,,,,,,,,1.0984,,,,,,,,,,,,,,,,,,,,,,610343e098c067d744ec212a,610364dc21124460e8fb2130,2021-07-29_19h33.29.442,Simcolourproject_2stim_asymm_v5,2020.2.10,Win32,60,61025ae37ef11b136ea224fe,,,,,,,,,3275,103,-61,1,0,0,response3disk,,5,16,9,1,0,0,rectangle,16,9,1,0,0,,,,,,,16,9,1,0,0,,1,46,206,11,1,
,,,,,,,,,,,,,FF,,,,,,,,0.4348,,,,,,,,,,,,,,,,,,,,,,610343e098c067d744ec212a,610364dc21124460e8fb2130,2021-07-29_19h33.29.442,Simcolourproject_2stim_asymm_v5,2020.2.10,Win32,60,61025ae37ef11b136ea224fe,,,,,,,,,2432,129,60,1,0,0,response1disk,,6,30,-9,1,0,0,rectangle,30,-9,1,0,0,,,,,,,30,-9,1,0,0,,1,47,207,107,1,
,,,,,,,,,,,,,FF,,,,,,,,0.55,,,,,,,,,,,,,,,,,,,,,,610343e098c067d744ec212a,610364dc21124460e8fb2130,2021-07-29_19h33.29.442,Simcolourproject_2stim_asymm_v5,2020.2.10,Win32,60,61025ae37ef11b136ea224fe,,,,,,,,,1490,113,34,1,0,0,response1disk,,6,37,1,1,0,0,rectangle,37,1,1,0,0,,,,,,,37,1,1,0,0,,1,48,208,134,1,
,,,,,,,,,,,,,FF,,,,,,,,0.5189,,,,,,,,,,,,,,,,,,,,,,610343e098c067d744ec212a,610364dc21124460e8fb2130,2021-07-29_19h33.29.442,Simcolourproject_2stim_asymm_v5,2020.2.10,Win32,60,61025ae37ef11b136ea224fe,,,,,,,,,2845,36,128,1,0,0,response1disk,,7,11,-12,1,0,0,rectangle,-83,-49,1,0,0,response5disk_3,TRUE,2,2,"[21,143,102,192,50,282,269,79,96,1,236,210,265,308,96,270,149,173,264,321]",1.3032,31,-3,1,0,0,rectangle,1,49,209,29,1,
,,,,,,,,,,,,,FF,,,,,,,,0.9683,,,,,,,,,,,,,,,,,,,,,,610343e098c067d744ec212a,610364dc21124460e8fb2130,2021-07-29_19h33.29.442,Simcolourproject_2stim_asymm_v5,2020.2.10,Win32,60,61025ae37ef11b136ea224fe,,,,,,,,,1003,122,-40,1,0,0,response3disk,,5,22,0,1,0,0,rectangle,22,0,1,0,0,,,,,,,22,0,1,0,0,,1,50,210,65,1,
,,,,,,,,,,,,,FF,,,,,,,,0.6351,,,,,,,,,,,,,,,,,,,,,,610343e098c067d744ec212a,610364dc21124460e8fb2130,2021-07-29_19h33.29.442,Simcolourproject_2stim_asymm_v5,2020.2.10,Win32,60,61025ae37ef11b136ea224fe,,,,,,,,,751,133,56,1,0,0,response1disk,,6,19,-4,1,0,0,rectangle,19,-4,1,0,0,,,,,,,19,-4,1,0,0,,1,51,211,59,1,
,,,,,,,,,,,,,FF,,,,,,,,0.3212,,,,,,,,,,,,,,,,,,,,,,610343e098c067d744ec212a,610364dc21124460e8fb2130,2021-07-29_19h33.29.442,Simcolourproject_2stim_asymm_v5,2020.2.10,Win32,60,61025ae37ef11b136ea224fe,,,,,,,,,703,57,125,1,0,0,response1disk,,7,7,0,1,0,0,rectangle,7,0,1,0,0,,,,,,,7,0,1,0,0,,1,52,212,149,1,
,,,,,,,,,,,,,FF,,,,,,,,0.4862,,,,,,,,,,,,,,,,,,,,,,610343e098c067d744ec212a,610364dc21124460e8fb2130,2021-07-29_19h33.29.442,Simcolourproject_2stim_asymm_v5,2020.2.10,Win32,60,61025ae37ef11b136ea224fe,,,,,,,,,422,53,94,1,0,0,response1disk,,7,22,4,1,0,0,rectangle,22,4,1,0,0,,,,,,,22,4,1,0,0,,1,53,213,74,1,
,,,,,,,,,,,,,FF,,,,,,,,0.3682,,,,,,,,,,,,,,,,,,,,,,610343e098c067d744ec212a,610364dc21124460e8fb2130,2021-07-29_19h33.29.442,Simcolourproject_2stim_asymm_v5,2020.2.10,Win32,60,61025ae37ef11b136ea224fe,,,,,,,,,3412,95,55,1,0,0,response1disk,,6,19,-9,1,0,0,rectangle,19,-9,1,0,0,,,,,,,19,-9,1,0,0,,1,54,214,64,1,
,,,,,,,,,,,,,FF,,,,,,,,0.3001,,,,,,,,,,,,,,,,,,,,,,610343e098c067d744ec212a,610364dc21124460e8fb2130,2021-07-29_19h33.29.442,Simcolourproject_2stim_asymm_v5,2020.2.10,Win32,60,61025ae37ef11b136ea224fe,,,,,,,,,301,104,63,1,0,0,response1disk,,6,16,-5,1,0,0,rectangle,16,-5,1,0,0,,,,,,,16,-5,1,0,0,,1,55,215,20,1,
,,,,,,,,,,,,,FF,,,,,,,,0.2197,,,,,,,,,,,,,,,,,,,,,,610343e098c067d744ec212a,610364dc21124460e8fb2130,2021-07-29_19h33.29.442,Simcolourproject_2stim_asymm_v5,2020.2.10,Win32,60,61025ae37ef11b136ea224fe,,,,,,,,,1737,65,112,1,0,0,response1disk,,7,33,15,1,0,0,rectangle,33,15,1,0,0,,,,,,,33,15,1,0,0,,1,56,216,23,1,
,,,,,,,,,,,,,FF,,,,,,,,1.1016,,,,,,,,,,,,,,,,,,,,,,610343e098c067d744ec212a,610364dc21124460e8fb2130,2021-07-29_19h33.29.442,Simcolourproject_2stim_asymm_v5,2020.2.10,Win32,60,61025ae37ef11b136ea224fe,,,,,,,,,3847,-93,-60,1,0,0,response5disk,,2,20,-19,1,0,0,rectangle,20,-19,1,0,0,,,,,,,20,-19,1,0,0,,1,57,217,120,1,
,,,,,,,,,,,,,FF,,,,,,,,0.6515,,,,,,,,,,,,,,,,,,,,,,610343e098c067d744ec212a,610364dc21124460e8fb2130,2021-07-29_19h33.29.442,Simcolourproject_2stim_asymm_v5,2020.2.10,Win32,60,61025ae37ef11b136ea224fe,,,,,,,,,4215,117,-43,1,0,0,response3disk,,5,29,-10,1,0,0,rectangle,29,-10,1,0,0,,,,,,,29,-10,1,0,0,,1,58,218,82,1,
,,,,,,,,,,,,,FF,,,,,,,,0.7383,,,,,,,,,,,,,,,,,,,,,,610343e098c067d744ec212a,610364dc21124460e8fb2130,2021-07-29_19h33.29.442,Simcolourproject_2stim_asymm_v5,2020.2.10,Win32,60,61025ae37ef11b136ea224fe,,,,,,,,,253,43,-99,1,0,0,response3disk,,4,5,6,1,0,0,rectangle,5,6,1,0,0,,,,,,,5,6,1,0,0,,1,59,219,138,1,
,,,,,,,,,,,,,FF,,,,,,,,0.4041,,,,,,,,,,,,,,,,,,,,,,610343e098c067d744ec212a,610364dc21124460e8fb2130,2021-07-29_19h33.29.442,Simcolourproject_2stim_asymm_v5,2020.2.10,Win32,60,61025ae37ef11b136ea224fe,,,,,,,,,329,39,-89,1,0,0,response3disk,,4,5,10,1,0,0,rectangle,5,10,1,0,0,,,,,,,5,10,1,0,0,,1,60,220,41,1,
,,,,,,,,,,,,,FF,,,,,,,,0.6168,,,,,,,,,,,,,,,,,,,,,,610343e098c067d744ec212a,610364dc21124460e8fb2130,2021-07-29_19h33.29.442,Simcolourproject_2stim_asymm_v5,2020.2.10,Win32,60,61025ae37ef11b136ea224fe,,,,,,,,,3314,147,-51,1,0,0,response3disk,,5,45,0,1,0,0,rectangle,45,0,1,0,0,,,,,,,45,0,1,0,0,,1,61,221,100,1,
,,,,,,,,,,,,,FF,,,,,,,,0.4204,,,,,,,,,,,,,,,,,,,,,,610343e098c067d744ec212a,610364dc21124460e8fb2130,2021-07-29_19h33.29.442,Simcolourproject_2stim_asymm_v5,2020.2.10,Win32,60,61025ae37ef11b136ea224fe,,,,,,,,,1484,39,135,1,0,0,response1disk,,7,13,2,1,0,0,rectangle,13,2,1,0,0,,,,,,,13,2,1,0,0,,1,62,222,102,1,
,,,,,,,,,,,,,FF,,,,,,,,0.4502,,,,,,,,,,,,,,,,,,,,,,610343e098c067d744ec212a,610364dc21124460e8fb2130,2021-07-29_19h33.29.442,Simcolourproject_2stim_asymm_v5,2020.2.10,Win32,60,61025ae37ef11b136ea224fe,,,,,,,,,2824,30,127,1,0,0,response1disk,,7,-2,11,1,0,0,rectangle,-2,11,1,0,0,,,,,,,-2,11,1,0,0,,1,63,223,142,1,
,,,,,,,,,,,,,FF,,,,,,,,0.253,,,,,,,,,,,,,,,,,,,,,,610343e098c067d744ec212a,610364dc21124460e8fb2130,2021-07-29_19h33.29.442,Simcolourproject_2stim_asymm_v5,2020.2.10,Win32,60,61025ae37ef11b136ea224fe,,,,,,,,,1629,77,111,1,0,0,response1disk,,7,-2,-2,1,0,0,rectangle,-2,-2,1,0,0,,,,,,,-2,-2,1,0,0,,1,64,224,148,1,
,,,,,,,,,,,,,FF,,,,,,,,2.3226,,,,,,,,,,,,,,,,,,,,,,610343e098c067d744ec212a,610364dc21124460e8fb2130,2021-07-29_19h33.29.442,Simcolourproject_2stim_asymm_v5,2020.2.10,Win32,60,61025ae37ef11b136ea224fe,,,,,,,,,4272,137,28,1,0,0,response1disk,,6,38,-13,1,0,0,rectangle,38,-13,1,0,0,,,,,,,38,-13,1,0,0,,1,65,225,49,1,
,,,,,,,,,,,,,FF,,,,,,,,0.6349,,,,,,,,,,,,,,,,,,,,,,610343e098c067d744ec212a,610364dc21124460e8fb2130,2021-07-29_19h33.29.442,Simcolourproject_2stim_asymm_v5,2020.2.10,Win32,60,61025ae37ef11b136ea224fe,,,,,,,,,2047,60,125,1,0,0,response1disk,,7,13,-6,1,0,0,rectangle,13,-6,1,0,0,,,,,,,13,-6,1,0,0,,1,66,226,117,1,
,,,,,,,,,,,,,FF,,,,,,,,0.3347,,,,,,,,,,,,,,,,,,,,,,610343e098c067d744ec212a,610364dc21124460e8fb2130,2021-07-29_19h33.29.442,Simcolourproject_2stim_asymm_v5,2020.2.10,Win32,60,61025ae37ef11b136ea224fe,,,,,,,,,2163,61,117,1,0,0,response1disk,,7,15,1,1,0,0,rectangle,15,1,1,0,0,,,,,,,15,1,1,0,0,,1,67,227,154,1,
,,,,,,,,,,,,,FF,,,,,,,,0.3529,,,,,,,,,,,,,,,,,,,,,,610343e098c067d744ec212a,610364dc21124460e8fb2130,2021-07-29_19h33.29.442,Simcolourproject_2stim_asymm_v5,2020.2.10,Win32,60,61025ae37ef11b136ea224fe,,,,,,,,,1659,43,137,1,0,0,response1disk,,7,-10,6,1,0,0,rectangle,-10,6,1,0,0,,,,,,,-10,6,1,0,0,,1,68,228,25,1,
,,,,,,,,,,,,,FF,,,,,,,,0.6041,,,,,,,,,,,,,,,,,,,,,,610343e098c067d744ec212a,610364dc21124460e8fb2130,2021-07-29_19h33.29.442,Simcolourproject_2stim_asymm_v5,2020.2.10,Win32,60,61025ae37ef11b136ea224fe,,,,,,,,,3127,99,131,1,0,0,response1disk,,7,22,-9,1,0,0,rectangle,22,-9,1,0,0,,,,,,,22,-9,1,0,0,,1,69,229,104,1,
,,,,,,,,,,,,,FF,,,,,,,,0.4183,,,,,,,,,,,,,,,,,,,,,,610343e098c067d744ec212a,610364dc21124460e8fb2130,2021-07-29_19h33.29.442,Simcolourproject_2stim_asymm_v5,2020.2.10,Win32,60,61025ae37ef11b136ea224fe,,,,,,,,,791,112,138,1,0,0,response1disk,,7,28,6,1,0,0,rectangle,28,6,1,0,0,,,,,,,28,6,1,0,0,,1,70,230,50,1,
,,,,,,,,,,,,,FF,,,,,,,,1.4027,,,,,,,,,,,,,,,,,,,,,,610343e098c067d744ec212a,610364dc21124460e8fb2130,2021-07-29_19h33.29.442,Simcolourproject_2stim_asymm_v5,2020.2.10,Win32,60,61025ae37ef11b136ea224fe,,,,,,,,,3331,-45,-123,1,0,0,response5disk,,3,28,-7,1,0,0,rectangle,28,-7,1,0,0,,,,,,,28,-7,1,0,0,,1,71,231,26,1,
,,,,,,,,,,,,,FF,,,,,,,,0.7834,,,,,,,,,,,,,,,,,,,,,,610343e098c067d744ec212a,610364dc21124460e8fb2130,2021-07-29_19h33.29.442,Simcolourproject_2stim_asymm_v5,2020.2.10,Win32,60,61025ae37ef11b136ea224fe,,,,,,,,,4048,67,-127,1,0,0,response3disk,,4,-12,-6,1,0,0,rectangle,-12,-6,1,0,0,,,,,,,-12,-6,1,0,0,,1,72,232,114,1,
,,,,,,,,,,,,,FF,,,,,,,,0.6204,,,,,,,,,,,,,,,,,,,,,,610343e098c067d744ec212a,610364dc21124460e8fb2130,2021-07-29_19h33.29.442,Simcolourproject_2stim_asymm_v5,2020.2.10,Win32,60,61025ae37ef11b136ea224fe,,,,,,,,,2692,121,-75,1,0,0,response3disk,,5,-5,-8,1,0,0,rectangle,-5,-8,1,0,0,,,,,,,-5,-8,1,0,0,,1,73,233,90,1,
,,,,,,,,,,,,,FF,,,,,,,,0.2843,,,,,,,,,,,,,,,,,,,,,,610343e098c067d744ec212a,610364dc21124460e8fb2130,2021-07-29_19h33.29.442,Simcolourproject_2stim_asymm_v5,2020.2.10,Win32,60,61025ae37ef11b136ea224fe,,,,,,,,,2565,-46,-84,1,0,0,response5disk,,3,1,-2,1,0,0,rectangle,1,-2,1,0,0,,,,,,,1,-2,1,0,0,,1,74,234,95,1,
,,,,,,,,,,,,,FF,,,,,,,,1.1849,,,,,,,,,,,,,,,,,,,,,,610343e098c067d744ec212a,610364dc21124460e8fb2130,2021-07-29_19h33.29.442,Simcolourproject_2stim_asymm_v5,2020.2.10,Win32,60,61025ae37ef11b136ea224fe,,,,,,,,,2054,131,56,1,0,0,response1disk,,6,34,5,1,0,0,rectangle,156,-47,1,0,0,response3disk_3,TRUE,5,5,"[21,143,102,192,50,282,269,79,96,1,236,210,265,308,96,270,149,173,264,321]",1.2345,32,5,1,0,0,rectangle,1,75,235,7,1,
,,,,,,,,,,,,,FF,,,,,,,,1.0313,,,,,,,,,,,,,,,,,,,,,,610343e098c067d744ec212a,610364dc21124460e8fb2130,2021-07-29_19h33.29.442,Simcolourproject_2stim_asymm_v5,2020.2.10,Win32,60,61025ae37ef11b136ea224fe,,,,,,,,,2530,37,127,1,0,0,response1disk,,7,-20,4,1,0,0,rectangle,-20,4,1,0,0,,,,,,,-20,4,1,0,0,,1,76,236,78,1,
,,,,,,,,,,,,,FF,,,,,,,,0.3682,,,,,,,,,,,,,,,,,,,,,,610343e098c067d744ec212a,610364dc21124460e8fb2130,2021-07-29_19h33.29.442,Simcolourproject_2stim_asymm_v5,2020.2.10,Win32,60,61025ae37ef11b136ea224fe,,,,,,,,,2019,45,105,1,0,0,response1disk,,7,-15,3,1,0,0,rectangle,-15,3,1,0,0,,,,,,,-15,3,1,0,0,,1,77,237,129,1,
,,,,,,,,,,,,,FF,,,,,,,,0.3029,,,,,,,,,,,,,,,,,,,,,,610343e098c067d744ec212a,610364dc21124460e8fb2130,2021-07-29_19h33.29.442,Simcolourproject_2stim_asymm_v5,2020.2.10,Win32,60,61025ae37ef11b136ea224fe,,,,,,,,,2834,60,101,1,0,0,response1disk,,7,25,1,1,0,0,rectangle,25,1,1,0,0,,,,,,,25,1,1,0,0,,1,78,238,143,1,
,,,,,,,,,,,,,FF,,,,,,,,0.9182,,,,,,,,,,,,,,,,,,,,,,610343e098c067d744ec212a,610364dc21124460e8fb2130,2021-07-29_19h33.29.442,Simcolourproject_2stim_asymm_v5,2020.2.10,Win32,60,61025ae37ef11b136ea224fe,,,,,,,,,865,66,107,1,0,0,response1disk,,7,-3,8,1,0,0,rectangle,-3,8,1,0,0,,,,,,,-3,8,1,0,0,,1,79,239,46,1,
,,,,,,,,,,,,,FF,,,,,,,,0.3516,,,,,,,,,,,,,,,,,,,,,,610343e098c067d744ec212a,610364dc21124460e8fb2130,2021-07-29_19h33.29.442,Simcolourproject_2stim_asymm_v5,2020.2.10,Win32,60,61025ae37ef11b136ea224fe,,,,,,,,,1553,59,113,1,0,0,response1disk,,7,-5,1,1,0,0,rectangle,-5,1,1,0,0,,,,,,,-5,1,1,0,0,,1,80,240,116,1,
,,,,,,,,,,,,,FF,,,,,,,,1.163,,,,,,,,,,,,,,,,,,,,,,610343e098c067d744ec212a,610364dc21124460e8fb2130,2021-07-29_19h33.29.442,Simcolourproject_2stim_asymm_v5,2020.2.10,Win32,60,61025ae37ef11b136ea224fe,,,,,,,,,439,97,-36,1,0,0,response3disk,,5,29,4,1,0,0,rectangle,29,4,1,0,0,,,,,,,29,4,1,0,0,,1,81,241,145,1,
,,,,,,,,,,,,,FF,,,,,,,,0.5189,,,,,,,,,,,,,,,,,,,,,,610343e098c067d744ec212a,610364dc21124460e8fb2130,2021-07-29_19h33.29.442,Simcolourproject_2stim_asymm_v5,2020.2.10,Win32,60,61025ae37ef11b136ea224fe,,,,,,,,,2102,97,-36,1,0,0,response3disk,,5,21,0,1,0,0,rectangle,21,0,1,0,0,,,,,,,21,0,1,0,0,,1,82,242,151,1,
,,,,,,,,,,,,,FF,,,,,,,,0.4863,,,,,,,,,,,,,,,,,,,,,,610343e098c067d744ec212a,610364dc21124460e8fb2130,2021-07-29_19h33.29.442,Simcolourproject_2stim_asymm_v5,2020.2.10,Win32,60,61025ae37ef11b136ea224fe,,,,,,,,,2279,99,-46,1,0,0,response3disk,,5,9,15,1,0,0,rectangle,9,15,1,0,0,,,,,,,9,15,1,0,0,,1,83,243,150,1,
,,,,,,,,,,,,,FF,,,,,,,,0.8205,,,,,,,,,,,,,,,,,,,,,,610343e098c067d744ec212a,610364dc21124460e8fb2130,2021-07-29_19h33.29.442,Simcolourproject_2stim_asymm_v5,2020.2.10,Win32,60,61025ae37ef11b136ea224fe,,,,,,,,,282,24,-111,1,0,0,response3disk,,4,2,-1,1,0,0,rectangle,2,-1,1,0,0,,,,,,,2,-1,1,0,0,,1,84,244,68,1,
,,,,,,,,,,,,,FF,,,,,,,,0.9015,,,,,,,,,,,,,,,,,,,,,,610343e098c067d744ec212a,610364dc21124460e8fb2130,2021-07-29_19h33.29.442,Simcolourproject_2stim_asymm_v5,2020.2.10,Win32,60,61025ae37ef11b136ea224fe,,,,,,,,,483,144,70,1,0,0,response1disk,,6,37,0,1,0,0,rectangle,37,0,1,0,0,,,,,,,37,0,1,0,0,,1,85,245,111,1,
,,,,,,,,,,,,,FF,,,,,,,,0.3552,,,,,,,,,,,,,,,,,,,,,,610343e098c067d744ec212a,610364dc21124460e8fb2130,2021-07-29_19h33.29.442,Simcolourproject_2stim_asymm_v5,2020.2.10,Win32,60,61025ae37ef11b136ea224fe,,,,,,,,,3351,55,107,1,0,0,response1disk,,7,19,-6,1,0,0,rectangle,19,-6,1,0,0,,,,,,,19,-6,1,0,0,,1,86,246,43,1,
,,,,,,,,,,,,,FF,,,,,,,,0.3031,,,,,,,,,,,,,,,,,,,,,,610343e098c067d744ec212a,610364dc21124460e8fb2130,2021-07-29_19h33.29.442,Simcolourproject_2stim_asymm_v5,2020.2.10,Win32,60,61025ae37ef11b136ea224fe,,,,,,,,,2665,75,119,1,0,0,response1disk,,7,2,2,1,0,0,rectangle,2,2,1,0,0,,,,,,,2,2,1,0,0,,1,87,247,97,1,
,,,,,,,,,,,,,FF,,,,,,,,0.3834,,,,,,,,,,,,,,,,,,,,,,610343e098c067d744ec212a,610364dc21124460e8fb2130,2021-07-29_19h33.29.442,Simcolourproject_2stim_asymm_v5,2020.2.10,Win32,60,61025ae37ef11b136ea224fe,,,,,,,,,481,73,116,1,0,0,response1disk,,7,-1,-3,1,0,0,rectangle,-1,-3,1,0,0,,,,,,,-1,-3,1,0,0,,1,88,248,38,1,
,,,,,,,,,,,,,FF,,,,,,,,0.2847,,,,,,,,,,,,,,,,,,,,,,610343e098c067d744ec212a,610364dc21124460e8fb2130,2021-07-29_19h33.29.442,Simcolourproject_2stim_asymm_v5,2020.2.10,Win32,60,61025ae37ef11b136ea224fe,,,,,,,,,4173,59,117,1,0,0,response1disk,,7,2,8,1,0,0,rectangle,2,8,1,0,0,,,,,,,2,8,1,0,0,,1,89,249,103,1,
,,,,,,,,,,,,,FF,,,,,,,,0.1831,,,,,,,,,,,,,,,,,,,,,,610343e098c067d744ec212a,610364dc21124460e8fb2130,2021-07-29_19h33.29.442,Simcolourproject_2stim_asymm_v5,2020.2.10,Win32,60,61025ae37ef11b136ea224fe,,,,,,,,,2385,67,115,1,0,0,response1disk,,7,7,11,1,0,0,rectangle,7,11,1,0,0,,,,,,,7,11,1,0,0,,1,90,250,54,1,
,,,,,,,,,,,,,FF,,,,,,,,1.0528,,,,,,,,,,,,,,,,,,,,,,610343e098c067d744ec212a,610364dc21124460e8fb2130,2021-07-29_19h33.29.442,Simcolourproject_2stim_asymm_v5,2020.2.10,Win32,60,61025ae37ef11b136ea224fe,,,,,,,,,3463,-34,-115,1,0,0,response5disk,,3,29,-2,1,0,0,rectangle,29,-2,1,0,0,,,,,,,29,-2,1,0,0,,1,91,251,63,1,
,,,,,,,,,,,,,FF,,,,,,,,0.9167,,,,,,,,,,,,,,,,,,,,,,610343e098c067d744ec212a,610364dc21124460e8fb2130,2021-07-29_19h33.29.442,Simcolourproject_2stim_asymm_v5,2020.2.10,Win32,60,61025ae37ef11b136ea224fe,,,,,,,,,1100,137,62,1,0,0,response1disk,,6,16,4,1,0,0,rectangle,16,4,1,0,0,,,,,,,16,4,1,0,0,,1,92,252,153,1,
,,,,,,,,,,,,,FF,,,,,,,,1.0167,,,,,,,,,,,,,,,,,,,,,,610343e098c067d744ec212a,610364dc21124460e8fb2130,2021-07-29_19h33.29.442,Simcolourproject_2stim_asymm_v5,2020.2.10,Win32,60,61025ae37ef11b136ea224fe,,,,,,,,,3393,-96,-50,1,0,0,response5disk,,2,-9,-4,1,0,0,rectangle,-9,-4,1,0,0,,,,,,,-9,-4,1,0,0,,1,93,253,52,1,
,,,,,,,,,,,,,FF,,,,,,,,0.9499,,,,,,,,,,,,,,,,,,,,,,610343e098c067d744ec212a,610364dc21124460e8fb2130,2021-07-29_19h33.29.442,Simcolourproject_2stim_asymm_v5,2020.2.10,Win32,60,61025ae37ef11b136ea224fe,,,,,,,,,3549,27,-107,1,0,0,response3disk,,4,-20,-1,1,0,0,rectangle,-20,-1,1,0,0,,,,,,,-20,-1,1,0,0,,1,94,254,118,1,
,,,,,,,,,,,,,FF,,,,,,,,1.2333,,,,,,,,,,,,,,,,,,,,,,610343e098c067d744ec212a,610364dc21124460e8fb2130,2021-07-29_19h33.29.442,Simcolourproject_2stim_asymm_v5,2020.2.10,Win32,60,61025ae37ef11b136ea224fe,,,,,,,,,3882,-63,-101,1,0,0,response5disk,,3,14,-9,1,0,0,rectangle,14,-9,1,0,0,,,,,,,14,-9,1,0,0,,1,95,255,56,1,
,,,,,,,,,,,,,FF,,,,,,,,0.8,,,,,,,,,,,,,,,,,,,,,,610343e098c067d744ec212a,610364dc21124460e8fb2130,2021-07-29_19h33.29.442,Simcolourproject_2stim_asymm_v5,2020.2.10,Win32,60,61025ae37ef11b136ea224fe,,,,,,,,,2069,127,-63,1,0,0,response3disk,,5,29,-13,1,0,0,rectangle,29,-13,1,0,0,,,,,,,29,-13,1,0,0,,1,96,256,140,1,
,,,,,,,,,,,,,FF,,,,,,,,0.8497,,,,,,,,,,,,,,,,,,,,,,610343e098c067d744ec212a,610364dc21124460e8fb2130,2021-07-29_19h33.29.442,Simcolourproject_2stim_asymm_v5,2020.2.10,Win32,60,61025ae37ef11b136ea224fe,,,,,,,,,2227,-107,-51,1,0,0,response5disk,,2,4,-14,1,0,0,rectangle,4,-14,1,0,0,,,,,,,4,-14,1,0,0,,1,97,257,61,1,
,,,,,,,,,,,,,FF,,,,,,,,1.4,,,,,,,,,,,,,,,,,,,,,,610343e098c067d744ec212a,610364dc21124460e8fb2130,2021-07-29_19h33.29.442,Simcolourproject_2stim_asymm_v5,2020.2.10,Win32,60,61025ae37ef11b136ea224fe,,,,,,,,,662,132,54,1,0,0,response1disk,,6,22,7,1,0,0,rectangle,22,7,1,0,0,,,,,,,22,7,1,0,0,,1,98,258,122,1,
,,,,,,,,,,,,,FF,,,,,,,,0.6504,,,,,,,,,,,,,,,,,,,,,,610343e098c067d744ec212a,610364dc21124460e8fb2130,2021-07-29_19h33.29.442,Simcolourproject_2stim_asymm_v5,2020.2.10,Win32,60,61025ae37ef11b136ea224fe,,,,,,,,,1780,27,149,1,0,0,response1disk,,7,-3,11,1,0,0,rectangle,-3,11,1,0,0,,,,,,,-3,11,1,0,0,,1,99,259,0,1,
,,,,,,,,,,,,,FF,,,,,,,,0.2993,,,,,,,,,,,,,,,,,,,,,,610343e098c067d744ec212a,610364dc21124460e8fb2130,2021-07-29_19h33.29.442,Simcolourproject_2stim_asymm_v5,2020.2.10,Win32,60,61025ae37ef11b136ea224fe,,,,,,,,,2739,61,91,1,0,0,response1disk,,7,7,-5,1,0,0,rectangle,7,-5,1,0,0,,,,,,,7,-5,1,0,0,,1,100,260,13,1,
,,,,,,,,,,,,,FF,,,,,,,,0.4028,,,,,,,,,,,,,,,,,,,,,,610343e098c067d744ec212a,610364dc21124460e8fb2130,2021-07-29_19h33.29.442,Simcolourproject_2stim_asymm_v5,2020.2.10,Win32,60,61025ae37ef11b136ea224fe,,,,,,,,,3178,66,104,1,0,0,response1disk,,7,-11,-15,1,0,0,rectangle,-11,-15,1,0,0,,,,,,,-11,-15,1,0,0,,1,101,261,131,1,
,,,,,,,,,,,,,FF,,,,,,,,0.8499,,,,,,,,,,,,,,,,,,,,,,610343e098c067d744ec212a,610364dc21124460e8fb2130,2021-07-29_19h33.29.442,Simcolourproject_2stim_asymm_v5,2020.2.10,Win32,60,61025ae37ef11b136ea224fe,,,,,,,,,2656,158,-65,1,0,0,response3disk,,5,11,2,1,0,0,rectangle,11,2,1,0,0,,,,,,,11,2,1,0,0,,1,102,262,5,1,
,,,,,,,,,,,,,FF,,,,,,,,0.5861,,,,,,,,,,,,,,,,,,,,,,610343e098c067d744ec212a,610364dc21124460e8fb2130,2021-07-29_19h33.29.442,Simcolourproject_2stim_asymm_v5,2020.2.10,Win32,60,61025ae37ef11b136ea224fe,,,,,,,,,425,98,55,1,0,0,response1disk,,6,14,-6,1,0,0,rectangle,-47,-123,1,0,0,response5disk_3,TRUE,3,3,"[21,143,102,192,50,282,269,79,96,1,236,210,265,308,96,270,149,173,264,321]",1.6334,10,11,1,0,0,rectangle,1,103,263,17,1,
,,,,,,,,,,,,,FF,,,,,,,,1.1167,,,,,,,,,,,,,,,,,,,,,,610343e098c067d744ec212a,610364dc21124460e8fb2130,2021-07-29_19h33.29.442,Simcolourproject_2stim_asymm_v5,2020.2.10,Win32,60,61025ae37ef11b136ea224fe,,,,,,,,,1827,128,36,1,0,0,response1disk,,6,40,2,1,0,0,rectangle,139,51,1,0,0,response1disk_3,TRUE,6,7,"[21,143,102,192,50,282,269,79,96,1,236,210,265,308,96,270,149,173,264,321]",1.3683,37,6,1,0,0,rectangle,1,104,264,94,1,
,,,,,,,,,,,,,FF,,,,,,,,0.715,,,,,,,,,,,,,,,,,,,,,,610343e098c067d744ec212a,610364dc21124460e8fb2130,2021-07-29_19h33.29.442,Simcolourproject_2stim_asymm_v5,2020.2.10,Win32,60,61025ae37ef11b136ea224fe,,,,,,,,,3692,63,117,1,0,0,response1disk,,7,-20,5,1,0,0,rectangle,-20,5,1,0,0,,,,,,,-20,5,1,0,0,,1,105,265,101,1,
,,,,,,,,,,,,,FF,,,,,,,,0.3358,,,,,,,,,,,,,,,,,,,,,,610343e098c067d744ec212a,610364dc21124460e8fb2130,2021-07-29_19h33.29.442,Simcolourproject_2stim_asymm_v5,2020.2.10,Win32,60,61025ae37ef11b136ea224fe,,,,,,,,,1996,79,126,1,0,0,response1disk,,7,-10,-1,1,0,0,rectangle,-10,-1,1,0,0,,,,,,,-10,-1,1,0,0,,1,106,266,72,1,
,,,,,,,,,,,,,FF,,,,,,,,0.3336,,,,,,,,,,,,,,,,,,,,,,610343e098c067d744ec212a,610364dc21124460e8fb2130,2021-07-29_19h33.29.442,Simcolourproject_2stim_asymm_v5,2020.2.10,Win32,60,61025ae37ef11b136ea224fe,,,,,,,,,480,54,95,1,0,0,response1disk,,7,-13,-8,1,0,0,rectangle,-13,-8,1,0,0,,,,,,,-13,-8,1,0,0,,1,107,267,55,1,
,,,,,,,,,,,,,FF,,,,,,,,0.2319,,,,,,,,,,,,,,,,,,,,,,610343e098c067d744ec212a,610364dc21124460e8fb2130,2021-07-29_19h33.29.442,Simcolourproject_2stim_asymm_v5,2020.2.10,Win32,60,61025ae37ef11b136ea224fe,,,,,,,,,584,71,111,1,0,0,response1disk,,7,-16,11,1,0,0,rectangle,137,50,1,0,0,response1disk_3,TRUE,6,6,"[21,143,102,192,50,282,269,79,96,1,236,210,265,308,96,270,149,173,264,321]",1.3533,28,12,1,0,0,rectangle,1,108,268,16,1,
,,,,,,,,,,,,,FF,,,,,,,,0.419,,,,,,,,,,,,,,,,,,,,,,610343e098c067d744ec212a,610364dc21124460e8fb2130,2021-07-29_19h33.29.442,Simcolourproject_2stim_asymm_v5,2020.2.10,Win32,60,61025ae37ef11b136ea224fe,,,,,,,,,2830,68,117,1,0,0,response1disk,,7,-10,0,1,0,0,rectangle,-88,-55,1,0,0,response5disk_3,TRUE,2,2,"[21,143,102,192,50,282,269,79,96,1,236,210,265,308,96,270,149,173,264,321]",1.4869,7,11,1,0,0,rectangle,1,109,269,34,1,
,,,,,,,,,,,,,FF,,,,,,,,0.522,,,,,,,,,,,,,,,,,,,,,,610343e098c067d744ec212a,610364dc21124460e8fb2130,2021-07-29_19h33.29.442,Simcolourproject_2stim_asymm_v5,2020.2.10,Win32,60,61025ae37ef11b136ea224fe,,,,,,,,,1053,46,96,1,0,0,response1disk,,7,-16,-8,1,0,0,rectangle,-16,-8,1,0,0,,,,,,,-16,-8,1,0,0,,1,110,270,39,1,
,,,,,,,,,,,,,FF,,,,,,,,0.9015,,,,,,,,,,,,,,,,,,,,,,610343e098c067d744ec212a,610364dc21124460e8fb2130,2021-07-29_19h33.29.442,Simcolourproject_2stim_asymm_v5,2020.2.10,Win32,60,61025ae37ef11b136ea224fe,,,,,,,,,250,86,-46,1,0,0,response3disk,,5,-5,-17,1,0,0,rectangle,-5,-17,1,0,0,,,,,,,-5,-17,1,0,0,,1,111,271,126,1,
,,,,,,,,,,,,,FF,,,,,,,,0.5196,,,,,,,,,,,,,,,,,,,,,,610343e098c067d744ec212a,610364dc21124460e8fb2130,2021-07-29_19h33.29.442,Simcolourproject_2stim_asymm_v5,2020.2.10,Win32,60,61025ae37ef11b136ea224fe,,,,,,,,,2731,53,117,1,0,0,response1disk,,7,-9,20,1,0,0,rectangle,-9,20,1,0,0,,,,,,,-9,20,1,0,0,,1,112,272,42,1,
,,,,,,,,,,,,,FF,,,,,,,,0.8332,,,,,,,,,,,,,,,,,,,,,,610343e098c067d744ec212a,610364dc21124460e8fb2130,2021-07-29_19h33.29.442,Simcolourproject_2stim_asymm_v5,2020.2.10,Win32,60,61025ae37ef11b136ea224fe,,,,,,,,,2,-87,61,1,0,0,response7disk,,1,-16,-1,1,0,0,rectangle,-16,-1,1,0,0,,,,,,,-16,-1,1,0,0,,1,113,273,144,1,
,,,,,,,,,,,,,FF,,,,,,,,0.585,,,,,,,,,,,,,,,,,,,,,,610343e098c067d744ec212a,610364dc21124460e8fb2130,2021-07-29_19h33.29.442,Simcolourproject_2stim_asymm_v5,2020.2.10,Win32,60,61025ae37ef11b136ea224fe,,,,,,,,,1588,83,104,1,0,0,response1disk,,7,-7,-8,1,0,0,rectangle,-7,-8,1,0,0,,,,,,,-7,-8,1,0,0,,1,114,274,69,1,
,,,,,,,,,,,,,FF,,,,,,,,0.8361,,,,,,,,,,,,,,,,,,,,,,610343e098c067d744ec212a,610364dc21124460e8fb2130,2021-07-29_19h33.29.442,Simcolourproject_2stim_asymm_v5,2020.2.10,Win32,60,61025ae37ef11b136ea224fe,,,,,,,,,1912,107,44,1,0,0,response1disk,,6,7,4,1,0,0,rectangle,7,4,1,0,0,,,,,,,7,4,1,0,0,,1,115,275,132,1,
,,,,,,,,,,,,,FF,,,,,,,,0.6834,,,,,,,,,,,,,,,,,,,,,,610343e098c067d744ec212a,610364dc21124460e8fb2130,2021-07-29_19h33.29.442,Simcolourproject_2stim_asymm_v5,2020.2.10,Win32,60,61025ae37ef11b136ea224fe,,,,,,,,,1698,123,-63,1,0,0,response3disk,,5,3,8,1,0,0,rectangle,3,8,1,0,0,,,,,,,3,8,1,0,0,,1,116,276,60,1,
,,,,,,,,,,,,,FF,,,,,,,,1.1168,,,,,,,,,,,,,,,,,,,,,,610343e098c067d744ec212a,610364dc21124460e8fb2130,2021-07-29_19h33.29.442,Simcolourproject_2stim_asymm_v5,2020.2.10,Win32,60,61025ae37ef11b136ea224fe,,,,,,,,,2819,45,-108,1,0,0,response3disk,,4,-15,-7,1,0,0,rectangle,-15,-7,1,0,0,,,,,,,-15,-7,1,0,0,,1,117,277,108,1,
,,,,,,,,,,,,,FF,,,,,,,,1.017,,,,,,,,,,,,,,,,,,,,,,610343e098c067d744ec212a,610364dc21124460e8fb2130,2021-07-29_19h33.29.442,Simcolourproject_2stim_asymm_v5,2020.2.10,Win32,60,61025ae37ef11b136ea224fe,,,,,,,,,3959,100,-52,1,0,0,response3disk,,5,43,20,1,0,0,rectangle,43,20,1,0,0,,,,,,,43,20,1,0,0,,1,118,278,45,1,
,,,,,,,,,,,,,FF,,,,,,,,0.7851,,,,,,,,,,,,,,,,,,,,,,610343e098c067d744ec212a,610364dc21124460e8fb2130,2021-07-29_19h33.29.442,Simcolourproject_2stim_asymm_v5,2020.2.10,Win32,60,61025ae37ef11b136ea224fe,,,,,,,,,2059,127,65,1,0,0,response1disk,,6,16,1,1,0,0,rectangle,16,1,1,0,0,,,,,,,16,1,1,0,0,,1,119,279,91,1,
,,,,,,,,,,,,,FF,,,,,,,,0.3516,,,,,,,,,,,,,,,,,,,,,,610343e098c067d744ec212a,610364dc21124460e8fb2130,2021-07-29_19h33.29.442,Simcolourproject_2stim_asymm_v5,2020.2.10,Win32,60,61025ae37ef11b136ea224fe,,,,,,,,,3732,52,111,1,0,0,response1disk,,7,-5,-16,1,0,0,rectangle,-5,-16,1,0,0,,,,,,,-5,-16,1,0,0,,1,120,280,24,1,
,,,,,,,,,,,,,FF,,,,,,,,0.2969,,,,,,,,,,,,,,,,,,,,,,610343e098c067d744ec212a,610364dc21124460e8fb2130,2021-07-29_19h33.29.442,Simcolourproject_2stim_asymm_v5,2020.2.10,Win32,60,61025ae37ef11b136ea224fe,,,,,,,,,2193,76,105,1,0,0,response1disk,,7,14,18,1,0,0,rectangle,-79,-54,1,0,0,response5disk_3,TRUE,2,2,"[21,143,102,192,50,282,269,79,96,1,236,210,265,308,96,270,149,173,264,321]",1.5517,7,-7,1,0,0,rectangle,1,121,281,127,1,
,,,,,,,,,,,,,FF,,,,,,,,1.0694,,,,,,,,,,,,,,,,,,,,,,610343e098c067d744ec212a,610364dc21124460e8fb2130,2021-07-29_19h33.29.442,Simcolourproject_2stim_asymm_v5,2020.2.10,Win32,60,61025ae37ef11b136ea224fe,,,,,,,,,1264,-51,-113,1,0,0,response5disk,,3,21,-19,1,0,0,rectangle,21,-19,1,0,0,,,,,,,21,-19,1,0,0,,1,122,282,93,1,
,,,,,,,,,,,,,FF,,,,,,,,0.6631,,,,,,,,,,,,,,,,,,,,,,610343e098c067d744ec212a,610364dc21124460e8fb2130,2021-07-29_19h33.29.442,Simcolourproject_2stim_asymm_v5,2020.2.10,Win32,60,61025ae37ef11b136ea224fe,,,,,,,,,3378,90,-32,1,0,0,response3disk,,5,36,4,1,0,0,rectangle,36,4,1,0,0,,,,,,,36,4,1,0,0,,1,123,283,125,1,
,,,,,,,,,,,,,FF,,,,,,,,0.8015,,,,,,,,,,,,,,,,,,,,,,610343e098c067d744ec212a,610364dc21124460e8fb2130,2021-07-29_19h33.29.442,Simcolourproject_2stim_asymm_v5,2020.2.10,Win32,60,61025ae37ef11b136ea224fe,,,,,,,,,4033,119,60,1,0,0,response1disk,,6,32,-9,1,0,0,rectangle,32,-9,1,0,0,,,,,,,32,-9,1,0,0,,1,124,284,158,1,
,,,,,,,,,,,,,FF,,,,,,,,0.5195,,,,,,,,,,,,,,,,,,,,,,610343e098c067d744ec212a,610364dc21124460e8fb2130,2021-07-29_19h33.29.442,Simcolourproject_2stim_asymm_v5,2020.2.10,Win32,60,61025ae37ef11b136ea224fe,,,,,,,,,1990,59,93,1,0,0,response1disk,,7,19,-6,1,0,0,rectangle,19,-6,1,0,0,,,,,,,19,-6,1,0,0,,1,125,285,119,1,
,,,,,,,,,,,,,FF,,,,,,,,1.1615,,,,,,,,,,,,,,,,,,,,,,610343e098c067d744ec212a,610364dc21124460e8fb2130,2021-07-29_19h33.29.442,Simcolourproject_2stim_asymm_v5,2020.2.10,Win32,60,61025ae37ef11b136ea224fe,,,,,,,,,1703,-53,-101,1,0,0,response5disk,,3,15,1,1,0,0,rectangle,15,1,1,0,0,,,,,,,15,1,1,0,0,,1,126,286,19,1,
,,,,,,,,,,,,,FF,,,,,,,,0.5156,,,,,,,,,,,,,,,,,,,,,,610343e098c067d744ec212a,610364dc21124460e8fb2130,2021-07-29_19h33.29.442,Simcolourproject_2stim_asymm_v5,2020.2.10,Win32,60,61025ae37ef11b136ea224fe,,,,,,,,,511,46,-71,1,0,0,response3disk,,4,20,10,1,0,0,rectangle,20,10,1,0,0,,,,,,,20,10,1,0,0,,1,127,287,33,1,
,,,,,,,,,,,,,FF,,,,,,,,0.5571,,,,,,,,,,,,,,,,,,,,,,610343e098c067d744ec212a,610364dc21124460e8fb2130,2021-07-29_19h33.29.442,Simcolourproject_2stim_asymm_v5,2020.2.10,Win32,60,61025ae37ef11b136ea224fe,,,,,,,,,4159,102,-37,1,0,0,response3disk,,5,8,5,1,0,0,rectangle,8,5,1,0,0,,,,,,,8,5,1,0,0,,1,128,288,113,1,
,,,,,,,,,,,,,FF,,,,,,,,0.7669,,,,,,,,,,,,,,,,,,,,,,610343e098c067d744ec212a,610364dc21124460e8fb2130,2021-07-29_19h33.29.442,Simcolourproject_2stim_asymm_v5,2020.2.10,Win32,60,61025ae37ef11b136ea224fe,,,,,,,,,1935,-40,-94,1,0,0,response5disk,,3,-6,-11,1,0,0,rectangle,-6,-11,1,0,0,,,,,,,-6,-11,1,0,0,,1,129,289,85,1,
,,,,,,,,,,,,,FF,,,,,,,,1.203,,,,,,,,,,,,,,,,,,,,,,610343e098c067d744ec212a,610364dc21124460e8fb2130,2021-07-29_19h33.29.442,Simcolourproject_2stim_asymm_v5,2020.2.10,Win32,60,61025ae37ef11b136ea224fe,,,,,,,,,3947,135,44,1,0,0,response1disk,,6,21,17,1,0,0,rectangle,21,17,1,0,0,,,,,,,21,17,1,0,0,,1,130,290,79,1,
,,,,,,,,,,,,,FF,,,,,,,,0.7725,,,,,,,,,,,,,,,,,,,,,,610343e098c067d744ec212a,610364dc21124460e8fb2130,2021-07-29_19h33.29.442,Simcolourproject_2stim_asymm_v5,2020.2.10,Win32,60,61025ae37ef11b136ea224fe,,,,,,,,,3852,-44,-102,1,0,0,response5disk,,3,11,-5,1,0,0,rectangle,11,-5,1,0,0,,,,,,,11,-5,1,0,0,,1,131,291,1,1,
,,,,,,,,,,,,,FF,,,,,,,,0.8017,,,,,,,,,,,,,,,,,,,,,,610343e098c067d744ec212a,610364dc21124460e8fb2130,2021-07-29_19h33.29.442,Simcolourproject_2stim_asymm_v5,2020.2.10,Win32,60,61025ae37ef11b136ea224fe,,,,,,,,,260,-92,-48,1,0,0,response5disk,,2,0,-4,1,0,0,rectangle,0,-4,1,0,0,,,,,,,0,-4,1,0,0,,1,132,292,12,1,
,,,,,,,,,,,,,FF,,,,,,,,0.8212,,,,,,,,,,,,,,,,,,,,,,610343e098c067d744ec212a,610364dc21124460e8fb2130,2021-07-29_19h33.29.442,Simcolourproject_2stim_asymm_v5,2020.2.10,Win32,60,61025ae37ef11b136ea224fe,,,,,,,,,1372,-44,-106,1,0,0,response5disk,,3,22,3,1,0,0,rectangle,22,3,1,0,0,,,,,,,22,3,1,0,0,,1,133,293,98,1,
,,,,,,,,,,,,,FF,,,,,,,,0.3837,,,,,,,,,,,,,,,,,,,,,,610343e098c067d744ec212a,610364dc21124460e8fb2130,2021-07-29_19h33.29.442,Simcolourproject_2stim_asymm_v5,2020.2.10,Win32,60,61025ae37ef11b136ea224fe,,,,,,,,,449,48,-88,1,0,0,response3disk,,4,14,13,1,0,0,rectangle,14,13,1,0,0,,,,,,,14,13,1,0,0,,1,134,294,9,1,
,,,,,,,,,,,,,FF,,,,,,,,0.9164,,,,,,,,,,,,,,,,,,,,,,610343e098c067d744ec212a,610364dc21124460e8fb2130,2021-07-29_19h33.29.442,Simcolourproject_2stim_asymm_v5,2020.2.10,Win32,60,61025ae37ef11b136ea224fe,,,,,,,,,2629,89,-51,1,0,0,response3disk,,5,13,-21,1,0,0,rectangle,13,-21,1,0,0,,,,,,,13,-21,1,0,0,,1,135,295,47,1,
,,,,,,,,,,,,,FF,,,,,,,,0.5501,,,,,,,,,,,,,,,,,,,,,,610343e098c067d744ec212a,610364dc21124460e8fb2130,2021-07-29_19h33.29.442,Simcolourproject_2stim_asymm_v5,2020.2.10,Win32,60,61025ae37ef11b136ea224fe,,,,,,,,,2374,124,52,1,0,0,response1disk,,6,18,20,1,0,0,rectangle,18,20,1,0,0,,,,,,,18,20,1,0,0,,1,136,296,83,1,
,,,,,,,,,,,,,FF,,,,,,,,0.3349,,,,,,,,,,,,,,,,,,,,,,610343e098c067d744ec212a,610364dc21124460e8fb2130,2021-07-29_19h33.29.442,Simcolourproject_2stim_asymm_v5,2020.2.10,Win32,60,61025ae37ef11b136ea224fe,,,,,,,,,3918,58,98,1,0,0,response1disk,,7,-3,11,1,0,0,rectangle,-3,11,1,0,0,,,,,,,-3,11,1,0,0,,1,137,297,2,1,
,,,,,,,,,,,,,FF,,,,,,,,1.7693,,,,,,,,,,,,,,,,,,,,,,610343e098c067d744ec212a,610364dc21124460e8fb2130,2021-07-29_19h33.29.442,Simcolourproject_2stim_asymm_v5,2020.2.10,Win32,60,61025ae37ef11b136ea224fe,,,,,,,,,1429,120,55,1,0,0,response1disk,,6,-5,16,1,0,0,rectangle,-5,16,1,0,0,,,,,,,-5,16,1,0,0,,1,138,298,156,1,
,,,,,,,,,,,,,FF,,,,,,,,0.9168,,,,,,,,,,,,,,,,,,,,,,610343e098c067d744ec212a,610364dc21124460e8fb2130,2021-07-29_19h33.29.442,Simcolourproject_2stim_asymm_v5,2020.2.10,Win32,60,61025ae37ef11b136ea224fe,,,,,,,,,2597,107,-46,1,0,0,response3disk,,5,15,7,1,0,0,rectangle,15,7,1,0,0,,,,,,,15,7,1,0,0,,1,139,299,67,1,
,,,,,,,,,,,,,FF,,,,,,,,0.3347,,,,,,,,,,,,,,,,,,,,,,610343e098c067d744ec212a,610364dc21124460e8fb2130,2021-07-29_19h33.29.442,Simcolourproject_2stim_asymm_v5,2020.2.10,Win32,60,61025ae37ef11b136ea224fe,,,,,,,,,1664,111,-29,1,0,0,response3disk,,5,16,6,1,0,0,rectangle,16,6,1,0,0,,,,,,,16,6,1,0,0,,1,140,300,18,1,
,,,,,,,,,,,,,FF,,,,,,,,0.3145,,,,,,,,,,,,,,,,,,,,,,610343e098c067d744ec212a,610364dc21124460e8fb2130,2021-07-29_19h33.29.442,Simcolourproject_2stim_asymm_v5,2020.2.10,Win32,60,61025ae37ef11b136ea224fe,,,,,,,,,1401,81,-43,1,0,0,response3disk,,5,6,10,1,0,0,rectangle,6,10,1,0,0,,,,,,,6,10,1,0,0,,1,141,301,35,1,
