key_resp.keys,key_resp.rt,key_resp_14.keys,key_resp_14.rt,key_resp_15.keys,key_resp_15.rt,key_resp_17.keys,key_resp_17.rt,key_resp_9.keys,key_resp_9.rt,key_resp_10.keys,key_resp_10.rt,practice_comparison,Ecc,mouse_5.x,mouse_5.y,mouse_5.leftButton,mouse_5.midButton,mouse_5.rightButton,mouse_5.clicked_name,pracsimilarity,response_time,mouse_10.x,mouse_10.y,mouse_10.leftButton,mouse_10.midButton,mouse_10.rightButton,mouse_10.clicked_name,mouse_7.x,mouse_7.y,mouse_7.leftButton,mouse_7.midButton,mouse_7.rightButton,mouse_6.x,mouse_6.y,mouse_6.leftButton,mouse_6.midButton,mouse_6.rightButton,duringprac.thisRepN,duringprac.thisTrialN,duringprac.thisN,duringprac.thisIndex,duringprac.ran,participant,session,date,expName,psychopyVersion,OS,frameRate,study_id,mouse_7.clicked_name,catchpracsimilarity,catch_response_time,catchnumberprac,catchtrialorderprac,mouse_6.clicked_name,key_resp_22.keys,key_resp_22.rt,realcomparison,mouse.x,mouse.y,mouse.leftButton,mouse.midButton,mouse.rightButton,mouse.clicked_name,Colour2,similarity,mouse_2.x,mouse_2.y,mouse_2.leftButton,mouse_2.midButton,mouse_2.rightButton,mouse_2.clicked_name,mouse_3.x,mouse_3.y,mouse_3.leftButton,mouse_3.midButton,mouse_3.rightButton,mouse_11.x,mouse_11.y,mouse_11.leftButton,mouse_11.midButton,mouse_11.rightButton,trials_2.thisRepN,trials_2.thisTrialN,trials_2.thisN,trials_2.thisIndex,trials_2.ran,Colour1,mouse_3.clicked_name,catchornah,catchsimilarity,catchnumber,catchtrialorder,catchRT,mouse_11.clicked_name
space,1.1218,space,19.2811,space,23.9382,space,4.7483,space,6.2404,space,3.6059,42,FF,47.0078125,-93.8125,1,0,0,response3disk_5,4,5.989,-23.3203125,-1.27734375,1,0,0,rectangle_8,-23.3203125,-1.27734375,1,0,0,-23.3203125,-1.27734375,1,0,0,0,0,0,0,1,610345ceb299e0132938d55c,610367c5d2053b82e13f7efc,2021-07-29_22h46.22.287,Simcolourproject_2stim_asymm_v5,2020.2.10,MacIntel,60,61025ae37ef11b136ea224fe,,,,,,,,,,,,,,,,,,,,,,,,,,,,,,,,,,,,,,,,,,,,,,
,,,,,,,,,,,,66,PF,55.18359375,-88.73046875,1,0,0,response3disk_5,4,4.0666,2.5703125,-5.80859375,1,0,0,rectangle_8,-72.359375,41.34765625,1,0,0,-15.453125,-5.2421875,1,0,0,0,1,1,2,1,610345ceb299e0132938d55c,610367c5d2053b82e13f7efc,2021-07-29_22h46.22.287,Simcolourproject_2stim_asymm_v5,2020.2.10,MacIntel,60,61025ae37ef11b136ea224fe,response7disk_7,1,3.3363,1,"[2,5]",rectangle_4,,,,,,,,,,,,,,,,,,,,,,,,,,,,,,,,,,,,,,,,
,,,,,,,,,,,,28,FF,-73.68359375,-49.78125,1,0,0,response5disk_5,2,2.5821,-7.0859375,-7.671875,1,0,0,rectangle_8,-7.0859375,-7.671875,1,0,0,-7.0859375,-7.671875,1,0,0,0,2,2,3,1,610345ceb299e0132938d55c,610367c5d2053b82e13f7efc,2021-07-29_22h46.22.287,Simcolourproject_2stim_asymm_v5,2020.2.10,MacIntel,60,61025ae37ef11b136ea224fe,,,,,,,,,,,,,,,,,,,,,,,,,,,,,,,,,,,,,,,,,,,,,,
,,,,,,,,,,,,26,PF,112.3320313,20.7109375,1,0,0,response1disk_5,6,3.3344,-16.3203125,3.5625,1,0,0,rectangle_8,-16.3203125,3.5625,1,0,0,-16.3203125,3.5625,1,0,0,0,3,3,6,1,610345ceb299e0132938d55c,610367c5d2053b82e13f7efc,2021-07-29_22h46.22.287,Simcolourproject_2stim_asymm_v5,2020.2.10,MacIntel,60,61025ae37ef11b136ea224fe,,,,,,,,,,,,,,,,,,,,,,,,,,,,,,,,,,,,,,,,,,,,,,
,,,,,,,,,,,,132,PF,31.9375,-71.5,1,0,0,response3disk_5,4,1.7683,28.76953125,-13.3125,1,0,0,rectangle_8,-55.88671875,24.265625,1,0,0,-6.30078125,-11.19921875,1,0,0,0,4,4,4,1,610345ceb299e0132938d55c,610367c5d2053b82e13f7efc,2021-07-29_22h46.22.287,Simcolourproject_2stim_asymm_v5,2020.2.10,MacIntel,60,61025ae37ef11b136ea224fe,response7disk_7,1,1.8835,1,"[2,5]",rectangle_4,,,,,,,,,,,,,,,,,,,,,,,,,,,,,,,,,,,,,,,,
,,,,,,,,,,,,99,FF,-29.6875,-66.8671875,1,0,0,response5disk_5,3,1.3669,10.046875,-11.76171875,1,0,0,rectangle_8,10.046875,-11.76171875,1,0,0,10.046875,-11.76171875,1,0,0,0,5,5,5,1,610345ceb299e0132938d55c,610367c5d2053b82e13f7efc,2021-07-29_22h46.22.287,Simcolourproject_2stim_asymm_v5,2020.2.10,MacIntel,60,61025ae37ef11b136ea224fe,,,,,,,,,,,,,,,,,,,,,,,,,,,,,,,,,,,,,,,,,,,,,,
,,,,,,,,,,,,76,PF,-79.421875,-52.734375,1,0,0,response5disk_5,2,2.3501,-4.28125,-5.5234375,1,0,0,rectangle_8,-4.28125,-5.5234375,1,0,0,-4.28125,-5.5234375,1,0,0,0,6,6,1,1,610345ceb299e0132938d55c,610367c5d2053b82e13f7efc,2021-07-29_22h46.22.287,Simcolourproject_2stim_asymm_v5,2020.2.10,MacIntel,60,61025ae37ef11b136ea224fe,,,,,,,,,,,,,,,,,,,,,,,,,,,,,,,,,,,,,,,,,,,,,,
,,,,,,,,,,,,,FF,,,,,,,,2.6341,,,,,,,,,,,,,,,,,,,,,,610345ceb299e0132938d55c,610367c5d2053b82e13f7efc,2021-07-29_22h46.22.287,Simcolourproject_2stim_asymm_v5,2020.2.10,MacIntel,60,61025ae37ef11b136ea224fe,,,,,,,space,2.8088,2354,102.0898438,23.23046875,1,0,0,response1disk,,6,9.4609375,3.5625,1,0,0,rectangle,9.4609375,3.5625,1,0,0,9.4609375,3.5625,1,0,0,0,0,0,103,1,,,,,,,,
,,,,,,,,,,,,,FF,,,,,,,,1.5831,,,,,,,,,,,,,,,,,,,,,,610345ceb299e0132938d55c,610367c5d2053b82e13f7efc,2021-07-29_22h46.22.287,Simcolourproject_2stim_asymm_v5,2020.2.10,MacIntel,60,61025ae37ef11b136ea224fe,,,,,,,,,1065,-73.8046875,22.1640625,1,0,0,response7disk,,1,-21.26171875,-7.75390625,1,0,0,rectangle,-21.26171875,-7.75390625,1,0,0,-21.26171875,-7.75390625,1,0,0,0,1,1,99,1,,,,,,,,
,,,,,,,,,,,,,FF,,,,,,,,1.5008,,,,,,,,,,,,,,,,,,,,,,610345ceb299e0132938d55c,610367c5d2053b82e13f7efc,2021-07-29_22h46.22.287,Simcolourproject_2stim_asymm_v5,2020.2.10,MacIntel,60,61025ae37ef11b136ea224fe,,,,,,,,,3349,-38.07421875,-61.48046875,1,0,0,response5disk,,3,-11.296875,-12.55859375,1,0,0,rectangle,31.31640625,-66.33984375,1,0,0,11.33203125,-3.8125,1,0,0,0,2,2,79,1,,response3disk_3,TRUE,4,4,"[201,167,93,245,224,175,130,264,65,170,204,25,203,58,245,258,16,63,3,195]",2.2681,rectangle
,,,,,,,,,,,,,FF,,,,,,,,1.5014,,,,,,,,,,,,,,,,,,,,,,610345ceb299e0132938d55c,610367c5d2053b82e13f7efc,2021-07-29_22h46.22.287,Simcolourproject_2stim_asymm_v5,2020.2.10,MacIntel,60,61025ae37ef11b136ea224fe,,,,,,,,,2010,55.2578125,-86.58203125,1,0,0,response3disk,,4,8.52734375,-3.15625,1,0,0,rectangle,8.52734375,-3.15625,1,0,0,8.52734375,-3.15625,1,0,0,0,3,3,56,1,,,,,,,,
,,,,,,,,,,,,,FF,,,,,,,,1.5504,,,,,,,,,,,,,,,,,,,,,,610345ceb299e0132938d55c,610367c5d2053b82e13f7efc,2021-07-29_22h46.22.287,Simcolourproject_2stim_asymm_v5,2020.2.10,MacIntel,60,61025ae37ef11b136ea224fe,,,,,,,,,2145,66.2421875,-34.78515625,1,0,0,response3disk,,5,12.83203125,-5.48828125,1,0,0,rectangle,12.83203125,-5.48828125,1,0,0,12.83203125,-5.48828125,1,0,0,0,4,4,19,1,,,,,,,,
,,,,,,,,,,,,,FF,,,,,,,,1.6121,,,,,,,,,,,,,,,,,,,,,,610345ceb299e0132938d55c,610367c5d2053b82e13f7efc,2021-07-29_22h46.22.287,Simcolourproject_2stim_asymm_v5,2020.2.10,MacIntel,60,61025ae37ef11b136ea224fe,,,,,,,,,1358,-47.01171875,-74.91796875,1,0,0,response5disk,,3,-5.3671875,-1.00390625,1,0,0,rectangle,-5.3671875,-1.00390625,1,0,0,-5.3671875,-1.00390625,1,0,0,0,5,5,148,1,,,,,,,,
,,,,,,,,,,,,,FF,,,,,,,,1.8522,,,,,,,,,,,,,,,,,,,,,,610345ceb299e0132938d55c,610367c5d2053b82e13f7efc,2021-07-29_22h46.22.287,Simcolourproject_2stim_asymm_v5,2020.2.10,MacIntel,60,61025ae37ef11b136ea224fe,,,,,,,,,506,80.61328125,56.79296875,1,0,0,response1disk,,6,9.5703125,6.6640625,1,0,0,rectangle,9.5703125,6.6640625,1,0,0,9.5703125,6.6640625,1,0,0,0,6,6,106,1,,,,,,,,
,,,,,,,,,,,,,FF,,,,,,,,1.7647,,,,,,,,,,,,,,,,,,,,,,610345ceb299e0132938d55c,610367c5d2053b82e13f7efc,2021-07-29_22h46.22.287,Simcolourproject_2stim_asymm_v5,2020.2.10,MacIntel,60,61025ae37ef11b136ea224fe,,,,,,,,,1790,91.93359375,32.21484375,1,0,0,response1disk,,6,3.81640625,6.51171875,1,0,0,rectangle,3.81640625,6.51171875,1,0,0,3.81640625,6.51171875,1,0,0,0,7,7,71,1,,,,,,,,
,,,,,,,,,,,,,FF,,,,,,,,0.9663,,,,,,,,,,,,,,,,,,,,,,610345ceb299e0132938d55c,610367c5d2053b82e13f7efc,2021-07-29_22h46.22.287,Simcolourproject_2stim_asymm_v5,2020.2.10,MacIntel,60,61025ae37ef11b136ea224fe,,,,,,,,,3671,-60.1953125,94.41796875,1,0,0,response7disk,,0,-4.484375,-3.6796875,1,0,0,rectangle,-4.484375,-3.6796875,1,0,0,-4.484375,-3.6796875,1,0,0,0,8,8,23,1,,,,,,,,
,,,,,,,,,,,,,FF,,,,,,,,2.1345,,,,,,,,,,,,,,,,,,,,,,610345ceb299e0132938d55c,610367c5d2053b82e13f7efc,2021-07-29_22h46.22.287,Simcolourproject_2stim_asymm_v5,2020.2.10,MacIntel,60,61025ae37ef11b136ea224fe,,,,,,,,,2150,86.08203125,-52.125,1,0,0,response3disk,,5,9.69921875,16.62890625,1,0,0,rectangle,9.69921875,16.62890625,1,0,0,9.69921875,16.62890625,1,0,0,0,9,9,14,1,,,,,,,,
,,,,,,,,,,,,,FF,,,,,,,,2.715,,,,,,,,,,,,,,,,,,,,,,610345ceb299e0132938d55c,610367c5d2053b82e13f7efc,2021-07-29_22h46.22.287,Simcolourproject_2stim_asymm_v5,2020.2.10,MacIntel,60,61025ae37ef11b136ea224fe,,,,,,,,,4264,96.42578125,40.09765625,1,0,0,response1disk,,6,1.55078125,-3.15234375,1,0,0,rectangle,1.55078125,-3.15234375,1,0,0,1.55078125,-3.15234375,1,0,0,0,10,10,159,1,,,,,,,,
,,,,,,,,,,,,,FF,,,,,,,,0.9327,,,,,,,,,,,,,,,,,,,,,,610345ceb299e0132938d55c,610367c5d2053b82e13f7efc,2021-07-29_22h46.22.287,Simcolourproject_2stim_asymm_v5,2020.2.10,MacIntel,60,61025ae37ef11b136ea224fe,,,,,,,,,1956,-42.57421875,90.02734375,1,0,0,response7disk,,0,-13.71484375,6.8125,1,0,0,rectangle,-13.71484375,6.8125,1,0,0,-13.71484375,6.8125,1,0,0,0,11,11,138,1,,,,,,,,
,,,,,,,,,,,,,FF,,,,,,,,1.4836,,,,,,,,,,,,,,,,,,,,,,610345ceb299e0132938d55c,610367c5d2053b82e13f7efc,2021-07-29_22h46.22.287,Simcolourproject_2stim_asymm_v5,2020.2.10,MacIntel,60,61025ae37ef11b136ea224fe,,,,,,,,,2796,-29.33984375,-71.55078125,1,0,0,response5disk,,3,5.39453125,-6.86328125,1,0,0,rectangle,5.39453125,-6.86328125,1,0,0,5.39453125,-6.86328125,1,0,0,0,12,12,151,1,,,,,,,,
,,,,,,,,,,,,,FF,,,,,,,,3.4672,,,,,,,,,,,,,,,,,,,,,,610345ceb299e0132938d55c,610367c5d2053b82e13f7efc,2021-07-29_22h46.22.287,Simcolourproject_2stim_asymm_v5,2020.2.10,MacIntel,60,61025ae37ef11b136ea224fe,,,,,,,,,3201,-42.6875,-80.73828125,1,0,0,response5disk,,3,18.25390625,0.3203125,1,0,0,rectangle,18.25390625,0.3203125,1,0,0,18.25390625,0.3203125,1,0,0,0,13,13,85,1,,,,,,,,
,,,,,,,,,,,,,FF,,,,,,,,2.2841,,,,,,,,,,,,,,,,,,,,,,610345ceb299e0132938d55c,610367c5d2053b82e13f7efc,2021-07-29_22h46.22.287,Simcolourproject_2stim_asymm_v5,2020.2.10,MacIntel,60,61025ae37ef11b136ea224fe,,,,,,,,,1730,78.4921875,-65.7890625,1,0,0,response3disk,,5,12.34375,0.0234375,1,0,0,rectangle,12.34375,0.0234375,1,0,0,12.34375,0.0234375,1,0,0,0,14,14,82,1,,,,,,,,
,,,,,,,,,,,,,FF,,,,,,,,0.9167,,,,,,,,,,,,,,,,,,,,,,610345ceb299e0132938d55c,610367c5d2053b82e13f7efc,2021-07-29_22h46.22.287,Simcolourproject_2stim_asymm_v5,2020.2.10,MacIntel,60,61025ae37ef11b136ea224fe,,,,,,,,,2647,81.52734375,-32.984375,1,0,0,response3disk,,5,25.65625,-14.6015625,1,0,0,rectangle,-55.32421875,-109.3632813,1,0,0,2.65234375,-4.3828125,1,0,0,0,15,15,157,1,,response5disk_3,TRUE,3,3,"[201,167,93,245,224,175,130,264,65,170,204,25,203,58,245,258,16,63,3,195]",3.1996,rectangle
,,,,,,,,,,,,,FF,,,,,,,,2.1338,,,,,,,,,,,,,,,,,,,,,,610345ceb299e0132938d55c,610367c5d2053b82e13f7efc,2021-07-29_22h46.22.287,Simcolourproject_2stim_asymm_v5,2020.2.10,MacIntel,60,61025ae37ef11b136ea224fe,,,,,,,,,3890,51.890625,-79.88671875,1,0,0,response3disk,,4,11.58203125,-1.71484375,1,0,0,rectangle,11.58203125,-1.71484375,1,0,0,11.58203125,-1.71484375,1,0,0,0,16,16,72,1,,,,,,,,
,,,,,,,,,,,,,FF,,,,,,,,1.0173,,,,,,,,,,,,,,,,,,,,,,610345ceb299e0132938d55c,610367c5d2053b82e13f7efc,2021-07-29_22h46.22.287,Simcolourproject_2stim_asymm_v5,2020.2.10,MacIntel,60,61025ae37ef11b136ea224fe,,,,,,,,,3456,74.84765625,-45.78515625,1,0,0,response3disk,,5,17.421875,-3.18359375,1,0,0,rectangle,17.421875,-3.18359375,1,0,0,17.421875,-3.18359375,1,0,0,0,17,17,150,1,,,,,,,,
,,,,,,,,,,,,,FF,,,,,,,,2.9011,,,,,,,,,,,,,,,,,,,,,,610345ceb299e0132938d55c,610367c5d2053b82e13f7efc,2021-07-29_22h46.22.287,Simcolourproject_2stim_asymm_v5,2020.2.10,MacIntel,60,61025ae37ef11b136ea224fe,,,,,,,,,2195,37.9296875,-87.0390625,1,0,0,response3disk,,4,23.96484375,-2.33984375,1,0,0,rectangle,23.96484375,-2.33984375,1,0,0,23.96484375,-2.33984375,1,0,0,0,18,18,24,1,,,,,,,,
,,,,,,,,,,,,,FF,,,,,,,,2.965,,,,,,,,,,,,,,,,,,,,,,610345ceb299e0132938d55c,610367c5d2053b82e13f7efc,2021-07-29_22h46.22.287,Simcolourproject_2stim_asymm_v5,2020.2.10,MacIntel,60,61025ae37ef11b136ea224fe,,,,,,,,,663,98.4375,-79.55859375,1,0,0,response3disk,,5,10.5,-7.1640625,1,0,0,rectangle,10.5,-7.1640625,1,0,0,10.5,-7.1640625,1,0,0,0,19,19,32,1,,,,,,,,
,,,,,,,,,,,,,FF,,,,,,,,0.9338,,,,,,,,,,,,,,,,,,,,,,610345ceb299e0132938d55c,610367c5d2053b82e13f7efc,2021-07-29_22h46.22.287,Simcolourproject_2stim_asymm_v5,2020.2.10,MacIntel,60,61025ae37ef11b136ea224fe,,,,,,,,,2075,69.81640625,-47.4296875,1,0,0,response3disk,,5,14.64453125,-6.41015625,1,0,0,rectangle,14.64453125,-6.41015625,1,0,0,14.64453125,-6.41015625,1,0,0,0,20,20,64,1,,,,,,,,
,,,,,,,,,,,,,FF,,,,,,,,1.8353,,,,,,,,,,,,,,,,,,,,,,610345ceb299e0132938d55c,610367c5d2053b82e13f7efc,2021-07-29_22h46.22.287,Simcolourproject_2stim_asymm_v5,2020.2.10,MacIntel,60,61025ae37ef11b136ea224fe,,,,,,,,,2896,-45.09765625,-93.06640625,1,0,0,response5disk,,3,17.69140625,-2.41015625,1,0,0,rectangle,17.69140625,-2.41015625,1,0,0,17.69140625,-2.41015625,1,0,0,0,21,21,140,1,,,,,,,,
,,,,,,,,,,,,,FF,,,,,,,,2.0803,,,,,,,,,,,,,,,,,,,,,,610345ceb299e0132938d55c,610367c5d2053b82e13f7efc,2021-07-29_22h46.22.287,Simcolourproject_2stim_asymm_v5,2020.2.10,MacIntel,60,61025ae37ef11b136ea224fe,,,,,,,,,2557,86.96484375,28.94921875,1,0,0,response1disk,,6,18.7109375,2.58203125,1,0,0,rectangle,18.7109375,2.58203125,1,0,0,18.7109375,2.58203125,1,0,0,0,22,22,88,1,,,,,,,,
,,,,,,,,,,,,,FF,,,,,,,,1.1495,,,,,,,,,,,,,,,,,,,,,,610345ceb299e0132938d55c,610367c5d2053b82e13f7efc,2021-07-29_22h46.22.287,Simcolourproject_2stim_asymm_v5,2020.2.10,MacIntel,60,61025ae37ef11b136ea224fe,,,,,,,,,2379,-47.015625,-75.64453125,1,0,0,response5disk,,3,-10.8046875,-13.28515625,1,0,0,rectangle,-10.8046875,-13.28515625,1,0,0,-10.8046875,-13.28515625,1,0,0,0,23,23,122,1,,,,,,,,
,,,,,,,,,,,,,FF,,,,,,,,0.7577,,,,,,,,,,,,,,,,,,,,,,610345ceb299e0132938d55c,610367c5d2053b82e13f7efc,2021-07-29_22h46.22.287,Simcolourproject_2stim_asymm_v5,2020.2.10,MacIntel,60,61025ae37ef11b136ea224fe,,,,,,,,,2249,-72.015625,-34.82421875,1,0,0,response5disk,,2,-9.28515625,-1.453125,1,0,0,rectangle,-87.2890625,-68.75,1,0,0,-4.93359375,-10.0546875,1,0,0,0,24,24,145,1,,response5disk_3,TRUE,2,2,"[201,167,93,245,224,175,130,264,65,170,204,25,203,58,245,258,16,63,3,195]",1.8478,rectangle
,,,,,,,,,,,,,FF,,,,,,,,1.7023,,,,,,,,,,,,,,,,,,,,,,610345ceb299e0132938d55c,610367c5d2053b82e13f7efc,2021-07-29_22h46.22.287,Simcolourproject_2stim_asymm_v5,2020.2.10,MacIntel,60,61025ae37ef11b136ea224fe,,,,,,,,,3326,54.41796875,75.3046875,1,0,0,response1disk,,7,-1.8515625,-4.8046875,1,0,0,rectangle,-1.8515625,-4.8046875,1,0,0,-1.8515625,-4.8046875,1,0,0,0,25,25,95,1,,,,,,,,
,,,,,,,,,,,,,FF,,,,,,,,0.7326,,,,,,,,,,,,,,,,,,,,,,610345ceb299e0132938d55c,610367c5d2053b82e13f7efc,2021-07-29_22h46.22.287,Simcolourproject_2stim_asymm_v5,2020.2.10,MacIntel,60,61025ae37ef11b136ea224fe,,,,,,,,,2705,46.17578125,72.06640625,1,0,0,response1disk,,7,12.87109375,-5,1,0,0,rectangle,12.87109375,-5,1,0,0,12.87109375,-5,1,0,0,0,26,26,102,1,,,,,,,,
,,,,,,,,,,,,,FF,,,,,,,,0.9693,,,,,,,,,,,,,,,,,,,,,,610345ceb299e0132938d55c,610367c5d2053b82e13f7efc,2021-07-29_22h46.22.287,Simcolourproject_2stim_asymm_v5,2020.2.10,MacIntel,60,61025ae37ef11b136ea224fe,,,,,,,,,3435,-60.984375,35.375,1,0,0,response7disk,,1,-3.43359375,1.4921875,1,0,0,rectangle,-3.43359375,1.4921875,1,0,0,-3.43359375,1.4921875,1,0,0,0,27,27,121,1,,,,,,,,
,,,,,,,,,,,,,FF,,,,,,,,1.3504,,,,,,,,,,,,,,,,,,,,,,610345ceb299e0132938d55c,610367c5d2053b82e13f7efc,2021-07-29_22h46.22.287,Simcolourproject_2stim_asymm_v5,2020.2.10,MacIntel,60,61025ae37ef11b136ea224fe,,,,,,,,,2936,-54.7890625,-73.359375,1,0,0,response5disk,,3,-15.9375,-8.3828125,1,0,0,rectangle,-15.9375,-8.3828125,1,0,0,-15.9375,-8.3828125,1,0,0,0,28,28,105,1,,,,,,,,
,,,,,,,,,,,,,FF,,,,,,,,0.8394,,,,,,,,,,,,,,,,,,,,,,610345ceb299e0132938d55c,610367c5d2053b82e13f7efc,2021-07-29_22h46.22.287,Simcolourproject_2stim_asymm_v5,2020.2.10,MacIntel,60,61025ae37ef11b136ea224fe,,,,,,,,,3137,34.1015625,65.8671875,1,0,0,response1disk,,7,23.06640625,-7.84765625,1,0,0,rectangle,23.06640625,-7.84765625,1,0,0,23.06640625,-7.84765625,1,0,0,0,29,29,93,1,,,,,,,,
,,,,,,,,,,,,,FF,,,,,,,,3.8504,,,,,,,,,,,,,,,,,,,,,,610345ceb299e0132938d55c,610367c5d2053b82e13f7efc,2021-07-29_22h46.22.287,Simcolourproject_2stim_asymm_v5,2020.2.10,MacIntel,60,61025ae37ef11b136ea224fe,,,,,,,,,1400,76.9609375,-99.1875,1,0,0,response3disk,,4,-2.109375,-12.02734375,1,0,0,rectangle,-2.109375,-12.02734375,1,0,0,-2.109375,-12.02734375,1,0,0,0,30,30,155,1,,,,,,,,
,,,,,,,,,,,,,FF,,,,,,,,1.2168,,,,,,,,,,,,,,,,,,,,,,610345ceb299e0132938d55c,610367c5d2053b82e13f7efc,2021-07-29_22h46.22.287,Simcolourproject_2stim_asymm_v5,2020.2.10,MacIntel,60,61025ae37ef11b136ea224fe,,,,,,,,,1399,58.64453125,-89.32421875,1,0,0,response3disk,,4,10.39453125,-9.36328125,1,0,0,rectangle,10.39453125,-9.36328125,1,0,0,10.39453125,-9.36328125,1,0,0,0,31,31,21,1,,,,,,,,
,,,,,,,,,,,,,FF,,,,,,,,1.4211,,,,,,,,,,,,,,,,,,,,,,610345ceb299e0132938d55c,610367c5d2053b82e13f7efc,2021-07-29_22h46.22.287,Simcolourproject_2stim_asymm_v5,2020.2.10,MacIntel,60,61025ae37ef11b136ea224fe,,,,,,,,,2423,-87.02734375,42.87890625,1,0,0,response7disk,,1,-8.90625,-8.16796875,1,0,0,rectangle,-8.90625,-8.16796875,1,0,0,-8.90625,-8.16796875,1,0,0,0,32,32,91,1,,,,,,,,
,,,,,,,,,,,,,FF,,,,,,,,0.9665,,,,,,,,,,,,,,,,,,,,,,610345ceb299e0132938d55c,610367c5d2053b82e13f7efc,2021-07-29_22h46.22.287,Simcolourproject_2stim_asymm_v5,2020.2.10,MacIntel,60,61025ae37ef11b136ea224fe,,,,,,,,,2072,63.66796875,42.359375,1,0,0,response1disk,,6,0.39453125,1.90234375,1,0,0,rectangle,0.39453125,1.90234375,1,0,0,0.39453125,1.90234375,1,0,0,0,33,33,104,1,,,,,,,,
,,,,,,,,,,,,,FF,,,,,,,,0.6684,,,,,,,,,,,,,,,,,,,,,,610345ceb299e0132938d55c,610367c5d2053b82e13f7efc,2021-07-29_22h46.22.287,Simcolourproject_2stim_asymm_v5,2020.2.10,MacIntel,60,61025ae37ef11b136ea224fe,,,,,,,,,3961,46.28515625,83.26953125,1,0,0,response1disk,,7,2.8203125,-4.6875,1,0,0,rectangle,2.8203125,-4.6875,1,0,0,2.8203125,-4.6875,1,0,0,0,34,34,33,1,,,,,,,,
,,,,,,,,,,,,,FF,,,,,,,,0.6665,,,,,,,,,,,,,,,,,,,,,,610345ceb299e0132938d55c,610367c5d2053b82e13f7efc,2021-07-29_22h46.22.287,Simcolourproject_2stim_asymm_v5,2020.2.10,MacIntel,60,61025ae37ef11b136ea224fe,,,,,,,,,3131,32.0390625,64.3984375,1,0,0,response1disk,,7,2.35546875,1.16015625,1,0,0,rectangle,2.35546875,1.16015625,1,0,0,2.35546875,1.16015625,1,0,0,0,35,35,75,1,,,,,,,,
,,,,,,,,,,,,,FF,,,,,,,,1.6681,,,,,,,,,,,,,,,,,,,,,,610345ceb299e0132938d55c,610367c5d2053b82e13f7efc,2021-07-29_22h46.22.287,Simcolourproject_2stim_asymm_v5,2020.2.10,MacIntel,60,61025ae37ef11b136ea224fe,,,,,,,,,96,-73.87890625,47.44140625,1,0,0,response7disk,,1,-0.88671875,-13.6796875,1,0,0,rectangle,-0.88671875,-13.6796875,1,0,0,-0.88671875,-13.6796875,1,0,0,0,36,36,35,1,,,,,,,,
,,,,,,,,,,,,,FF,,,,,,,,1.2429,,,,,,,,,,,,,,,,,,,,,,610345ceb299e0132938d55c,610367c5d2053b82e13f7efc,2021-07-29_22h46.22.287,Simcolourproject_2stim_asymm_v5,2020.2.10,MacIntel,60,61025ae37ef11b136ea224fe,,,,,,,,,2460,50.46875,67.7734375,1,0,0,response1disk,,7,13.15234375,1.0859375,1,0,0,rectangle,13.15234375,1.0859375,1,0,0,13.15234375,1.0859375,1,0,0,0,37,37,100,1,,,,,,,,
,,,,,,,,,,,,,FF,,,,,,,,0.6503,,,,,,,,,,,,,,,,,,,,,,610345ceb299e0132938d55c,610367c5d2053b82e13f7efc,2021-07-29_22h46.22.287,Simcolourproject_2stim_asymm_v5,2020.2.10,MacIntel,60,61025ae37ef11b136ea224fe,,,,,,,,,877,52.40234375,65.1640625,1,0,0,response1disk,,7,16.5859375,-5.07421875,1,0,0,rectangle,16.5859375,-5.07421875,1,0,0,16.5859375,-5.07421875,1,0,0,0,38,38,80,1,,,,,,,,
,,,,,,,,,,,,,FF,,,,,,,,2.0185,,,,,,,,,,,,,,,,,,,,,,610345ceb299e0132938d55c,610367c5d2053b82e13f7efc,2021-07-29_22h46.22.287,Simcolourproject_2stim_asymm_v5,2020.2.10,MacIntel,60,61025ae37ef11b136ea224fe,,,,,,,,,1591,52.58203125,-78.98046875,1,0,0,response3disk,,4,23.25,-13.81640625,1,0,0,rectangle,23.25,-13.81640625,1,0,0,23.25,-13.81640625,1,0,0,0,39,39,59,1,,,,,,,,
,,,,,,,,,,,,,FF,,,,,,,,0.9006,,,,,,,,,,,,,,,,,,,,,,610345ceb299e0132938d55c,610367c5d2053b82e13f7efc,2021-07-29_22h46.22.287,Simcolourproject_2stim_asymm_v5,2020.2.10,MacIntel,60,61025ae37ef11b136ea224fe,,,,,,,,,306,22.0703125,60.46484375,1,0,0,response1disk,,7,8.5546875,-7.20703125,1,0,0,rectangle,8.5546875,-7.20703125,1,0,0,8.5546875,-7.20703125,1,0,0,0,40,40,118,1,,,,,,,,
,,,,,,,,,,,,,FF,,,,,,,,1.0998,,,,,,,,,,,,,,,,,,,,,,610345ceb299e0132938d55c,610367c5d2053b82e13f7efc,2021-07-29_22h46.22.287,Simcolourproject_2stim_asymm_v5,2020.2.10,MacIntel,60,61025ae37ef11b136ea224fe,,,,,,,,,2539,34.390625,49.328125,1,0,0,response1disk,,7,17.64453125,10.37109375,1,0,0,rectangle,17.64453125,10.37109375,1,0,0,17.64453125,10.37109375,1,0,0,0,41,41,134,1,,,,,,,,
,,,,,,,,,,,,,FF,,,,,,,,1.0499,,,,,,,,,,,,,,,,,,,,,,610345ceb299e0132938d55c,610367c5d2053b82e13f7efc,2021-07-29_22h46.22.287,Simcolourproject_2stim_asymm_v5,2020.2.10,MacIntel,60,61025ae37ef11b136ea224fe,,,,,,,,,1385,-87.03515625,-38.25,1,0,0,response5disk,,2,-27.109375,-17.27734375,1,0,0,rectangle,-27.109375,-17.27734375,1,0,0,-27.109375,-17.27734375,1,0,0,0,42,42,144,1,,,,,,,,
,,,,,,,,,,,,,FF,,,,,,,,0.8393,,,,,,,,,,,,,,,,,,,,,,610345ceb299e0132938d55c,610367c5d2053b82e13f7efc,2021-07-29_22h46.22.287,Simcolourproject_2stim_asymm_v5,2020.2.10,MacIntel,60,61025ae37ef11b136ea224fe,,,,,,,,,3604,-52.14453125,-26.390625,1,0,0,response5disk,,2,-7.51953125,-6.93359375,1,0,0,rectangle,-7.51953125,-6.93359375,1,0,0,-7.51953125,-6.93359375,1,0,0,0,43,43,87,1,,,,,,,,
,,,,,,,,,,,,,FF,,,,,,,,3.9837,,,,,,,,,,,,,,,,,,,,,,610345ceb299e0132938d55c,610367c5d2053b82e13f7efc,2021-07-29_22h46.22.287,Simcolourproject_2stim_asymm_v5,2020.2.10,MacIntel,60,61025ae37ef11b136ea224fe,,,,,,,,,1545,43.390625,81.02734375,1,0,0,response1disk,,7,5.328125,2.1484375,1,0,0,rectangle,5.328125,2.1484375,1,0,0,5.328125,2.1484375,1,0,0,0,44,44,81,1,,,,,,,,
,,,,,,,,,,,,,FF,,,,,,,,0.5349,,,,,,,,,,,,,,,,,,,,,,610345ceb299e0132938d55c,610367c5d2053b82e13f7efc,2021-07-29_22h46.22.287,Simcolourproject_2stim_asymm_v5,2020.2.10,MacIntel,60,61025ae37ef11b136ea224fe,,,,,,,,,1643,29.9140625,58.953125,1,0,0,response1disk,,7,14.45703125,7.80078125,1,0,0,rectangle,14.45703125,7.80078125,1,0,0,14.45703125,7.80078125,1,0,0,0,45,45,4,1,,,,,,,,
,,,,,,,,,,,,,FF,,,,,,,,0.951,,,,,,,,,,,,,,,,,,,,,,610345ceb299e0132938d55c,610367c5d2053b82e13f7efc,2021-07-29_22h46.22.287,Simcolourproject_2stim_asymm_v5,2020.2.10,MacIntel,60,61025ae37ef11b136ea224fe,,,,,,,,,2233,-42.9140625,78.5859375,1,0,0,response7disk,,0,-11.984375,-6.3828125,1,0,0,rectangle,-11.984375,-6.3828125,1,0,0,-11.984375,-6.3828125,1,0,0,0,46,46,13,1,,,,,,,,
,,,,,,,,,,,,,FF,,,,,,,,1.6834,,,,,,,,,,,,,,,,,,,,,,610345ceb299e0132938d55c,610367c5d2053b82e13f7efc,2021-07-29_22h46.22.287,Simcolourproject_2stim_asymm_v5,2020.2.10,MacIntel,60,61025ae37ef11b136ea224fe,,,,,,,,,2800,105.015625,36.71484375,1,0,0,response1disk,,6,-20.9765625,-2.9921875,1,0,0,rectangle,-20.9765625,-2.9921875,1,0,0,-20.9765625,-2.9921875,1,0,0,0,47,47,115,1,,,,,,,,
,,,,,,,,,,,,,FF,,,,,,,,1.5496,,,,,,,,,,,,,,,,,,,,,,610345ceb299e0132938d55c,610367c5d2053b82e13f7efc,2021-07-29_22h46.22.287,Simcolourproject_2stim_asymm_v5,2020.2.10,MacIntel,60,61025ae37ef11b136ea224fe,,,,,,,,,1142,33.84375,-102.5390625,1,0,0,response3disk,,4,3.8203125,0.42578125,1,0,0,rectangle,3.8203125,0.42578125,1,0,0,3.8203125,0.42578125,1,0,0,0,48,48,124,1,,,,,,,,
,,,,,,,,,,,,,FF,,,,,,,,1.1004,,,,,,,,,,,,,,,,,,,,,,610345ceb299e0132938d55c,610367c5d2053b82e13f7efc,2021-07-29_22h46.22.287,Simcolourproject_2stim_asymm_v5,2020.2.10,MacIntel,60,61025ae37ef11b136ea224fe,,,,,,,,,2356,-73.16015625,-34.859375,1,0,0,response5disk,,2,-13.13671875,-2.453125,1,0,0,rectangle,-13.13671875,-2.453125,1,0,0,-13.13671875,-2.453125,1,0,0,0,49,49,142,1,,,,,,,,
,,,,,,,,,,,,,FF,,,,,,,,1.4173,,,,,,,,,,,,,,,,,,,,,,610345ceb299e0132938d55c,610367c5d2053b82e13f7efc,2021-07-29_22h46.22.287,Simcolourproject_2stim_asymm_v5,2020.2.10,MacIntel,60,61025ae37ef11b136ea224fe,,,,,,,,,3533,58.94140625,88.3515625,1,0,0,response1disk,,7,-4.171875,-0.875,1,0,0,rectangle,-4.171875,-0.875,1,0,0,-4.171875,-0.875,1,0,0,0,50,50,114,1,,,,,,,,
,,,,,,,,,,,,,FF,,,,,,,,1.8656,,,,,,,,,,,,,,,,,,,,,,610345ceb299e0132938d55c,610367c5d2053b82e13f7efc,2021-07-29_22h46.22.287,Simcolourproject_2stim_asymm_v5,2020.2.10,MacIntel,60,61025ae37ef11b136ea224fe,,,,,,,,,1248,111.0820313,35.140625,1,0,0,response1disk,,6,-15.05078125,-6.39453125,1,0,0,rectangle,-15.05078125,-6.39453125,1,0,0,-15.05078125,-6.39453125,1,0,0,0,51,51,131,1,,,,,,,,
,,,,,,,,,,,,,FF,,,,,,,,0.5859,,,,,,,,,,,,,,,,,,,,,,610345ceb299e0132938d55c,610367c5d2053b82e13f7efc,2021-07-29_22h46.22.287,Simcolourproject_2stim_asymm_v5,2020.2.10,MacIntel,60,61025ae37ef11b136ea224fe,,,,,,,,,601,38.70703125,64.078125,1,0,0,response1disk,,7,5.0546875,-1.9921875,1,0,0,rectangle,5.0546875,-1.9921875,1,0,0,5.0546875,-1.9921875,1,0,0,0,52,52,65,1,,,,,,,,
,,,,,,,,,,,,,FF,,,,,,,,3.298,,,,,,,,,,,,,,,,,,,,,,610345ceb299e0132938d55c,610367c5d2053b82e13f7efc,2021-07-29_22h46.22.287,Simcolourproject_2stim_asymm_v5,2020.2.10,MacIntel,60,61025ae37ef11b136ea224fe,,,,,,,,,3065,110.5507813,41.80078125,1,0,0,response1disk,,6,13.16796875,5.65625,1,0,0,rectangle,13.16796875,5.65625,1,0,0,13.16796875,5.65625,1,0,0,0,53,53,154,1,,,,,,,,
,,,,,,,,,,,,,FF,,,,,,,,0.9483,,,,,,,,,,,,,,,,,,,,,,610345ceb299e0132938d55c,610367c5d2053b82e13f7efc,2021-07-29_22h46.22.287,Simcolourproject_2stim_asymm_v5,2020.2.10,MacIntel,60,61025ae37ef11b136ea224fe,,,,,,,,,2165,-84,24.89453125,1,0,0,response7disk,,1,-7.53125,11.04296875,1,0,0,rectangle,-7.53125,11.04296875,1,0,0,-7.53125,11.04296875,1,0,0,0,54,54,43,1,,,,,,,,
,,,,,,,,,,,,,FF,,,,,,,,2.1177,,,,,,,,,,,,,,,,,,,,,,610345ceb299e0132938d55c,610367c5d2053b82e13f7efc,2021-07-29_22h46.22.287,Simcolourproject_2stim_asymm_v5,2020.2.10,MacIntel,60,61025ae37ef11b136ea224fe,,,,,,,,,2220,-53.93359375,-76.4765625,1,0,0,response5disk,,3,6.03125,-2.5390625,1,0,0,rectangle,6.03125,-2.5390625,1,0,0,6.03125,-2.5390625,1,0,0,0,55,55,101,1,,,,,,,,
,,,,,,,,,,,,,FF,,,,,,,,0.9674,,,,,,,,,,,,,,,,,,,,,,610345ceb299e0132938d55c,610367c5d2053b82e13f7efc,2021-07-29_22h46.22.287,Simcolourproject_2stim_asymm_v5,2020.2.10,MacIntel,60,61025ae37ef11b136ea224fe,,,,,,,,,1297,-66.94921875,33.68359375,1,0,0,response7disk,,1,3.03515625,5.6640625,1,0,0,rectangle,3.03515625,5.6640625,1,0,0,3.03515625,5.6640625,1,0,0,0,56,56,83,1,,,,,,,,
,,,,,,,,,,,,,FF,,,,,,,,1.9014,,,,,,,,,,,,,,,,,,,,,,610345ceb299e0132938d55c,610367c5d2053b82e13f7efc,2021-07-29_22h46.22.287,Simcolourproject_2stim_asymm_v5,2020.2.10,MacIntel,60,61025ae37ef11b136ea224fe,,,,,,,,,29,111.171875,-44.9453125,1,0,0,response3disk,,5,-0.32421875,-6.15234375,1,0,0,rectangle,80.66015625,22.92578125,1,0,0,3.28125,-8.359375,1,0,0,0,57,57,136,1,,response1disk_3,TRUE,6,6,"[201,167,93,245,224,175,130,264,65,170,204,25,203,58,245,258,16,63,3,195]",1.5362,rectangle
,,,,,,,,,,,,,FF,,,,,,,,4.0743,,,,,,,,,,,,,,,,,,,,,,610345ceb299e0132938d55c,610367c5d2053b82e13f7efc,2021-07-29_22h46.22.287,Simcolourproject_2stim_asymm_v5,2020.2.10,MacIntel,60,61025ae37ef11b136ea224fe,,,,,,,,,3066,66.16796875,-94.90234375,1,0,0,response3disk,,4,1.71484375,-5.17578125,1,0,0,rectangle,1.71484375,-5.17578125,1,0,0,1.71484375,-5.17578125,1,0,0,0,58,58,54,1,,,,,,,,
,,,,,,,,,,,,,FF,,,,,,,,0.7498,,,,,,,,,,,,,,,,,,,,,,610345ceb299e0132938d55c,610367c5d2053b82e13f7efc,2021-07-29_22h46.22.287,Simcolourproject_2stim_asymm_v5,2020.2.10,MacIntel,60,61025ae37ef11b136ea224fe,,,,,,,,,2957,31.296875,72.99609375,1,0,0,response1disk,,7,22.390625,7.90234375,1,0,0,rectangle,22.390625,7.90234375,1,0,0,22.390625,7.90234375,1,0,0,0,59,59,74,1,,,,,,,,
,,,,,,,,,,,,,FF,,,,,,,,1.6248,,,,,,,,,,,,,,,,,,,,,,610345ceb299e0132938d55c,610367c5d2053b82e13f7efc,2021-07-29_22h46.22.287,Simcolourproject_2stim_asymm_v5,2020.2.10,MacIntel,60,61025ae37ef11b136ea224fe,,,,,,,,,2880,-35.2734375,-68.42578125,1,0,0,response5disk,,3,4.55859375,-7.5625,1,0,0,rectangle,4.55859375,-7.5625,1,0,0,4.55859375,-7.5625,1,0,0,0,60,60,69,1,,,,,,,,
,,,,,,,,,,,,,FF,,,,,,,,1.32,,,,,,,,,,,,,,,,,,,,,,610345ceb299e0132938d55c,610367c5d2053b82e13f7efc,2021-07-29_22h46.22.287,Simcolourproject_2stim_asymm_v5,2020.2.10,MacIntel,60,61025ae37ef11b136ea224fe,,,,,,,,,446,48.9453125,50.60546875,1,0,0,response1disk,,7,-6.9140625,-2.98828125,1,0,0,rectangle,-6.9140625,-2.98828125,1,0,0,-6.9140625,-2.98828125,1,0,0,0,61,61,111,1,,,,,,,,
,,,,,,,,,,,,,FF,,,,,,,,1.3835,,,,,,,,,,,,,,,,,,,,,,610345ceb299e0132938d55c,610367c5d2053b82e13f7efc,2021-07-29_22h46.22.287,Simcolourproject_2stim_asymm_v5,2020.2.10,MacIntel,60,61025ae37ef11b136ea224fe,,,,,,,,,1975,34.6796875,-103.3867188,1,0,0,response3disk,,4,-1.41015625,8.421875,1,0,0,rectangle,-81.375,-49.58203125,1,0,0,10.16015625,4.6171875,1,0,0,0,62,62,48,1,,response5disk_3,TRUE,2,2,"[201,167,93,245,224,175,130,264,65,170,204,25,203,58,245,258,16,63,3,195]",1.7422,rectangle
,,,,,,,,,,,,,FF,,,,,,,,1.3838,,,,,,,,,,,,,,,,,,,,,,610345ceb299e0132938d55c,610367c5d2053b82e13f7efc,2021-07-29_22h46.22.287,Simcolourproject_2stim_asymm_v5,2020.2.10,MacIntel,60,61025ae37ef11b136ea224fe,,,,,,,,,3997,-61.8828125,32.734375,1,0,0,response7disk,,1,3.375,-4.2109375,1,0,0,rectangle,3.375,-4.2109375,1,0,0,3.375,-4.2109375,1,0,0,0,63,63,130,1,,,,,,,,
,,,,,,,,,,,,,FF,,,,,,,,5.784,,,,,,,,,,,,,,,,,,,,,,610345ceb299e0132938d55c,610367c5d2053b82e13f7efc,2021-07-29_22h46.22.287,Simcolourproject_2stim_asymm_v5,2020.2.10,MacIntel,60,61025ae37ef11b136ea224fe,,,,,,,,,125,78.12109375,-63.8125,1,0,0,response3disk,,5,4.23046875,9.90234375,1,0,0,rectangle,90.77734375,28.3828125,1,0,0,22.125,1.265625,1,0,0,0,64,64,28,1,,response1disk_3,TRUE,6,6,"[201,167,93,245,224,175,130,264,65,170,204,25,203,58,245,258,16,63,3,195]",1.1998,rectangle
,,,,,,,,,,,,,FF,,,,,,,,1.2985,,,,,,,,,,,,,,,,,,,,,,610345ceb299e0132938d55c,610367c5d2053b82e13f7efc,2021-07-29_22h46.22.287,Simcolourproject_2stim_asymm_v5,2020.2.10,MacIntel,60,61025ae37ef11b136ea224fe,,,,,,,,,349,-45.50390625,-63.3828125,1,0,0,response5disk,,3,-2.0625,-9.31640625,1,0,0,rectangle,-2.0625,-9.31640625,1,0,0,-2.0625,-9.31640625,1,0,0,0,65,65,67,1,,,,,,,,
,,,,,,,,,,,,,FF,,,,,,,,2.207,,,,,,,,,,,,,,,,,,,,,,610345ceb299e0132938d55c,610367c5d2053b82e13f7efc,2021-07-29_22h46.22.287,Simcolourproject_2stim_asymm_v5,2020.2.10,MacIntel,60,61025ae37ef11b136ea224fe,,,,,,,,,3919,87.6953125,33.04296875,1,0,0,response1disk,,6,14.296875,-4.50390625,1,0,0,rectangle,14.296875,-4.50390625,1,0,0,14.296875,-4.50390625,1,0,0,0,66,66,25,1,,,,,,,,
,,,,,,,,,,,,,FF,,,,,,,,1.084,,,,,,,,,,,,,,,,,,,,,,610345ceb299e0132938d55c,610367c5d2053b82e13f7efc,2021-07-29_22h46.22.287,Simcolourproject_2stim_asymm_v5,2020.2.10,MacIntel,60,61025ae37ef11b136ea224fe,,,,,,,,,3970,-85.19140625,30.8359375,1,0,0,response7disk,,1,-10.921875,5.13671875,1,0,0,rectangle,-10.921875,5.13671875,1,0,0,-10.921875,5.13671875,1,0,0,0,67,67,76,1,,,,,,,,
,,,,,,,,,,,,,FF,,,,,,,,0.9025,,,,,,,,,,,,,,,,,,,,,,610345ceb299e0132938d55c,610367c5d2053b82e13f7efc,2021-07-29_22h46.22.287,Simcolourproject_2stim_asymm_v5,2020.2.10,MacIntel,60,61025ae37ef11b136ea224fe,,,,,,,,,4148,-83.13671875,47.59375,1,0,0,response7disk,,1,-5.859375,0.9453125,1,0,0,rectangle,-5.859375,0.9453125,1,0,0,-5.859375,0.9453125,1,0,0,0,68,68,132,1,,,,,,,,
,,,,,,,,,,,,,FF,,,,,,,,1.2487,,,,,,,,,,,,,,,,,,,,,,610345ceb299e0132938d55c,610367c5d2053b82e13f7efc,2021-07-29_22h46.22.287,Simcolourproject_2stim_asymm_v5,2020.2.10,MacIntel,60,61025ae37ef11b136ea224fe,,,,,,,,,243,99.73828125,-36.51953125,1,0,0,response3disk,,5,29.7265625,6.125,1,0,0,rectangle,29.7265625,6.125,1,0,0,29.7265625,6.125,1,0,0,0,69,69,31,1,,,,,,,,
,,,,,,,,,,,,,FF,,,,,,,,1.4506,,,,,,,,,,,,,,,,,,,,,,610345ceb299e0132938d55c,610367c5d2053b82e13f7efc,2021-07-29_22h46.22.287,Simcolourproject_2stim_asymm_v5,2020.2.10,MacIntel,60,61025ae37ef11b136ea224fe,,,,,,,,,1488,96.4921875,33.734375,1,0,0,response1disk,,6,-7.984375,6.1953125,1,0,0,rectangle,-7.984375,6.1953125,1,0,0,-7.984375,6.1953125,1,0,0,0,70,70,108,1,,,,,,,,
,,,,,,,,,,,,,FF,,,,,,,,5.2015,,,,,,,,,,,,,,,,,,,,,,610345ceb299e0132938d55c,610367c5d2053b82e13f7efc,2021-07-29_22h46.22.287,Simcolourproject_2stim_asymm_v5,2020.2.10,MacIntel,60,61025ae37ef11b136ea224fe,,,,,,,,,2380,55.390625,-88.14453125,1,0,0,response3disk,,4,-11.07421875,6.71875,1,0,0,rectangle,-11.07421875,6.71875,1,0,0,-11.07421875,6.71875,1,0,0,0,71,71,147,1,,,,,,,,
,,,,,,,,,,,,,FF,,,,,,,,1.0183,,,,,,,,,,,,,,,,,,,,,,610345ceb299e0132938d55c,610367c5d2053b82e13f7efc,2021-07-29_22h46.22.287,Simcolourproject_2stim_asymm_v5,2020.2.10,MacIntel,60,61025ae37ef11b136ea224fe,,,,,,,,,3454,85.2265625,-35.17578125,1,0,0,response3disk,,5,12.484375,12.03515625,1,0,0,rectangle,12.484375,12.03515625,1,0,0,12.484375,12.03515625,1,0,0,0,72,72,7,1,,,,,,,,
,,,,,,,,,,,,,FF,,,,,,,,0.6656,,,,,,,,,,,,,,,,,,,,,,610345ceb299e0132938d55c,610367c5d2053b82e13f7efc,2021-07-29_22h46.22.287,Simcolourproject_2stim_asymm_v5,2020.2.10,MacIntel,60,61025ae37ef11b136ea224fe,,,,,,,,,3170,95.8515625,26.5390625,1,0,0,response1disk,,6,-6.21875,-0.140625,1,0,0,rectangle,-6.21875,-0.140625,1,0,0,-6.21875,-0.140625,1,0,0,0,73,73,2,1,,,,,,,,
,,,,,,,,,,,,,FF,,,,,,,,0.9024,,,,,,,,,,,,,,,,,,,,,,610345ceb299e0132938d55c,610367c5d2053b82e13f7efc,2021-07-29_22h46.22.287,Simcolourproject_2stim_asymm_v5,2020.2.10,MacIntel,60,61025ae37ef11b136ea224fe,,,,,,,,,2376,-36.03125,-79.296875,1,0,0,response5disk,,3,2.328125,-12.64453125,1,0,0,rectangle,2.328125,-12.64453125,1,0,0,2.328125,-12.64453125,1,0,0,0,74,74,3,1,,,,,,,,
,,,,,,,,,,,,,FF,,,,,,,,7.6337,,,,,,,,,,,,,,,,,,,,,,610345ceb299e0132938d55c,610367c5d2053b82e13f7efc,2021-07-29_22h46.22.287,Simcolourproject_2stim_asymm_v5,2020.2.10,MacIntel,60,61025ae37ef11b136ea224fe,,,,,,,,,1950,77.3203125,-24.1328125,1,0,0,response3disk,,5,23.640625,-12.671875,1,0,0,rectangle,23.640625,-12.671875,1,0,0,23.640625,-12.671875,1,0,0,0,75,75,152,1,,,,,,,,
,,,,,,,,,,,,,FF,,,,,,,,1.2003,,,,,,,,,,,,,,,,,,,,,,610345ceb299e0132938d55c,610367c5d2053b82e13f7efc,2021-07-29_22h46.22.287,Simcolourproject_2stim_asymm_v5,2020.2.10,MacIntel,60,61025ae37ef11b136ea224fe,,,,,,,,,2069,49.875,-79.37890625,1,0,0,response3disk,,4,13.03125,-7.7734375,1,0,0,rectangle,13.03125,-7.7734375,1,0,0,13.03125,-7.7734375,1,0,0,0,76,76,55,1,,,,,,,,
,,,,,,,,,,,,,FF,,,,,,,,1.5666,,,,,,,,,,,,,,,,,,,,,,610345ceb299e0132938d55c,610367c5d2053b82e13f7efc,2021-07-29_22h46.22.287,Simcolourproject_2stim_asymm_v5,2020.2.10,MacIntel,60,61025ae37ef11b136ea224fe,,,,,,,,,664,103.953125,37.8046875,1,0,0,response1disk,,6,15.18359375,-3.6875,1,0,0,rectangle,15.18359375,-3.6875,1,0,0,15.18359375,-3.6875,1,0,0,0,77,77,107,1,,,,,,,,
,,,,,,,,,,,,,FF,,,,,,,,0.7503,,,,,,,,,,,,,,,,,,,,,,610345ceb299e0132938d55c,610367c5d2053b82e13f7efc,2021-07-29_22h46.22.287,Simcolourproject_2stim_asymm_v5,2020.2.10,MacIntel,60,61025ae37ef11b136ea224fe,,,,,,,,,2703,34.87109375,68.76953125,1,0,0,response1disk,,7,19.8125,9.32421875,1,0,0,rectangle,19.8125,9.32421875,1,0,0,19.8125,9.32421875,1,0,0,0,78,78,96,1,,,,,,,,
,,,,,,,,,,,,,FF,,,,,,,,1.217,,,,,,,,,,,,,,,,,,,,,,610345ceb299e0132938d55c,610367c5d2053b82e13f7efc,2021-07-29_22h46.22.287,Simcolourproject_2stim_asymm_v5,2020.2.10,MacIntel,60,61025ae37ef11b136ea224fe,,,,,,,,,2673,-72.74609375,39.71875,1,0,0,response7disk,,1,-3.12109375,-10.41796875,1,0,0,rectangle,-3.12109375,-10.41796875,1,0,0,-3.12109375,-10.41796875,1,0,0,0,79,79,128,1,,,,,,,,
,,,,,,,,,,,,,FF,,,,,,,,0.7668,,,,,,,,,,,,,,,,,,,,,,610345ceb299e0132938d55c,610367c5d2053b82e13f7efc,2021-07-29_22h46.22.287,Simcolourproject_2stim_asymm_v5,2020.2.10,MacIntel,60,61025ae37ef11b136ea224fe,,,,,,,,,4200,-39.953125,110.8476563,1,0,0,response7disk,,0,-24.30859375,4.42578125,1,0,0,rectangle,-24.30859375,4.42578125,1,0,0,-24.30859375,4.42578125,1,0,0,0,80,80,57,1,,,,,,,,
,,,,,,,,,,,,,FF,,,,,,,,0.9497,,,,,,,,,,,,,,,,,,,,,,610345ceb299e0132938d55c,610367c5d2053b82e13f7efc,2021-07-29_22h46.22.287,Simcolourproject_2stim_asymm_v5,2020.2.10,MacIntel,60,61025ae37ef11b136ea224fe,,,,,,,,,348,-41.25,74.94140625,1,0,0,response7disk,,0,-10.95703125,-1.078125,1,0,0,rectangle,-10.95703125,-1.078125,1,0,0,-10.95703125,-1.078125,1,0,0,0,81,81,89,1,,,,,,,,
,,,,,,,,,,,,,FF,,,,,,,,2.9004,,,,,,,,,,,,,,,,,,,,,,610345ceb299e0132938d55c,610367c5d2053b82e13f7efc,2021-07-29_22h46.22.287,Simcolourproject_2stim_asymm_v5,2020.2.10,MacIntel,60,61025ae37ef11b136ea224fe,,,,,,,,,37,24.91015625,105.2890625,1,0,0,response1disk,,7,5.83984375,-10.0390625,1,0,0,rectangle,5.83984375,-10.0390625,1,0,0,5.83984375,-10.0390625,1,0,0,0,82,82,9,1,,,,,,,,
,,,,,,,,,,,,,FF,,,,,,,,0.7712,,,,,,,,,,,,,,,,,,,,,,610345ceb299e0132938d55c,610367c5d2053b82e13f7efc,2021-07-29_22h46.22.287,Simcolourproject_2stim_asymm_v5,2020.2.10,MacIntel,60,61025ae37ef11b136ea224fe,,,,,,,,,1718,30.9296875,63.10546875,1,0,0,response1disk,,7,20.22265625,4.19140625,1,0,0,rectangle,20.22265625,4.19140625,1,0,0,20.22265625,4.19140625,1,0,0,0,83,83,139,1,,,,,,,,
,,,,,,,,,,,,,FF,,,,,,,,1.5466,,,,,,,,,,,,,,,,,,,,,,610345ceb299e0132938d55c,610367c5d2053b82e13f7efc,2021-07-29_22h46.22.287,Simcolourproject_2stim_asymm_v5,2020.2.10,MacIntel,60,61025ae37ef11b136ea224fe,,,,,,,,,266,-74.3203125,-37.58984375,1,0,0,response5disk,,2,-12.796875,-3.75,1,0,0,rectangle,-12.796875,-3.75,1,0,0,-12.796875,-3.75,1,0,0,0,84,84,94,1,,,,,,,,
,,,,,,,,,,,,,FF,,,,,,,,1.7861,,,,,,,,,,,,,,,,,,,,,,610345ceb299e0132938d55c,610367c5d2053b82e13f7efc,2021-07-29_22h46.22.287,Simcolourproject_2stim_asymm_v5,2020.2.10,MacIntel,60,61025ae37ef11b136ea224fe,,,,,,,,,3945,90.71484375,-68.19140625,1,0,0,response3disk,,5,1.7421875,-7.34765625,1,0,0,rectangle,1.7421875,-7.34765625,1,0,0,1.7421875,-7.34765625,1,0,0,0,85,85,129,1,,,,,,,,
,,,,,,,,,,,,,FF,,,,,,,,2.1333,,,,,,,,,,,,,,,,,,,,,,610345ceb299e0132938d55c,610367c5d2053b82e13f7efc,2021-07-29_22h46.22.287,Simcolourproject_2stim_asymm_v5,2020.2.10,MacIntel,60,61025ae37ef11b136ea224fe,,,,,,,,,1434,89.5859375,36.37890625,1,0,0,response1disk,,6,20.69140625,4.1484375,1,0,0,rectangle,20.69140625,4.1484375,1,0,0,20.69140625,4.1484375,1,0,0,0,86,86,86,1,,,,,,,,
,,,,,,,,,,,,,FF,,,,,,,,2.3673,,,,,,,,,,,,,,,,,,,,,,610345ceb299e0132938d55c,610367c5d2053b82e13f7efc,2021-07-29_22h46.22.287,Simcolourproject_2stim_asymm_v5,2020.2.10,MacIntel,60,61025ae37ef11b136ea224fe,,,,,,,,,2737,-33.90234375,-81.38671875,1,0,0,response5disk,,3,-0.296875,-5.20703125,1,0,0,rectangle,-0.296875,-5.20703125,1,0,0,-0.296875,-5.20703125,1,0,0,0,87,87,112,1,,,,,,,,
,,,,,,,,,,,,,FF,,,,,,,,3.3177,,,,,,,,,,,,,,,,,,,,,,610345ceb299e0132938d55c,610367c5d2053b82e13f7efc,2021-07-29_22h46.22.287,Simcolourproject_2stim_asymm_v5,2020.2.10,MacIntel,60,61025ae37ef11b136ea224fe,,,,,,,,,129,101.4492188,38.19140625,1,0,0,response1disk,,6,23.0625,9.05078125,1,0,0,rectangle,23.0625,9.05078125,1,0,0,23.0625,9.05078125,1,0,0,0,88,88,11,1,,,,,,,,
,,,,,,,,,,,,,FF,,,,,,,,1.8193,,,,,,,,,,,,,,,,,,,,,,610345ceb299e0132938d55c,610367c5d2053b82e13f7efc,2021-07-29_22h46.22.287,Simcolourproject_2stim_asymm_v5,2020.2.10,MacIntel,60,61025ae37ef11b136ea224fe,,,,,,,,,1512,42.90234375,76.70703125,1,0,0,response1disk,,7,13.93359375,8.015625,1,0,0,rectangle,13.93359375,8.015625,1,0,0,13.93359375,8.015625,1,0,0,0,89,89,84,1,,,,,,,,
,,,,,,,,,,,,,FF,,,,,,,,2.4177,,,,,,,,,,,,,,,,,,,,,,610345ceb299e0132938d55c,610367c5d2053b82e13f7efc,2021-07-29_22h46.22.287,Simcolourproject_2stim_asymm_v5,2020.2.10,MacIntel,60,61025ae37ef11b136ea224fe,,,,,,,,,1976,-25.25,-65.3671875,1,0,0,response5disk,,3,10.8359375,-1.8828125,1,0,0,rectangle,10.8359375,-1.8828125,1,0,0,10.8359375,-1.8828125,1,0,0,0,90,90,78,1,,,,,,,,
,,,,,,,,,,,,,FF,,,,,,,,0.6992,,,,,,,,,,,,,,,,,,,,,,610345ceb299e0132938d55c,610367c5d2053b82e13f7efc,2021-07-29_22h46.22.287,Simcolourproject_2stim_asymm_v5,2020.2.10,MacIntel,60,61025ae37ef11b136ea224fe,,,,,,,,,2604,-35.03125,-81.04296875,1,0,0,response5disk,,3,10.6171875,-6.01953125,1,0,0,rectangle,10.6171875,-6.01953125,1,0,0,10.6171875,-6.01953125,1,0,0,0,91,91,68,1,,,,,,,,
,,,,,,,,,,,,,FF,,,,,,,,1.2679,,,,,,,,,,,,,,,,,,,,,,610345ceb299e0132938d55c,610367c5d2053b82e13f7efc,2021-07-29_22h46.22.287,Simcolourproject_2stim_asymm_v5,2020.2.10,MacIntel,60,61025ae37ef11b136ea224fe,,,,,,,,,3711,-60.00390625,-40.16796875,1,0,0,response5disk,,2,11.02734375,-15.984375,1,0,0,rectangle,-48.38671875,82.9453125,1,0,0,-20.18359375,4.66015625,1,0,0,0,92,92,60,1,,response7disk_3,TRUE,0,0,"[201,167,93,245,224,175,130,264,65,170,204,25,203,58,245,258,16,63,3,195]",1.5802,rectangle
,,,,,,,,,,,,,FF,,,,,,,,5.8671,,,,,,,,,,,,,,,,,,,,,,610345ceb299e0132938d55c,610367c5d2053b82e13f7efc,2021-07-29_22h46.22.287,Simcolourproject_2stim_asymm_v5,2020.2.10,MacIntel,60,61025ae37ef11b136ea224fe,,,,,,,,,2773,72.98828125,-40.1796875,1,0,0,response3disk,,5,-0.34765625,8.828125,1,0,0,rectangle,-0.34765625,8.828125,1,0,0,-0.34765625,8.828125,1,0,0,0,93,93,133,1,,,,,,,,
,,,,,,,,,,,,,FF,,,,,,,,2.367,,,,,,,,,,,,,,,,,,,,,,610345ceb299e0132938d55c,610367c5d2053b82e13f7efc,2021-07-29_22h46.22.287,Simcolourproject_2stim_asymm_v5,2020.2.10,MacIntel,60,61025ae37ef11b136ea224fe,,,,,,,,,2509,77.91015625,31.0078125,1,0,0,response1disk,,6,15.4140625,1.5234375,1,0,0,rectangle,15.4140625,1.5234375,1,0,0,15.4140625,1.5234375,1,0,0,0,94,94,117,1,,,,,,,,
,,,,,,,,,,,,,FF,,,,,,,,2.1832,,,,,,,,,,,,,,,,,,,,,,610345ceb299e0132938d55c,610367c5d2053b82e13f7efc,2021-07-29_22h46.22.287,Simcolourproject_2stim_asymm_v5,2020.2.10,MacIntel,60,61025ae37ef11b136ea224fe,,,,,,,,,3950,-42.17578125,-102.1015625,1,0,0,response5disk,,3,-9.4609375,-1.27734375,1,0,0,rectangle,-9.4609375,-1.27734375,1,0,0,-9.4609375,-1.27734375,1,0,0,0,95,95,45,1,,,,,,,,
,,,,,,,,,,,,,FF,,,,,,,,1.6334,,,,,,,,,,,,,,,,,,,,,,610345ceb299e0132938d55c,610367c5d2053b82e13f7efc,2021-07-29_22h46.22.287,Simcolourproject_2stim_asymm_v5,2020.2.10,MacIntel,60,61025ae37ef11b136ea224fe,,,,,,,,,2303,-78.7265625,-53.23046875,1,0,0,response5disk,,2,-4.96484375,-12.91796875,1,0,0,rectangle,-4.96484375,-12.91796875,1,0,0,-4.96484375,-12.91796875,1,0,0,0,96,96,90,1,,,,,,,,
,,,,,,,,,,,,,FF,,,,,,,,1.9993,,,,,,,,,,,,,,,,,,,,,,610345ceb299e0132938d55c,610367c5d2053b82e13f7efc,2021-07-29_22h46.22.287,Simcolourproject_2stim_asymm_v5,2020.2.10,MacIntel,60,61025ae37ef11b136ea224fe,,,,,,,,,2634,39.21875,-85.8203125,1,0,0,response3disk,,4,7.34765625,-1.765625,1,0,0,rectangle,7.34765625,-1.765625,1,0,0,7.34765625,-1.765625,1,0,0,0,97,97,50,1,,,,,,,,
,,,,,,,,,,,,,FF,,,,,,,,1.3096,,,,,,,,,,,,,,,,,,,,,,610345ceb299e0132938d55c,610367c5d2053b82e13f7efc,2021-07-29_22h46.22.287,Simcolourproject_2stim_asymm_v5,2020.2.10,MacIntel,60,61025ae37ef11b136ea224fe,,,,,,,,,4346,-44.81640625,24.43359375,1,0,0,response7disk,,1,6.609375,-11.34765625,1,0,0,rectangle,6.609375,-11.34765625,1,0,0,6.609375,-11.34765625,1,0,0,0,98,98,51,1,,,,,,,,
,,,,,,,,,,,,,FF,,,,,,,,1.3335,,,,,,,,,,,,,,,,,,,,,,610345ceb299e0132938d55c,610367c5d2053b82e13f7efc,2021-07-29_22h46.22.287,Simcolourproject_2stim_asymm_v5,2020.2.10,MacIntel,60,61025ae37ef11b136ea224fe,,,,,,,,,2000,43.76953125,73.3984375,1,0,0,response1disk,,7,-8.5078125,-10.96875,1,0,0,rectangle,-8.5078125,-10.96875,1,0,0,-8.5078125,-10.96875,1,0,0,0,99,99,92,1,,,,,,,,
,,,,,,,,,,,,,FF,,,,,,,,1.2006,,,,,,,,,,,,,,,,,,,,,,610345ceb299e0132938d55c,610367c5d2053b82e13f7efc,2021-07-29_22h46.22.287,Simcolourproject_2stim_asymm_v5,2020.2.10,MacIntel,60,61025ae37ef11b136ea224fe,,,,,,,,,2175,53.03515625,-100.6328125,1,0,0,response3disk,,4,4.77734375,-5.8828125,1,0,0,rectangle,4.77734375,-5.8828125,1,0,0,4.77734375,-5.8828125,1,0,0,0,100,100,137,1,,,,,,,,
,,,,,,,,,,,,,FF,,,,,,,,0.8836,,,,,,,,,,,,,,,,,,,,,,610345ceb299e0132938d55c,610367c5d2053b82e13f7efc,2021-07-29_22h46.22.287,Simcolourproject_2stim_asymm_v5,2020.2.10,MacIntel,60,61025ae37ef11b136ea224fe,,,,,,,,,1177,34.58984375,84.8671875,1,0,0,response1disk,,7,9.125,3.953125,1,0,0,rectangle,9.125,3.953125,1,0,0,9.125,3.953125,1,0,0,0,101,101,156,1,,,,,,,,
,,,,,,,,,,,,,FF,,,,,,,,0.717,,,,,,,,,,,,,,,,,,,,,,610345ceb299e0132938d55c,610367c5d2053b82e13f7efc,2021-07-29_22h46.22.287,Simcolourproject_2stim_asymm_v5,2020.2.10,MacIntel,60,61025ae37ef11b136ea224fe,,,,,,,,,1004,44.73046875,77.14453125,1,0,0,response1disk,,7,28.546875,11.25390625,1,0,0,rectangle,28.546875,11.25390625,1,0,0,28.546875,11.25390625,1,0,0,0,102,102,63,1,,,,,,,,
,,,,,,,,,,,,,FF,,,,,,,,0.6,,,,,,,,,,,,,,,,,,,,,,610345ceb299e0132938d55c,610367c5d2053b82e13f7efc,2021-07-29_22h46.22.287,Simcolourproject_2stim_asymm_v5,2020.2.10,MacIntel,60,61025ae37ef11b136ea224fe,,,,,,,,,2123,41.3046875,81.1796875,1,0,0,response1disk,,7,14.9765625,2.76171875,1,0,0,rectangle,14.9765625,2.76171875,1,0,0,14.9765625,2.76171875,1,0,0,0,103,103,53,1,,,,,,,,
,,,,,,,,,,,,,FF,,,,,,,,0.8447,,,,,,,,,,,,,,,,,,,,,,610345ceb299e0132938d55c,610367c5d2053b82e13f7efc,2021-07-29_22h46.22.287,Simcolourproject_2stim_asymm_v5,2020.2.10,MacIntel,60,61025ae37ef11b136ea224fe,,,,,,,,,3561,45.8125,84.01171875,1,0,0,response1disk,,7,13.453125,2.81640625,1,0,0,rectangle,13.453125,2.81640625,1,0,0,13.453125,2.81640625,1,0,0,0,104,104,149,1,,,,,,,,
,,,,,,,,,,,,,FF,,,,,,,,1.0508,,,,,,,,,,,,,,,,,,,,,,610345ceb299e0132938d55c,610367c5d2053b82e13f7efc,2021-07-29_22h46.22.287,Simcolourproject_2stim_asymm_v5,2020.2.10,MacIntel,60,61025ae37ef11b136ea224fe,,,,,,,,,3400,52.3515625,78.03125,1,0,0,response1disk,,7,24.203125,12.09765625,1,0,0,rectangle,24.203125,12.09765625,1,0,0,24.203125,12.09765625,1,0,0,0,105,105,135,1,,,,,,,,
,,,,,,,,,,,,,FF,,,,,,,,4.1679,,,,,,,,,,,,,,,,,,,,,,610345ceb299e0132938d55c,610367c5d2053b82e13f7efc,2021-07-29_22h46.22.287,Simcolourproject_2stim_asymm_v5,2020.2.10,MacIntel,60,61025ae37ef11b136ea224fe,,,,,,,,,3880,80.8359375,-69.7578125,1,0,0,response3disk,,5,-4.07421875,10.96484375,1,0,0,rectangle,-4.07421875,10.96484375,1,0,0,-4.07421875,10.96484375,1,0,0,0,106,106,120,1,,,,,,,,
,,,,,,,,,,,,,FF,,,,,,,,0.8833,,,,,,,,,,,,,,,,,,,,,,610345ceb299e0132938d55c,610367c5d2053b82e13f7efc,2021-07-29_22h46.22.287,Simcolourproject_2stim_asymm_v5,2020.2.10,MacIntel,60,61025ae37ef11b136ea224fe,,,,,,,,,2894,-77.0546875,24.93359375,1,0,0,response7disk,,1,-30.1484375,9.61328125,1,0,0,rectangle,-30.1484375,9.61328125,1,0,0,-30.1484375,9.61328125,1,0,0,0,107,107,158,1,,,,,,,,
,,,,,,,,,,,,,FF,,,,,,,,0.6514,,,,,,,,,,,,,,,,,,,,,,610345ceb299e0132938d55c,610367c5d2053b82e13f7efc,2021-07-29_22h46.22.287,Simcolourproject_2stim_asymm_v5,2020.2.10,MacIntel,60,61025ae37ef11b136ea224fe,,,,,,,,,2719,-49.4765625,66.1484375,1,0,0,response7disk,,0,-9.87109375,-7.796875,1,0,0,rectangle,-9.87109375,-7.796875,1,0,0,-9.87109375,-7.796875,1,0,0,0,108,108,49,1,,,,,,,,
,,,,,,,,,,,,,FF,,,,,,,,2.1814,,,,,,,,,,,,,,,,,,,,,,610345ceb299e0132938d55c,610367c5d2053b82e13f7efc,2021-07-29_22h46.22.287,Simcolourproject_2stim_asymm_v5,2020.2.10,MacIntel,60,61025ae37ef11b136ea224fe,,,,,,,,,1583,65.08984375,73.77734375,1,0,0,response1disk,,7,-7.44140625,2.82421875,1,0,0,rectangle,-7.44140625,2.82421875,1,0,0,-7.44140625,2.82421875,1,0,0,0,109,109,98,1,,,,,,,,
,,,,,,,,,,,,,FF,,,,,,,,1.717,,,,,,,,,,,,,,,,,,,,,,610345ceb299e0132938d55c,610367c5d2053b82e13f7efc,2021-07-29_22h46.22.287,Simcolourproject_2stim_asymm_v5,2020.2.10,MacIntel,60,61025ae37ef11b136ea224fe,,,,,,,,,1648,36.58203125,65.9765625,1,0,0,response1disk,,7,26.99609375,9.58203125,1,0,0,rectangle,26.99609375,9.58203125,1,0,0,26.99609375,9.58203125,1,0,0,0,110,110,52,1,,,,,,,,
,,,,,,,,,,,,,FF,,,,,,,,1.2169,,,,,,,,,,,,,,,,,,,,,,610345ceb299e0132938d55c,610367c5d2053b82e13f7efc,2021-07-29_22h46.22.287,Simcolourproject_2stim_asymm_v5,2020.2.10,MacIntel,60,61025ae37ef11b136ea224fe,,,,,,,,,2679,38.40625,-87.89453125,1,0,0,response3disk,,4,20.20703125,-15.66796875,1,0,0,rectangle,20.20703125,-15.66796875,1,0,0,20.20703125,-15.66796875,1,0,0,0,111,111,153,1,,,,,,,,
,,,,,,,,,,,,,FF,,,,,,,,1.1335,,,,,,,,,,,,,,,,,,,,,,610345ceb299e0132938d55c,610367c5d2053b82e13f7efc,2021-07-29_22h46.22.287,Simcolourproject_2stim_asymm_v5,2020.2.10,MacIntel,60,61025ae37ef11b136ea224fe,,,,,,,,,973,-45.73828125,-80.00390625,1,0,0,response5disk,,3,-13.375,-1.53515625,1,0,0,rectangle,-13.375,-1.53515625,1,0,0,-13.375,-1.53515625,1,0,0,0,112,112,26,1,,,,,,,,
,,,,,,,,,,,,,FF,,,,,,,,1.1839,,,,,,,,,,,,,,,,,,,,,,610345ceb299e0132938d55c,610367c5d2053b82e13f7efc,2021-07-29_22h46.22.287,Simcolourproject_2stim_asymm_v5,2020.2.10,MacIntel,60,61025ae37ef11b136ea224fe,,,,,,,,,1325,87.4765625,43.41796875,1,0,0,response1disk,,6,15.46875,3.2578125,1,0,0,rectangle,15.46875,3.2578125,1,0,0,15.46875,3.2578125,1,0,0,0,113,113,110,1,,,,,,,,
,,,,,,,,,,,,,FF,,,,,,,,2.1359,,,,,,,,,,,,,,,,,,,,,,610345ceb299e0132938d55c,610367c5d2053b82e13f7efc,2021-07-29_22h46.22.287,Simcolourproject_2stim_asymm_v5,2020.2.10,MacIntel,60,61025ae37ef11b136ea224fe,,,,,,,,,2074,53.5078125,-85.984375,1,0,0,response3disk,,4,16.09765625,10.6796875,1,0,0,rectangle,16.09765625,10.6796875,1,0,0,16.09765625,10.6796875,1,0,0,0,114,114,62,1,,,,,,,,
,,,,,,,,,,,,,FF,,,,,,,,2.5314,,,,,,,,,,,,,,,,,,,,,,610345ceb299e0132938d55c,610367c5d2053b82e13f7efc,2021-07-29_22h46.22.287,Simcolourproject_2stim_asymm_v5,2020.2.10,MacIntel,60,61025ae37ef11b136ea224fe,,,,,,,,,3311,30.61328125,-70.03125,1,0,0,response3disk,,4,-2.2265625,2.6875,1,0,0,rectangle,-2.2265625,2.6875,1,0,0,-2.2265625,2.6875,1,0,0,0,115,115,66,1,,,,,,,,
,,,,,,,,,,,,,FF,,,,,,,,1.9986,,,,,,,,,,,,,,,,,,,,,,610345ceb299e0132938d55c,610367c5d2053b82e13f7efc,2021-07-29_22h46.22.287,Simcolourproject_2stim_asymm_v5,2020.2.10,MacIntel,60,61025ae37ef11b136ea224fe,,,,,,,,,2658,-40.41796875,-104.7578125,1,0,0,response5disk,,3,-2.5,-4.2421875,1,0,0,rectangle,-2.5,-4.2421875,1,0,0,-2.5,-4.2421875,1,0,0,0,116,116,40,1,,,,,,,,
,,,,,,,,,,,,,FF,,,,,,,,3.4516,,,,,,,,,,,,,,,,,,,,,,610345ceb299e0132938d55c,610367c5d2053b82e13f7efc,2021-07-29_22h46.22.287,Simcolourproject_2stim_asymm_v5,2020.2.10,MacIntel,60,61025ae37ef11b136ea224fe,,,,,,,,,4234,64.09375,96.45703125,1,0,0,response1disk,,7,8.7109375,2.57421875,1,0,0,rectangle,8.7109375,2.57421875,1,0,0,8.7109375,2.57421875,1,0,0,0,117,117,141,1,,,,,,,,
,,,,,,,,,,,,,FF,,,,,,,,1.0334,,,,,,,,,,,,,,,,,,,,,,610345ceb299e0132938d55c,610367c5d2053b82e13f7efc,2021-07-29_22h46.22.287,Simcolourproject_2stim_asymm_v5,2020.2.10,MacIntel,60,61025ae37ef11b136ea224fe,,,,,,,,,3459,25.890625,76.38671875,1,0,0,response1disk,,7,9.34765625,9.81640625,1,0,0,rectangle,9.34765625,9.81640625,1,0,0,9.34765625,9.81640625,1,0,0,0,118,118,61,1,,,,,,,,
,,,,,,,,,,,,,FF,,,,,,,,1.0188,,,,,,,,,,,,,,,,,,,,,,610345ceb299e0132938d55c,610367c5d2053b82e13f7efc,2021-07-29_22h46.22.287,Simcolourproject_2stim_asymm_v5,2020.2.10,MacIntel,60,61025ae37ef11b136ea224fe,,,,,,,,,3857,35.1015625,-94.0859375,1,0,0,response3disk,,4,19.984375,-6.07421875,1,0,0,rectangle,19.984375,-6.07421875,1,0,0,19.984375,-6.07421875,1,0,0,0,119,119,126,1,,,,,,,,
,,,,,,,,,,,,,FF,,,,,,,,1.0666,,,,,,,,,,,,,,,,,,,,,,610345ceb299e0132938d55c,610367c5d2053b82e13f7efc,2021-07-29_22h46.22.287,Simcolourproject_2stim_asymm_v5,2020.2.10,MacIntel,60,61025ae37ef11b136ea224fe,,,,,,,,,2698,43.33203125,68.84765625,1,0,0,response1disk,,7,13.203125,-4.37890625,1,0,0,rectangle,13.203125,-4.37890625,1,0,0,13.203125,-4.37890625,1,0,0,0,120,120,123,1,,,,,,,,
,,,,,,,,,,,,,FF,,,,,,,,1.7637,,,,,,,,,,,,,,,,,,,,,,610345ceb299e0132938d55c,610367c5d2053b82e13f7efc,2021-07-29_22h46.22.287,Simcolourproject_2stim_asymm_v5,2020.2.10,MacIntel,60,61025ae37ef11b136ea224fe,,,,,,,,,1030,90.3203125,-27.88671875,1,0,0,response3disk,,5,17.09375,-11.0078125,1,0,0,rectangle,17.09375,-11.0078125,1,0,0,17.09375,-11.0078125,1,0,0,0,121,121,109,1,,,,,,,,
,,,,,,,,,,,,,FF,,,,,,,,0.7675,,,,,,,,,,,,,,,,,,,,,,610345ceb299e0132938d55c,610367c5d2053b82e13f7efc,2021-07-29_22h46.22.287,Simcolourproject_2stim_asymm_v5,2020.2.10,MacIntel,60,61025ae37ef11b136ea224fe,,,,,,,,,1596,-43.75,90.828125,1,0,0,response7disk,,0,-1.2421875,9.0859375,1,0,0,rectangle,-1.2421875,9.0859375,1,0,0,-1.2421875,9.0859375,1,0,0,0,122,122,29,1,,,,,,,,
,,,,,,,,,,,,,FF,,,,,,,,4.0831,,,,,,,,,,,,,,,,,,,,,,610345ceb299e0132938d55c,610367c5d2053b82e13f7efc,2021-07-29_22h46.22.287,Simcolourproject_2stim_asymm_v5,2020.2.10,MacIntel,60,61025ae37ef11b136ea224fe,,,,,,,,,2253,-32.84375,-104.3554688,1,0,0,response5disk,,3,4.20703125,-2.47265625,1,0,0,rectangle,4.20703125,-2.47265625,1,0,0,4.20703125,-2.47265625,1,0,0,0,123,123,46,1,,,,,,,,
,,,,,,,,,,,,,FF,,,,,,,,2.332,,,,,,,,,,,,,,,,,,,,,,610345ceb299e0132938d55c,610367c5d2053b82e13f7efc,2021-07-29_22h46.22.287,Simcolourproject_2stim_asymm_v5,2020.2.10,MacIntel,60,61025ae37ef11b136ea224fe,,,,,,,,,1669,30.37109375,68.80078125,1,0,0,response1disk,,7,-0.17578125,-0.21875,1,0,0,rectangle,-0.17578125,-0.21875,1,0,0,-0.17578125,-0.21875,1,0,0,0,124,124,42,1,,,,,,,,
,,,,,,,,,,,,,FF,,,,,,,,1.5145,,,,,,,,,,,,,,,,,,,,,,610345ceb299e0132938d55c,610367c5d2053b82e13f7efc,2021-07-29_22h46.22.287,Simcolourproject_2stim_asymm_v5,2020.2.10,MacIntel,60,61025ae37ef11b136ea224fe,,,,,,,,,1022,99.2890625,-45.60546875,1,0,0,response3disk,,5,22.375,-6.77734375,1,0,0,rectangle,22.375,-6.77734375,1,0,0,22.375,-6.77734375,1,0,0,0,125,125,143,1,,,,,,,,
,,,,,,,,,,,,,FF,,,,,,,,2.584,,,,,,,,,,,,,,,,,,,,,,610345ceb299e0132938d55c,610367c5d2053b82e13f7efc,2021-07-29_22h46.22.287,Simcolourproject_2stim_asymm_v5,2020.2.10,MacIntel,60,61025ae37ef11b136ea224fe,,,,,,,,,1855,-50.7734375,-98.84375,1,0,0,response5disk,,3,-1.23046875,-1.2109375,1,0,0,rectangle,-1.23046875,-1.2109375,1,0,0,-1.23046875,-1.2109375,1,0,0,0,126,126,6,1,,,,,,,,
,,,,,,,,,,,,,FF,,,,,,,,0.7027,,,,,,,,,,,,,,,,,,,,,,610345ceb299e0132938d55c,610367c5d2053b82e13f7efc,2021-07-29_22h46.22.287,Simcolourproject_2stim_asymm_v5,2020.2.10,MacIntel,60,61025ae37ef11b136ea224fe,,,,,,,,,3442,-35.69140625,-79.078125,1,0,0,response5disk,,3,6.78125,2.71875,1,0,0,rectangle,6.78125,2.71875,1,0,0,6.78125,2.71875,1,0,0,0,127,127,22,1,,,,,,,,
,,,,,,,,,,,,,FF,,,,,,,,1.7673,,,,,,,,,,,,,,,,,,,,,,610345ceb299e0132938d55c,610367c5d2053b82e13f7efc,2021-07-29_22h46.22.287,Simcolourproject_2stim_asymm_v5,2020.2.10,MacIntel,60,61025ae37ef11b136ea224fe,,,,,,,,,2475,92.0703125,-62.83984375,1,0,0,response3disk,,5,22.25390625,-6.83203125,1,0,0,rectangle,22.25390625,-6.83203125,1,0,0,22.25390625,-6.83203125,1,0,0,0,128,128,97,1,,,,,,,,
,,,,,,,,,,,,,FF,,,,,,,,1.5257,,,,,,,,,,,,,,,,,,,,,,610345ceb299e0132938d55c,610367c5d2053b82e13f7efc,2021-07-29_22h46.22.287,Simcolourproject_2stim_asymm_v5,2020.2.10,MacIntel,60,61025ae37ef11b136ea224fe,,,,,,,,,653,-39.77734375,-83.96484375,1,0,0,response5disk,,3,-8.6484375,-6.0390625,1,0,0,rectangle,-29.91796875,84.984375,1,0,0,-7.4296875,9.8515625,1,0,0,0,129,129,0,1,,response7disk_3,TRUE,0,0,"[201,167,93,245,224,175,130,264,65,170,204,25,203,58,245,258,16,63,3,195]",1.3854,rectangle
,,,,,,,,,,,,,FF,,,,,,,,2.4168,,,,,,,,,,,,,,,,,,,,,,610345ceb299e0132938d55c,610367c5d2053b82e13f7efc,2021-07-29_22h46.22.287,Simcolourproject_2stim_asymm_v5,2020.2.10,MacIntel,60,61025ae37ef11b136ea224fe,,,,,,,,,1911,66.04296875,-89.7578125,1,0,0,response3disk,,4,9.16015625,14.78515625,1,0,0,rectangle,9.16015625,14.78515625,1,0,0,9.16015625,14.78515625,1,0,0,0,130,130,38,1,,,,,,,,
,,,,,,,,,,,,,FF,,,,,,,,0.8833,,,,,,,,,,,,,,,,,,,,,,610345ceb299e0132938d55c,610367c5d2053b82e13f7efc,2021-07-29_22h46.22.287,Simcolourproject_2stim_asymm_v5,2020.2.10,MacIntel,60,61025ae37ef11b136ea224fe,,,,,,,,,2200,43.59375,77.23828125,1,0,0,response1disk,,7,13.375,11.078125,1,0,0,rectangle,13.375,11.078125,1,0,0,13.375,11.078125,1,0,0,0,131,131,1,1,,,,,,,,
,,,,,,,,,,,,,FF,,,,,,,,1.0318,,,,,,,,,,,,,,,,,,,,,,610345ceb299e0132938d55c,610367c5d2053b82e13f7efc,2021-07-29_22h46.22.287,Simcolourproject_2stim_asymm_v5,2020.2.10,MacIntel,60,61025ae37ef11b136ea224fe,,,,,,,,,2517,44.05078125,84.53515625,1,0,0,response1disk,,7,17.17578125,7.19140625,1,0,0,rectangle,17.17578125,7.19140625,1,0,0,17.17578125,7.19140625,1,0,0,0,132,132,16,1,,,,,,,,
,,,,,,,,,,,,,FF,,,,,,,,0.5322,,,,,,,,,,,,,,,,,,,,,,610345ceb299e0132938d55c,610367c5d2053b82e13f7efc,2021-07-29_22h46.22.287,Simcolourproject_2stim_asymm_v5,2020.2.10,MacIntel,60,61025ae37ef11b136ea224fe,,,,,,,,,2147,49.64453125,74.25390625,1,0,0,response1disk,,7,20.55078125,0.44921875,1,0,0,rectangle,20.55078125,0.44921875,1,0,0,20.55078125,0.44921875,1,0,0,0,133,133,73,1,,,,,,,,
,,,,,,,,,,,,,FF,,,,,,,,0.7173,,,,,,,,,,,,,,,,,,,,,,610345ceb299e0132938d55c,610367c5d2053b82e13f7efc,2021-07-29_22h46.22.287,Simcolourproject_2stim_asymm_v5,2020.2.10,MacIntel,60,61025ae37ef11b136ea224fe,,,,,,,,,4280,-30.22265625,88.25,1,0,0,response7disk,,0,-23.34765625,2.76953125,1,0,0,rectangle,-23.34765625,2.76953125,1,0,0,-23.34765625,2.76953125,1,0,0,0,134,134,146,1,,,,,,,,
,,,,,,,,,,,,,FF,,,,,,,,2.115,,,,,,,,,,,,,,,,,,,,,,610345ceb299e0132938d55c,610367c5d2053b82e13f7efc,2021-07-29_22h46.22.287,Simcolourproject_2stim_asymm_v5,2020.2.10,MacIntel,60,61025ae37ef11b136ea224fe,,,,,,,,,316,56.83203125,-66.7109375,1,0,0,response3disk,,4,-7.02734375,7.64453125,1,0,0,rectangle,-7.02734375,7.64453125,1,0,0,-7.02734375,7.64453125,1,0,0,0,135,135,30,1,,,,,,,,
,,,,,,,,,,,,,FF,,,,,,,,1.8841,,,,,,,,,,,,,,,,,,,,,,610345ceb299e0132938d55c,610367c5d2053b82e13f7efc,2021-07-29_22h46.22.287,Simcolourproject_2stim_asymm_v5,2020.2.10,MacIntel,60,61025ae37ef11b136ea224fe,,,,,,,,,4179,78.15234375,46.29296875,1,0,0,response1disk,,6,16.66015625,4.6015625,1,0,0,rectangle,16.66015625,4.6015625,1,0,0,16.66015625,4.6015625,1,0,0,0,136,136,125,1,,,,,,,,
,,,,,,,,,,,,,FF,,,,,,,,2.0501,,,,,,,,,,,,,,,,,,,,,,610345ceb299e0132938d55c,610367c5d2053b82e13f7efc,2021-07-29_22h46.22.287,Simcolourproject_2stim_asymm_v5,2020.2.10,MacIntel,60,61025ae37ef11b136ea224fe,,,,,,,,,791,-70.859375,-57.7734375,1,0,0,response5disk,,2,5.484375,2.6875,1,0,0,rectangle,5.484375,2.6875,1,0,0,5.484375,2.6875,1,0,0,0,137,137,116,1,,,,,,,,
,,,,,,,,,,,,,FF,,,,,,,,3.0175,,,,,,,,,,,,,,,,,,,,,,610345ceb299e0132938d55c,610367c5d2053b82e13f7efc,2021-07-29_22h46.22.287,Simcolourproject_2stim_asymm_v5,2020.2.10,MacIntel,60,61025ae37ef11b136ea224fe,,,,,,,,,1630,60.88671875,-92.84375,1,0,0,response3disk,,4,24.46875,1.71484375,1,0,0,rectangle,24.46875,1.71484375,1,0,0,24.46875,1.71484375,1,0,0,0,138,138,10,1,,,,,,,,
,,,,,,,,,,,,,FF,,,,,,,,0.7482,,,,,,,,,,,,,,,,,,,,,,610345ceb299e0132938d55c,610367c5d2053b82e13f7efc,2021-07-29_22h46.22.287,Simcolourproject_2stim_asymm_v5,2020.2.10,MacIntel,60,61025ae37ef11b136ea224fe,,,,,,,,,3354,44.29296875,51.0859375,1,0,0,response1disk,,7,23.5625,-0.83984375,1,0,0,rectangle,23.5625,-0.83984375,1,0,0,23.5625,-0.83984375,1,0,0,0,139,139,127,1,,,,,,,,
,,,,,,,,,,,,,FF,,,,,,,,0.5506,,,,,,,,,,,,,,,,,,,,,,610345ceb299e0132938d55c,610367c5d2053b82e13f7efc,2021-07-29_22h46.22.287,Simcolourproject_2stim_asymm_v5,2020.2.10,MacIntel,60,61025ae37ef11b136ea224fe,,,,,,,,,1013,37.37890625,41.15625,1,0,0,response1disk,,7,22.421875,4.015625,1,0,0,rectangle,22.421875,4.015625,1,0,0,22.421875,4.015625,1,0,0,0,140,140,39,1,,,,,,,,
,,,,,,,,,,,,,FF,,,,,,,,0.6334,,,,,,,,,,,,,,,,,,,,,,610345ceb299e0132938d55c,610367c5d2053b82e13f7efc,2021-07-29_22h46.22.287,Simcolourproject_2stim_asymm_v5,2020.2.10,MacIntel,60,61025ae37ef11b136ea224fe,,,,,,,,,1366,25.3828125,58.43359375,1,0,0,response1disk,,7,10.32421875,4.47265625,1,0,0,rectangle,10.32421875,4.47265625,1,0,0,10.32421875,4.47265625,1,0,0,0,141,141,37,1,,,,,,,,
,,,,,,,,,,,,,FF,,,,,,,,1.1664,,,,,,,,,,,,,,,,,,,,,,610345ceb299e0132938d55c,610367c5d2053b82e13f7efc,2021-07-29_22h46.22.287,Simcolourproject_2stim_asymm_v5,2020.2.10,MacIntel,60,61025ae37ef11b136ea224fe,,,,,,,,,4281,-65.30859375,-44.86328125,1,0,0,response5disk,,2,-0.04296875,2.234375,1,0,0,rectangle,-0.04296875,2.234375,1,0,0,-0.04296875,2.234375,1,0,0,0,142,142,34,1,,,,,,,,
,,,,,,,,,,,,,FF,,,,,,,,5.6875,,,,,,,,,,,,,,,,,,,,,,610345ceb299e0132938d55c,610367c5d2053b82e13f7efc,2021-07-29_22h46.22.287,Simcolourproject_2stim_asymm_v5,2020.2.10,MacIntel,60,61025ae37ef11b136ea224fe,,,,,,,,,3360,35.0546875,-91.05859375,1,0,0,response3disk,,4,5.609375,-6.2421875,1,0,0,rectangle,5.609375,-6.2421875,1,0,0,5.609375,-6.2421875,1,0,0,0,143,143,17,1,,,,,,,,
,,,,,,,,,,,,,FF,,,,,,,,1.2672,,,,,,,,,,,,,,,,,,,,,,610345ceb299e0132938d55c,610367c5d2053b82e13f7efc,2021-07-29_22h46.22.287,Simcolourproject_2stim_asymm_v5,2020.2.10,MacIntel,60,61025ae37ef11b136ea224fe,,,,,,,,,2904,72.74609375,-39.07421875,1,0,0,response3disk,,5,16.95703125,-6.83203125,1,0,0,rectangle,16.95703125,-6.83203125,1,0,0,16.95703125,-6.83203125,1,0,0,0,144,144,77,1,,,,,,,,
,,,,,,,,,,,,,FF,,,,,,,,0.7492,,,,,,,,,,,,,,,,,,,,,,610345ceb299e0132938d55c,610367c5d2053b82e13f7efc,2021-07-29_22h46.22.287,Simcolourproject_2stim_asymm_v5,2020.2.10,MacIntel,60,61025ae37ef11b136ea224fe,,,,,,,,,3691,97.0390625,21.62890625,1,0,0,response1disk,,6,23.33984375,-3.80078125,1,0,0,rectangle,23.33984375,-3.80078125,1,0,0,23.33984375,-3.80078125,1,0,0,0,145,145,12,1,,,,,,,,
,,,,,,,,,,,,,FF,,,,,,,,1.3517,,,,,,,,,,,,,,,,,,,,,,610345ceb299e0132938d55c,610367c5d2053b82e13f7efc,2021-07-29_22h46.22.287,Simcolourproject_2stim_asymm_v5,2020.2.10,MacIntel,60,61025ae37ef11b136ea224fe,,,,,,,,,504,72.67578125,31.60546875,1,0,0,response1disk,,6,-0.55078125,-12.40234375,1,0,0,rectangle,-0.55078125,-12.40234375,1,0,0,-0.55078125,-12.40234375,1,0,0,0,146,146,119,1,,,,,,,,
,,,,,,,,,,,,,FF,,,,,,,,1.6309,,,,,,,,,,,,,,,,,,,,,,610345ceb299e0132938d55c,610367c5d2053b82e13f7efc,2021-07-29_22h46.22.287,Simcolourproject_2stim_asymm_v5,2020.2.10,MacIntel,60,61025ae37ef11b136ea224fe,,,,,,,,,2807,100.2304688,-44.54296875,1,0,0,response3disk,,5,19.30859375,-5.5078125,1,0,0,rectangle,19.30859375,-5.5078125,1,0,0,19.30859375,-5.5078125,1,0,0,0,147,147,58,1,,,,,,,,
,,,,,,,,,,,,,FF,,,,,,,,1.8004,,,,,,,,,,,,,,,,,,,,,,610345ceb299e0132938d55c,610367c5d2053b82e13f7efc,2021-07-29_22h46.22.287,Simcolourproject_2stim_asymm_v5,2020.2.10,MacIntel,60,61025ae37ef11b136ea224fe,,,,,,,,,4360,-91.53125,-35.29296875,1,0,0,response5disk,,2,-22.7578125,-1.77734375,1,0,0,rectangle,-22.7578125,-1.77734375,1,0,0,-22.7578125,-1.77734375,1,0,0,0,148,148,15,1,,,,,,,,
,,,,,,,,,,,,,FF,,,,,,,,1.736,,,,,,,,,,,,,,,,,,,,,,610345ceb299e0132938d55c,610367c5d2053b82e13f7efc,2021-07-29_22h46.22.287,Simcolourproject_2stim_asymm_v5,2020.2.10,MacIntel,60,61025ae37ef11b136ea224fe,,,,,,,,,685,87.91796875,33.6953125,1,0,0,response1disk,,6,21.1796875,5.8828125,1,0,0,rectangle,21.1796875,5.8828125,1,0,0,21.1796875,5.8828125,1,0,0,0,149,149,18,1,,,,,,,,
,,,,,,,,,,,,,FF,,,,,,,,3.232,,,,,,,,,,,,,,,,,,,,,,610345ceb299e0132938d55c,610367c5d2053b82e13f7efc,2021-07-29_22h46.22.287,Simcolourproject_2stim_asymm_v5,2020.2.10,MacIntel,60,61025ae37ef11b136ea224fe,,,,,,,,,1597,-24.2578125,60.984375,1,0,0,response7disk,,0,-0.0625,-9.05078125,1,0,0,rectangle,-0.0625,-9.05078125,1,0,0,-0.0625,-9.05078125,1,0,0,0,150,150,47,1,,,,,,,,
,,,,,,,,,,,,,FF,,,,,,,,1.2838,,,,,,,,,,,,,,,,,,,,,,610345ceb299e0132938d55c,610367c5d2053b82e13f7efc,2021-07-29_22h46.22.287,Simcolourproject_2stim_asymm_v5,2020.2.10,MacIntel,60,61025ae37ef11b136ea224fe,,,,,,,,,2784,-99.83984375,41.19921875,1,0,0,response7disk,,1,-2.9140625,2.78515625,1,0,0,rectangle,-2.9140625,2.78515625,1,0,0,-2.9140625,2.78515625,1,0,0,0,151,151,41,1,,,,,,,,
,,,,,,,,,,,,,FF,,,,,,,,0.7675,,,,,,,,,,,,,,,,,,,,,,610345ceb299e0132938d55c,610367c5d2053b82e13f7efc,2021-07-29_22h46.22.287,Simcolourproject_2stim_asymm_v5,2020.2.10,MacIntel,60,61025ae37ef11b136ea224fe,,,,,,,,,3608,50.33203125,67.046875,1,0,0,response1disk,,7,14.421875,12.23828125,1,0,0,rectangle,14.421875,12.23828125,1,0,0,14.421875,12.23828125,1,0,0,0,152,152,70,1,,,,,,,,
,,,,,,,,,,,,,FF,,,,,,,,2.4999,,,,,,,,,,,,,,,,,,,,,,610345ceb299e0132938d55c,610367c5d2053b82e13f7efc,2021-07-29_22h46.22.287,Simcolourproject_2stim_asymm_v5,2020.2.10,MacIntel,60,61025ae37ef11b136ea224fe,,,,,,,,,171,44.3671875,-72.51953125,1,0,0,response3disk,,4,29.171875,-11.08203125,1,0,0,rectangle,29.171875,-11.08203125,1,0,0,29.171875,-11.08203125,1,0,0,0,153,153,36,1,,,,,,,,
,,,,,,,,,,,,,FF,,,,,,,,4.6842,,,,,,,,,,,,,,,,,,,,,,610345ceb299e0132938d55c,610367c5d2053b82e13f7efc,2021-07-29_22h46.22.287,Simcolourproject_2stim_asymm_v5,2020.2.10,MacIntel,60,61025ae37ef11b136ea224fe,,,,,,,,,2572,77.72265625,-33.76953125,1,0,0,response3disk,,5,7.5,5.89453125,1,0,0,rectangle,7.5,5.89453125,1,0,0,7.5,5.89453125,1,0,0,0,154,154,20,1,,,,,,,,
,,,,,,,,,,,,,FF,,,,,,,,1.6831,,,,,,,,,,,,,,,,,,,,,,610345ceb299e0132938d55c,610367c5d2053b82e13f7efc,2021-07-29_22h46.22.287,Simcolourproject_2stim_asymm_v5,2020.2.10,MacIntel,60,61025ae37ef11b136ea224fe,,,,,,,,,1056,-83.359375,-36.33203125,1,0,0,response5disk,,2,4.13671875,-2.55078125,1,0,0,rectangle,4.13671875,-2.55078125,1,0,0,4.13671875,-2.55078125,1,0,0,0,155,155,27,1,,,,,,,,
,,,,,,,,,,,,,FF,,,,,,,,1.8007,,,,,,,,,,,,,,,,,,,,,,610345ceb299e0132938d55c,610367c5d2053b82e13f7efc,2021-07-29_22h46.22.287,Simcolourproject_2stim_asymm_v5,2020.2.10,MacIntel,60,61025ae37ef11b136ea224fe,,,,,,,,,2855,87.8125,-58.6171875,1,0,0,response3disk,,5,11.80859375,-6.1015625,1,0,0,rectangle,11.80859375,-6.1015625,1,0,0,11.80859375,-6.1015625,1,0,0,0,156,156,44,1,,,,,,,,
,,,,,,,,,,,,,FF,,,,,,,,10.4504,,,,,,,,,,,,,,,,,,,,,,610345ceb299e0132938d55c,610367c5d2053b82e13f7efc,2021-07-29_22h46.22.287,Simcolourproject_2stim_asymm_v5,2020.2.10,MacIntel,60,61025ae37ef11b136ea224fe,,,,,,,,,1615,36.609375,-81.2109375,1,0,0,response3disk,,4,-4.50390625,-2.13671875,1,0,0,rectangle,-4.50390625,-2.13671875,1,0,0,-4.50390625,-2.13671875,1,0,0,0,157,157,5,1,,,,,,,,
,,,,,,,,,,,,,FF,,,,,,,,1.2335,,,,,,,,,,,,,,,,,,,,,,610345ceb299e0132938d55c,610367c5d2053b82e13f7efc,2021-07-29_22h46.22.287,Simcolourproject_2stim_asymm_v5,2020.2.10,MacIntel,60,61025ae37ef11b136ea224fe,,,,,,,,,1802,109.0585938,30.27734375,1,0,0,response1disk,,6,3.44921875,-11.984375,1,0,0,rectangle,3.44921875,-11.984375,1,0,0,3.44921875,-11.984375,1,0,0,0,158,158,113,1,,,,,,,,
,,,,,,,,,,,,,FF,,,,,,,,3.9834,,,,,,,,,,,,,,,,,,,,,,610345ceb299e0132938d55c,610367c5d2053b82e13f7efc,2021-07-29_22h46.22.287,Simcolourproject_2stim_asymm_v5,2020.2.10,MacIntel,60,61025ae37ef11b136ea224fe,,,,,,,,,2156,85.30078125,-53.82421875,1,0,0,response3disk,,5,17.17578125,5.28125,1,0,0,rectangle,17.17578125,5.28125,1,0,0,17.17578125,5.28125,1,0,0,0,159,159,8,1,,,,,,,,
,,,,,,,,,,,,,FF,,,,,,,,1.3175,,,,,,,,,,,,,,,,,,,,,,610345ceb299e0132938d55c,610367c5d2053b82e13f7efc,2021-07-29_22h46.22.287,Simcolourproject_2stim_asymm_v5,2020.2.10,MacIntel,60,61025ae37ef11b136ea224fe,,,,,,,,,2354,84.94921875,30.76953125,1,0,0,response1disk,,6,7.625,10.69921875,1,0,0,rectangle,7.625,10.69921875,1,0,0,7.625,10.69921875,1,0,0,1,0,160,137,1,,,,,,,,
,,,,,,,,,,,,,FF,,,,,,,,1.3335,,,,,,,,,,,,,,,,,,,,,,610345ceb299e0132938d55c,610367c5d2053b82e13f7efc,2021-07-29_22h46.22.287,Simcolourproject_2stim_asymm_v5,2020.2.10,MacIntel,60,61025ae37ef11b136ea224fe,,,,,,,,,1065,-79.63671875,-38.83984375,1,0,0,response5disk,,2,-15.609375,-8.98046875,1,0,0,rectangle,-15.609375,-8.98046875,1,0,0,-15.609375,-8.98046875,1,0,0,1,1,161,141,1,,,,,,,,
,,,,,,,,,,,,,FF,,,,,,,,1.7502,,,,,,,,,,,,,,,,,,,,,,610345ceb299e0132938d55c,610367c5d2053b82e13f7efc,2021-07-29_22h46.22.287,Simcolourproject_2stim_asymm_v5,2020.2.10,MacIntel,60,61025ae37ef11b136ea224fe,,,,,,,,,3349,-80.60546875,45.265625,1,0,0,response7disk,,1,-7.44921875,13.52734375,1,0,0,rectangle,-7.44921875,13.52734375,1,0,0,-7.44921875,13.52734375,1,0,0,1,2,162,111,1,,,,,,,,
,,,,,,,,,,,,,FF,,,,,,,,2.1005,,,,,,,,,,,,,,,,,,,,,,610345ceb299e0132938d55c,610367c5d2053b82e13f7efc,2021-07-29_22h46.22.287,Simcolourproject_2stim_asymm_v5,2020.2.10,MacIntel,60,61025ae37ef11b136ea224fe,,,,,,,,,2010,91.13671875,-34.16015625,1,0,0,response3disk,,5,8.640625,-1.3828125,1,0,0,rectangle,8.640625,-1.3828125,1,0,0,8.640625,-1.3828125,1,0,0,1,3,163,100,1,,,,,,,,
,,,,,,,,,,,,,FF,,,,,,,,1.8325,,,,,,,,,,,,,,,,,,,,,,610345ceb299e0132938d55c,610367c5d2053b82e13f7efc,2021-07-29_22h46.22.287,Simcolourproject_2stim_asymm_v5,2020.2.10,MacIntel,60,61025ae37ef11b136ea224fe,,,,,,,,,2145,68.0703125,36.45703125,1,0,0,response1disk,,6,-1.41796875,-6.87890625,1,0,0,rectangle,-1.41796875,-6.87890625,1,0,0,-1.41796875,-6.87890625,1,0,0,1,4,164,43,1,,,,,,,,
,,,,,,,,,,,,,FF,,,,,,,,3.2556,,,,,,,,,,,,,,,,,,,,,,610345ceb299e0132938d55c,610367c5d2053b82e13f7efc,2021-07-29_22h46.22.287,Simcolourproject_2stim_asymm_v5,2020.2.10,MacIntel,60,61025ae37ef11b136ea224fe,,,,,,,,,1358,47.94140625,-97.74609375,1,0,0,response3disk,,4,20.4765625,5.421875,1,0,0,rectangle,20.4765625,5.421875,1,0,0,20.4765625,5.421875,1,0,0,1,5,165,142,1,,,,,,,,
,,,,,,,,,,,,,FF,,,,,,,,1.5178,,,,,,,,,,,,,,,,,,,,,,610345ceb299e0132938d55c,610367c5d2053b82e13f7efc,2021-07-29_22h46.22.287,Simcolourproject_2stim_asymm_v5,2020.2.10,MacIntel,60,61025ae37ef11b136ea224fe,,,,,,,,,506,90.19140625,29.1484375,1,0,0,response1disk,,6,1.58203125,7.69140625,1,0,0,rectangle,-33.7109375,-106.46875,1,0,0,10.72265625,1.68359375,1,0,0,1,6,166,52,1,,response5disk_3,TRUE,3,3,"[201,167,93,245,224,175,130,264,65,170,204,25,203,58,245,258,16,63,3,195]",1.6672,rectangle
,,,,,,,,,,,,,FF,,,,,,,,8.5318,,,,,,,,,,,,,,,,,,,,,,610345ceb299e0132938d55c,610367c5d2053b82e13f7efc,2021-07-29_22h46.22.287,Simcolourproject_2stim_asymm_v5,2020.2.10,MacIntel,60,61025ae37ef11b136ea224fe,,,,,,,,,1790,41.21875,-105.1992188,1,0,0,response3disk,,4,10.0078125,-11.296875,1,0,0,rectangle,10.0078125,-11.296875,1,0,0,10.0078125,-11.296875,1,0,0,1,7,167,77,1,,,,,,,,
,,,,,,,,,,,,,FF,,,,,,,,2.9147,,,,,,,,,,,,,,,,,,,,,,610345ceb299e0132938d55c,610367c5d2053b82e13f7efc,2021-07-29_22h46.22.287,Simcolourproject_2stim_asymm_v5,2020.2.10,MacIntel,60,61025ae37ef11b136ea224fe,,,,,,,,,3671,-101.3125,45.2109375,1,0,0,response7disk,,1,15.28515625,-7.3515625,1,0,0,rectangle,15.28515625,-7.3515625,1,0,0,15.28515625,-7.3515625,1,0,0,1,8,168,139,1,,,,,,,,
,,,,,,,,,,,,,FF,,,,,,,,0.9332,,,,,,,,,,,,,,,,,,,,,,610345ceb299e0132938d55c,610367c5d2053b82e13f7efc,2021-07-29_22h46.22.287,Simcolourproject_2stim_asymm_v5,2020.2.10,MacIntel,60,61025ae37ef11b136ea224fe,,,,,,,,,2150,114.03125,17.83203125,1,0,0,response1disk,,6,19.2890625,11.81640625,1,0,0,rectangle,-20.0703125,108.1796875,1,0,0,-4.69921875,-13.8671875,1,0,0,1,9,169,90,1,,response7disk_3,TRUE,0,0,"[201,167,93,245,224,175,130,264,65,170,204,25,203,58,245,258,16,63,3,195]",1.2509,rectangle
,,,,,,,,,,,,,FF,,,,,,,,3.7486,,,,,,,,,,,,,,,,,,,,,,610345ceb299e0132938d55c,610367c5d2053b82e13f7efc,2021-07-29_22h46.22.287,Simcolourproject_2stim_asymm_v5,2020.2.10,MacIntel,60,61025ae37ef11b136ea224fe,,,,,,,,,4264,98.16796875,35.75390625,1,0,0,response1disk,,6,26.30859375,15.79296875,1,0,0,rectangle,26.30859375,15.79296875,1,0,0,26.30859375,15.79296875,1,0,0,1,10,170,132,1,,,,,,,,
,,,,,,,,,,,,,FF,,,,,,,,0.7334,,,,,,,,,,,,,,,,,,,,,,610345ceb299e0132938d55c,610367c5d2053b82e13f7efc,2021-07-29_22h46.22.287,Simcolourproject_2stim_asymm_v5,2020.2.10,MacIntel,60,61025ae37ef11b136ea224fe,,,,,,,,,1956,-51.30078125,75.9921875,1,0,0,response7disk,,0,-13.96875,-3.1015625,1,0,0,rectangle,-13.96875,-3.1015625,1,0,0,-13.96875,-3.1015625,1,0,0,1,11,171,159,1,,,,,,,,
,,,,,,,,,,,,,FF,,,,,,,,0.9656,,,,,,,,,,,,,,,,,,,,,,610345ceb299e0132938d55c,610367c5d2053b82e13f7efc,2021-07-29_22h46.22.287,Simcolourproject_2stim_asymm_v5,2020.2.10,MacIntel,60,61025ae37ef11b136ea224fe,,,,,,,,,2796,94.9453125,-28.359375,1,0,0,response3disk,,5,19.5078125,-10.96484375,1,0,0,rectangle,19.5078125,-10.96484375,1,0,0,19.5078125,-10.96484375,1,0,0,1,12,172,94,1,,,,,,,,
,,,,,,,,,,,,,FF,,,,,,,,0.7836,,,,,,,,,,,,,,,,,,,,,,610345ceb299e0132938d55c,610367c5d2053b82e13f7efc,2021-07-29_22h46.22.287,Simcolourproject_2stim_asymm_v5,2020.2.10,MacIntel,60,61025ae37ef11b136ea224fe,,,,,,,,,3201,-83.98046875,-22.64453125,1,0,0,response5disk,,2,0.94140625,-9.82421875,1,0,0,rectangle,0.94140625,-9.82421875,1,0,0,0.94140625,-9.82421875,1,0,0,1,13,173,33,1,,,,,,,,
,,,,,,,,,,,,,FF,,,,,,,,1.3669,,,,,,,,,,,,,,,,,,,,,,610345ceb299e0132938d55c,610367c5d2053b82e13f7efc,2021-07-29_22h46.22.287,Simcolourproject_2stim_asymm_v5,2020.2.10,MacIntel,60,61025ae37ef11b136ea224fe,,,,,,,,,1730,106.4453125,52.6015625,1,0,0,response1disk,,6,9.05078125,-2.37109375,1,0,0,rectangle,51.12890625,82.96875,1,0,0,16.8203125,7.9609375,1,0,0,1,14,174,66,1,,response1disk_3,TRUE,7,7,"[201,167,93,245,224,175,130,264,65,170,204,25,203,58,245,258,16,63,3,195]",2.029,rectangle
,,,,,,,,,,,,,FF,,,,,,,,4.067,,,,,,,,,,,,,,,,,,,,,,610345ceb299e0132938d55c,610367c5d2053b82e13f7efc,2021-07-29_22h46.22.287,Simcolourproject_2stim_asymm_v5,2020.2.10,MacIntel,60,61025ae37ef11b136ea224fe,,,,,,,,,2647,68.6015625,65.51953125,1,0,0,response1disk,,6,8.55859375,1.60546875,1,0,0,rectangle,8.55859375,1.60546875,1,0,0,8.55859375,1.60546875,1,0,0,1,15,175,23,1,,,,,,,,
,,,,,,,,,,,,,FF,,,,,,,,1.5003,,,,,,,,,,,,,,,,,,,,,,610345ceb299e0132938d55c,610367c5d2053b82e13f7efc,2021-07-29_22h46.22.287,Simcolourproject_2stim_asymm_v5,2020.2.10,MacIntel,60,61025ae37ef11b136ea224fe,,,,,,,,,3890,99.41015625,26.9609375,1,0,0,response1disk,,6,2.421875,-4.95703125,1,0,0,rectangle,2.421875,-4.95703125,1,0,0,2.421875,-4.95703125,1,0,0,1,16,176,64,1,,,,,,,,
,,,,,,,,,,,,,FF,,,,,,,,1.4335,,,,,,,,,,,,,,,,,,,,,,610345ceb299e0132938d55c,610367c5d2053b82e13f7efc,2021-07-29_22h46.22.287,Simcolourproject_2stim_asymm_v5,2020.2.10,MacIntel,60,61025ae37ef11b136ea224fe,,,,,,,,,3456,44.8359375,90.28515625,1,0,0,response1disk,,7,-6.33984375,-2.39453125,1,0,0,rectangle,-6.33984375,-2.39453125,1,0,0,-6.33984375,-2.39453125,1,0,0,1,17,177,75,1,,,,,,,,
,,,,,,,,,,,,,FF,,,,,,,,1.2334,,,,,,,,,,,,,,,,,,,,,,610345ceb299e0132938d55c,610367c5d2053b82e13f7efc,2021-07-29_22h46.22.287,Simcolourproject_2stim_asymm_v5,2020.2.10,MacIntel,60,61025ae37ef11b136ea224fe,,,,,,,,,2195,114.8242188,33.8359375,1,0,0,response1disk,,6,25.1015625,9.265625,1,0,0,rectangle,25.1015625,9.265625,1,0,0,25.1015625,9.265625,1,0,0,1,18,178,42,1,,,,,,,,
,,,,,,,,,,,,,FF,,,,,,,,0.701,,,,,,,,,,,,,,,,,,,,,,610345ceb299e0132938d55c,610367c5d2053b82e13f7efc,2021-07-29_22h46.22.287,Simcolourproject_2stim_asymm_v5,2020.2.10,MacIntel,60,61025ae37ef11b136ea224fe,,,,,,,,,663,45.3515625,58.87109375,1,0,0,response1disk,,7,15.38671875,2.85546875,1,0,0,rectangle,15.38671875,2.85546875,1,0,0,15.38671875,2.85546875,1,0,0,1,19,179,12,1,,,,,,,,
,,,,,,,,,,,,,FF,,,,,,,,1.3839,,,,,,,,,,,,,,,,,,,,,,610345ceb299e0132938d55c,610367c5d2053b82e13f7efc,2021-07-29_22h46.22.287,Simcolourproject_2stim_asymm_v5,2020.2.10,MacIntel,60,61025ae37ef11b136ea224fe,,,,,,,,,2075,93.078125,-43.3359375,1,0,0,response3disk,,5,29.67578125,1.0859375,1,0,0,rectangle,29.67578125,1.0859375,1,0,0,29.67578125,1.0859375,1,0,0,1,20,180,73,1,,,,,,,,
,,,,,,,,,,,,,FF,,,,,,,,1.4502,,,,,,,,,,,,,,,,,,,,,,610345ceb299e0132938d55c,610367c5d2053b82e13f7efc,2021-07-29_22h46.22.287,Simcolourproject_2stim_asymm_v5,2020.2.10,MacIntel,60,61025ae37ef11b136ea224fe,,,,,,,,,2896,40.484375,-103.6992188,1,0,0,response3disk,,4,28.08203125,4.17578125,1,0,0,rectangle,28.08203125,4.17578125,1,0,0,28.08203125,4.17578125,1,0,0,1,21,181,1,1,,,,,,,,
,,,,,,,,,,,,,FF,,,,,,,,1.1835,,,,,,,,,,,,,,,,,,,,,,610345ceb299e0132938d55c,610367c5d2053b82e13f7efc,2021-07-29_22h46.22.287,Simcolourproject_2stim_asymm_v5,2020.2.10,MacIntel,60,61025ae37ef11b136ea224fe,,,,,,,,,2557,84.97265625,55.84765625,1,0,0,response1disk,,6,0.8515625,0.84375,1,0,0,rectangle,0.8515625,0.84375,1,0,0,0.8515625,0.84375,1,0,0,1,22,182,17,1,,,,,,,,
,,,,,,,,,,,,,FF,,,,,,,,2.0171,,,,,,,,,,,,,,,,,,,,,,610345ceb299e0132938d55c,610367c5d2053b82e13f7efc,2021-07-29_22h46.22.287,Simcolourproject_2stim_asymm_v5,2020.2.10,MacIntel,60,61025ae37ef11b136ea224fe,,,,,,,,,2379,-46.375,-85.44140625,1,0,0,response5disk,,3,-8.5625,-9.7265625,1,0,0,rectangle,-8.5625,-9.7265625,1,0,0,-8.5625,-9.7265625,1,0,0,1,23,183,156,1,,,,,,,,
,,,,,,,,,,,,,FF,,,,,,,,0.8006,,,,,,,,,,,,,,,,,,,,,,610345ceb299e0132938d55c,610367c5d2053b82e13f7efc,2021-07-29_22h46.22.287,Simcolourproject_2stim_asymm_v5,2020.2.10,MacIntel,60,61025ae37ef11b136ea224fe,,,,,,,,,2249,-48.046875,-76.1015625,1,0,0,response5disk,,3,-8.4765625,-9.3515625,1,0,0,rectangle,-8.4765625,-9.3515625,1,0,0,-8.4765625,-9.3515625,1,0,0,1,24,184,98,1,,,,,,,,
,,,,,,,,,,,,,FF,,,,,,,,0.8335,,,,,,,,,,,,,,,,,,,,,,610345ceb299e0132938d55c,610367c5d2053b82e13f7efc,2021-07-29_22h46.22.287,Simcolourproject_2stim_asymm_v5,2020.2.10,MacIntel,60,61025ae37ef11b136ea224fe,,,,,,,,,3326,70.4375,25.640625,1,0,0,response1disk,,6,-5.44921875,-5.91015625,1,0,0,rectangle,-5.44921875,-5.91015625,1,0,0,-5.44921875,-5.91015625,1,0,0,1,25,185,59,1,,,,,,,,
,,,,,,,,,,,,,FF,,,,,,,,0.7309,,,,,,,,,,,,,,,,,,,,,,610345ceb299e0132938d55c,610367c5d2053b82e13f7efc,2021-07-29_22h46.22.287,Simcolourproject_2stim_asymm_v5,2020.2.10,MacIntel,60,61025ae37ef11b136ea224fe,,,,,,,,,2705,22.9296875,53.25390625,1,0,0,response1disk,,7,-8.453125,-7.3046875,1,0,0,rectangle,-8.453125,-7.3046875,1,0,0,-8.453125,-7.3046875,1,0,0,1,26,186,69,1,,,,,,,,
,,,,,,,,,,,,,FF,,,,,,,,1.0854,,,,,,,,,,,,,,,,,,,,,,610345ceb299e0132938d55c,610367c5d2053b82e13f7efc,2021-07-29_22h46.22.287,Simcolourproject_2stim_asymm_v5,2020.2.10,MacIntel,60,61025ae37ef11b136ea224fe,,,,,,,,,3435,-72.77734375,-46.78515625,1,0,0,response5disk,,2,3.26953125,5.72265625,1,0,0,rectangle,3.26953125,5.72265625,1,0,0,3.26953125,5.72265625,1,0,0,1,27,187,93,1,,,,,,,,
,,,,,,,,,,,,,FF,,,,,,,,1.2666,,,,,,,,,,,,,,,,,,,,,,610345ceb299e0132938d55c,610367c5d2053b82e13f7efc,2021-07-29_22h46.22.287,Simcolourproject_2stim_asymm_v5,2020.2.10,MacIntel,60,61025ae37ef11b136ea224fe,,,,,,,,,2936,-66.6953125,-37.62109375,1,0,0,response5disk,,2,-8.20703125,-10.8984375,1,0,0,rectangle,-8.20703125,-10.8984375,1,0,0,-8.20703125,-10.8984375,1,0,0,1,28,188,56,1,,,,,,,,
,,,,,,,,,,,,,FF,,,,,,,,3.7533,,,,,,,,,,,,,,,,,,,,,,610345ceb299e0132938d55c,610367c5d2053b82e13f7efc,2021-07-29_22h46.22.287,Simcolourproject_2stim_asymm_v5,2020.2.10,MacIntel,60,61025ae37ef11b136ea224fe,,,,,,,,,3137,55.046875,85.03125,1,0,0,response1disk,,7,11.19140625,5.17578125,1,0,0,rectangle,11.19140625,5.17578125,1,0,0,11.19140625,5.17578125,1,0,0,1,29,189,128,1,,,,,,,,
,,,,,,,,,,,,,FF,,,,,,,,3.3163,,,,,,,,,,,,,,,,,,,,,,610345ceb299e0132938d55c,610367c5d2053b82e13f7efc,2021-07-29_22h46.22.287,Simcolourproject_2stim_asymm_v5,2020.2.10,MacIntel,60,61025ae37ef11b136ea224fe,,,,,,,,,1400,35.6796875,-80.4609375,1,0,0,response3disk,,4,9.90625,1.73828125,1,0,0,rectangle,9.90625,1.73828125,1,0,0,9.90625,1.73828125,1,0,0,1,30,190,153,1,,,,,,,,
,,,,,,,,,,,,,FF,,,,,,,,0.8339,,,,,,,,,,,,,,,,,,,,,,610345ceb299e0132938d55c,610367c5d2053b82e13f7efc,2021-07-29_22h46.22.287,Simcolourproject_2stim_asymm_v5,2020.2.10,MacIntel,60,61025ae37ef11b136ea224fe,,,,,,,,,1399,30.4765625,-83.6875,1,0,0,response3disk,,4,13.5,-11.4765625,1,0,0,rectangle,13.5,-11.4765625,1,0,0,13.5,-11.4765625,1,0,0,1,31,191,14,1,,,,,,,,
,,,,,,,,,,,,,FF,,,,,,,,1.2155,,,,,,,,,,,,,,,,,,,,,,610345ceb299e0132938d55c,610367c5d2053b82e13f7efc,2021-07-29_22h46.22.287,Simcolourproject_2stim_asymm_v5,2020.2.10,MacIntel,60,61025ae37ef11b136ea224fe,,,,,,,,,2423,-77.7421875,-60.43359375,1,0,0,response5disk,,2,2.4140625,-5.36328125,1,0,0,rectangle,2.4140625,-5.36328125,1,0,0,2.4140625,-5.36328125,1,0,0,1,32,192,99,1,,,,,,,,
,,,,,,,,,,,,,FF,,,,,,,,2.166,,,,,,,,,,,,,,,,,,,,,,610345ceb299e0132938d55c,610367c5d2053b82e13f7efc,2021-07-29_22h46.22.287,Simcolourproject_2stim_asymm_v5,2020.2.10,MacIntel,60,61025ae37ef11b136ea224fe,,,,,,,,,2072,108.25,-46.51953125,1,0,0,response3disk,,5,19.52734375,-1.07421875,1,0,0,rectangle,19.52734375,-1.07421875,1,0,0,19.52734375,-1.07421875,1,0,0,1,33,193,113,1,,,,,,,,
,,,,,,,,,,,,,FF,,,,,,,,1.3166,,,,,,,,,,,,,,,,,,,,,,610345ceb299e0132938d55c,610367c5d2053b82e13f7efc,2021-07-29_22h46.22.287,Simcolourproject_2stim_asymm_v5,2020.2.10,MacIntel,60,61025ae37ef11b136ea224fe,,,,,,,,,3961,64.1328125,-65.03515625,1,0,0,response3disk,,4,-14.5703125,-4.01953125,1,0,0,rectangle,-67.03515625,-36.3046875,1,0,0,14.4140625,1.78125,1,0,0,1,34,194,63,1,,response5disk_3,TRUE,2,2,"[201,167,93,245,224,175,130,264,65,170,204,25,203,58,245,258,16,63,3,195]",1.6812,rectangle
,,,,,,,,,,,,,FF,,,,,,,,5.1833,,,,,,,,,,,,,,,,,,,,,,610345ceb299e0132938d55c,610367c5d2053b82e13f7efc,2021-07-29_22h46.22.287,Simcolourproject_2stim_asymm_v5,2020.2.10,MacIntel,60,61025ae37ef11b136ea224fe,,,,,,,,,3131,43.80859375,-83.0078125,1,0,0,response3disk,,4,26.71484375,-3.12890625,1,0,0,rectangle,26.71484375,-3.12890625,1,0,0,26.71484375,-3.12890625,1,0,0,1,35,195,112,1,,,,,,,,
,,,,,,,,,,,,,FF,,,,,,,,0.9842,,,,,,,,,,,,,,,,,,,,,,610345ceb299e0132938d55c,610367c5d2053b82e13f7efc,2021-07-29_22h46.22.287,Simcolourproject_2stim_asymm_v5,2020.2.10,MacIntel,60,61025ae37ef11b136ea224fe,,,,,,,,,96,-86.91796875,-45.71484375,1,0,0,response5disk,,2,-15.171875,7.85546875,1,0,0,rectangle,-15.171875,7.85546875,1,0,0,-15.171875,7.85546875,1,0,0,1,36,196,158,1,,,,,,,,
,,,,,,,,,,,,,FF,,,,,,,,3.4324,,,,,,,,,,,,,,,,,,,,,,610345ceb299e0132938d55c,610367c5d2053b82e13f7efc,2021-07-29_22h46.22.287,Simcolourproject_2stim_asymm_v5,2020.2.10,MacIntel,60,61025ae37ef11b136ea224fe,,,,,,,,,2460,89.1328125,29.93359375,1,0,0,response1disk,,6,11.6015625,1.53125,1,0,0,rectangle,11.6015625,1.53125,1,0,0,11.6015625,1.53125,1,0,0,1,37,197,58,1,,,,,,,,
,,,,,,,,,,,,,FF,,,,,,,,0.7191,,,,,,,,,,,,,,,,,,,,,,610345ceb299e0132938d55c,610367c5d2053b82e13f7efc,2021-07-29_22h46.22.287,Simcolourproject_2stim_asymm_v5,2020.2.10,MacIntel,60,61025ae37ef11b136ea224fe,,,,,,,,,877,101.390625,49.4609375,1,0,0,response1disk,,6,0.83203125,-3.5859375,1,0,0,rectangle,0.83203125,-3.5859375,1,0,0,0.83203125,-3.5859375,1,0,0,1,38,198,19,1,,,,,,,,
,,,,,,,,,,,,,FF,,,,,,,,1.1842,,,,,,,,,,,,,,,,,,,,,,610345ceb299e0132938d55c,610367c5d2053b82e13f7efc,2021-07-29_22h46.22.287,Simcolourproject_2stim_asymm_v5,2020.2.10,MacIntel,60,61025ae37ef11b136ea224fe,,,,,,,,,1591,87.7890625,-73.4375,1,0,0,response3disk,,5,2.1953125,-12.8046875,1,0,0,rectangle,2.1953125,-12.8046875,1,0,0,2.1953125,-12.8046875,1,0,0,1,39,199,85,1,,,,,,,,
,,,,,,,,,,,,,FF,,,,,,,,2.3002,,,,,,,,,,,,,,,,,,,,,,610345ceb299e0132938d55c,610367c5d2053b82e13f7efc,2021-07-29_22h46.22.287,Simcolourproject_2stim_asymm_v5,2020.2.10,MacIntel,60,61025ae37ef11b136ea224fe,,,,,,,,,306,87.66015625,-58.55859375,1,0,0,response3disk,,5,-2.4453125,-1.90234375,1,0,0,rectangle,18.890625,69.375,1,0,0,11.671875,1.2265625,1,0,0,1,40,200,157,1,,response1disk_3,TRUE,7,7,"[201,167,93,245,224,175,130,264,65,170,204,25,203,58,245,258,16,63,3,195]",1.5166,rectangle
,,,,,,,,,,,,,FF,,,,,,,,0.8457,,,,,,,,,,,,,,,,,,,,,,610345ceb299e0132938d55c,610367c5d2053b82e13f7efc,2021-07-29_22h46.22.287,Simcolourproject_2stim_asymm_v5,2020.2.10,MacIntel,60,61025ae37ef11b136ea224fe,,,,,,,,,2539,85.3828125,26.109375,1,0,0,response1disk,,6,21.6875,6.19140625,1,0,0,rectangle,21.6875,6.19140625,1,0,0,21.6875,6.19140625,1,0,0,1,41,201,34,1,,,,,,,,
,,,,,,,,,,,,,FF,,,,,,,,1.1076,,,,,,,,,,,,,,,,,,,,,,610345ceb299e0132938d55c,610367c5d2053b82e13f7efc,2021-07-29_22h46.22.287,Simcolourproject_2stim_asymm_v5,2020.2.10,MacIntel,60,61025ae37ef11b136ea224fe,,,,,,,,,1385,-59.59765625,-78.79296875,1,0,0,response5disk,,3,4.01953125,-6.2578125,1,0,0,rectangle,-16.60546875,70.4296875,1,0,0,2.39453125,-8.39453125,1,0,0,1,42,202,105,1,,response7disk_3,TRUE,0,0,"[201,167,93,245,224,175,130,264,65,170,204,25,203,58,245,258,16,63,3,195]",1.5501,rectangle
,,,,,,,,,,,,,FF,,,,,,,,2.3838,,,,,,,,,,,,,,,,,,,,,,610345ceb299e0132938d55c,610367c5d2053b82e13f7efc,2021-07-29_22h46.22.287,Simcolourproject_2stim_asymm_v5,2020.2.10,MacIntel,60,61025ae37ef11b136ea224fe,,,,,,,,,3604,94.2734375,-65.50390625,1,0,0,response3disk,,5,7.609375,9.5078125,1,0,0,rectangle,47.640625,-105.3789063,1,0,0,23.8046875,-6.0390625,1,0,0,1,43,203,124,1,,response3disk_3,TRUE,4,4,"[201,167,93,245,224,175,130,264,65,170,204,25,203,58,245,258,16,63,3,195]",1.948,rectangle
,,,,,,,,,,,,,FF,,,,,,,,5.3513,,,,,,,,,,,,,,,,,,,,,,610345ceb299e0132938d55c,610367c5d2053b82e13f7efc,2021-07-29_22h46.22.287,Simcolourproject_2stim_asymm_v5,2020.2.10,MacIntel,60,61025ae37ef11b136ea224fe,,,,,,,,,1545,49.5390625,-97.80859375,1,0,0,response3disk,,4,14.92578125,3.2109375,1,0,0,rectangle,14.92578125,3.2109375,1,0,0,14.92578125,3.2109375,1,0,0,1,44,204,26,1,,,,,,,,
,,,,,,,,,,,,,FF,,,,,,,,0.9167,,,,,,,,,,,,,,,,,,,,,,610345ceb299e0132938d55c,610367c5d2053b82e13f7efc,2021-07-29_22h46.22.287,Simcolourproject_2stim_asymm_v5,2020.2.10,MacIntel,60,61025ae37ef11b136ea224fe,,,,,,,,,1643,36.1953125,61.31640625,1,0,0,response1disk,,7,20.14453125,-6.87109375,1,0,0,rectangle,20.14453125,-6.87109375,1,0,0,20.14453125,-6.87109375,1,0,0,1,45,205,50,1,,,,,,,,
,,,,,,,,,,,,,FF,,,,,,,,0.8834,,,,,,,,,,,,,,,,,,,,,,610345ceb299e0132938d55c,610367c5d2053b82e13f7efc,2021-07-29_22h46.22.287,Simcolourproject_2stim_asymm_v5,2020.2.10,MacIntel,60,61025ae37ef11b136ea224fe,,,,,,,,,2233,-69.375,22.84765625,1,0,0,response7disk,,1,7.83203125,-14.05859375,1,0,0,rectangle,7.83203125,-14.05859375,1,0,0,7.83203125,-14.05859375,1,0,0,1,46,206,95,1,,,,,,,,
,,,,,,,,,,,,,FF,,,,,,,,2.7832,,,,,,,,,,,,,,,,,,,,,,610345ceb299e0132938d55c,610367c5d2053b82e13f7efc,2021-07-29_22h46.22.287,Simcolourproject_2stim_asymm_v5,2020.2.10,MacIntel,60,61025ae37ef11b136ea224fe,,,,,,,,,2800,-40.26953125,-83.55078125,1,0,0,response5disk,,3,-17.421875,-12.0078125,1,0,0,rectangle,-17.421875,-12.0078125,1,0,0,-17.421875,-12.0078125,1,0,0,1,47,207,117,1,,,,,,,,
,,,,,,,,,,,,,FF,,,,,,,,4.6004,,,,,,,,,,,,,,,,,,,,,,610345ceb299e0132938d55c,610367c5d2053b82e13f7efc,2021-07-29_22h46.22.287,Simcolourproject_2stim_asymm_v5,2020.2.10,MacIntel,60,61025ae37ef11b136ea224fe,,,,,,,,,1142,69.40234375,-86.15234375,1,0,0,response3disk,,4,21.67578125,-4.13671875,1,0,0,rectangle,21.67578125,-4.13671875,1,0,0,21.67578125,-4.13671875,1,0,0,1,48,208,127,1,,,,,,,,
,,,,,,,,,,,,,FF,,,,,,,,2.5859,,,,,,,,,,,,,,,,,,,,,,610345ceb299e0132938d55c,610367c5d2053b82e13f7efc,2021-07-29_22h46.22.287,Simcolourproject_2stim_asymm_v5,2020.2.10,MacIntel,60,61025ae37ef11b136ea224fe,,,,,,,,,2356,-62.23828125,-55.22265625,1,0,0,response5disk,,2,9.109375,-3.99609375,1,0,0,rectangle,9.109375,-3.99609375,1,0,0,9.109375,-3.99609375,1,0,0,1,49,209,22,1,,,,,,,,
,,,,,,,,,,,,,FF,,,,,,,,0.7338,,,,,,,,,,,,,,,,,,,,,,610345ceb299e0132938d55c,610367c5d2053b82e13f7efc,2021-07-29_22h46.22.287,Simcolourproject_2stim_asymm_v5,2020.2.10,MacIntel,60,61025ae37ef11b136ea224fe,,,,,,,,,3533,83.19140625,35.375,1,0,0,response1disk,,6,26.62890625,7.5234375,1,0,0,rectangle,26.62890625,7.5234375,1,0,0,26.62890625,7.5234375,1,0,0,1,50,210,123,1,,,,,,,,
,,,,,,,,,,,,,FF,,,,,,,,1.1504,,,,,,,,,,,,,,,,,,,,,,610345ceb299e0132938d55c,610367c5d2053b82e13f7efc,2021-07-29_22h46.22.287,Simcolourproject_2stim_asymm_v5,2020.2.10,MacIntel,60,61025ae37ef11b136ea224fe,,,,,,,,,1248,52.78125,-92.27734375,1,0,0,response3disk,,4,17.71875,-3.61328125,1,0,0,rectangle,17.71875,-3.61328125,1,0,0,17.71875,-3.61328125,1,0,0,1,51,211,152,1,,,,,,,,
,,,,,,,,,,,,,FF,,,,,,,,1.2,,,,,,,,,,,,,,,,,,,,,,610345ceb299e0132938d55c,610367c5d2053b82e13f7efc,2021-07-29_22h46.22.287,Simcolourproject_2stim_asymm_v5,2020.2.10,MacIntel,60,61025ae37ef11b136ea224fe,,,,,,,,,601,92.203125,-40.6875,1,0,0,response3disk,,5,-24.46484375,-1.7578125,1,0,0,rectangle,-24.46484375,-1.7578125,1,0,0,-24.46484375,-1.7578125,1,0,0,1,52,212,48,1,,,,,,,,
,,,,,,,,,,,,,FF,,,,,,,,1.881,,,,,,,,,,,,,,,,,,,,,,610345ceb299e0132938d55c,610367c5d2053b82e13f7efc,2021-07-29_22h46.22.287,Simcolourproject_2stim_asymm_v5,2020.2.10,MacIntel,60,61025ae37ef11b136ea224fe,,,,,,,,,3065,32.9609375,-69.7421875,1,0,0,response3disk,,4,1.8984375,2.71875,1,0,0,rectangle,1.8984375,2.71875,1,0,0,1.8984375,2.71875,1,0,0,1,53,213,10,1,,,,,,,,
,,,,,,,,,,,,,FF,,,,,,,,1.0806,,,,,,,,,,,,,,,,,,,,,,610345ceb299e0132938d55c,610367c5d2053b82e13f7efc,2021-07-29_22h46.22.287,Simcolourproject_2stim_asymm_v5,2020.2.10,MacIntel,60,61025ae37ef11b136ea224fe,,,,,,,,,2165,-86.375,-39.9765625,1,0,0,response5disk,,2,1.89453125,-2.19140625,1,0,0,rectangle,1.89453125,-2.19140625,1,0,0,1.89453125,-2.19140625,1,0,0,1,54,214,92,1,,,,,,,,
,,,,,,,,,,,,,FF,,,,,,,,1.3854,,,,,,,,,,,,,,,,,,,,,,610345ceb299e0132938d55c,610367c5d2053b82e13f7efc,2021-07-29_22h46.22.287,Simcolourproject_2stim_asymm_v5,2020.2.10,MacIntel,60,61025ae37ef11b136ea224fe,,,,,,,,,2220,37.0625,-104.7851563,1,0,0,response3disk,,4,0.13671875,-12.109375,1,0,0,rectangle,0.13671875,-12.109375,1,0,0,0.13671875,-12.109375,1,0,0,1,55,215,134,1,,,,,,,,
,,,,,,,,,,,,,FF,,,,,,,,0.8314,,,,,,,,,,,,,,,,,,,,,,610345ceb299e0132938d55c,610367c5d2053b82e13f7efc,2021-07-29_22h46.22.287,Simcolourproject_2stim_asymm_v5,2020.2.10,MacIntel,60,61025ae37ef11b136ea224fe,,,,,,,,,1297,-73.5,46.4921875,1,0,0,response7disk,,1,8.4921875,-3.5859375,1,0,0,rectangle,8.4921875,-3.5859375,1,0,0,8.4921875,-3.5859375,1,0,0,1,56,216,81,1,,,,,,,,
,,,,,,,,,,,,,FF,,,,,,,,1.6663,,,,,,,,,,,,,,,,,,,,,,610345ceb299e0132938d55c,610367c5d2053b82e13f7efc,2021-07-29_22h46.22.287,Simcolourproject_2stim_asymm_v5,2020.2.10,MacIntel,60,61025ae37ef11b136ea224fe,,,,,,,,,29,107.484375,-62.6015625,1,0,0,response3disk,,5,22.7109375,-5.30859375,1,0,0,rectangle,22.7109375,-5.30859375,1,0,0,22.7109375,-5.30859375,1,0,0,1,57,217,115,1,,,,,,,,
,,,,,,,,,,,,,FF,,,,,,,,1.5484,,,,,,,,,,,,,,,,,,,,,,610345ceb299e0132938d55c,610367c5d2053b82e13f7efc,2021-07-29_22h46.22.287,Simcolourproject_2stim_asymm_v5,2020.2.10,MacIntel,60,61025ae37ef11b136ea224fe,,,,,,,,,3066,94.765625,-32.78125,1,0,0,response3disk,,5,17.32421875,-0.4453125,1,0,0,rectangle,17.32421875,-0.4453125,1,0,0,17.32421875,-0.4453125,1,0,0,1,58,218,54,1,,,,,,,,
,,,,,,,,,,,,,FF,,,,,,,,2.3818,,,,,,,,,,,,,,,,,,,,,,610345ceb299e0132938d55c,610367c5d2053b82e13f7efc,2021-07-29_22h46.22.287,Simcolourproject_2stim_asymm_v5,2020.2.10,MacIntel,60,61025ae37ef11b136ea224fe,,,,,,,,,2957,88.2578125,25.6640625,1,0,0,response1disk,,6,0.2421875,-3.82421875,1,0,0,rectangle,0.2421875,-3.82421875,1,0,0,0.2421875,-3.82421875,1,0,0,1,59,219,143,1,,,,,,,,
,,,,,,,,,,,,,FF,,,,,,,,3.4162,,,,,,,,,,,,,,,,,,,,,,610345ceb299e0132938d55c,610367c5d2053b82e13f7efc,2021-07-29_22h46.22.287,Simcolourproject_2stim_asymm_v5,2020.2.10,MacIntel,60,61025ae37ef11b136ea224fe,,,,,,,,,2880,65.14453125,-93.7890625,1,0,0,response3disk,,4,9.828125,5.73828125,1,0,0,rectangle,9.828125,5.73828125,1,0,0,9.828125,5.73828125,1,0,0,1,60,220,67,1,,,,,,,,
,,,,,,,,,,,,,FF,,,,,,,,1.1512,,,,,,,,,,,,,,,,,,,,,,610345ceb299e0132938d55c,610367c5d2053b82e13f7efc,2021-07-29_22h46.22.287,Simcolourproject_2stim_asymm_v5,2020.2.10,MacIntel,60,61025ae37ef11b136ea224fe,,,,,,,,,446,73.4296875,81.3203125,1,0,0,response1disk,,7,12.49609375,6.42578125,1,0,0,rectangle,12.49609375,6.42578125,1,0,0,12.49609375,6.42578125,1,0,0,1,61,221,87,1,,,,,,,,
,,,,,,,,,,,,,FF,,,,,,,,7.5636,,,,,,,,,,,,,,,,,,,,,,610345ceb299e0132938d55c,610367c5d2053b82e13f7efc,2021-07-29_22h46.22.287,Simcolourproject_2stim_asymm_v5,2020.2.10,MacIntel,60,61025ae37ef11b136ea224fe,,,,,,,,,1975,91.08984375,-118.4609375,1,0,0,response3disk,,4,-14.140625,-0.40625,1,0,0,rectangle,-14.140625,-0.40625,1,0,0,-14.140625,-0.40625,1,0,0,1,62,222,45,1,,,,,,,,
,,,,,,,,,,,,,FF,,,,,,,,3.2833,,,,,,,,,,,,,,,,,,,,,,610345ceb299e0132938d55c,610367c5d2053b82e13f7efc,2021-07-29_22h46.22.287,Simcolourproject_2stim_asymm_v5,2020.2.10,MacIntel,60,61025ae37ef11b136ea224fe,,,,,,,,,3997,-24.86328125,-114.8203125,1,0,0,response5disk,,3,16.875,-10.6640625,1,0,0,rectangle,-73.54296875,-58.08203125,1,0,0,25.3828125,16.5546875,1,0,0,1,63,223,18,1,,response5disk_3,TRUE,2,2,"[201,167,93,245,224,175,130,264,65,170,204,25,203,58,245,258,16,63,3,195]",1.5846,rectangle
,,,,,,,,,,,,,FF,,,,,,,,1.7356,,,,,,,,,,,,,,,,,,,,,,610345ceb299e0132938d55c,610367c5d2053b82e13f7efc,2021-07-29_22h46.22.287,Simcolourproject_2stim_asymm_v5,2020.2.10,MacIntel,60,61025ae37ef11b136ea224fe,,,,,,,,,125,89.5078125,-43.41015625,1,0,0,response3disk,,5,10.81640625,-4.78515625,1,0,0,rectangle,10.81640625,-4.78515625,1,0,0,10.81640625,-4.78515625,1,0,0,1,64,224,57,1,,,,,,,,
,,,,,,,,,,,,,FF,,,,,,,,1.3522,,,,,,,,,,,,,,,,,,,,,,610345ceb299e0132938d55c,610367c5d2053b82e13f7efc,2021-07-29_22h46.22.287,Simcolourproject_2stim_asymm_v5,2020.2.10,MacIntel,60,61025ae37ef11b136ea224fe,,,,,,,,,349,-68.0546875,-39.8515625,1,0,0,response5disk,,2,11.4765625,-2.3515625,1,0,0,rectangle,11.4765625,-2.3515625,1,0,0,11.4765625,-2.3515625,1,0,0,1,65,225,102,1,,,,,,,,
,,,,,,,,,,,,,FF,,,,,,,,4.3168,,,,,,,,,,,,,,,,,,,,,,610345ceb299e0132938d55c,610367c5d2053b82e13f7efc,2021-07-29_22h46.22.287,Simcolourproject_2stim_asymm_v5,2020.2.10,MacIntel,60,61025ae37ef11b136ea224fe,,,,,,,,,3919,101.5859375,-60.31640625,1,0,0,response3disk,,5,27.30078125,-1.62890625,1,0,0,rectangle,27.30078125,-1.62890625,1,0,0,27.30078125,-1.62890625,1,0,0,1,66,226,129,1,,,,,,,,
,,,,,,,,,,,,,FF,,,,,,,,1.2167,,,,,,,,,,,,,,,,,,,,,,610345ceb299e0132938d55c,610367c5d2053b82e13f7efc,2021-07-29_22h46.22.287,Simcolourproject_2stim_asymm_v5,2020.2.10,MacIntel,60,61025ae37ef11b136ea224fe,,,,,,,,,3970,-74.66015625,34.5625,1,0,0,response7disk,,1,23.4140625,-7.6953125,1,0,0,rectangle,23.4140625,-7.6953125,1,0,0,23.4140625,-7.6953125,1,0,0,1,67,227,61,1,,,,,,,,
,,,,,,,,,,,,,FF,,,,,,,,0.7146,,,,,,,,,,,,,,,,,,,,,,610345ceb299e0132938d55c,610367c5d2053b82e13f7efc,2021-07-29_22h46.22.287,Simcolourproject_2stim_asymm_v5,2020.2.10,MacIntel,60,61025ae37ef11b136ea224fe,,,,,,,,,4148,-62.65625,28.9453125,1,0,0,response7disk,,1,-22.08984375,9.640625,1,0,0,rectangle,-22.08984375,9.640625,1,0,0,-22.08984375,9.640625,1,0,0,1,68,228,119,1,,,,,,,,
,,,,,,,,,,,,,FF,,,,,,,,4.9164,,,,,,,,,,,,,,,,,,,,,,610345ceb299e0132938d55c,610367c5d2053b82e13f7efc,2021-07-29_22h46.22.287,Simcolourproject_2stim_asymm_v5,2020.2.10,MacIntel,60,61025ae37ef11b136ea224fe,,,,,,,,,243,106.8359375,-29.89453125,1,0,0,response3disk,,5,-0.62890625,-5.390625,1,0,0,rectangle,-0.62890625,-5.390625,1,0,0,-0.62890625,-5.390625,1,0,0,1,69,229,88,1,,,,,,,,
,,,,,,,,,,,,,FF,,,,,,,,0.8853,,,,,,,,,,,,,,,,,,,,,,610345ceb299e0132938d55c,610367c5d2053b82e13f7efc,2021-07-29_22h46.22.287,Simcolourproject_2stim_asymm_v5,2020.2.10,MacIntel,60,61025ae37ef11b136ea224fe,,,,,,,,,1488,79.76953125,38.71875,1,0,0,response1disk,,6,17.5703125,-15.5,1,0,0,rectangle,17.5703125,-15.5,1,0,0,17.5703125,-15.5,1,0,0,1,70,230,121,1,,,,,,,,
,,,,,,,,,,,,,FF,,,,,,,,1.5502,,,,,,,,,,,,,,,,,,,,,,610345ceb299e0132938d55c,610367c5d2053b82e13f7efc,2021-07-29_22h46.22.287,Simcolourproject_2stim_asymm_v5,2020.2.10,MacIntel,60,61025ae37ef11b136ea224fe,,,,,,,,,2380,116.1328125,-30.390625,1,0,0,response3disk,,5,19.78125,-10.6953125,1,0,0,rectangle,19.78125,-10.6953125,1,0,0,19.78125,-10.6953125,1,0,0,1,71,231,2,1,,,,,,,,
,,,,,,,,,,,,,FF,,,,,,,,3.3839,,,,,,,,,,,,,,,,,,,,,,610345ceb299e0132938d55c,610367c5d2053b82e13f7efc,2021-07-29_22h46.22.287,Simcolourproject_2stim_asymm_v5,2020.2.10,MacIntel,60,61025ae37ef11b136ea224fe,,,,,,,,,3454,97.90625,49.2890625,1,0,0,response1disk,,6,26.31640625,3.96484375,1,0,0,rectangle,26.31640625,3.96484375,1,0,0,26.31640625,3.96484375,1,0,0,1,72,232,60,1,,,,,,,,
,,,,,,,,,,,,,FF,,,,,,,,1.0237,,,,,,,,,,,,,,,,,,,,,,610345ceb299e0132938d55c,610367c5d2053b82e13f7efc,2021-07-29_22h46.22.287,Simcolourproject_2stim_asymm_v5,2020.2.10,MacIntel,60,61025ae37ef11b136ea224fe,,,,,,,,,3170,51.94140625,63.24609375,1,0,0,response1disk,,7,12.91796875,16.734375,1,0,0,rectangle,12.91796875,16.734375,1,0,0,12.91796875,16.734375,1,0,0,1,73,233,154,1,,,,,,,,
,,,,,,,,,,,,,FF,,,,,,,,1.8506,,,,,,,,,,,,,,,,,,,,,,610345ceb299e0132938d55c,610367c5d2053b82e13f7efc,2021-07-29_22h46.22.287,Simcolourproject_2stim_asymm_v5,2020.2.10,MacIntel,60,61025ae37ef11b136ea224fe,,,,,,,,,2376,-42.5078125,-79.09765625,1,0,0,response5disk,,3,10.03515625,0.92578125,1,0,0,rectangle,10.03515625,0.92578125,1,0,0,10.03515625,0.92578125,1,0,0,1,74,234,108,1,,,,,,,,
,,,,,,,,,,,,,FF,,,,,,,,1.5835,,,,,,,,,,,,,,,,,,,,,,610345ceb299e0132938d55c,610367c5d2053b82e13f7efc,2021-07-29_22h46.22.287,Simcolourproject_2stim_asymm_v5,2020.2.10,MacIntel,60,61025ae37ef11b136ea224fe,,,,,,,,,1950,-84.13671875,-41.85546875,1,0,0,response5disk,,2,5.265625,6.66015625,1,0,0,rectangle,5.265625,6.66015625,1,0,0,5.265625,6.66015625,1,0,0,1,75,235,24,1,,,,,,,,
,,,,,,,,,,,,,FF,,,,,,,,4.9007,,,,,,,,,,,,,,,,,,,,,,610345ceb299e0132938d55c,610367c5d2053b82e13f7efc,2021-07-29_22h46.22.287,Simcolourproject_2stim_asymm_v5,2020.2.10,MacIntel,60,61025ae37ef11b136ea224fe,,,,,,,,,2069,56.9296875,-74.6640625,1,0,0,response3disk,,4,28.46875,-12.62890625,1,0,0,rectangle,28.46875,-12.62890625,1,0,0,28.46875,-12.62890625,1,0,0,1,76,236,36,1,,,,,,,,
,,,,,,,,,,,,,FF,,,,,,,,2.2356,,,,,,,,,,,,,,,,,,,,,,610345ceb299e0132938d55c,610367c5d2053b82e13f7efc,2021-07-29_22h46.22.287,Simcolourproject_2stim_asymm_v5,2020.2.10,MacIntel,60,61025ae37ef11b136ea224fe,,,,,,,,,664,37.16015625,-63.07421875,1,0,0,response3disk,,4,19.50390625,-6.359375,1,0,0,rectangle,19.50390625,-6.359375,1,0,0,19.50390625,-6.359375,1,0,0,1,77,237,0,1,,,,,,,,
,,,,,,,,,,,,,FF,,,,,,,,1.1174,,,,,,,,,,,,,,,,,,,,,,610345ceb299e0132938d55c,610367c5d2053b82e13f7efc,2021-07-29_22h46.22.287,Simcolourproject_2stim_asymm_v5,2020.2.10,MacIntel,60,61025ae37ef11b136ea224fe,,,,,,,,,2703,86.09375,-33.8359375,1,0,0,response3disk,,5,27,-10.51171875,1,0,0,rectangle,27,-10.51171875,1,0,0,27,-10.51171875,1,0,0,1,78,238,41,1,,,,,,,,
,,,,,,,,,,,,,FF,,,,,,,,1.0515,,,,,,,,,,,,,,,,,,,,,,610345ceb299e0132938d55c,610367c5d2053b82e13f7efc,2021-07-29_22h46.22.287,Simcolourproject_2stim_asymm_v5,2020.2.10,MacIntel,60,61025ae37ef11b136ea224fe,,,,,,,,,2673,-55.48046875,-92.74609375,1,0,0,response5disk,,3,-21.66796875,-16.6953125,1,0,0,rectangle,-21.66796875,-16.6953125,1,0,0,-21.66796875,-16.6953125,1,0,0,1,79,239,125,1,,,,,,,,
,,,,,,,,,,,,,FF,,,,,,,,0.8161,,,,,,,,,,,,,,,,,,,,,,610345ceb299e0132938d55c,610367c5d2053b82e13f7efc,2021-07-29_22h46.22.287,Simcolourproject_2stim_asymm_v5,2020.2.10,MacIntel,60,61025ae37ef11b136ea224fe,,,,,,,,,4200,-57.81640625,31.90234375,1,0,0,response7disk,,1,-3.2109375,5.49609375,1,0,0,rectangle,-3.2109375,5.49609375,1,0,0,-3.2109375,5.49609375,1,0,0,1,80,240,4,1,,,,,,,,
,,,,,,,,,,,,,FF,,,,,,,,0.6343,,,,,,,,,,,,,,,,,,,,,,610345ceb299e0132938d55c,610367c5d2053b82e13f7efc,2021-07-29_22h46.22.287,Simcolourproject_2stim_asymm_v5,2020.2.10,MacIntel,60,61025ae37ef11b136ea224fe,,,,,,,,,348,-59.09765625,25.6171875,1,0,0,response7disk,,1,5.74609375,-14.0390625,1,0,0,rectangle,5.74609375,-14.0390625,1,0,0,5.74609375,-14.0390625,1,0,0,1,81,241,55,1,,,,,,,,
,,,,,,,,,,,,,FF,,,,,,,,4.1832,,,,,,,,,,,,,,,,,,,,,,610345ceb299e0132938d55c,610367c5d2053b82e13f7efc,2021-07-29_22h46.22.287,Simcolourproject_2stim_asymm_v5,2020.2.10,MacIntel,60,61025ae37ef11b136ea224fe,,,,,,,,,37,96.1328125,39.33203125,1,0,0,response1disk,,6,10.23046875,14.32421875,1,0,0,rectangle,10.23046875,14.32421875,1,0,0,10.23046875,14.32421875,1,0,0,1,82,242,40,1,,,,,,,,
,,,,,,,,,,,,,FF,,,,,,,,7.0176,,,,,,,,,,,,,,,,,,,,,,610345ceb299e0132938d55c,610367c5d2053b82e13f7efc,2021-07-29_22h46.22.287,Simcolourproject_2stim_asymm_v5,2020.2.10,MacIntel,60,61025ae37ef11b136ea224fe,,,,,,,,,1718,96.1796875,22.36328125,1,0,0,response1disk,,6,21.27734375,-0.32421875,1,0,0,rectangle,21.27734375,-0.32421875,1,0,0,21.27734375,-0.32421875,1,0,0,1,83,243,5,1,,,,,,,,
,,,,,,,,,,,,,FF,,,,,,,,0.9836,,,,,,,,,,,,,,,,,,,,,,610345ceb299e0132938d55c,610367c5d2053b82e13f7efc,2021-07-29_22h46.22.287,Simcolourproject_2stim_asymm_v5,2020.2.10,MacIntel,60,61025ae37ef11b136ea224fe,,,,,,,,,266,-44.4765625,-93.0859375,1,0,0,response5disk,,3,-8.6640625,-5.71875,1,0,0,rectangle,100.8320313,28.10546875,1,0,0,25.66015625,-3.9296875,1,0,0,1,84,244,39,1,,response1disk_3,TRUE,6,6,"[201,167,93,245,224,175,130,264,65,170,204,25,203,58,245,258,16,63,3,195]",1.5004,rectangle
,,,,,,,,,,,,,FF,,,,,,,,2.3337,,,,,,,,,,,,,,,,,,,,,,610345ceb299e0132938d55c,610367c5d2053b82e13f7efc,2021-07-29_22h46.22.287,Simcolourproject_2stim_asymm_v5,2020.2.10,MacIntel,60,61025ae37ef11b136ea224fe,,,,,,,,,3945,46.03125,-87.51953125,1,0,0,response3disk,,4,14.23046875,0.9296875,1,0,0,rectangle,14.23046875,0.9296875,1,0,0,14.23046875,0.9296875,1,0,0,1,85,245,79,1,,,,,,,,
,,,,,,,,,,,,,FF,,,,,,,,6.0329,,,,,,,,,,,,,,,,,,,,,,610345ceb299e0132938d55c,610367c5d2053b82e13f7efc,2021-07-29_22h46.22.287,Simcolourproject_2stim_asymm_v5,2020.2.10,MacIntel,60,61025ae37ef11b136ea224fe,,,,,,,,,1434,118.0195313,25.12109375,1,0,0,response1disk,,6,26.515625,12.94140625,1,0,0,rectangle,26.515625,12.94140625,1,0,0,26.515625,12.94140625,1,0,0,1,86,246,72,1,,,,,,,,
,,,,,,,,,,,,,FF,,,,,,,,1.0486,,,,,,,,,,,,,,,,,,,,,,610345ceb299e0132938d55c,610367c5d2053b82e13f7efc,2021-07-29_22h46.22.287,Simcolourproject_2stim_asymm_v5,2020.2.10,MacIntel,60,61025ae37ef11b136ea224fe,,,,,,,,,2737,-43.03515625,-91.37109375,1,0,0,response5disk,,3,-8.64453125,-11.84765625,1,0,0,rectangle,-8.64453125,-11.84765625,1,0,0,-8.64453125,-11.84765625,1,0,0,1,87,247,53,1,,,,,,,,
