key_resp.keys,key_resp.rt,key_resp_14.keys,key_resp_14.rt,key_resp_15.keys,key_resp_15.rt,key_resp_17.keys,key_resp_17.rt,key_resp_9.keys,key_resp_9.rt,key_resp_10.keys,key_resp_10.rt,practice_comparison,Ecc,mouse_5.x,mouse_5.y,mouse_5.leftButton,mouse_5.midButton,mouse_5.rightButton,mouse_5.clicked_name,pracsimilarity,response_time,mouse_10.x,mouse_10.y,mouse_10.leftButton,mouse_10.midButton,mouse_10.rightButton,mouse_10.clicked_name,mouse_7.x,mouse_7.y,mouse_7.leftButton,mouse_7.midButton,mouse_7.rightButton,mouse_6.x,mouse_6.y,mouse_6.leftButton,mouse_6.midButton,mouse_6.rightButton,duringprac.thisRepN,duringprac.thisTrialN,duringprac.thisN,duringprac.thisIndex,duringprac.ran,participant,session,date,expName,psychopyVersion,OS,frameRate,study_id,mouse_7.clicked_name,catchpracsimilarity,catch_response_time,catchnumberprac,catchtrialorderprac,mouse_6.clicked_name,key_resp_22.keys,key_resp_22.rt,realcomparison,mouse.x,mouse.y,mouse.leftButton,mouse.midButton,mouse.rightButton,mouse.clicked_name,Colour2,similarity,mouse_2.x,mouse_2.y,mouse_2.leftButton,mouse_2.midButton,mouse_2.rightButton,mouse_2.clicked_name,mouse_3.x,mouse_3.y,mouse_3.leftButton,mouse_3.midButton,mouse_3.rightButton,mouse_11.x,mouse_11.y,mouse_11.leftButton,mouse_11.midButton,mouse_11.rightButton,trials_2.thisRepN,trials_2.thisTrialN,trials_2.thisN,trials_2.thisIndex,trials_2.ran,Colour1,mouse_3.clicked_name,catchornah,catchsimilarity,catchnumber,catchtrialorder,catchRT,mouse_11.clicked_name
space,1.6516,space,5.4573,space,9.8171,space,2.2927,space,1.1375,space,4.0691,14,PF,46.00002044,87.99999189,1,0,0,response1disk_5,7,10.7787,-3.999981046,5.333322763,1,0,0,rectangle_8,-3.999981046,5.333322763,1,0,0,-3.999981046,5.333322763,1,0,0,0,0,0,2,1,61035f57b8399021c313c379,610364a49d089ebea6141013,2021-07-29_22h32.37.648,Simcolourproject_2stim_asymm_v5,2020.2.10,Win32,60,61025ae37ef11b136ea224fe,,,,,,,,,,,,,,,,,,,,,,,,,,,,,,,,,,,,,,,,,,,,,,
,,,,,,,,,,,,7,FF,65.33335435,37.9999904,1,0,0,response1disk_5,6,3.3833,11.33339343,-3.333344162,1,0,0,rectangle_8,88.66668838,28.66665679,1,0,0,-2.666606983,4.666656077,1,0,0,0,1,1,3,1,61035f57b8399021c313c379,610364a49d089ebea6141013,2021-07-29_22h32.37.648,Simcolourproject_2stim_asymm_v5,2020.2.10,Win32,60,61025ae37ef11b136ea224fe,response1disk_7,6,3.5176,6,"[2,5]",rectangle_4,,,,,,,,,,,,,,,,,,,,,,,,,,,,,,,,,,,,,,,,
,,,,,,,,,,,,141,PF,-49.99998242,-86.00001329,1,0,0,response5disk_5,3,3.7662,-5.999981105,2.666656017,1,0,0,rectangle_8,-5.999981105,2.666656017,1,0,0,-5.999981105,2.666656017,1,0,0,0,2,2,6,1,61035f57b8399021c313c379,610364a49d089ebea6141013,2021-07-29_22h32.37.648,Simcolourproject_2stim_asymm_v5,2020.2.10,Win32,60,61025ae37ef11b136ea224fe,,,,,,,,,,,,,,,,,,,,,,,,,,,,,,,,,,,,,,,,,,,,,,
,,,,,,,,,,,,123,PF,34.66668677,-82.66667986,1,0,0,response3disk_5,4,4.9155,1.9735E-05,4.666656077,1,0,0,rectangle_8,1.9735E-05,4.666656077,1,0,0,1.9735E-05,4.666656077,1,0,0,0,3,3,4,1,61035f57b8399021c313c379,610364a49d089ebea6141013,2021-07-29_22h32.37.648,Simcolourproject_2stim_asymm_v5,2020.2.10,Win32,60,61025ae37ef11b136ea224fe,,,,,,,,,,,,,,,,,,,,,,,,,,,,,,,,,,,,,,,,,,,,,,
,,,,,,,,,,,,26,FF,42.66668701,-78.00001305,1,0,0,response3disk_5,4,2.0489,-3.999981046,3.333322704,1,0,0,rectangle_8,88.66668838,26.66665673,1,0,0,8.000019312,2.666656017,1,0,0,0,4,4,5,1,61035f57b8399021c313c379,610364a49d089ebea6141013,2021-07-29_22h32.37.648,Simcolourproject_2stim_asymm_v5,2020.2.10,Win32,60,61025ae37ef11b136ea224fe,response1disk_7,6,2.6164,6,"[2,5]",rectangle_4,,,,,,,,,,,,,,,,,,,,,,,,,,,,,,,,,,,,,,,,
,,,,,,,,,,,,56,PF,40.00002027,-62.00001258,1,0,0,response3disk_5,4,1.7117,-5.333314419,11.33332294,1,0,0,rectangle_8,-5.333314419,11.33332294,1,0,0,-5.333314419,11.33332294,1,0,0,0,5,5,1,1,61035f57b8399021c313c379,610364a49d089ebea6141013,2021-07-29_22h32.37.648,Simcolourproject_2stim_asymm_v5,2020.2.10,Win32,60,61025ae37ef11b136ea224fe,,,,,,,,,,,,,,,,,,,,,,,,,,,,,,,,,,,,,,,,,,,,,,
,,,,,,,,,,,,125,FF,54.00002068,-37.33334517,1,0,0,response3disk_5,5,3.1162,2.000019133,7.99998951,1,0,0,rectangle_8,2.000019133,7.99998951,1,0,0,2.000019133,7.99998951,1,0,0,0,6,6,0,1,61035f57b8399021c313c379,610364a49d089ebea6141013,2021-07-29_22h32.37.648,Simcolourproject_2stim_asymm_v5,2020.2.10,Win32,60,61025ae37ef11b136ea224fe,,,,,,,,,,,,,,,,,,,,,,,,,,,,,,,,,,,,,,,,,,,,,,
,,,,,,,,,,,,,FF,,,,,,,,4.5171,,,,,,,,,,,,,,,,,,,,,,61035f57b8399021c313c379,610364a49d089ebea6141013,2021-07-29_22h32.37.648,Simcolourproject_2stim_asymm_v5,2020.2.10,Win32,60,61025ae37ef11b136ea224fe,,,,,,,space,2.5628,891,-88.66660955,-43.33334535,1,0,0,response5disk,,2,10.66668606,1.999989331,1,0,0,rectangle,10.66668606,1.999989331,1,0,0,10.66668606,1.999989331,1,0,0,0,0,0,146,1,,,,,,,,
,,,,,,,,,,,,,FF,,,,,,,,3.0839,,,,,,,,,,,,,,,,,,,,,,61035f57b8399021c313c379,610364a49d089ebea6141013,2021-07-29_22h32.37.648,Simcolourproject_2stim_asymm_v5,2020.2.10,Win32,60,61025ae37ef11b136ea224fe,,,,,,,,,178,48.66668719,73.33330444,1,0,0,response1disk,,7,1.9735E-05,-1.07288E-05,1,0,0,rectangle,1.9735E-05,-1.07288E-05,1,0,0,1.9735E-05,-1.07288E-05,1,0,0,0,1,1,11,1,,,,,,,,
,,,,,,,,,,,,,FF,,,,,,,,2.4159,,,,,,,,,,,,,,,,,,,,,,61035f57b8399021c313c379,610364a49d089ebea6141013,2021-07-29_22h32.37.648,Simcolourproject_2stim_asymm_v5,2020.2.10,Win32,60,61025ae37ef11b136ea224fe,,,,,,,,,838,72.00002122,41.33330349,1,0,0,response1disk,,6,-4.666607042,1.333322644,1,0,0,rectangle,-4.666607042,1.333322644,1,0,0,-4.666607042,1.333322644,1,0,0,0,2,2,125,1,,,,,,,,
,,,,,,,,,,,,,FF,,,,,,,,1.2329,,,,,,,,,,,,,,,,,,,,,,61035f57b8399021c313c379,610364a49d089ebea6141013,2021-07-29_22h32.37.648,Simcolourproject_2stim_asymm_v5,2020.2.10,Win32,60,61025ae37ef11b136ea224fe,,,,,,,,,1023,27.33339391,83.33330474,1,0,0,response1disk,,7,-1.999980986,0.666655958,1,0,0,rectangle,-1.999980986,0.666655958,1,0,0,-1.999980986,0.666655958,1,0,0,0,3,3,88,1,,,,,,,,
,,,,,,,,,,,,,FF,,,,,,,,1.6665,,,,,,,,,,,,,,,,,,,,,,61035f57b8399021c313c379,610364a49d089ebea6141013,2021-07-29_22h32.37.648,Simcolourproject_2stim_asymm_v5,2020.2.10,Win32,60,61025ae37ef11b136ea224fe,,,,,,,,,1035,28.00001991,-58.66667914,1,0,0,response3disk,,4,-2.666606983,1.999989331,1,0,0,rectangle,-2.666606983,1.999989331,1,0,0,-2.666606983,1.999989331,1,0,0,0,4,4,47,1,,,,,,,,
,,,,,,,,,,,,,FF,,,,,,,,3.4827,,,,,,,,,,,,,,,,,,,,,,61035f57b8399021c313c379,610364a49d089ebea6141013,2021-07-29_22h32.37.648,Simcolourproject_2stim_asymm_v5,2020.2.10,Win32,60,61025ae37ef11b136ea224fe,,,,,,,,,1892,-45.9999823,-78.66667974,1,0,0,response5disk,,3,1.333393137,1.333322644,1,0,0,rectangle,1.333393137,1.333322644,1,0,0,1.333393137,1.333322644,1,0,0,0,5,5,109,1,,,,,,,,
,,,,,,,,,,,,,FF,,,,,,,,2.6499,,,,,,,,,,,,,,,,,,,,,,61035f57b8399021c313c379,610364a49d089ebea6141013,2021-07-29_22h32.37.648,Simcolourproject_2stim_asymm_v5,2020.2.10,Win32,60,61025ae37ef11b136ea224fe,,,,,,,,,1302,-31.99998188,-92.66668016,1,0,0,response5disk,,3,-1.3333143,1.333322644,1,0,0,rectangle,-1.3333143,1.333322644,1,0,0,-1.3333143,1.333322644,1,0,0,0,6,6,32,1,,,,,,,,
,,,,,,,,,,,,,FF,,,,,,,,4.3824,,,,,,,,,,,,,,,,,,,,,,61035f57b8399021c313c379,610364a49d089ebea6141013,2021-07-29_22h32.37.648,Simcolourproject_2stim_asymm_v5,2020.2.10,Win32,60,61025ae37ef11b136ea224fe,,,,,,,,,3573,52.00002062,86.66665852,1,0,0,response1disk,,7,14.66668618,2.666656017,1,0,0,rectangle,14.66668618,2.666656017,1,0,0,14.66668618,2.666656017,1,0,0,0,7,7,76,1,,,,,,,,
,,,,,,,,,,,,,FF,,,,,,,,2.6167,,,,,,,,,,,,,,,,,,,,,,61035f57b8399021c313c379,610364a49d089ebea6141013,2021-07-29_22h32.37.648,Simcolourproject_2stim_asymm_v5,2020.2.10,Win32,60,61025ae37ef11b136ea224fe,,,,,,,,,2084,54.66668737,-30.66667831,1,0,0,response3disk,,5,-13.99998134,1.999989331,1,0,0,rectangle,-13.99998134,1.999989331,1,0,0,-13.99998134,1.999989331,1,0,0,0,8,8,147,1,,,,,,,,
,,,,,,,,,,,,,FF,,,,,,,,1.5163,,,,,,,,,,,,,,,,,,,,,,61035f57b8399021c313c379,610364a49d089ebea6141013,2021-07-29_22h32.37.648,Simcolourproject_2stim_asymm_v5,2020.2.10,Win32,60,61025ae37ef11b136ea224fe,,,,,,,,,4065,58.0000208,-24.66667813,1,0,0,response3disk,,5,2.000019133,-0.666677415,1,0,0,rectangle,2.000019133,-0.666677415,1,0,0,2.000019133,-0.666677415,1,0,0,0,9,9,34,1,,,,,,,,
,,,,,,,,,,,,,FF,,,,,,,,1.7494,,,,,,,,,,,,,,,,,,,,,,61035f57b8399021c313c379,610364a49d089ebea6141013,2021-07-29_22h32.37.648,Simcolourproject_2stim_asymm_v5,2020.2.10,Win32,60,61025ae37ef11b136ea224fe,,,,,,,,,309,72.00002122,48.66665739,1,0,0,response1disk,,6,2.000019133,-2.000010788,1,0,0,rectangle,2.000019133,-2.000010788,1,0,0,2.000019133,-2.000010788,1,0,0,0,10,10,75,1,,,,,,,,
,,,,,,,,,,,,,FF,,,,,,,,1.8493,,,,,,,,,,,,,,,,,,,,,,61035f57b8399021c313c379,610364a49d089ebea6141013,2021-07-29_22h32.37.648,Simcolourproject_2stim_asymm_v5,2020.2.10,Win32,60,61025ae37ef11b136ea224fe,,,,,,,,,3374,-79.33331662,-49.33334553,1,0,0,response5disk,,2,14.00001949,-1.07288E-05,1,0,0,rectangle,14.00001949,-1.07288E-05,1,0,0,14.00001949,-1.07288E-05,1,0,0,0,11,11,10,1,,,,,,,,
,,,,,,,,,,,,,FF,,,,,,,,1.2832,,,,,,,,,,,,,,,,,,,,,,61035f57b8399021c313c379,610364a49d089ebea6141013,2021-07-29_22h32.37.648,Simcolourproject_2stim_asymm_v5,2020.2.10,Win32,60,61025ae37ef11b136ea224fe,,,,,,,,,1235,-35.33331531,-74.00001293,1,0,0,response5disk,,3,13.33339349,0.666655958,1,0,0,rectangle,13.33339349,0.666655958,1,0,0,13.33339349,0.666655958,1,0,0,0,12,12,130,1,,,,,,,,
,,,,,,,,,,,,,FF,,,,,,,,1.4499,,,,,,,,,,,,,,,,,,,,,,61035f57b8399021c313c379,610364a49d089ebea6141013,2021-07-29_22h32.37.648,Simcolourproject_2stim_asymm_v5,2020.2.10,Win32,60,61025ae37ef11b136ea224fe,,,,,,,,,414,82.00002152,-38.00001186,1,0,0,response3disk,,5,-3.999981046,3.333322704,1,0,0,rectangle,-3.999981046,3.333322704,1,0,0,-3.999981046,3.333322704,1,0,0,0,13,13,33,1,,,,,,,,
,,,,,,,,,,,,,FF,,,,,,,,1.7327,,,,,,,,,,,,,,,,,,,,,,61035f57b8399021c313c379,610364a49d089ebea6141013,2021-07-29_22h32.37.648,Simcolourproject_2stim_asymm_v5,2020.2.10,Win32,60,61025ae37ef11b136ea224fe,,,,,,,,,2912,78.0000214,47.9999907,1,0,0,response1disk,,6,1.333393137,-3.333344162,1,0,0,rectangle,1.333393137,-3.333344162,1,0,0,1.333393137,-3.333344162,1,0,0,0,14,14,156,1,,,,,,,,
,,,,,,,,,,,,,FF,,,,,,,,1.8153,,,,,,,,,,,,,,,,,,,,,,61035f57b8399021c313c379,610364a49d089ebea6141013,2021-07-29_22h32.37.648,Simcolourproject_2stim_asymm_v5,2020.2.10,Win32,60,61025ae37ef11b136ea224fe,,,,,,,,,2309,42.00002033,93.33330504,0,0,1,response1disk,,7,0.66668576,5.333322763,1,0,0,rectangle,0.66668576,5.333322763,1,0,0,0.66668576,5.333322763,1,0,0,0,15,15,12,1,,,,,,,,
,,,,,,,,,,,,,FF,,,,,,,,0.9158,,,,,,,,,,,,,,,,,,,,,,61035f57b8399021c313c379,610364a49d089ebea6141013,2021-07-29_22h32.37.648,Simcolourproject_2stim_asymm_v5,2020.2.10,Win32,60,61025ae37ef11b136ea224fe,,,,,,,,,772,74.66668797,37.33330337,1,0,0,response1disk,,6,-7.333314478,7.99998951,1,0,0,rectangle,-107.9999841,-48.00001216,1,0,0,14.66668618,-1.07288E-05,1,0,0,0,16,16,35,1,,response5disk_3,TRUE,2,2,"[214,249,36,317,81,125,210,120,98,50,100,158,318,95,147,131,177,17,163,299]",2.7682,rectangle
,,,,,,,,,,,,,FF,,,,,,,,1.9333,,,,,,,,,,,,,,,,,,,,,,61035f57b8399021c313c379,610364a49d089ebea6141013,2021-07-29_22h32.37.648,Simcolourproject_2stim_asymm_v5,2020.2.10,Win32,60,61025ae37ef11b136ea224fe,,,,,,,,,4224,-66.66660889,29.99999017,1,0,0,response7disk,,1,4.666685879,1.333322644,1,0,0,rectangle,4.666685879,1.333322644,1,0,0,4.666685879,1.333322644,1,0,0,0,17,17,51,1,,,,,,,,
,,,,,,,,,,,,,FF,,,,,,,,1.0502,,,,,,,,,,,,,,,,,,,,,,61035f57b8399021c313c379,610364a49d089ebea6141013,2021-07-29_22h32.37.648,Simcolourproject_2stim_asymm_v5,2020.2.10,Win32,60,61025ae37ef11b136ea224fe,,,,,,,,,3169,-35.999982,-64.00001264,1,0,0,response5disk,,3,-11.99998128,-2.666677475,1,0,0,rectangle,-11.99998128,-2.666677475,1,0,0,-11.99998128,-2.666677475,1,0,0,0,18,18,89,1,,,,,,,,
,,,,,,,,,,,,,FF,,,,,,,,0.9331,,,,,,,,,,,,,,,,,,,,,,61035f57b8399021c313c379,610364a49d089ebea6141013,2021-07-29_22h32.37.648,Simcolourproject_2stim_asymm_v5,2020.2.10,Win32,60,61025ae37ef11b136ea224fe,,,,,,,,,264,-71.33331639,-37.33334517,1,0,0,response5disk,,2,-1.999980986,4.666656077,1,0,0,rectangle,-1.999980986,4.666656077,1,0,0,-1.999980986,4.666656077,1,0,0,0,19,19,137,1,,,,,,,,
,,,,,,,,,,,,,FF,,,,,,,,2.483,,,,,,,,,,,,,,,,,,,,,,61035f57b8399021c313c379,610364a49d089ebea6141013,2021-07-29_22h32.37.648,Simcolourproject_2stim_asymm_v5,2020.2.10,Win32,60,61025ae37ef11b136ea224fe,,,,,,,,,2329,24.00001979,-74.00001293,1,0,0,response3disk,,4,8.666685998,11.33332294,1,0,0,rectangle,8.666685998,11.33332294,1,0,0,8.666685998,11.33332294,1,0,0,0,20,20,127,1,,,,,,,,
,,,,,,,,,,,,,FF,,,,,,,,2.9331,,,,,,,,,,,,,,,,,,,,,,61035f57b8399021c313c379,610364a49d089ebea6141013,2021-07-29_22h32.37.648,Simcolourproject_2stim_asymm_v5,2020.2.10,Win32,60,61025ae37ef11b136ea224fe,,,,,,,,,479,-48.66660835,-91.33334678,1,0,0,response5disk,,3,-1.999980986,5.333322763,1,0,0,rectangle,-1.999980986,5.333322763,1,0,0,-1.999980986,5.333322763,1,0,0,0,21,21,7,1,,,,,,,,
,,,,,,,,,,,,,FF,,,,,,,,1.5667,,,,,,,,,,,,,,,,,,,,,,61035f57b8399021c313c379,610364a49d089ebea6141013,2021-07-29_22h32.37.648,Simcolourproject_2stim_asymm_v5,2020.2.10,Win32,60,61025ae37ef11b136ea224fe,,,,,,,,,3714,-75.99998319,-46.0000121,1,0,0,response5disk,,2,22.66668642,0.666655958,1,0,0,rectangle,22.66668642,0.666655958,1,0,0,22.66668642,0.666655958,1,0,0,0,22,22,118,1,,,,,,,,
,,,,,,,,,,,,,FF,,,,,,,,1.1999,,,,,,,,,,,,,,,,,,,,,,61035f57b8399021c313c379,610364a49d089ebea6141013,2021-07-29_22h32.37.648,Simcolourproject_2stim_asymm_v5,2020.2.10,Win32,60,61025ae37ef11b136ea224fe,,,,,,,,,943,74.00002128,41.99999052,1,0,0,response1disk,,6,-1.999980986,-0.666677415,1,0,0,rectangle,-1.999980986,-0.666677415,1,0,0,-1.999980986,-0.666677415,1,0,0,0,23,23,116,1,,,,,,,,
,,,,,,,,,,,,,FF,,,,,,,,0.9995,,,,,,,,,,,,,,,,,,,,,,61035f57b8399021c313c379,610364a49d089ebea6141013,2021-07-29_22h32.37.648,Simcolourproject_2stim_asymm_v5,2020.2.10,Win32,60,61025ae37ef11b136ea224fe,,,,,,,,,4109,44.66668707,83.99999177,1,0,0,response1disk,,7,-2.666606983,5.99998945,1,0,0,rectangle,-2.666606983,5.99998945,1,0,0,-2.666606983,5.99998945,1,0,0,0,24,24,91,1,,,,,,,,
,,,,,,,,,,,,,FF,,,,,,,,1.5496,,,,,,,,,,,,,,,,,,,,,,61035f57b8399021c313c379,610364a49d089ebea6141013,2021-07-29_22h32.37.648,Simcolourproject_2stim_asymm_v5,2020.2.10,Win32,60,61025ae37ef11b136ea224fe,,,,,,,,,1085,87.33335501,16.66665643,1,0,0,response1disk,,6,-0.666606923,-2.666677475,1,0,0,rectangle,-0.666606923,-2.666677475,1,0,0,-0.666606923,-2.666677475,1,0,0,0,25,25,48,1,,,,,,,,
,,,,,,,,,,,,,FF,,,,,,,,1.3992,,,,,,,,,,,,,,,,,,,,,,61035f57b8399021c313c379,610364a49d089ebea6141013,2021-07-29_22h32.37.648,Simcolourproject_2stim_asymm_v5,2020.2.10,Win32,60,61025ae37ef11b136ea224fe,,,,,,,,,376,57.33335412,-39.33334523,1,0,0,response3disk,,5,6.000019252,5.99998945,1,0,0,rectangle,6.000019252,5.99998945,1,0,0,6.000019252,5.99998945,1,0,0,0,26,26,112,1,,,,,,,,
,,,,,,,,,,,,,FF,,,,,,,,0.9828,,,,,,,,,,,,,,,,,,,,,,61035f57b8399021c313c379,610364a49d089ebea6141013,2021-07-29_22h32.37.648,Simcolourproject_2stim_asymm_v5,2020.2.10,Win32,60,61025ae37ef11b136ea224fe,,,,,,,,,2618,54.66668737,-25.33334482,1,0,0,response3disk,,5,-1.999980986,8.666656196,1,0,0,rectangle,-1.999980986,8.666656196,1,0,0,-1.999980986,8.666656196,1,0,0,0,27,27,113,1,,,,,,,,
,,,,,,,,,,,,,FF,,,,,,,,1.2167,,,,,,,,,,,,,,,,,,,,,,61035f57b8399021c313c379,610364a49d089ebea6141013,2021-07-29_22h32.37.648,Simcolourproject_2stim_asymm_v5,2020.2.10,Win32,60,61025ae37ef11b136ea224fe,,,,,,,,,112,70.66668785,39.33330343,1,0,0,response1disk,,6,-2.666606983,-4.000010848,1,0,0,rectangle,-2.666606983,-4.000010848,1,0,0,-2.666606983,-4.000010848,1,0,0,0,28,28,149,1,,,,,,,,
,,,,,,,,,,,,,FF,,,,,,,,0.8502,,,,,,,,,,,,,,,,,,,,,,61035f57b8399021c313c379,610364a49d089ebea6141013,2021-07-29_22h32.37.648,Simcolourproject_2stim_asymm_v5,2020.2.10,Win32,60,61025ae37ef11b136ea224fe,,,,,,,,,1013,70.00002116,47.9999907,1,0,0,response1disk,,6,-9.999981225,11.99998963,1,0,0,rectangle,-9.999981225,11.99998963,1,0,0,-9.999981225,11.99998963,1,0,0,0,29,29,46,1,,,,,,,,
,,,,,,,,,,,,,FF,,,,,,,,1.0507,,,,,,,,,,,,,,,,,,,,,,61035f57b8399021c313c379,610364a49d089ebea6141013,2021-07-29_22h32.37.648,Simcolourproject_2stim_asymm_v5,2020.2.10,Win32,60,61025ae37ef11b136ea224fe,,,,,,,,,3078,42.00002033,79.99999166,1,0,0,response1disk,,7,4.666685879,-0.666677415,1,0,0,rectangle,4.666685879,-0.666677415,1,0,0,4.666685879,-0.666677415,1,0,0,0,30,30,83,1,,,,,,,,
,,,,,,,,,,,,,FF,,,,,,,,2.2491,,,,,,,,,,,,,,,,,,,,,,61035f57b8399021c313c379,610364a49d089ebea6141013,2021-07-29_22h32.37.648,Simcolourproject_2stim_asymm_v5,2020.2.10,Win32,60,61025ae37ef11b136ea224fe,,,,,,,,,3936,-30.66660782,90.66665864,1,0,0,response7disk,,0,-1.999980986,-1.07288E-05,1,0,0,rectangle,-1.999980986,-1.07288E-05,1,0,0,-1.999980986,-1.07288E-05,1,0,0,0,31,31,100,1,,,,,,,,
,,,,,,,,,,,,,FF,,,,,,,,0.9996,,,,,,,,,,,,,,,,,,,,,,61035f57b8399021c313c379,610364a49d089ebea6141013,2021-07-29_22h32.37.648,Simcolourproject_2stim_asymm_v5,2020.2.10,Win32,60,61025ae37ef11b136ea224fe,,,,,,,,,1965,-77.99998325,33.99999028,1,0,0,response7disk,,1,-3.999981046,-1.333344102,1,0,0,rectangle,-3.999981046,-1.333344102,1,0,0,-3.999981046,-1.333344102,1,0,0,0,32,32,25,1,,,,,,,,
,,,,,,,,,,,,,FF,,,,,,,,1.7347,,,,,,,,,,,,,,,,,,,,,,61035f57b8399021c313c379,610364a49d089ebea6141013,2021-07-29_22h32.37.648,Simcolourproject_2stim_asymm_v5,2020.2.10,Win32,60,61025ae37ef11b136ea224fe,,,,,,,,,2763,39.33339427,-84.00001323,1,0,0,response3disk,,4,-6.666607102,11.33332294,0,0,1,rectangle,-6.666607102,11.33332294,0,0,1,-6.666607102,11.33332294,0,0,1,0,33,33,27,1,,,,,,,,
,,,,,,,,,,,,,FF,,,,,,,,2.9325,,,,,,,,,,,,,,,,,,,,,,61035f57b8399021c313c379,610364a49d089ebea6141013,2021-07-29_22h32.37.648,Simcolourproject_2stim_asymm_v5,2020.2.10,Win32,60,61025ae37ef11b136ea224fe,,,,,,,,,921,54.00002068,36.66665703,1,0,0,response1disk,,6,-3.333314359,5.99998945,1,0,0,rectangle,-3.333314359,5.99998945,1,0,0,-3.333314359,5.99998945,1,0,0,0,34,34,102,1,,,,,,,,
,,,,,,,,,,,,,FF,,,,,,,,1.8165,,,,,,,,,,,,,,,,,,,,,,61035f57b8399021c313c379,610364a49d089ebea6141013,2021-07-29_22h32.37.648,Simcolourproject_2stim_asymm_v5,2020.2.10,Win32,60,61025ae37ef11b136ea224fe,,,,,,,,,2249,69.33335447,-34.66667843,1,0,0,response3disk,,5,-2.666606983,7.333322823,1,0,0,rectangle,-35.33331531,83.33330474,1,0,0,2.000019133,-7.333344281,1,0,0,0,35,35,108,1,,response7disk_3,TRUE,0,0,"[214,249,36,317,81,125,210,120,98,50,100,158,318,95,147,131,177,17,163,299]",1.897,rectangle
,,,,,,,,,,,,,FF,,,,,,,,3.5657,,,,,,,,,,,,,,,,,,,,,,61035f57b8399021c313c379,610364a49d089ebea6141013,2021-07-29_22h32.37.648,Simcolourproject_2stim_asymm_v5,2020.2.10,Win32,60,61025ae37ef11b136ea224fe,,,,,,,,,2932,-68.66660895,-28.00001156,1,0,0,response5disk,,2,-7.999981165,7.333322823,1,0,0,rectangle,-7.999981165,7.333322823,1,0,0,-7.999981165,7.333322823,1,0,0,0,36,36,52,1,,,,,,,,
,,,,,,,,,,,,,FF,,,,,,,,1.933,,,,,,,,,,,,,,,,,,,,,,61035f57b8399021c313c379,610364a49d089ebea6141013,2021-07-29_22h32.37.648,Simcolourproject_2stim_asymm_v5,2020.2.10,Win32,60,61025ae37ef11b136ea224fe,,,,,,,,,3629,63.33335429,-34.00001174,1,0,0,response3disk,,5,2.000019133,-4.000010848,1,0,0,rectangle,2.000019133,-4.000010848,1,0,0,2.000019133,-4.000010848,1,0,0,0,37,37,43,1,,,,,,,,
,,,,,,,,,,,,,FF,,,,,,,,1.5498,,,,,,,,,,,,,,,,,,,,,,61035f57b8399021c313c379,610364a49d089ebea6141013,2021-07-29_22h32.37.648,Simcolourproject_2stim_asymm_v5,2020.2.10,Win32,60,61025ae37ef11b136ea224fe,,,,,,,,,3015,49.33335388,83.99999177,1,0,0,response1disk,,7,-3.333314359,10.66665626,1,0,0,rectangle,-3.333314359,10.66665626,1,0,0,-3.333314359,10.66665626,1,0,0,0,38,38,66,1,,,,,,,,
,,,,,,,,,,,,,FF,,,,,,,,1.2499,,,,,,,,,,,,,,,,,,,,,,61035f57b8399021c313c379,610364a49d089ebea6141013,2021-07-29_22h32.37.648,Simcolourproject_2stim_asymm_v5,2020.2.10,Win32,60,61025ae37ef11b136ea224fe,,,,,,,,,1093,58.66668749,37.33330337,1,0,0,response1disk,,6,-12.66660728,3.333322704,1,0,0,rectangle,-12.66660728,3.333322704,1,0,0,-12.66660728,3.333322704,1,0,0,0,39,39,69,1,,,,,,,,
,,,,,,,,,,,,,FF,,,,,,,,1.2999,,,,,,,,,,,,,,,,,,,,,,61035f57b8399021c313c379,610364a49d089ebea6141013,2021-07-29_22h32.37.648,Simcolourproject_2stim_asymm_v5,2020.2.10,Win32,60,61025ae37ef11b136ea224fe,,,,,,,,,2383,49.33335388,-30.66667831,1,0,0,response3disk,,5,1.9735E-05,7.99998951,1,0,0,rectangle,1.9735E-05,7.99998951,1,0,0,1.9735E-05,7.99998951,1,0,0,0,40,40,135,1,,,,,,,,
,,,,,,,,,,,,,FF,,,,,,,,1.4663,,,,,,,,,,,,,,,,,,,,,,61035f57b8399021c313c379,610364a49d089ebea6141013,2021-07-29_22h32.37.648,Simcolourproject_2stim_asymm_v5,2020.2.10,Win32,60,61025ae37ef11b136ea224fe,,,,,,,,,2033,-74.66660913,-47.33334547,1,0,0,response5disk,,2,1.333393137,-1.333344102,1,0,0,rectangle,1.333393137,-1.333344102,1,0,0,1.333393137,-1.333344102,1,0,0,0,41,41,92,1,,,,,,,,
,,,,,,,,,,,,,FF,,,,,,,,1.8326,,,,,,,,,,,,,,,,,,,,,,61035f57b8399021c313c379,610364a49d089ebea6141013,2021-07-29_22h32.37.648,Simcolourproject_2stim_asymm_v5,2020.2.10,Win32,60,61025ae37ef11b136ea224fe,,,,,,,,,3929,27.33339391,-94.66668022,1,0,0,response3disk,,4,-0.666606923,-0.666677415,1,0,0,rectangle,-0.666606923,-0.666677415,1,0,0,-0.666606923,-0.666677415,1,0,0,0,42,42,77,1,,,,,,,,
,,,,,,,,,,,,,FF,,,,,,,,1.4668,,,,,,,,,,,,,,,,,,,,,,61035f57b8399021c313c379,610364a49d089ebea6141013,2021-07-29_22h32.37.648,Simcolourproject_2stim_asymm_v5,2020.2.10,Win32,60,61025ae37ef11b136ea224fe,,,,,,,,,532,-22.66660758,-78.66667974,1,0,0,response5disk,,3,-15.33331472,-0.666677415,1,0,0,rectangle,-15.33331472,-0.666677415,1,0,0,-15.33331472,-0.666677415,1,0,0,0,43,43,95,1,,,,,,,,
,,,,,,,,,,,,,FF,,,,,,,,0.9161,,,,,,,,,,,,,,,,,,,,,,61035f57b8399021c313c379,610364a49d089ebea6141013,2021-07-29_22h32.37.648,Simcolourproject_2stim_asymm_v5,2020.2.10,Win32,60,61025ae37ef11b136ea224fe,,,,,,,,,2703,50.00002056,-70.00001281,1,0,0,response3disk,,4,11.33339343,5.333322763,1,0,0,rectangle,11.33339343,5.333322763,1,0,0,11.33339343,5.333322763,1,0,0,0,44,44,23,1,,,,,,,,
,,,,,,,,,,,,,FF,,,,,,,,1.4992,,,,,,,,,,,,,,,,,,,,,,61035f57b8399021c313c379,610364a49d089ebea6141013,2021-07-29_22h32.37.648,Simcolourproject_2stim_asymm_v5,2020.2.10,Win32,60,61025ae37ef11b136ea224fe,,,,,,,,,876,73.33335459,-37.33334517,1,0,0,response3disk,,5,15.33339355,-8.000010967,1,0,0,rectangle,15.33339355,-8.000010967,1,0,0,15.33339355,-8.000010967,1,0,0,0,45,45,142,1,,,,,,,,
,,,,,,,,,,,,,FF,,,,,,,,1.3164,,,,,,,,,,,,,,,,,,,,,,61035f57b8399021c313c379,610364a49d089ebea6141013,2021-07-29_22h32.37.648,Simcolourproject_2stim_asymm_v5,2020.2.10,Win32,60,61025ae37ef11b136ea224fe,,,,,,,,,2391,73.33335459,-39.33334523,1,0,0,response3disk,,5,-15.33331472,10.66665626,1,0,0,rectangle,-15.33331472,10.66665626,1,0,0,-15.33331472,10.66665626,1,0,0,0,46,46,6,1,,,,,,,,
,,,,,,,,,,,,,FF,,,,,,,,2.1491,,,,,,,,,,,,,,,,,,,,,,61035f57b8399021c313c379,610364a49d089ebea6141013,2021-07-29_22h32.37.648,Simcolourproject_2stim_asymm_v5,2020.2.10,Win32,60,61025ae37ef11b136ea224fe,,,,,,,,,2042,53.333354,-75.33334631,1,0,0,response3disk,,4,0.66668576,-0.666677415,1,0,0,rectangle,0.66668576,-0.666677415,1,0,0,0.66668576,-0.666677415,1,0,0,0,47,47,72,1,,,,,,,,
,,,,,,,,,,,,,FF,,,,,,,,1.6999,,,,,,,,,,,,,,,,,,,,,,61035f57b8399021c313c379,610364a49d089ebea6141013,2021-07-29_22h32.37.648,Simcolourproject_2stim_asymm_v5,2020.2.10,Win32,60,61025ae37ef11b136ea224fe,,,,,,,,,3667,80.00002146,-36.66667849,1,0,0,response3disk,,5,18.00001961,-2.000010788,1,0,0,rectangle,18.00001961,-2.000010788,1,0,0,18.00001961,-2.000010788,1,0,0,0,48,48,40,1,,,,,,,,
,,,,,,,,,,,,,FF,,,,,,,,0.9172,,,,,,,,,,,,,,,,,,,,,,61035f57b8399021c313c379,610364a49d089ebea6141013,2021-07-29_22h32.37.648,Simcolourproject_2stim_asymm_v5,2020.2.10,Win32,60,61025ae37ef11b136ea224fe,,,,,,,,,821,71.33335453,43.99999058,1,0,0,response1disk,,6,-19.33331484,1.999989331,1,0,0,rectangle,-33.99998194,89.99999195,1,0,0,8.666685998,-6.666677594,1,0,0,0,49,49,139,1,,response7disk_3,TRUE,0,0,"[214,249,36,317,81,125,210,120,98,50,100,158,318,95,147,131,177,17,163,299]",1.599,rectangle
,,,,,,,,,,,,,FF,,,,,,,,2.1654,,,,,,,,,,,,,,,,,,,,,,61035f57b8399021c313c379,610364a49d089ebea6141013,2021-07-29_22h32.37.648,Simcolourproject_2stim_asymm_v5,2020.2.10,Win32,60,61025ae37ef11b136ea224fe,,,,,,,,,577,-29.33331513,-85.33334661,1,0,0,response5disk,,3,-13.33331466,-0.666677415,1,0,0,rectangle,-13.33331466,-0.666677415,1,0,0,-13.33331466,-0.666677415,1,0,0,0,50,50,155,1,,,,,,,,
,,,,,,,,,,,,,FF,,,,,,,,0.833,,,,,,,,,,,,,,,,,,,,,,61035f57b8399021c313c379,610364a49d089ebea6141013,2021-07-29_22h32.37.648,Simcolourproject_2stim_asymm_v5,2020.2.10,Win32,60,61025ae37ef11b136ea224fe,,,,,,,,,3574,34.66668677,-66.0000127,1,0,0,response3disk,,4,-5.999981105,5.99998945,1,0,0,rectangle,-5.999981105,5.99998945,1,0,0,-5.999981105,5.99998945,1,0,0,0,51,51,58,1,,,,,,,,
,,,,,,,,,,,,,FF,,,,,,,,1.3165,,,,,,,,,,,,,,,,,,,,,,61035f57b8399021c313c379,610364a49d089ebea6141013,2021-07-29_22h32.37.648,Simcolourproject_2stim_asymm_v5,2020.2.10,Win32,60,61025ae37ef11b136ea224fe,,,,,,,,,4067,46.66668713,-76.00001299,1,0,0,response3disk,,4,-7.999981165,4.666656077,1,0,0,rectangle,-7.999981165,4.666656077,1,0,0,-7.999981165,4.666656077,1,0,0,0,52,52,30,1,,,,,,,,
,,,,,,,,,,,,,FF,,,,,,,,1.0502,,,,,,,,,,,,,,,,,,,,,,61035f57b8399021c313c379,610364a49d089ebea6141013,2021-07-29_22h32.37.648,Simcolourproject_2stim_asymm_v5,2020.2.10,Win32,60,61025ae37ef11b136ea224fe,,,,,,,,,490,41.33339433,-72.00001287,1,0,0,response3disk,,4,1.333393137,5.333322763,1,0,0,rectangle,1.333393137,5.333322763,1,0,0,1.333393137,5.333322763,1,0,0,0,53,53,81,1,,,,,,,,
,,,,,,,,,,,,,FF,,,,,,,,1.2002,,,,,,,,,,,,,,,,,,,,,,61035f57b8399021c313c379,610364a49d089ebea6141013,2021-07-29_22h32.37.648,Simcolourproject_2stim_asymm_v5,2020.2.10,Win32,60,61025ae37ef11b136ea224fe,,,,,,,,,1500,66.66668773,-43.33334535,1,0,0,response3disk,,5,-8.666607161,3.333322704,1,0,0,rectangle,-8.666607161,3.333322704,1,0,0,-8.666607161,3.333322704,1,0,0,0,54,54,143,1,,,,,,,,
,,,,,,,,,,,,,FF,,,,,,,,1.1501,,,,,,,,,,,,,,,,,,,,,,61035f57b8399021c313c379,610364a49d089ebea6141013,2021-07-29_22h32.37.648,Simcolourproject_2stim_asymm_v5,2020.2.10,Win32,60,61025ae37ef11b136ea224fe,,,,,,,,,3292,45.33335376,-71.33334619,1,0,0,response3disk,,4,-4.666607042,-2.000010788,1,0,0,rectangle,-4.666607042,-2.000010788,1,0,0,-4.666607042,-2.000010788,1,0,0,0,55,55,44,1,,,,,,,,
,,,,,,,,,,,,,FF,,,,,,,,1.3666,,,,,,,,,,,,,,,,,,,,,,61035f57b8399021c313c379,610364a49d089ebea6141013,2021-07-29_22h32.37.648,Simcolourproject_2stim_asymm_v5,2020.2.10,Win32,60,61025ae37ef11b136ea224fe,,,,,,,,,828,-23.99998164,-88.66668004,1,0,0,response5disk,,3,-10.66660722,-2.666677475,1,0,0,rectangle,-10.66660722,-2.666677475,1,0,0,-10.66660722,-2.666677475,1,0,0,0,56,56,128,1,,,,,,,,
,,,,,,,,,,,,,FF,,,,,,,,1.8165,,,,,,,,,,,,,,,,,,,,,,61035f57b8399021c313c379,610364a49d089ebea6141013,2021-07-29_22h32.37.648,Simcolourproject_2stim_asymm_v5,2020.2.10,Win32,60,61025ae37ef11b136ea224fe,,,,,,,,,3750,-80.66660931,-44.00001204,1,0,0,response5disk,,2,-7.333314478,-5.333344221,1,0,0,rectangle,-7.333314478,-5.333344221,1,0,0,-7.333314478,-5.333344221,1,0,0,0,57,57,98,1,,,,,,,,
,,,,,,,,,,,,,FF,,,,,,,,1.8332,,,,,,,,,,,,,,,,,,,,,,61035f57b8399021c313c379,610364a49d089ebea6141013,2021-07-29_22h32.37.648,Simcolourproject_2stim_asymm_v5,2020.2.10,Win32,60,61025ae37ef11b136ea224fe,,,,,,,,,1520,80.00002146,-44.00001204,0,0,1,response3disk,,5,-7.999981165,5.333322763,0,0,1,rectangle,-7.999981165,5.333322763,0,0,1,-7.999981165,5.333322763,0,0,1,0,58,58,121,1,,,,,,,,
,,,,,,,,,,,,,FF,,,,,,,,2.5167,,,,,,,,,,,,,,,,,,,,,,61035f57b8399021c313c379,610364a49d089ebea6141013,2021-07-29_22h32.37.648,Simcolourproject_2stim_asymm_v5,2020.2.10,Win32,60,61025ae37ef11b136ea224fe,,,,,,,,,3284,-76.66660919,-53.33334565,1,0,0,response5disk,,2,-5.333314419,5.333322763,1,0,0,rectangle,-5.333314419,5.333322763,1,0,0,-5.333314419,5.333322763,1,0,0,0,59,59,131,1,,,,,,,,
,,,,,,,,,,,,,FF,,,,,,,,1.5834,,,,,,,,,,,,,,,,,,,,,,61035f57b8399021c313c379,610364a49d089ebea6141013,2021-07-29_22h32.37.648,Simcolourproject_2stim_asymm_v5,2020.2.10,Win32,60,61025ae37ef11b136ea224fe,,,,,,,,,3310,35.33339415,-96.66668028,1,0,0,response3disk,,4,0.66668576,6.666656137,1,0,0,rectangle,0.66668576,6.666656137,1,0,0,0.66668576,6.666656137,1,0,0,0,60,60,5,1,,,,,,,,
,,,,,,,,,,,,,FF,,,,,,,,0.9002,,,,,,,,,,,,,,,,,,,,,,61035f57b8399021c313c379,610364a49d089ebea6141013,2021-07-29_22h32.37.648,Simcolourproject_2stim_asymm_v5,2020.2.10,Win32,60,61025ae37ef11b136ea224fe,,,,,,,,,4283,-44.66660823,-78.00001305,1,0,0,response5disk,,3,-21.3333149,3.99998939,1,0,0,rectangle,-21.3333149,3.99998939,1,0,0,-21.3333149,3.99998939,1,0,0,0,61,61,55,1,,,,,,,,
,,,,,,,,,,,,,FF,,,,,,,,6.9477,,,,,,,,,,,,,,,,,,,,,,61035f57b8399021c313c379,610364a49d089ebea6141013,2021-07-29_22h32.37.648,Simcolourproject_2stim_asymm_v5,2020.2.10,Win32,60,61025ae37ef11b136ea224fe,,,,,,,,,3916,-29.33331513,-80.00001311,1,0,0,response5disk,,3,-3.333314359,9.333322883,1,0,0,rectangle,-3.333314359,9.333322883,1,0,0,-3.333314359,9.333322883,1,0,0,0,62,62,56,1,,,,,,,,
,,,,,,,,,,,,,FF,,,,,,,,1.8501,,,,,,,,,,,,,,,,,,,,,,61035f57b8399021c313c379,610364a49d089ebea6141013,2021-07-29_22h32.37.648,Simcolourproject_2stim_asymm_v5,2020.2.10,Win32,60,61025ae37ef11b136ea224fe,,,,,,,,,933,55.33335406,88.66665858,1,0,0,response1disk,,7,13.33339349,-6.000010908,1,0,0,rectangle,13.33339349,-6.000010908,1,0,0,13.33339349,-6.000010908,1,0,0,0,63,63,31,1,,,,,,,,
,,,,,,,,,,,,,FF,,,,,,,,1.2499,,,,,,,,,,,,,,,,,,,,,,61035f57b8399021c313c379,610364a49d089ebea6141013,2021-07-29_22h32.37.648,Simcolourproject_2stim_asymm_v5,2020.2.10,Win32,60,61025ae37ef11b136ea224fe,,,,,,,,,547,30.00001997,-76.00001299,1,0,0,response3disk,,4,-3.999981046,-1.07288E-05,1,0,0,rectangle,-3.999981046,-1.07288E-05,1,0,0,-3.999981046,-1.07288E-05,1,0,0,0,64,64,110,1,,,,,,,,
,,,,,,,,,,,,,FF,,,,,,,,0.9331,,,,,,,,,,,,,,,,,,,,,,61035f57b8399021c313c379,610364a49d089ebea6141013,2021-07-29_22h32.37.648,Simcolourproject_2stim_asymm_v5,2020.2.10,Win32,60,61025ae37ef11b136ea224fe,,,,,,,,,465,39.33339427,-59.33334583,1,0,0,response3disk,,4,-1.3333143,-1.07288E-05,1,0,0,rectangle,-1.3333143,-1.07288E-05,1,0,0,-1.3333143,-1.07288E-05,1,0,0,0,65,65,154,1,,,,,,,,
,,,,,,,,,,,,,FF,,,,,,,,0.7665,,,,,,,,,,,,,,,,,,,,,,61035f57b8399021c313c379,610364a49d089ebea6141013,2021-07-29_22h32.37.648,Simcolourproject_2stim_asymm_v5,2020.2.10,Win32,60,61025ae37ef11b136ea224fe,,,,,,,,,3334,42.66668701,-87.33334666,1,0,0,response3disk,,4,2.000019133,12.66665632,1,0,0,rectangle,2.000019133,12.66665632,1,0,0,2.000019133,12.66665632,1,0,0,0,66,66,13,1,,,,,,,,
,,,,,,,,,,,,,FF,,,,,,,,0.7846,,,,,,,,,,,,,,,,,,,,,,61035f57b8399021c313c379,610364a49d089ebea6141013,2021-07-29_22h32.37.648,Simcolourproject_2stim_asymm_v5,2020.2.10,Win32,60,61025ae37ef11b136ea224fe,,,,,,,,,3453,82.6666882,-19.33334464,1,0,0,response3disk,,5,1.9735E-05,11.33332294,1,0,0,rectangle,1.9735E-05,11.33332294,1,0,0,1.9735E-05,11.33332294,1,0,0,0,67,67,18,1,,,,,,,,
,,,,,,,,,,,,,FF,,,,,,,,0.7162,,,,,,,,,,,,,,,,,,,,,,61035f57b8399021c313c379,610364a49d089ebea6141013,2021-07-29_22h32.37.648,Simcolourproject_2stim_asymm_v5,2020.2.10,Win32,60,61025ae37ef11b136ea224fe,,,,,,,,,1696,67.33335441,-40.66667861,1,0,0,response3disk,,5,20.66668636,-6.666677594,1,0,0,rectangle,20.66668636,-6.666677594,1,0,0,20.66668636,-6.666677594,1,0,0,0,68,68,159,1,,,,,,,,
,,,,,,,,,,,,,FF,,,,,,,,0.7001,,,,,,,,,,,,,,,,,,,,,,61035f57b8399021c313c379,610364a49d089ebea6141013,2021-07-29_22h32.37.648,Simcolourproject_2stim_asymm_v5,2020.2.10,Win32,60,61025ae37ef11b136ea224fe,,,,,,,,,1997,104.6666889,38.66665709,1,0,0,response1disk,,6,2.000019133,12.66665632,1,0,0,rectangle,2.000019133,12.66665632,1,0,0,2.000019133,12.66665632,1,0,0,0,69,69,70,1,,,,,,,,
,,,,,,,,,,,,,FF,,,,,,,,0.7011,,,,,,,,,,,,,,,,,,,,,,61035f57b8399021c313c379,610364a49d089ebea6141013,2021-07-29_22h32.37.648,Simcolourproject_2stim_asymm_v5,2020.2.10,Win32,60,61025ae37ef11b136ea224fe,,,,,,,,,1237,38.00002021,-61.33334589,1,0,0,response3disk,,4,1.9735E-05,-4.666677535,1,0,0,rectangle,1.9735E-05,-4.666677535,1,0,0,1.9735E-05,-4.666677535,1,0,0,0,70,70,106,1,,,,,,,,
,,,,,,,,,,,,,FF,,,,,,,,1.1508,,,,,,,,,,,,,,,,,,,,,,61035f57b8399021c313c379,610364a49d089ebea6141013,2021-07-29_22h32.37.648,Simcolourproject_2stim_asymm_v5,2020.2.10,Win32,60,61025ae37ef11b136ea224fe,,,,,,,,,185,-77.99998325,-42.66667867,1,0,0,response5disk,,2,-21.3333149,-1.333344102,1,0,0,rectangle,-21.3333149,-1.333344102,1,0,0,-21.3333149,-1.333344102,1,0,0,0,71,71,85,1,,,,,,,,
,,,,,,,,,,,,,FF,,,,,,,,1.2498,,,,,,,,,,,,,,,,,,,,,,61035f57b8399021c313c379,610364a49d089ebea6141013,2021-07-29_22h32.37.648,Simcolourproject_2stim_asymm_v5,2020.2.10,Win32,60,61025ae37ef11b136ea224fe,,,,,,,,,1031,-27.99998176,-58.66667914,1,0,0,response5disk,,3,-8.666607161,-3.333344162,1,0,0,rectangle,-8.666607161,-3.333344162,1,0,0,-8.666607161,-3.333344162,1,0,0,0,72,72,122,1,,,,,,,,
,,,,,,,,,,,,,FF,,,,,,,,0.9052,,,,,,,,,,,,,,,,,,,,,,61035f57b8399021c313c379,610364a49d089ebea6141013,2021-07-29_22h32.37.648,Simcolourproject_2stim_asymm_v5,2020.2.10,Win32,60,61025ae37ef11b136ea224fe,,,,,,,,,2295,27.33339391,-66.0000127,1,0,0,response3disk,,4,1.333393137,-0.666677415,1,0,0,rectangle,1.333393137,-0.666677415,1,0,0,1.333393137,-0.666677415,1,0,0,0,73,73,54,1,,,,,,,,
,,,,,,,,,,,,,FF,,,,,,,,2.3327,,,,,,,,,,,,,,,,,,,,,,61035f57b8399021c313c379,610364a49d089ebea6141013,2021-07-29_22h32.37.648,Simcolourproject_2stim_asymm_v5,2020.2.10,Win32,60,61025ae37ef11b136ea224fe,,,,,,,,,3950,-23.33331496,-70.6666795,1,0,0,response5disk,,3,-11.3333146,10.66665626,1,0,0,rectangle,-11.3333146,10.66665626,1,0,0,-11.3333146,10.66665626,1,0,0,0,74,74,136,1,,,,,,,,
,,,,,,,,,,,,,FF,,,,,,,,1.2829,,,,,,,,,,,,,,,,,,,,,,61035f57b8399021c313c379,610364a49d089ebea6141013,2021-07-29_22h32.37.648,Simcolourproject_2stim_asymm_v5,2020.2.10,Win32,60,61025ae37ef11b136ea224fe,,,,,,,,,2741,94.66668856,27.99999011,1,0,0,response1disk,,6,-11.99998128,5.333322763,1,0,0,rectangle,-11.99998128,5.333322763,1,0,0,-11.99998128,5.333322763,1,0,0,0,75,75,107,1,,,,,,,,
,,,,,,,,,,,,,FF,,,,,,,,1.1836,,,,,,,,,,,,,,,,,,,,,,61035f57b8399021c313c379,610364a49d089ebea6141013,2021-07-29_22h32.37.648,Simcolourproject_2stim_asymm_v5,2020.2.10,Win32,60,61025ae37ef11b136ea224fe,,,,,,,,,323,64.00002098,92.6666587,1,0,0,response1disk,,7,10.66668606,2.666656017,1,0,0,rectangle,10.66668606,2.666656017,1,0,0,10.66668606,2.666656017,1,0,0,0,76,76,86,1,,,,,,,,
,,,,,,,,,,,,,FF,,,,,,,,0.7548,,,,,,,,,,,,,,,,,,,,,,61035f57b8399021c313c379,610364a49d089ebea6141013,2021-07-29_22h32.37.648,Simcolourproject_2stim_asymm_v5,2020.2.10,Win32,60,61025ae37ef11b136ea224fe,,,,,,,,,2271,62.00002092,32.66665691,1,0,0,response1disk,,6,-0.666606923,-0.666677415,1,0,0,rectangle,-0.666606923,-0.666677415,1,0,0,-0.666606923,-0.666677415,1,0,0,0,77,77,38,1,,,,,,,,
,,,,,,,,,,,,,FF,,,,,,,,1.1874,,,,,,,,,,,,,,,,,,,,,,61035f57b8399021c313c379,610364a49d089ebea6141013,2021-07-29_22h32.37.648,Simcolourproject_2stim_asymm_v5,2020.2.10,Win32,60,61025ae37ef11b136ea224fe,,,,,,,,,349,46.66668713,-81.33334649,1,0,0,response3disk,,4,-0.666606923,-7.333344281,1,0,0,rectangle,-0.666606923,-7.333344281,1,0,0,-0.666606923,-7.333344281,1,0,0,0,78,78,36,1,,,,,,,,
,,,,,,,,,,,,,FF,,,,,,,,0.9335,,,,,,,,,,,,,,,,,,,,,,61035f57b8399021c313c379,610364a49d089ebea6141013,2021-07-29_22h32.37.648,Simcolourproject_2stim_asymm_v5,2020.2.10,Win32,60,61025ae37ef11b136ea224fe,,,,,,,,,300,91.33335513,52.66665751,1,0,0,response1disk,,6,4.666685879,9.999989569,1,0,0,rectangle,4.666685879,9.999989569,1,0,0,4.666685879,9.999989569,1,0,0,0,79,79,151,1,,,,,,,,
,,,,,,,,,,,,,FF,,,,,,,,0.7667,,,,,,,,,,,,,,,,,,,,,,61035f57b8399021c313c379,610364a49d089ebea6141013,2021-07-29_22h32.37.648,Simcolourproject_2stim_asymm_v5,2020.2.10,Win32,60,61025ae37ef11b136ea224fe,,,,,,,,,735,67.33335441,-38.66667855,1,0,0,response3disk,,5,-9.999981225,2.666656017,1,0,0,rectangle,-90.66660961,19.99998987,1,0,0,-2.666606983,1.333322644,1,0,0,0,80,80,145,1,,response7disk_3,TRUE,1,1,"[214,249,36,317,81,125,210,120,98,50,100,158,318,95,147,131,177,17,163,299]",1.8322,rectangle
,,,,,,,,,,,,,FF,,,,,,,,1.2835,,,,,,,,,,,,,,,,,,,,,,61035f57b8399021c313c379,610364a49d089ebea6141013,2021-07-29_22h32.37.648,Simcolourproject_2stim_asymm_v5,2020.2.10,Win32,60,61025ae37ef11b136ea224fe,,,,,,,,,3381,-34.66660794,75.99999154,1,0,0,response7disk,,0,3.333393196,3.333322704,1,0,0,rectangle,3.333393196,3.333322704,1,0,0,3.333393196,3.333322704,1,0,0,0,81,81,133,1,,,,,,,,
,,,,,,,,,,,,,FF,,,,,,,,1.8168,,,,,,,,,,,,,,,,,,,,,,61035f57b8399021c313c379,610364a49d089ebea6141013,2021-07-29_22h32.37.648,Simcolourproject_2stim_asymm_v5,2020.2.10,Win32,60,61025ae37ef11b136ea224fe,,,,,,,,,4308,71.33335453,-44.66667873,1,0,0,response3disk,,5,5.333393256,-4.000010848,1,0,0,rectangle,5.333393256,-4.000010848,1,0,0,5.333393256,-4.000010848,1,0,0,0,82,82,132,1,,,,,,,,
,,,,,,,,,,,,,FF,,,,,,,,1.0011,,,,,,,,,,,,,,,,,,,,,,61035f57b8399021c313c379,610364a49d089ebea6141013,2021-07-29_22h32.37.648,Simcolourproject_2stim_asymm_v5,2020.2.10,Win32,60,61025ae37ef11b136ea224fe,,,,,,,,,2467,71.33335453,39.99999046,1,0,0,response1disk,,6,12.66668612,-0.666677415,1,0,0,rectangle,12.66668612,-0.666677415,1,0,0,12.66668612,-0.666677415,1,0,0,0,83,83,105,1,,,,,,,,
,,,,,,,,,,,,,FF,,,,,,,,1.383,,,,,,,,,,,,,,,,,,,,,,61035f57b8399021c313c379,610364a49d089ebea6141013,2021-07-29_22h32.37.648,Simcolourproject_2stim_asymm_v5,2020.2.10,Win32,60,61025ae37ef11b136ea224fe,,,,,,,,,1038,34.66668677,-88.00001335,1,0,0,response3disk,,4,-7.333314478,1.333322644,1,0,0,rectangle,-7.333314478,1.333322644,1,0,0,-7.333314478,1.333322644,1,0,0,0,84,84,97,1,,,,,,,,
,,,,,,,,,,,,,FF,,,,,,,,0.7988,,,,,,,,,,,,,,,,,,,,,,61035f57b8399021c313c379,610364a49d089ebea6141013,2021-07-29_22h32.37.648,Simcolourproject_2stim_asymm_v5,2020.2.10,Win32,60,61025ae37ef11b136ea224fe,,,,,,,,,122,74.00002128,-34.66667843,1,0,0,response3disk,,5,4.666685879,2.666656017,1,0,0,rectangle,4.666685879,2.666656017,1,0,0,4.666685879,2.666656017,1,0,0,0,85,85,15,1,,,,,,,,
,,,,,,,,,,,,,FF,,,,,,,,1.1499,,,,,,,,,,,,,,,,,,,,,,61035f57b8399021c313c379,610364a49d089ebea6141013,2021-07-29_22h32.37.648,Simcolourproject_2stim_asymm_v5,2020.2.10,Win32,60,61025ae37ef11b136ea224fe,,,,,,,,,421,76.66668802,-38.00001186,1,0,0,response3disk,,5,19.33339367,-6.666677594,1,0,0,rectangle,19.33339367,-6.666677594,1,0,0,19.33339367,-6.666677594,1,0,0,0,86,86,115,1,,,,,,,,
,,,,,,,,,,,,,FF,,,,,,,,1.1328,,,,,,,,,,,,,,,,,,,,,,61035f57b8399021c313c379,610364a49d089ebea6141013,2021-07-29_22h32.37.648,Simcolourproject_2stim_asymm_v5,2020.2.10,Win32,60,61025ae37ef11b136ea224fe,,,,,,,,,3926,70.00002116,29.99999017,1,0,0,response1disk,,6,-9.999981225,6.666656137,1,0,0,rectangle,-9.999981225,6.666656137,1,0,0,-9.999981225,6.666656137,1,0,0,0,87,87,61,1,,,,,,,,
,,,,,,,,,,,,,FF,,,,,,,,1.0831,,,,,,,,,,,,,,,,,,,,,,61035f57b8399021c313c379,610364a49d089ebea6141013,2021-07-29_22h32.37.648,Simcolourproject_2stim_asymm_v5,2020.2.10,Win32,60,61025ae37ef11b136ea224fe,,,,,,,,,3019,70.00002116,-33.33334506,1,0,0,response3disk,,5,16.66668624,1.333322644,1,0,0,rectangle,16.66668624,1.333322644,1,0,0,16.66668624,1.333322644,1,0,0,0,88,88,53,1,,,,,,,,
,,,,,,,,,,,,,FF,,,,,,,,2.8995,,,,,,,,,,,,,,,,,,,,,,61035f57b8399021c313c379,610364a49d089ebea6141013,2021-07-29_22h32.37.648,Simcolourproject_2stim_asymm_v5,2020.2.10,Win32,60,61025ae37ef11b136ea224fe,,,,,,,,,1082,34.66668677,-72.66667956,1,0,0,response3disk,,4,24.00001979,1.333322644,1,0,0,rectangle,24.00001979,1.333322644,1,0,0,24.00001979,1.333322644,1,0,0,0,89,89,111,1,,,,,,,,
,,,,,,,,,,,,,FF,,,,,,,,1.1664,,,,,,,,,,,,,,,,,,,,,,61035f57b8399021c313c379,610364a49d089ebea6141013,2021-07-29_22h32.37.648,Simcolourproject_2stim_asymm_v5,2020.2.10,Win32,60,61025ae37ef11b136ea224fe,,,,,,,,,1531,36.66668683,69.99999136,1,0,0,response1disk,,7,10.66668606,3.333322704,1,0,0,rectangle,10.66668606,3.333322704,1,0,0,10.66668606,3.333322704,1,0,0,0,90,90,45,1,,,,,,,,
,,,,,,,,,,,,,FF,,,,,,,,0.8671,,,,,,,,,,,,,,,,,,,,,,61035f57b8399021c313c379,610364a49d089ebea6141013,2021-07-29_22h32.37.648,Simcolourproject_2stim_asymm_v5,2020.2.10,Win32,60,61025ae37ef11b136ea224fe,,,,,,,,,137,36.66668683,72.6666581,1,0,0,response1disk,,7,22.00001973,6.666656137,1,0,0,rectangle,22.00001973,6.666656137,1,0,0,22.00001973,6.666656137,1,0,0,0,91,91,124,1,,,,,,,,
,,,,,,,,,,,,,FF,,,,,,,,2.149,,,,,,,,,,,,,,,,,,,,,,61035f57b8399021c313c379,610364a49d089ebea6141013,2021-07-29_22h32.37.648,Simcolourproject_2stim_asymm_v5,2020.2.10,Win32,60,61025ae37ef11b136ea224fe,,,,,,,,,3505,79.33335477,-42.00001198,1,0,0,response3disk,,5,-7.333314478,3.333322704,1,0,0,rectangle,-7.333314478,3.333322704,1,0,0,-7.333314478,3.333322704,1,0,0,0,92,92,78,1,,,,,,,,
,,,,,,,,,,,,,FF,,,,,,,,1.6159,,,,,,,,,,,,,,,,,,,,,,61035f57b8399021c313c379,610364a49d089ebea6141013,2021-07-29_22h32.37.648,Simcolourproject_2stim_asymm_v5,2020.2.10,Win32,60,61025ae37ef11b136ea224fe,,,,,,,,,3900,-27.33331507,-84.00001323,1,0,0,response5disk,,3,-15.9999814,3.333322704,1,0,0,rectangle,-15.9999814,3.333322704,1,0,0,-15.9999814,3.333322704,1,0,0,0,93,93,138,1,,,,,,,,
,,,,,,,,,,,,,FF,,,,,,,,1.8333,,,,,,,,,,,,,,,,,,,,,,61035f57b8399021c313c379,610364a49d089ebea6141013,2021-07-29_22h32.37.648,Simcolourproject_2stim_asymm_v5,2020.2.10,Win32,60,61025ae37ef11b136ea224fe,,,,,,,,,216,90.66668844,29.33330313,1,0,0,response1disk,,6,8.666685998,-6.000010908,1,0,0,rectangle,-23.33331496,-76.00001299,1,0,0,-11.3333146,-6.000010908,1,0,0,0,94,94,22,1,,response5disk_3,TRUE,3,3,"[214,249,36,317,81,125,210,120,98,50,100,158,318,95,147,131,177,17,163,299]",2.2675,rectangle
,,,,,,,,,,,,,FF,,,,,,,,1.4493,,,,,,,,,,,,,,,,,,,,,,61035f57b8399021c313c379,610364a49d089ebea6141013,2021-07-29_22h32.37.648,Simcolourproject_2stim_asymm_v5,2020.2.10,Win32,60,61025ae37ef11b136ea224fe,,,,,,,,,3073,32.00002003,-68.00001276,1,0,0,response3disk,,4,-5.999981105,1.999989331,1,0,0,rectangle,-5.999981105,1.999989331,1,0,0,-5.999981105,1.999989331,1,0,0,0,95,95,9,1,,,,,,,,
,,,,,,,,,,,,,FF,,,,,,,,0.95,,,,,,,,,,,,,,,,,,,,,,61035f57b8399021c313c379,610364a49d089ebea6141013,2021-07-29_22h32.37.648,Simcolourproject_2stim_asymm_v5,2020.2.10,Win32,60,61025ae37ef11b136ea224fe,,,,,,,,,3082,38.00002021,-64.00001264,1,0,0,response3disk,,4,8.666685998,-3.333344162,1,0,0,rectangle,8.666685998,-3.333344162,1,0,0,8.666685998,-3.333344162,1,0,0,0,96,96,84,1,,,,,,,,
,,,,,,,,,,,,,FF,,,,,,,,1.3165,,,,,,,,,,,,,,,,,,,,,,61035f57b8399021c313c379,610364a49d089ebea6141013,2021-07-29_22h32.37.648,Simcolourproject_2stim_asymm_v5,2020.2.10,Win32,60,61025ae37ef11b136ea224fe,,,,,,,,,3087,72.66668791,26.66665673,1,0,0,response1disk,,6,18.6666863,0.666655958,1,0,0,rectangle,-59.33331603,45.33330361,1,0,0,-8.666607161,3.99998939,1,0,0,0,97,97,157,1,,response7disk_3,TRUE,1,1,"[214,249,36,317,81,125,210,120,98,50,100,158,318,95,147,131,177,17,163,299]",1.8157,rectangle
,,,,,,,,,,,,,FF,,,,,,,,1.2174,,,,,,,,,,,,,,,,,,,,,,61035f57b8399021c313c379,610364a49d089ebea6141013,2021-07-29_22h32.37.648,Simcolourproject_2stim_asymm_v5,2020.2.10,Win32,60,61025ae37ef11b136ea224fe,,,,,,,,,4044,-30.66660782,-73.33334625,1,0,0,response5disk,,3,-19.33331484,0.666655958,1,0,0,rectangle,-19.33331484,0.666655958,1,0,0,-19.33331484,0.666655958,1,0,0,0,98,98,152,1,,,,,,,,
,,,,,,,,,,,,,FF,,,,,,,,0.7996,,,,,,,,,,,,,,,,,,,,,,61035f57b8399021c313c379,610364a49d089ebea6141013,2021-07-29_22h32.37.648,Simcolourproject_2stim_asymm_v5,2020.2.10,Win32,60,61025ae37ef11b136ea224fe,,,,,,,,,3384,-72.66660907,-40.00001192,1,0,0,response5disk,,2,5.333393256,4.666656077,1,0,0,rectangle,-31.33331519,78.66665828,1,0,0,12.00001943,-1.07288E-05,1,0,0,0,99,99,59,1,,response7disk_3,TRUE,0,0,"[214,249,36,317,81,125,210,120,98,50,100,158,318,95,147,131,177,17,163,299]",1.549,rectangle
,,,,,,,,,,,,,FF,,,,,,,,1.0882,,,,,,,,,,,,,,,,,,,,,,61035f57b8399021c313c379,610364a49d089ebea6141013,2021-07-29_22h32.37.648,Simcolourproject_2stim_asymm_v5,2020.2.10,Win32,60,61025ae37ef11b136ea224fe,,,,,,,,,2460,72.00002122,-30.66667831,1,0,0,response3disk,,5,-3.999981046,-3.333344162,1,0,0,rectangle,-3.999981046,-3.333344162,1,0,0,-3.999981046,-3.333344162,1,0,0,0,100,100,41,1,,,,,,,,
,,,,,,,,,,,,,FF,,,,,,,,0.7879,,,,,,,,,,,,,,,,,,,,,,61035f57b8399021c313c379,610364a49d089ebea6141013,2021-07-29_22h32.37.648,Simcolourproject_2stim_asymm_v5,2020.2.10,Win32,60,61025ae37ef11b136ea224fe,,,,,,,,,4107,35.33339415,-67.33334607,1,0,0,response3disk,,4,-2.666606983,-3.333344162,1,0,0,rectangle,-2.666606983,-3.333344162,1,0,0,-2.666606983,-3.333344162,1,0,0,0,101,101,29,1,,,,,,,,
,,,,,,,,,,,,,FF,,,,,,,,1.3547,,,,,,,,,,,,,,,,,,,,,,61035f57b8399021c313c379,610364a49d089ebea6141013,2021-07-29_22h32.37.648,Simcolourproject_2stim_asymm_v5,2020.2.10,Win32,60,61025ae37ef11b136ea224fe,,,,,,,,,108,26.00001985,-71.33334619,1,0,0,response3disk,,4,-8.666607161,-8.666677654,1,0,0,rectangle,-8.666607161,-8.666677654,1,0,0,-8.666607161,-8.666677654,1,0,0,0,102,102,119,1,,,,,,,,
,,,,,,,,,,,,,FF,,,,,,,,1.2382,,,,,,,,,,,,,,,,,,,,,,61035f57b8399021c313c379,610364a49d089ebea6141013,2021-07-29_22h32.37.648,Simcolourproject_2stim_asymm_v5,2020.2.10,Win32,60,61025ae37ef11b136ea224fe,,,,,,,,,1525,-30.66660782,-76.66667968,1,0,0,response5disk,,3,-1.3333143,-2.666677475,1,0,0,rectangle,-1.3333143,-2.666677475,1,0,0,-1.3333143,-2.666677475,1,0,0,0,103,103,158,1,,,,,,,,
,,,,,,,,,,,,,FF,,,,,,,,1.2997,,,,,,,,,,,,,,,,,,,,,,61035f57b8399021c313c379,610364a49d089ebea6141013,2021-07-29_22h32.37.648,Simcolourproject_2stim_asymm_v5,2020.2.10,Win32,60,61025ae37ef11b136ea224fe,,,,,,,,,3530,94.00002187,32.66665691,1,0,0,response1disk,,6,6.666685939,-2.000010788,1,0,0,rectangle,6.666685939,-2.000010788,1,0,0,6.666685939,-2.000010788,1,0,0,0,104,104,37,1,,,,,,,,
,,,,,,,,,,,,,FF,,,,,,,,0.9997,,,,,,,,,,,,,,,,,,,,,,61035f57b8399021c313c379,610364a49d089ebea6141013,2021-07-29_22h32.37.648,Simcolourproject_2stim_asymm_v5,2020.2.10,Win32,60,61025ae37ef11b136ea224fe,,,,,,,,,2177,56.66668743,-34.00001174,1,0,0,response3disk,,5,2.000019133,5.99998945,1,0,0,rectangle,2.000019133,5.99998945,1,0,0,2.000019133,5.99998945,1,0,0,0,105,105,134,1,,,,,,,,
,,,,,,,,,,,,,FF,,,,,,,,0.8928,,,,,,,,,,,,,,,,,,,,,,61035f57b8399021c313c379,610364a49d089ebea6141013,2021-07-29_22h32.37.648,Simcolourproject_2stim_asymm_v5,2020.2.10,Win32,60,61025ae37ef11b136ea224fe,,,,,,,,,3874,74.66668797,-34.00001174,1,0,0,response3disk,,5,-5.333314419,1.999989331,1,0,0,rectangle,-5.333314419,1.999989331,1,0,0,-5.333314419,1.999989331,1,0,0,0,106,106,28,1,,,,,,,,
,,,,,,,,,,,,,FF,,,,,,,,0.9659,,,,,,,,,,,,,,,,,,,,,,61035f57b8399021c313c379,610364a49d089ebea6141013,2021-07-29_22h32.37.648,Simcolourproject_2stim_asymm_v5,2020.2.10,Win32,60,61025ae37ef11b136ea224fe,,,,,,,,,1197,38.00002021,-66.0000127,1,0,0,response3disk,,4,-20.66660752,8.666656196,1,0,0,rectangle,-20.66660752,8.666656196,1,0,0,-20.66660752,8.666656196,1,0,0,0,107,107,14,1,,,,,,,,
,,,,,,,,,,,,,FF,,,,,,,,1.4163,,,,,,,,,,,,,,,,,,,,,,61035f57b8399021c313c379,610364a49d089ebea6141013,2021-07-29_22h32.37.648,Simcolourproject_2stim_asymm_v5,2020.2.10,Win32,60,61025ae37ef11b136ea224fe,,,,,,,,,260,-91.99998367,-56.0000124,1,0,0,response5disk,,2,-13.33331466,-4.666677535,1,0,0,rectangle,-13.33331466,-4.666677535,1,0,0,-13.33331466,-4.666677535,1,0,0,0,108,108,16,1,,,,,,,,
,,,,,,,,,,,,,FF,,,,,,,,1.534,,,,,,,,,,,,,,,,,,,,,,61035f57b8399021c313c379,610364a49d089ebea6141013,2021-07-29_22h32.37.648,Simcolourproject_2stim_asymm_v5,2020.2.10,Win32,60,61025ae37ef11b136ea224fe,,,,,,,,,597,59.33335418,-80.00001311,1,0,0,response3disk,,4,0.66668576,-0.666677415,1,0,0,rectangle,0.66668576,-0.666677415,1,0,0,0.66668576,-0.666677415,1,0,0,0,109,109,0,1,,,,,,,,
,,,,,,,,,,,,,FF,,,,,,,,8.5806,,,,,,,,,,,,,,,,,,,,,,61035f57b8399021c313c379,610364a49d089ebea6141013,2021-07-29_22h32.37.648,Simcolourproject_2stim_asymm_v5,2020.2.10,Win32,60,61025ae37ef11b136ea224fe,,,,,,,,,4114,-41.99998218,-90.00001341,1,0,0,response5disk,,3,-12.66660728,5.333322763,1,0,0,rectangle,-12.66660728,5.333322763,1,0,0,-12.66660728,5.333322763,1,0,0,0,110,110,71,1,,,,,,,,
,,,,,,,,,,,,,FF,,,,,,,,1.5833,,,,,,,,,,,,,,,,,,,,,,61035f57b8399021c313c379,610364a49d089ebea6141013,2021-07-29_22h32.37.648,Simcolourproject_2stim_asymm_v5,2020.2.10,Win32,60,61025ae37ef11b136ea224fe,,,,,,,,,3617,93.33335519,41.99999052,1,0,0,response1disk,,6,6.666685939,5.99998945,1,0,0,rectangle,6.666685939,5.99998945,1,0,0,6.666685939,5.99998945,1,0,0,0,111,111,114,1,,,,,,,,
,,,,,,,,,,,,,FF,,,,,,,,1.1157,,,,,,,,,,,,,,,,,,,,,,61035f57b8399021c313c379,610364a49d089ebea6141013,2021-07-29_22h32.37.648,Simcolourproject_2stim_asymm_v5,2020.2.10,Win32,60,61025ae37ef11b136ea224fe,,,,,,,,,4197,54.66668737,-76.66667968,1,0,0,response3disk,,4,-1.999980986,-7.333344281,1,0,0,rectangle,-1.999980986,-7.333344281,1,0,0,-1.999980986,-7.333344281,1,0,0,0,112,112,39,1,,,,,,,,
,,,,,,,,,,,,,FF,,,,,,,,0.9827,,,,,,,,,,,,,,,,,,,,,,61035f57b8399021c313c379,610364a49d089ebea6141013,2021-07-29_22h32.37.648,Simcolourproject_2stim_asymm_v5,2020.2.10,Win32,60,61025ae37ef11b136ea224fe,,,,,,,,,797,74.66668797,-35.33334512,1,0,0,response3disk,,5,-8.666607161,6.666656137,1,0,0,rectangle,-8.666607161,6.666656137,1,0,0,-8.666607161,6.666656137,1,0,0,0,113,113,60,1,,,,,,,,
,,,,,,,,,,,,,FF,,,,,,,,1.1839,,,,,,,,,,,,,,,,,,,,,,61035f57b8399021c313c379,610364a49d089ebea6141013,2021-07-29_22h32.37.648,Simcolourproject_2stim_asymm_v5,2020.2.10,Win32,60,61025ae37ef11b136ea224fe,,,,,,,,,1789,92.00002182,22.66665661,1,0,0,response1disk,,6,15.33339355,-1.07288E-05,1,0,0,rectangle,15.33339355,-1.07288E-05,1,0,0,15.33339355,-1.07288E-05,1,0,0,0,114,114,93,1,,,,,,,,
,,,,,,,,,,,,,FF,,,,,,,,0.9164,,,,,,,,,,,,,,,,,,,,,,61035f57b8399021c313c379,610364a49d089ebea6141013,2021-07-29_22h32.37.648,Simcolourproject_2stim_asymm_v5,2020.2.10,Win32,60,61025ae37ef11b136ea224fe,,,,,,,,,1945,72.00002122,-46.66667879,1,0,0,response3disk,,5,5.333393256,4.666656077,1,0,0,rectangle,5.333393256,4.666656077,1,0,0,5.333393256,4.666656077,1,0,0,0,115,115,19,1,,,,,,,,
,,,,,,,,,,,,,FF,,,,,,,,1.1878,,,,,,,,,,,,,,,,,,,,,,61035f57b8399021c313c379,610364a49d089ebea6141013,2021-07-29_22h32.37.648,Simcolourproject_2stim_asymm_v5,2020.2.10,Win32,60,61025ae37ef11b136ea224fe,,,,,,,,,3599,-54.66660853,-88.00001335,1,0,0,response5disk,,3,2.66668582,12.66665632,1,0,0,rectangle,2.66668582,12.66665632,1,0,0,2.66668582,12.66665632,1,0,0,0,116,116,123,1,,,,,,,,
,,,,,,,,,,,,,FF,,,,,,,,0.8005,,,,,,,,,,,,,,,,,,,,,,61035f57b8399021c313c379,610364a49d089ebea6141013,2021-07-29_22h32.37.648,Simcolourproject_2stim_asymm_v5,2020.2.10,Win32,60,61025ae37ef11b136ea224fe,,,,,,,,,1207,29.33339397,-60.00001252,1,0,0,response3disk,,4,10.00001937,-1.07288E-05,1,0,0,rectangle,10.00001937,-1.07288E-05,1,0,0,10.00001937,-1.07288E-05,1,0,0,0,117,117,117,1,,,,,,,,
,,,,,,,,,,,,,FF,,,,,,,,0.6671,,,,,,,,,,,,,,,,,,,,,,61035f57b8399021c313c379,610364a49d089ebea6141013,2021-07-29_22h32.37.648,Simcolourproject_2stim_asymm_v5,2020.2.10,Win32,60,61025ae37ef11b136ea224fe,,,,,,,,,856,-67.99998295,-30.66667831,1,0,0,response5disk,,2,20.66668636,6.666656137,1,0,0,rectangle,20.66668636,6.666656137,1,0,0,20.66668636,6.666656137,1,0,0,0,118,118,126,1,,,,,,,,
,,,,,,,,,,,,,FF,,,,,,,,0.7337,,,,,,,,,,,,,,,,,,,,,,61035f57b8399021c313c379,610364a49d089ebea6141013,2021-07-29_22h32.37.648,Simcolourproject_2stim_asymm_v5,2020.2.10,Win32,60,61025ae37ef11b136ea224fe,,,,,,,,,3279,40.00002027,-71.33334619,1,0,0,response3disk,,4,2.000019133,-4.666677535,1,0,0,rectangle,29.33339397,88.66665858,1,0,0,1.333393137,-6.666677594,1,0,0,0,119,119,50,1,,response1disk_3,TRUE,7,7,"[214,249,36,317,81,125,210,120,98,50,100,158,318,95,147,131,177,17,163,299]",1.7993,rectangle
,,,,,,,,,,,,,FF,,,,,,,,1.3832,,,,,,,,,,,,,,,,,,,,,,61035f57b8399021c313c379,610364a49d089ebea6141013,2021-07-29_22h32.37.648,Simcolourproject_2stim_asymm_v5,2020.2.10,Win32,60,61025ae37ef11b136ea224fe,,,,,,,,,93,-69.33331633,-43.33334535,1,0,0,response5disk,,2,15.33339355,-8.000010967,1,0,0,rectangle,15.33339355,-8.000010967,1,0,0,15.33339355,-8.000010967,1,0,0,0,120,120,148,1,,,,,,,,
,,,,,,,,,,,,,FF,,,,,,,,0.7666,,,,,,,,,,,,,,,,,,,,,,61035f57b8399021c313c379,610364a49d089ebea6141013,2021-07-29_22h32.37.648,Simcolourproject_2stim_asymm_v5,2020.2.10,Win32,60,61025ae37ef11b136ea224fe,,,,,,,,,428,-38.66660806,-81.33334649,1,0,0,response5disk,,3,6.666685939,6.666656137,1,0,0,rectangle,6.666685939,6.666656137,1,0,0,6.666685939,6.666656137,1,0,0,0,121,121,141,1,,,,,,,,
,,,,,,,,,,,,,FF,,,,,,,,0.7709,,,,,,,,,,,,,,,,,,,,,,61035f57b8399021c313c379,610364a49d089ebea6141013,2021-07-29_22h32.37.648,Simcolourproject_2stim_asymm_v5,2020.2.10,Win32,60,61025ae37ef11b136ea224fe,,,,,,,,,1234,49.33335388,-81.33334649,1,0,0,response3disk,,4,-15.33331472,3.99998939,1,0,0,rectangle,-15.33331472,3.99998939,1,0,0,-15.33331472,3.99998939,1,0,0,0,122,122,104,1,,,,,,,,
,,,,,,,,,,,,,FF,,,,,,,,0.7501,,,,,,,,,,,,,,,,,,,,,,61035f57b8399021c313c379,610364a49d089ebea6141013,2021-07-29_22h32.37.648,Simcolourproject_2stim_asymm_v5,2020.2.10,Win32,60,61025ae37ef11b136ea224fe,,,,,,,,,4029,58.66668749,-35.33334512,1,0,0,response3disk,,5,-16.6666074,9.999989569,1,0,0,rectangle,-16.6666074,9.999989569,1,0,0,-16.6666074,9.999989569,1,0,0,0,123,123,153,1,,,,,,,,
,,,,,,,,,,,,,FF,,,,,,,,1.5491,,,,,,,,,,,,,,,,,,,,,,61035f57b8399021c313c379,610364a49d089ebea6141013,2021-07-29_22h32.37.648,Simcolourproject_2stim_asymm_v5,2020.2.10,Win32,60,61025ae37ef11b136ea224fe,,,,,,,,,2802,80.66668814,52.66665751,1,0,0,response1disk,,6,16.00001955,-3.333344162,1,0,0,rectangle,-63.33331615,-52.66667897,1,0,0,-11.99998128,-5.333344221,1,0,0,0,124,124,1,1,,response5disk_3,TRUE,2,2,"[214,249,36,317,81,125,210,120,98,50,100,158,318,95,147,131,177,17,163,299]",2.232,rectangle
,,,,,,,,,,,,,FF,,,,,,,,1.2379,,,,,,,,,,,,,,,,,,,,,,61035f57b8399021c313c379,610364a49d089ebea6141013,2021-07-29_22h32.37.648,Simcolourproject_2stim_asymm_v5,2020.2.10,Win32,60,61025ae37ef11b136ea224fe,,,,,,,,,3739,-36.666608,-80.6666798,1,0,0,response5disk,,3,0.66668576,7.333322823,1,0,0,rectangle,0.66668576,7.333322823,1,0,0,0.66668576,7.333322823,1,0,0,0,125,125,63,1,,,,,,,,
,,,,,,,,,,,,,FF,,,,,,,,0.7003,,,,,,,,,,,,,,,,,,,,,,61035f57b8399021c313c379,610364a49d089ebea6141013,2021-07-29_22h32.37.648,Simcolourproject_2stim_asymm_v5,2020.2.10,Win32,60,61025ae37ef11b136ea224fe,,,,,,,,,787,26.00001985,-60.00001252,1,0,0,response3disk,,4,-13.33331466,11.33332294,1,0,0,rectangle,-13.33331466,11.33332294,1,0,0,-13.33331466,11.33332294,1,0,0,0,126,126,8,1,,,,,,,,
,,,,,,,,,,,,,FF,,,,,,,,1.0998,,,,,,,,,,,,,,,,,,,,,,61035f57b8399021c313c379,610364a49d089ebea6141013,2021-07-29_22h32.37.648,Simcolourproject_2stim_asymm_v5,2020.2.10,Win32,60,61025ae37ef11b136ea224fe,,,,,,,,,2863,76.00002134,-31.333345,1,0,0,response3disk,,5,1.9735E-05,8.666656196,1,0,0,rectangle,1.9735E-05,8.666656196,1,0,0,1.9735E-05,8.666656196,1,0,0,0,127,127,73,1,,,,,,,,
,,,,,,,,,,,,,FF,,,,,,,,0.9334,,,,,,,,,,,,,,,,,,,,,,61035f57b8399021c313c379,610364a49d089ebea6141013,2021-07-29_22h32.37.648,Simcolourproject_2stim_asymm_v5,2020.2.10,Win32,60,61025ae37ef11b136ea224fe,,,,,,,,,1816,-34.66660794,-79.33334643,1,0,0,response5disk,,3,-9.999981225,6.666656137,1,0,0,rectangle,-9.999981225,6.666656137,1,0,0,-9.999981225,6.666656137,1,0,0,0,128,128,49,1,,,,,,,,
,,,,,,,,,,,,,FF,,,,,,,,0.9833,,,,,,,,,,,,,,,,,,,,,,61035f57b8399021c313c379,610364a49d089ebea6141013,2021-07-29_22h32.37.648,Simcolourproject_2stim_asymm_v5,2020.2.10,Win32,60,61025ae37ef11b136ea224fe,,,,,,,,,1571,76.00002134,-37.33334517,1,0,0,response3disk,,5,1.9735E-05,-6.666677594,1,0,0,rectangle,1.9735E-05,-6.666677594,1,0,0,1.9735E-05,-6.666677594,1,0,0,0,129,129,67,1,,,,,,,,
,,,,,,,,,,,,,FF,,,,,,,,1.0165,,,,,,,,,,,,,,,,,,,,,,61035f57b8399021c313c379,610364a49d089ebea6141013,2021-07-29_22h32.37.648,Simcolourproject_2stim_asymm_v5,2020.2.10,Win32,60,61025ae37ef11b136ea224fe,,,,,,,,,1167,96.00002193,37.9999904,1,0,0,response1disk,,6,-7.999981165,-8.000010967,1,0,0,rectangle,32.66668671,-96.00001359,1,0,0,-1.3333143,-0.666677415,1,0,0,0,130,130,74,1,,response3disk_3,TRUE,4,4,"[214,249,36,317,81,125,210,120,98,50,100,158,318,95,147,131,177,17,163,299]",2.0828,rectangle
,,,,,,,,,,,,,FF,,,,,,,,1.183,,,,,,,,,,,,,,,,,,,,,,61035f57b8399021c313c379,610364a49d089ebea6141013,2021-07-29_22h32.37.648,Simcolourproject_2stim_asymm_v5,2020.2.10,Win32,60,61025ae37ef11b136ea224fe,,,,,,,,,1131,-38.66660806,77.9999916,1,0,0,response7disk,,0,-0.666606923,5.333322763,1,0,0,rectangle,-0.666606923,5.333322763,1,0,0,-0.666606923,5.333322763,1,0,0,0,131,131,26,1,,,,,,,,
,,,,,,,,,,,,,FF,,,,,,,,1.8997,,,,,,,,,,,,,,,,,,,,,,61035f57b8399021c313c379,610364a49d089ebea6141013,2021-07-29_22h32.37.648,Simcolourproject_2stim_asymm_v5,2020.2.10,Win32,60,61025ae37ef11b136ea224fe,,,,,,,,,1658,53.333354,-88.66668004,1,0,0,response3disk,,4,2.66668582,5.333322763,1,0,0,rectangle,2.66668582,5.333322763,1,0,0,2.66668582,5.333322763,1,0,0,0,132,132,140,1,,,,,,,,
,,,,,,,,,,,,,FF,,,,,,,,1.6994,,,,,,,,,,,,,,,,,,,,,,61035f57b8399021c313c379,610364a49d089ebea6141013,2021-07-29_22h32.37.648,Simcolourproject_2stim_asymm_v5,2020.2.10,Win32,60,61025ae37ef11b136ea224fe,,,,,,,,,3787,33.33339409,-84.66667992,1,0,0,response3disk,,4,-2.666606983,0.666655958,1,0,0,rectangle,-2.666606983,0.666655958,1,0,0,-2.666606983,0.666655958,1,0,0,0,133,133,96,1,,,,,,,,
,,,,,,,,,,,,,FF,,,,,,,,9.9802,,,,,,,,,,,,,,,,,,,,,,61035f57b8399021c313c379,610364a49d089ebea6141013,2021-07-29_22h32.37.648,Simcolourproject_2stim_asymm_v5,2020.2.10,Win32,60,61025ae37ef11b136ea224fe,,,,,,,,,1590,41.33339433,-78.00001305,1,0,0,response3disk,,4,4.666685879,-14.00001115,1,0,0,rectangle,4.666685879,-14.00001115,1,0,0,4.666685879,-14.00001115,1,0,0,0,134,134,90,1,,,,,,,,
,,,,,,,,,,,,,FF,,,,,,,,2.6997,,,,,,,,,,,,,,,,,,,,,,61035f57b8399021c313c379,610364a49d089ebea6141013,2021-07-29_22h32.37.648,Simcolourproject_2stim_asymm_v5,2020.2.10,Win32,60,61025ae37ef11b136ea224fe,,,,,,,,,1291,-102.66661,-28.00001156,1,0,0,response5disk,,2,10.00001937,9.999989569,1,0,0,rectangle,10.00001937,9.999989569,1,0,0,10.00001937,9.999989569,1,0,0,0,135,135,57,1,,,,,,,,
,,,,,,,,,,,,,FF,,,,,,,,1.3166,,,,,,,,,,,,,,,,,,,,,,61035f57b8399021c313c379,610364a49d089ebea6141013,2021-07-29_22h32.37.648,Simcolourproject_2stim_asymm_v5,2020.2.10,Win32,60,61025ae37ef11b136ea224fe,,,,,,,,,2890,32.00002003,-88.00001335,1,0,0,response3disk,,4,-1.3333143,8.666656196,1,0,0,rectangle,-1.3333143,8.666656196,1,0,0,-1.3333143,8.666656196,1,0,0,0,136,136,3,1,,,,,,,,
,,,,,,,,,,,,,FF,,,,,,,,1.1328,,,,,,,,,,,,,,,,,,,,,,61035f57b8399021c313c379,610364a49d089ebea6141013,2021-07-29_22h32.37.648,Simcolourproject_2stim_asymm_v5,2020.2.10,Win32,60,61025ae37ef11b136ea224fe,,,,,,,,,3447,79.33335477,-50.66667891,1,0,0,response3disk,,5,8.000019312,2.666656017,1,0,0,rectangle,8.000019312,2.666656017,1,0,0,8.000019312,2.666656017,1,0,0,0,137,137,68,1,,,,,,,,
,,,,,,,,,,,,,FF,,,,,,,,1.3,,,,,,,,,,,,,,,,,,,,,,61035f57b8399021c313c379,610364a49d089ebea6141013,2021-07-29_22h32.37.648,Simcolourproject_2stim_asymm_v5,2020.2.10,Win32,60,61025ae37ef11b136ea224fe,,,,,,,,,1569,92.6666885,27.33330307,1,0,0,response1disk,,6,8.000019312,5.333322763,1,0,0,rectangle,8.000019312,5.333322763,1,0,0,8.000019312,5.333322763,1,0,0,0,138,138,65,1,,,,,,,,
,,,,,,,,,,,,,FF,,,,,,,,0.9998,,,,,,,,,,,,,,,,,,,,,,61035f57b8399021c313c379,610364a49d089ebea6141013,2021-07-29_22h32.37.648,Simcolourproject_2stim_asymm_v5,2020.2.10,Win32,60,61025ae37ef11b136ea224fe,,,,,,,,,2138,54.00002068,80.66665834,1,0,0,response1disk,,7,14.00001949,5.333322763,1,0,0,rectangle,14.00001949,5.333322763,1,0,0,14.00001949,5.333322763,1,0,0,0,139,139,129,1,,,,,,,,
,,,,,,,,,,,,,FF,,,,,,,,0.7,,,,,,,,,,,,,,,,,,,,,,61035f57b8399021c313c379,610364a49d089ebea6141013,2021-07-29_22h32.37.648,Simcolourproject_2stim_asymm_v5,2020.2.10,Win32,60,61025ae37ef11b136ea224fe,,,,,,,,,2444,49.33335388,77.33330456,1,0,0,response1disk,,7,16.66668624,5.99998945,1,0,0,rectangle,16.66668624,5.99998945,1,0,0,16.66668624,5.99998945,1,0,0,0,140,140,120,1,,,,,,,,
,,,,,,,,,,,,,FF,,,,,,,,1.2163,,,,,,,,,,,,,,,,,,,,,,61035f57b8399021c313c379,610364a49d089ebea6141013,2021-07-29_22h32.37.648,Simcolourproject_2stim_asymm_v5,2020.2.10,Win32,60,61025ae37ef11b136ea224fe,,,,,,,,,107,78.66668808,-46.66667879,1,0,0,response3disk,,5,2.66668582,-1.07288E-05,1,0,0,rectangle,2.66668582,-1.07288E-05,1,0,0,2.66668582,-1.07288E-05,1,0,0,0,141,141,99,1,,,,,,,,
,,,,,,,,,,,,,FF,,,,,,,,1.0332,,,,,,,,,,,,,,,,,,,,,,61035f57b8399021c313c379,610364a49d089ebea6141013,2021-07-29_22h32.37.648,Simcolourproject_2stim_asymm_v5,2020.2.10,Win32,60,61025ae37ef11b136ea224fe,,,,,,,,,2235,27.33339391,-61.33334589,1,0,0,response3disk,,4,-20.66660752,-6.000010908,1,0,0,rectangle,-20.66660752,-6.000010908,1,0,0,-20.66660752,-6.000010908,1,0,0,0,142,142,24,1,,,,,,,,
,,,,,,,,,,,,,FF,,,,,,,,0.9497,,,,,,,,,,,,,,,,,,,,,,61035f57b8399021c313c379,610364a49d089ebea6141013,2021-07-29_22h32.37.648,Simcolourproject_2stim_asymm_v5,2020.2.10,Win32,60,61025ae37ef11b136ea224fe,,,,,,,,,1668,73.33335459,-30.00001162,1,0,0,response3disk,,5,13.33339349,3.333322704,1,0,0,rectangle,13.33339349,3.333322704,1,0,0,13.33339349,3.333322704,1,0,0,0,143,143,64,1,,,,,,,,
,,,,,,,,,,,,,FF,,,,,,,,0.7834,,,,,,,,,,,,,,,,,,,,,,61035f57b8399021c313c379,610364a49d089ebea6141013,2021-07-29_22h32.37.648,Simcolourproject_2stim_asymm_v5,2020.2.10,Win32,60,61025ae37ef11b136ea224fe,,,,,,,,,1644,74.00002128,-32.00001168,1,0,0,response3disk,,5,10.00001937,1.999989331,1,0,0,rectangle,10.00001937,1.999989331,1,0,0,10.00001937,1.999989331,1,0,0,0,144,144,62,1,,,,,,,,
,,,,,,,,,,,,,FF,,,,,,,,0.8169,,,,,,,,,,,,,,,,,,,,,,61035f57b8399021c313c379,610364a49d089ebea6141013,2021-07-29_22h32.37.648,Simcolourproject_2stim_asymm_v5,2020.2.10,Win32,60,61025ae37ef11b136ea224fe,,,,,,,,,3609,71.33335453,-44.00001204,1,0,0,response3disk,,5,-2.666606983,5.99998945,1,0,0,rectangle,-2.666606983,5.99998945,1,0,0,-2.666606983,5.99998945,1,0,0,0,145,145,101,1,,,,,,,,
,,,,,,,,,,,,,FF,,,,,,,,0.733,,,,,,,,,,,,,,,,,,,,,,61035f57b8399021c313c379,610364a49d089ebea6141013,2021-07-29_22h32.37.648,Simcolourproject_2stim_asymm_v5,2020.2.10,Win32,60,61025ae37ef11b136ea224fe,,,,,,,,,150,72.66668791,-44.66667873,1,0,0,response3disk,,5,-9.999981225,3.99998939,1,0,0,rectangle,-34.66660794,58.66665769,1,0,0,-5.999981105,-0.666677415,1,0,0,0,146,146,79,1,,response7disk_3,TRUE,0,0,"[214,249,36,317,81,125,210,120,98,50,100,158,318,95,147,131,177,17,163,299]",1.6325,rectangle
,,,,,,,,,,,,,FF,,,,,,,,0.9996,,,,,,,,,,,,,,,,,,,,,,61035f57b8399021c313c379,610364a49d089ebea6141013,2021-07-29_22h32.37.648,Simcolourproject_2stim_asymm_v5,2020.2.10,Win32,60,61025ae37ef11b136ea224fe,,,,,,,,,3418,-29.99998182,-65.33334601,1,0,0,response5disk,,3,-10.66660722,2.666656017,1,0,0,rectangle,-10.66660722,2.666656017,1,0,0,-10.66660722,2.666656017,1,0,0,0,147,147,20,1,,,,,,,,
,,,,,,,,,,,,,FF,,,,,,,,0.8163,,,,,,,,,,,,,,,,,,,,,,61035f57b8399021c313c379,610364a49d089ebea6141013,2021-07-29_22h32.37.648,Simcolourproject_2stim_asymm_v5,2020.2.10,Win32,60,61025ae37ef11b136ea224fe,,,,,,,,,624,32.00002003,-66.66667938,1,0,0,response3disk,,4,10.66668606,-4.000010848,1,0,0,rectangle,10.66668606,-4.000010848,1,0,0,10.66668606,-4.000010848,1,0,0,0,148,148,2,1,,,,,,,,
,,,,,,,,,,,,,FF,,,,,,,,0.7165,,,,,,,,,,,,,,,,,,,,,,61035f57b8399021c313c379,610364a49d089ebea6141013,2021-07-29_22h32.37.648,Simcolourproject_2stim_asymm_v5,2020.2.10,Win32,60,61025ae37ef11b136ea224fe,,,,,,,,,1276,40.66668695,-74.66667962,1,0,0,response3disk,,4,11.33339343,-2.000010788,1,0,0,rectangle,11.33339343,-2.000010788,1,0,0,11.33339343,-2.000010788,1,0,0,0,149,149,21,1,,,,,,,,
,,,,,,,,,,,,,FF,,,,,,,,0.8332,,,,,,,,,,,,,,,,,,,,,,61035f57b8399021c313c379,610364a49d089ebea6141013,2021-07-29_22h32.37.648,Simcolourproject_2stim_asymm_v5,2020.2.10,Win32,60,61025ae37ef11b136ea224fe,,,,,,,,,3054,-28.66660776,-67.33334607,1,0,0,response5disk,,3,9.333393375,1.999989331,1,0,0,rectangle,9.333393375,1.999989331,1,0,0,9.333393375,1.999989331,1,0,0,0,150,150,80,1,,,,,,,,
,,,,,,,,,,,,,FF,,,,,,,,0.8991,,,,,,,,,,,,,,,,,,,,,,61035f57b8399021c313c379,610364a49d089ebea6141013,2021-07-29_22h32.37.648,Simcolourproject_2stim_asymm_v5,2020.2.10,Win32,60,61025ae37ef11b136ea224fe,,,,,,,,,674,36.66668683,-64.00001264,1,0,0,response3disk,,4,16.00001955,-1.333344102,1,0,0,rectangle,16.00001955,-1.333344102,1,0,0,16.00001955,-1.333344102,1,0,0,0,151,151,94,1,,,,,,,,
,,,,,,,,,,,,,FF,,,,,,,,1.0492,,,,,,,,,,,,,,,,,,,,,,61035f57b8399021c313c379,610364a49d089ebea6141013,2021-07-29_22h32.37.648,Simcolourproject_2stim_asymm_v5,2020.2.10,Win32,60,61025ae37ef11b136ea224fe,,,,,,,,,3145,90.66668844,33.33330325,1,0,0,response1disk,,6,-1.999980986,5.99998945,1,0,0,rectangle,-1.999980986,5.99998945,1,0,0,-1.999980986,5.99998945,1,0,0,0,152,152,82,1,,,,,,,,
,,,,,,,,,,,,,FF,,,,,,,,0.7331,,,,,,,,,,,,,,,,,,,,,,61035f57b8399021c313c379,610364a49d089ebea6141013,2021-07-29_22h32.37.648,Simcolourproject_2stim_asymm_v5,2020.2.10,Win32,60,61025ae37ef11b136ea224fe,,,,,,,,,2304,78.66668808,28.66665679,1,0,0,response1disk,,6,2.66668582,7.333322823,1,0,0,rectangle,2.66668582,7.333322823,1,0,0,2.66668582,7.333322823,1,0,0,0,153,153,144,1,,,,,,,,
,,,,,,,,,,,,,FF,,,,,,,,3.2493,,,,,,,,,,,,,,,,,,,,,,61035f57b8399021c313c379,610364a49d089ebea6141013,2021-07-29_22h32.37.648,Simcolourproject_2stim_asymm_v5,2020.2.10,Win32,60,61025ae37ef11b136ea224fe,,,,,,,,,2465,67.33335441,106.6666591,1,0,0,response1disk,,7,-7.333314478,-2.666677475,1,0,0,rectangle,-7.333314478,-2.666677475,1,0,0,-7.333314478,-2.666677475,1,0,0,0,154,154,4,1,,,,,,,,
,,,,,,,,,,,,,FF,,,,,,,,1.2831,,,,,,,,,,,,,,,,,,,,,,61035f57b8399021c313c379,610364a49d089ebea6141013,2021-07-29_22h32.37.648,Simcolourproject_2stim_asymm_v5,2020.2.10,Win32,60,61025ae37ef11b136ea224fe,,,,,,,,,4096,-43.99998224,-78.00001305,1,0,0,response5disk,,3,-24.66660764,5.333322763,1,0,0,rectangle,-24.66660764,5.333322763,1,0,0,-24.66660764,5.333322763,1,0,0,0,155,155,87,1,,,,,,,,
,,,,,,,,,,,,,FF,,,,,,,,1.516,,,,,,,,,,,,,,,,,,,,,,61035f57b8399021c313c379,610364a49d089ebea6141013,2021-07-29_22h32.37.648,Simcolourproject_2stim_asymm_v5,2020.2.10,Win32,60,61025ae37ef11b136ea224fe,,,,,,,,,3492,86.66668832,-57.33334577,1,0,0,response3disk,,5,-12.66660728,11.99998963,1,0,0,rectangle,-12.66660728,11.99998963,1,0,0,-12.66660728,11.99998963,1,0,0,0,156,156,150,1,,,,,,,,
,,,,,,,,,,,,,FF,,,,,,,,0.7003,,,,,,,,,,,,,,,,,,,,,,61035f57b8399021c313c379,610364a49d089ebea6141013,2021-07-29_22h32.37.648,Simcolourproject_2stim_asymm_v5,2020.2.10,Win32,60,61025ae37ef11b136ea224fe,,,,,,,,,4241,80.00002146,-41.33334529,1,0,0,response3disk,,5,4.000019193,-0.666677415,1,0,0,rectangle,80.00002146,-42.00001198,1,0,0,11.33339343,-6.000010908,1,0,0,0,157,157,103,1,,response3disk_3,TRUE,5,5,"[214,249,36,317,81,125,210,120,98,50,100,158,318,95,147,131,177,17,163,299]",1.9489,rectangle
,,,,,,,,,,,,,FF,,,,,,,,1.5662,,,,,,,,,,,,,,,,,,,,,,61035f57b8399021c313c379,610364a49d089ebea6141013,2021-07-29_22h32.37.648,Simcolourproject_2stim_asymm_v5,2020.2.10,Win32,60,61025ae37ef11b136ea224fe,,,,,,,,,3306,64.66668767,-42.00001198,1,0,0,response3disk,,5,12.66668612,-8.000010967,1,0,0,rectangle,12.66668612,-8.000010967,1,0,0,12.66668612,-8.000010967,1,0,0,0,158,158,17,1,,,,,,,,
,,,,,,,,,,,,,FF,,,,,,,,0.7661,,,,,,,,,,,,,,,,,,,,,,61035f57b8399021c313c379,610364a49d089ebea6141013,2021-07-29_22h32.37.648,Simcolourproject_2stim_asymm_v5,2020.2.10,Win32,60,61025ae37ef11b136ea224fe,,,,,,,,,1820,50.66668725,-71.33334619,1,0,0,response3disk,,4,-4.666607042,-10.66667771,1,0,0,rectangle,-4.666607042,-10.66667771,1,0,0,-4.666607042,-10.66667771,1,0,0,0,159,159,42,1,,,,,,,,
,,,,,,,,,,,,,FF,,,,,,,,0.7164,,,,,,,,,,,,,,,,,,,,,,61035f57b8399021c313c379,610364a49d089ebea6141013,2021-07-29_22h32.37.648,Simcolourproject_2stim_asymm_v5,2020.2.10,Win32,60,61025ae37ef11b136ea224fe,,,,,,,,,891,-22.66660758,-76.66667968,1,0,0,response5disk,,3,-0.666606923,0.666655958,1,0,0,rectangle,-0.666606923,0.666655958,1,0,0,-0.666606923,0.666655958,1,0,0,1,0,160,88,1,,,,,,,,
,,,,,,,,,,,,,FF,,,,,,,,0.8338,,,,,,,,,,,,,,,,,,,,,,61035f57b8399021c313c379,610364a49d089ebea6141013,2021-07-29_22h32.37.648,Simcolourproject_2stim_asymm_v5,2020.2.10,Win32,60,61025ae37ef11b136ea224fe,,,,,,,,,178,86.00002164,-42.00001198,1,0,0,response3disk,,5,-9.999981225,1.333322644,1,0,0,rectangle,-9.999981225,1.333322644,1,0,0,-9.999981225,1.333322644,1,0,0,1,1,161,120,1,,,,,,,,
,,,,,,,,,,,,,FF,,,,,,,,0.7,,,,,,,,,,,,,,,,,,,,,,61035f57b8399021c313c379,610364a49d089ebea6141013,2021-07-29_22h32.37.648,Simcolourproject_2stim_asymm_v5,2020.2.10,Win32,60,61025ae37ef11b136ea224fe,,,,,,,,,838,53.333354,-68.66667944,1,0,0,response3disk,,4,11.33339343,-2.666677475,1,0,0,rectangle,96.66668862,40.66665715,1,0,0,19.33339367,-8.666677654,1,0,0,1,2,162,16,1,,response1disk_3,TRUE,6,6,"[214,249,36,317,81,125,210,120,98,50,100,158,318,95,147,131,177,17,163,299]",3.4488,rectangle
,,,,,,,,,,,,,FF,,,,,,,,0.8176,,,,,,,,,,,,,,,,,,,,,,61035f57b8399021c313c379,610364a49d089ebea6141013,2021-07-29_22h32.37.648,Simcolourproject_2stim_asymm_v5,2020.2.10,Win32,60,61025ae37ef11b136ea224fe,,,,,,,,,1023,52.66668731,-70.00001281,1,0,0,response3disk,,4,11.33339343,3.333322704,1,0,0,rectangle,11.33339343,3.333322704,1,0,0,11.33339343,3.333322704,1,0,0,1,3,163,138,1,,,,,,,,
,,,,,,,,,,,,,FF,,,,,,,,1.2662,,,,,,,,,,,,,,,,,,,,,,61035f57b8399021c313c379,610364a49d089ebea6141013,2021-07-29_22h32.37.648,Simcolourproject_2stim_asymm_v5,2020.2.10,Win32,60,61025ae37ef11b136ea224fe,,,,,,,,,1035,40.00002027,-78.66667974,1,0,0,response3disk,,4,-5.999981105,1.333322644,1,0,0,rectangle,-5.999981105,1.333322644,1,0,0,-5.999981105,1.333322644,1,0,0,1,4,164,15,1,,,,,,,,
,,,,,,,,,,,,,FF,,,,,,,,1.0668,,,,,,,,,,,,,,,,,,,,,,61035f57b8399021c313c379,610364a49d089ebea6141013,2021-07-29_22h32.37.648,Simcolourproject_2stim_asymm_v5,2020.2.10,Win32,60,61025ae37ef11b136ea224fe,,,,,,,,,1892,-66.66660889,-44.00001204,1,0,0,response5disk,,2,-21.3333149,-3.333344162,1,0,0,rectangle,-21.3333149,-3.333344162,1,0,0,-21.3333149,-3.333344162,1,0,0,1,5,165,35,1,,,,,,,,
,,,,,,,,,,,,,FF,,,,,,,,1.0549,,,,,,,,,,,,,,,,,,,,,,61035f57b8399021c313c379,610364a49d089ebea6141013,2021-07-29_22h32.37.648,Simcolourproject_2stim_asymm_v5,2020.2.10,Win32,60,61025ae37ef11b136ea224fe,,,,,,,,,1302,35.33339415,-82.00001317,1,0,0,response3disk,,4,-3.333314359,4.666656077,1,0,0,rectangle,-3.333314359,4.666656077,1,0,0,-3.333314359,4.666656077,1,0,0,1,6,166,72,1,,,,,,,,
,,,,,,,,,,,,,FF,,,,,,,,1.3334,,,,,,,,,,,,,,,,,,,,,,61035f57b8399021c313c379,610364a49d089ebea6141013,2021-07-29_22h32.37.648,Simcolourproject_2stim_asymm_v5,2020.2.10,Win32,60,61025ae37ef11b136ea224fe,,,,,,,,,3573,108.0000223,27.33330307,1,0,0,response1disk,,6,8.000019312,6.666656137,1,0,0,rectangle,8.000019312,6.666656137,1,0,0,8.000019312,6.666656137,1,0,0,1,7,167,65,1,,,,,,,,
,,,,,,,,,,,,,FF,,,,,,,,1.7376,,,,,,,,,,,,,,,,,,,,,,61035f57b8399021c313c379,610364a49d089ebea6141013,2021-07-29_22h32.37.648,Simcolourproject_2stim_asymm_v5,2020.2.10,Win32,60,61025ae37ef11b136ea224fe,,,,,,,,,2084,55.33335406,-64.66667932,1,0,0,response3disk,,4,-2.666606983,11.99998963,1,0,0,rectangle,-2.666606983,11.99998963,1,0,0,-2.666606983,11.99998963,1,0,0,1,8,168,84,1,,,,,,,,
,,,,,,,,,,,,,FF,,,,,,,,0.7506,,,,,,,,,,,,,,,,,,,,,,61035f57b8399021c313c379,610364a49d089ebea6141013,2021-07-29_22h32.37.648,Simcolourproject_2stim_asymm_v5,2020.2.10,Win32,60,61025ae37ef11b136ea224fe,,,,,,,,,4065,44.00002038,-58.00001246,1,0,0,response3disk,,4,13.33339349,13.99998969,1,0,0,rectangle,13.33339349,13.99998969,1,0,0,13.33339349,13.99998969,1,0,0,1,9,169,44,1,,,,,,,,
,,,,,,,,,,,,,FF,,,,,,,,2.6037,,,,,,,,,,,,,,,,,,,,,,61035f57b8399021c313c379,610364a49d089ebea6141013,2021-07-29_22h32.37.648,Simcolourproject_2stim_asymm_v5,2020.2.10,Win32,60,61025ae37ef11b136ea224fe,,,,,,,,,309,76.66668802,-28.00001156,1,0,0,response3disk,,5,28.66668659,-5.333344221,1,0,0,rectangle,28.66668659,-5.333344221,1,0,0,28.66668659,-5.333344221,1,0,0,1,10,170,70,1,,,,,,,,
,,,,,,,,,,,,,FF,,,,,,,,1.0671,,,,,,,,,,,,,,,,,,,,,,61035f57b8399021c313c379,610364a49d089ebea6141013,2021-07-29_22h32.37.648,Simcolourproject_2stim_asymm_v5,2020.2.10,Win32,60,61025ae37ef11b136ea224fe,,,,,,,,,3374,-36.666608,-80.6666798,1,0,0,response5disk,,3,-1.999980986,-4.000010848,1,0,0,rectangle,-1.999980986,-4.000010848,1,0,0,-1.999980986,-4.000010848,1,0,0,1,11,171,110,1,,,,,,,,
,,,,,,,,,,,,,FF,,,,,,,,0.8497,,,,,,,,,,,,,,,,,,,,,,61035f57b8399021c313c379,610364a49d089ebea6141013,2021-07-29_22h32.37.648,Simcolourproject_2stim_asymm_v5,2020.2.10,Win32,60,61025ae37ef11b136ea224fe,,,,,,,,,1235,30.00001997,-64.66667932,1,0,0,response3disk,,4,4.666685879,-1.333344102,1,0,0,rectangle,4.666685879,-1.333344102,1,0,0,4.666685879,-1.333344102,1,0,0,1,12,172,69,1,,,,,,,,
,,,,,,,,,,,,,FF,,,,,,,,1.1998,,,,,,,,,,,,,,,,,,,,,,61035f57b8399021c313c379,610364a49d089ebea6141013,2021-07-29_22h32.37.648,Simcolourproject_2stim_asymm_v5,2020.2.10,Win32,60,61025ae37ef11b136ea224fe,,,,,,,,,414,96.00002193,31.99999022,1,0,0,response1disk,,6,18.6666863,-2.000010788,1,0,0,rectangle,18.6666863,-2.000010788,1,0,0,18.6666863,-2.000010788,1,0,0,1,13,173,82,1,,,,,,,,
,,,,,,,,,,,,,FF,,,,,,,,0.633,,,,,,,,,,,,,,,,,,,,,,61035f57b8399021c313c379,610364a49d089ebea6141013,2021-07-29_22h32.37.648,Simcolourproject_2stim_asymm_v5,2020.2.10,Win32,60,61025ae37ef11b136ea224fe,,,,,,,,,2912,82.6666882,-42.66667867,1,0,0,response3disk,,5,-6.666607102,-0.666677415,1,0,0,rectangle,-6.666607102,-0.666677415,1,0,0,-6.666607102,-0.666677415,1,0,0,1,14,174,73,1,,,,,,,,
,,,,,,,,,,,,,FF,,,,,,,,0.7169,,,,,,,,,,,,,,,,,,,,,,61035f57b8399021c313c379,610364a49d089ebea6141013,2021-07-29_22h32.37.648,Simcolourproject_2stim_asymm_v5,2020.2.10,Win32,60,61025ae37ef11b136ea224fe,,,,,,,,,2309,77.33335471,-30.00001162,1,0,0,response3disk,,5,-4.666607042,13.333323,1,0,0,rectangle,-4.666607042,13.333323,1,0,0,-4.666607042,13.333323,1,0,0,1,15,175,33,1,,,,,,,,
,,,,,,,,,,,,,FF,,,,,,,,0.7832,,,,,,,,,,,,,,,,,,,,,,61035f57b8399021c313c379,610364a49d089ebea6141013,2021-07-29_22h32.37.648,Simcolourproject_2stim_asymm_v5,2020.2.10,Win32,60,61025ae37ef11b136ea224fe,,,,,,,,,772,78.0000214,-26.0000115,1,0,0,response3disk,,5,9.333393375,7.99998951,1,0,0,rectangle,92.6666885,28.66665679,1,0,0,10.66668606,-2.666677475,1,0,0,1,16,176,133,1,,response1disk_3,TRUE,6,6,"[214,249,36,317,81,125,210,120,98,50,100,158,318,95,147,131,177,17,163,299]",1.8982,rectangle
,,,,,,,,,,,,,FF,,,,,,,,1.2996,,,,,,,,,,,,,,,,,,,,,,61035f57b8399021c313c379,610364a49d089ebea6141013,2021-07-29_22h32.37.648,Simcolourproject_2stim_asymm_v5,2020.2.10,Win32,60,61025ae37ef11b136ea224fe,,,,,,,,,4224,-96.66660978,-44.00001204,1,0,0,response5disk,,2,2.66668582,-9.33334434,1,0,0,rectangle,2.66668582,-9.33334434,1,0,0,2.66668582,-9.33334434,1,0,0,1,17,177,75,1,,,,,,,,
,,,,,,,,,,,,,FF,,,,,,,,3.7325,,,,,,,,,,,,,,,,,,,,,,61035f57b8399021c313c379,610364a49d089ebea6141013,2021-07-29_22h32.37.648,Simcolourproject_2stim_asymm_v5,2020.2.10,Win32,60,61025ae37ef11b136ea224fe,,,,,,,,,3169,37.33339421,-64.00001264,1,0,0,response3disk,,4,-8.666607161,-10.00001103,1,0,0,rectangle,-8.666607161,-10.00001103,1,0,0,-8.666607161,-10.00001103,1,0,0,1,18,178,112,1,,,,,,,,
,,,,,,,,,,,,,FF,,,,,,,,2.2976,,,,,,,,,,,,,,,,,,,,,,61035f57b8399021c313c379,610364a49d089ebea6141013,2021-07-29_22h32.37.648,Simcolourproject_2stim_asymm_v5,2020.2.10,Win32,60,61025ae37ef11b136ea224fe,,,,,,,,,264,-43.99998224,-80.00001311,1,0,0,response5disk,,3,-3.999981046,9.333322883,1,0,0,rectangle,-3.999981046,9.333322883,1,0,0,-3.999981046,9.333322883,1,0,0,1,19,179,40,1,,,,,,,,
,,,,,,,,,,,,,FF,,,,,,,,0.8,,,,,,,,,,,,,,,,,,,,,,61035f57b8399021c313c379,610364a49d089ebea6141013,2021-07-29_22h32.37.648,Simcolourproject_2stim_asymm_v5,2020.2.10,Win32,60,61025ae37ef11b136ea224fe,,,,,,,,,2329,32.00002003,-64.00001264,1,0,0,response3disk,,4,0.66668576,9.333322883,1,0,0,rectangle,0.66668576,9.333322883,1,0,0,0.66668576,9.333322883,1,0,0,1,20,180,146,1,,,,,,,,
,,,,,,,,,,,,,FF,,,,,,,,0.9665,,,,,,,,,,,,,,,,,,,,,,61035f57b8399021c313c379,610364a49d089ebea6141013,2021-07-29_22h32.37.648,Simcolourproject_2stim_asymm_v5,2020.2.10,Win32,60,61025ae37ef11b136ea224fe,,,,,,,,,479,105.3333555,-40.00001192,1,0,0,response3disk,,5,-18.66660746,-1.07288E-05,1,0,0,rectangle,-18.66660746,-1.07288E-05,1,0,0,-18.66660746,-1.07288E-05,1,0,0,1,21,181,148,1,,,,,,,,
,,,,,,,,,,,,,FF,,,,,,,,1.1831,,,,,,,,,,,,,,,,,,,,,,61035f57b8399021c313c379,610364a49d089ebea6141013,2021-07-29_22h32.37.648,Simcolourproject_2stim_asymm_v5,2020.2.10,Win32,60,61025ae37ef11b136ea224fe,,,,,,,,,3714,34.66668677,-62.00001258,1,0,0,response3disk,,4,0.66668576,-1.07288E-05,1,0,0,rectangle,0.66668576,-1.07288E-05,1,0,0,0.66668576,-1.07288E-05,1,0,0,1,22,182,152,1,,,,,,,,
,,,,,,,,,,,,,FF,,,,,,,,2.6661,,,,,,,,,,,,,,,,,,,,,,61035f57b8399021c313c379,610364a49d089ebea6141013,2021-07-29_22h32.37.648,Simcolourproject_2stim_asymm_v5,2020.2.10,Win32,60,61025ae37ef11b136ea224fe,,,,,,,,,943,69.33335447,-34.66667843,1,0,0,response3disk,,5,-8.666607161,-4.000010848,1,0,0,rectangle,-8.666607161,-4.000010848,1,0,0,-8.666607161,-4.000010848,1,0,0,1,23,183,11,1,,,,,,,,
,,,,,,,,,,,,,FF,,,,,,,,0.8676,,,,,,,,,,,,,,,,,,,,,,61035f57b8399021c313c379,610364a49d089ebea6141013,2021-07-29_22h32.37.648,Simcolourproject_2stim_asymm_v5,2020.2.10,Win32,60,61025ae37ef11b136ea224fe,,,,,,,,,4109,74.66668797,39.33330343,1,0,0,response1disk,,6,8.000019312,-0.666677415,1,0,0,rectangle,8.000019312,-0.666677415,1,0,0,8.000019312,-0.666677415,1,0,0,1,24,184,64,1,,,,,,,,
,,,,,,,,,,,,,FF,,,,,,,,1.1832,,,,,,,,,,,,,,,,,,,,,,61035f57b8399021c313c379,610364a49d089ebea6141013,2021-07-29_22h32.37.648,Simcolourproject_2stim_asymm_v5,2020.2.10,Win32,60,61025ae37ef11b136ea224fe,,,,,,,,,1085,60.00002086,40.66665715,1,0,0,response1disk,,6,5.333393256,5.99998945,1,0,0,rectangle,5.333393256,5.99998945,1,0,0,5.333393256,5.99998945,1,0,0,1,25,185,28,1,,,,,,,,
,,,,,,,,,,,,,FF,,,,,,,,0.8997,,,,,,,,,,,,,,,,,,,,,,61035f57b8399021c313c379,610364a49d089ebea6141013,2021-07-29_22h32.37.648,Simcolourproject_2stim_asymm_v5,2020.2.10,Win32,60,61025ae37ef11b136ea224fe,,,,,,,,,376,96.66668862,-31.333345,1,0,0,response3disk,,5,14.00001949,-0.666677415,1,0,0,rectangle,14.00001949,-0.666677415,1,0,0,14.00001949,-0.666677415,1,0,0,1,26,186,9,1,,,,,,,,
,,,,,,,,,,,,,FF,,,,,,,,0.7331,,,,,,,,,,,,,,,,,,,,,,61035f57b8399021c313c379,610364a49d089ebea6141013,2021-07-29_22h32.37.648,Simcolourproject_2stim_asymm_v5,2020.2.10,Win32,60,61025ae37ef11b136ea224fe,,,,,,,,,2618,73.33335459,-44.00001204,1,0,0,response3disk,,5,-25.9999817,10.66665626,1,0,0,rectangle,-25.9999817,10.66665626,1,0,0,-25.9999817,10.66665626,1,0,0,1,27,187,116,1,,,,,,,,
,,,,,,,,,,,,,FF,,,,,,,,0.6671,,,,,,,,,,,,,,,,,,,,,,61035f57b8399021c313c379,610364a49d089ebea6141013,2021-07-29_22h32.37.648,Simcolourproject_2stim_asymm_v5,2020.2.10,Win32,60,61025ae37ef11b136ea224fe,,,,,,,,,112,60.00002086,-33.33334506,1,0,0,response3disk,,5,15.33339355,1.999989331,1,0,0,rectangle,15.33339355,1.999989331,1,0,0,15.33339355,1.999989331,1,0,0,1,28,188,74,1,,,,,,,,
,,,,,,,,,,,,,FF,,,,,,,,0.5837,,,,,,,,,,,,,,,,,,,,,,61035f57b8399021c313c379,610364a49d089ebea6141013,2021-07-29_22h32.37.648,Simcolourproject_2stim_asymm_v5,2020.2.10,Win32,60,61025ae37ef11b136ea224fe,,,,,,,,,1013,65.33335435,-32.00001168,1,0,0,response3disk,,5,10.66668606,-1.07288E-05,1,0,0,rectangle,10.66668606,-1.07288E-05,1,0,0,10.66668606,-1.07288E-05,1,0,0,1,29,189,132,1,,,,,,,,
,,,,,,,,,,,,,FF,,,,,,,,0.8,,,,,,,,,,,,,,,,,,,,,,61035f57b8399021c313c379,610364a49d089ebea6141013,2021-07-29_22h32.37.648,Simcolourproject_2stim_asymm_v5,2020.2.10,Win32,60,61025ae37ef11b136ea224fe,,,,,,,,,3078,90.66668844,27.99999011,1,0,0,response1disk,,6,2.000019133,4.666656077,1,0,0,rectangle,2.000019133,4.666656077,1,0,0,2.000019133,4.666656077,1,0,0,1,30,190,23,1,,,,,,,,
,,,,,,,,,,,,,FF,,,,,,,,1.2996,,,,,,,,,,,,,,,,,,,,,,61035f57b8399021c313c379,610364a49d089ebea6141013,2021-07-29_22h32.37.648,Simcolourproject_2stim_asymm_v5,2020.2.10,Win32,60,61025ae37ef11b136ea224fe,,,,,,,,,3936,-29.33331513,93.33330504,1,0,0,response7disk,,0,-0.666606923,-4.666677535,1,0,0,rectangle,-0.666606923,-4.666677535,1,0,0,-0.666606923,-4.666677535,1,0,0,1,31,191,97,1,,,,,,,,
,,,,,,,,,,,,,FF,,,,,,,,0.8837,,,,,,,,,,,,,,,,,,,,,,61035f57b8399021c313c379,610364a49d089ebea6141013,2021-07-29_22h32.37.648,Simcolourproject_2stim_asymm_v5,2020.2.10,Win32,60,61025ae37ef11b136ea224fe,,,,,,,,,1965,-89.99998361,-46.66667879,1,0,0,response5disk,,2,12.00001943,5.333322763,1,0,0,rectangle,12.00001943,5.333322763,1,0,0,12.00001943,5.333322763,1,0,0,1,32,192,19,1,,,,,,,,
,,,,,,,,,,,,,FF,,,,,,,,1.9818,,,,,,,,,,,,,,,,,,,,,,61035f57b8399021c313c379,610364a49d089ebea6141013,2021-07-29_22h32.37.648,Simcolourproject_2stim_asymm_v5,2020.2.10,Win32,60,61025ae37ef11b136ea224fe,,,,,,,,,2763,40.66668695,-90.6666801,1,0,0,response3disk,,4,-5.333314419,-5.333344221,1,0,0,rectangle,-5.333314419,-5.333344221,1,0,0,-5.333314419,-5.333344221,1,0,0,1,33,193,153,1,,,,,,,,
,,,,,,,,,,,,,FF,,,,,,,,1.5492,,,,,,,,,,,,,,,,,,,,,,61035f57b8399021c313c379,610364a49d089ebea6141013,2021-07-29_22h32.37.648,Simcolourproject_2stim_asymm_v5,2020.2.10,Win32,60,61025ae37ef11b136ea224fe,,,,,,,,,921,80.66668814,-32.00001168,1,0,0,response3disk,,5,-7.999981165,3.333322704,1,0,0,rectangle,-7.999981165,3.333322704,1,0,0,-7.999981165,3.333322704,1,0,0,1,34,194,109,1,,,,,,,,
,,,,,,,,,,,,,FF,,,,,,,,1.1336,,,,,,,,,,,,,,,,,,,,,,61035f57b8399021c313c379,610364a49d089ebea6141013,2021-07-29_22h32.37.648,Simcolourproject_2stim_asymm_v5,2020.2.10,Win32,60,61025ae37ef11b136ea224fe,,,,,,,,,2249,72.66668791,-53.33334565,1,0,0,response3disk,,5,8.666685998,-2.666677475,1,0,0,rectangle,8.666685998,-2.666677475,1,0,0,8.666685998,-2.666677475,1,0,0,1,35,195,21,1,,,,,,,,
,,,,,,,,,,,,,FF,,,,,,,,1.1001,,,,,,,,,,,,,,,,,,,,,,61035f57b8399021c313c379,610364a49d089ebea6141013,2021-07-29_22h32.37.648,Simcolourproject_2stim_asymm_v5,2020.2.10,Win32,60,61025ae37ef11b136ea224fe,,,,,,,,,2932,31.33339403,-76.00001299,1,0,0,response3disk,,4,-1.3333143,0.666655958,1,0,0,rectangle,-1.3333143,0.666655958,1,0,0,-1.3333143,0.666655958,1,0,0,1,36,196,56,1,,,,,,,,
,,,,,,,,,,,,,FF,,,,,,,,0.9996,,,,,,,,,,,,,,,,,,,,,,61035f57b8399021c313c379,610364a49d089ebea6141013,2021-07-29_22h32.37.648,Simcolourproject_2stim_asymm_v5,2020.2.10,Win32,60,61025ae37ef11b136ea224fe,,,,,,,,,3629,40.00002027,-66.0000127,1,0,0,response3disk,,4,10.00001937,-1.333344102,1,0,0,rectangle,10.00001937,-1.333344102,1,0,0,10.00001937,-1.333344102,1,0,0,1,37,197,117,1,,,,,,,,
,,,,,,,,,,,,,FF,,,,,,,,1.3828,,,,,,,,,,,,,,,,,,,,,,61035f57b8399021c313c379,610364a49d089ebea6141013,2021-07-29_22h32.37.648,Simcolourproject_2stim_asymm_v5,2020.2.10,Win32,60,61025ae37ef11b136ea224fe,,,,,,,,,3015,97.33335531,-28.66667825,1,0,0,response3disk,,5,-3.999981046,8.666656196,1,0,0,rectangle,-3.999981046,8.666656196,1,0,0,-3.999981046,8.666656196,1,0,0,1,38,198,59,1,,,,,,,,
,,,,,,,,,,,,,FF,,,,,,,,1.0982,,,,,,,,,,,,,,,,,,,,,,61035f57b8399021c313c379,610364a49d089ebea6141013,2021-07-29_22h32.37.648,Simcolourproject_2stim_asymm_v5,2020.2.10,Win32,60,61025ae37ef11b136ea224fe,,,,,,,,,1093,78.0000214,-54.00001234,1,0,0,response3disk,,5,12.66668612,-8.666677654,1,0,0,rectangle,12.66668612,-8.666677654,1,0,0,12.66668612,-8.666677654,1,0,0,1,39,199,53,1,,,,,,,,
,,,,,,,,,,,,,FF,,,,,,,,0.8331,,,,,,,,,,,,,,,,,,,,,,61035f57b8399021c313c379,610364a49d089ebea6141013,2021-07-29_22h32.37.648,Simcolourproject_2stim_asymm_v5,2020.2.10,Win32,60,61025ae37ef11b136ea224fe,,,,,,,,,2383,68.66668779,29.99999017,1,0,0,response1disk,,6,6.666685939,7.99998951,1,0,0,rectangle,6.666685939,7.99998951,1,0,0,6.666685939,7.99998951,1,0,0,1,40,200,4,1,,,,,,,,
,,,,,,,,,,,,,FF,,,,,,,,1.3331,,,,,,,,,,,,,,,,,,,,,,61035f57b8399021c313c379,610364a49d089ebea6141013,2021-07-29_22h32.37.648,Simcolourproject_2stim_asymm_v5,2020.2.10,Win32,60,61025ae37ef11b136ea224fe,,,,,,,,,2033,-21.99998158,-90.00001341,1,0,0,response5disk,,3,18.00001961,2.666656017,1,0,0,rectangle,18.00001961,2.666656017,1,0,0,18.00001961,2.666656017,1,0,0,1,41,201,54,1,,,,,,,,
,,,,,,,,,,,,,FF,,,,,,,,1.9998,,,,,,,,,,,,,,,,,,,,,,61035f57b8399021c313c379,610364a49d089ebea6141013,2021-07-29_22h32.37.648,Simcolourproject_2stim_asymm_v5,2020.2.10,Win32,60,61025ae37ef11b136ea224fe,,,,,,,,,3929,24.66668648,-97.33334696,1,0,0,response3disk,,4,-3.999981046,4.666656077,1,0,0,rectangle,-3.999981046,4.666656077,1,0,0,-3.999981046,4.666656077,1,0,0,1,42,202,25,1,,,,,,,,
,,,,,,,,,,,,,FF,,,,,,,,2.8993,,,,,,,,,,,,,,,,,,,,,,61035f57b8399021c313c379,610364a49d089ebea6141013,2021-07-29_22h32.37.648,Simcolourproject_2stim_asymm_v5,2020.2.10,Win32,60,61025ae37ef11b136ea224fe,,,,,,,,,532,22.66668642,-80.6666798,1,0,0,response3disk,,4,-13.99998134,3.99998939,1,0,0,rectangle,-13.99998134,3.99998939,1,0,0,-13.99998134,3.99998939,1,0,0,1,43,203,150,1,,,,,,,,
,,,,,,,,,,,,,FF,,,,,,,,2.733,,,,,,,,,,,,,,,,,,,,,,61035f57b8399021c313c379,610364a49d089ebea6141013,2021-07-29_22h32.37.648,Simcolourproject_2stim_asymm_v5,2020.2.10,Win32,60,61025ae37ef11b136ea224fe,,,,,,,,,2703,99.33335537,-32.66667837,1,0,0,response3disk,,5,-5.999981105,-4.666677535,1,0,0,rectangle,-5.999981105,-4.666677535,1,0,0,-5.999981105,-4.666677535,1,0,0,1,44,204,125,1,,,,,,,,
,,,,,,,,,,,,,FF,,,,,,,,4.2155,,,,,,,,,,,,,,,,,,,,,,61035f57b8399021c313c379,610364a49d089ebea6141013,2021-07-29_22h32.37.648,Simcolourproject_2stim_asymm_v5,2020.2.10,Win32,60,61025ae37ef11b136ea224fe,,,,,,,,,876,42.00002033,-78.66667974,1,0,0,response3disk,,4,-3.333314359,-14.00001115,1,0,0,rectangle,-3.333314359,-14.00001115,1,0,0,-3.333314359,-14.00001115,1,0,0,1,45,205,7,1,,,,,,,,
,,,,,,,,,,,,,FF,,,,,,,,1.6005,,,,,,,,,,,,,,,,,,,,,,61035f57b8399021c313c379,610364a49d089ebea6141013,2021-07-29_22h32.37.648,Simcolourproject_2stim_asymm_v5,2020.2.10,Win32,60,61025ae37ef11b136ea224fe,,,,,,,,,2391,73.33335459,-38.00001186,1,0,0,response3disk,,5,19.33339367,5.333322763,1,0,0,rectangle,19.33339367,5.333322763,1,0,0,19.33339367,5.333322763,1,0,0,1,46,206,79,1,,,,,,,,
,,,,,,,,,,,,,FF,,,,,,,,0.7169,,,,,,,,,,,,,,,,,,,,,,61035f57b8399021c313c379,610364a49d089ebea6141013,2021-07-29_22h32.37.648,Simcolourproject_2stim_asymm_v5,2020.2.10,Win32,60,61025ae37ef11b136ea224fe,,,,,,,,,2042,92.00002182,-42.00001198,1,0,0,response3disk,,5,-3.333314359,-4.666677535,1,0,0,rectangle,-3.333314359,-4.666677535,1,0,0,-3.333314359,-4.666677535,1,0,0,1,47,207,86,1,,,,,,,,
,,,,,,,,,,,,,FF,,,,,,,,0.6833,,,,,,,,,,,,,,,,,,,,,,61035f57b8399021c313c379,610364a49d089ebea6141013,2021-07-29_22h32.37.648,Simcolourproject_2stim_asymm_v5,2020.2.10,Win32,60,61025ae37ef11b136ea224fe,,,,,,,,,3667,38.00002021,-83.33334655,1,0,0,response3disk,,4,6.666685939,-4.000010848,1,0,0,rectangle,6.666685939,-4.000010848,1,0,0,6.666685939,-4.000010848,1,0,0,1,48,208,126,1,,,,,,,,
,,,,,,,,,,,,,FF,,,,,,,,0.718,,,,,,,,,,,,,,,,,,,,,,61035f57b8399021c313c379,610364a49d089ebea6141013,2021-07-29_22h32.37.648,Simcolourproject_2stim_asymm_v5,2020.2.10,Win32,60,61025ae37ef11b136ea224fe,,,,,,,,,821,30.00001997,-70.00001281,1,0,0,response3disk,,4,1.333393137,3.99998939,1,0,0,rectangle,-48.66660835,74.66665816,1,0,0,-15.33331472,-4.666677535,1,0,0,1,49,209,66,1,,response7disk_3,TRUE,0,0,"[214,249,36,317,81,125,210,120,98,50,100,158,318,95,147,131,177,17,163,299]",1.701,rectangle
,,,,,,,,,,,,,FF,,,,,,,,1.2328,,,,,,,,,,,,,,,,,,,,,,61035f57b8399021c313c379,610364a49d089ebea6141013,2021-07-29_22h32.37.648,Simcolourproject_2stim_asymm_v5,2020.2.10,Win32,60,61025ae37ef11b136ea224fe,,,,,,,,,577,-22.66660758,-88.66668004,1,0,0,response5disk,,3,-13.33331466,10.66665626,1,0,0,rectangle,-13.33331466,10.66665626,1,0,0,-13.33331466,10.66665626,1,0,0,1,50,210,62,1,,,,,,,,
,,,,,,,,,,,,,FF,,,,,,,,1.5332,,,,,,,,,,,,,,,,,,,,,,61035f57b8399021c313c379,610364a49d089ebea6141013,2021-07-29_22h32.37.648,Simcolourproject_2stim_asymm_v5,2020.2.10,Win32,60,61025ae37ef11b136ea224fe,,,,,,,,,3574,99.33335537,15.99998975,1,0,0,response1disk,,6,-11.3333146,-4.666677535,1,0,0,rectangle,-11.3333146,-4.666677535,1,0,0,-11.3333146,-4.666677535,1,0,0,1,51,211,154,1,,,,,,,,
,,,,,,,,,,,,,FF,,,,,,,,0.7668,,,,,,,,,,,,,,,,,,,,,,61035f57b8399021c313c379,610364a49d089ebea6141013,2021-07-29_22h32.37.648,Simcolourproject_2stim_asymm_v5,2020.2.10,Win32,60,61025ae37ef11b136ea224fe,,,,,,,,,4067,58.0000208,-37.33334517,1,0,0,response3disk,,5,24.00001979,-3.333344162,1,0,0,rectangle,24.00001979,-3.333344162,1,0,0,24.00001979,-3.333344162,1,0,0,1,52,212,68,1,,,,,,,,
,,,,,,,,,,,,,FF,,,,,,,,0.6001,,,,,,,,,,,,,,,,,,,,,,61035f57b8399021c313c379,610364a49d089ebea6141013,2021-07-29_22h32.37.648,Simcolourproject_2stim_asymm_v5,2020.2.10,Win32,60,61025ae37ef11b136ea224fe,,,,,,,,,490,68.66668779,-38.66667855,1,0,0,response3disk,,5,18.6666863,-2.000010788,1,0,0,rectangle,32.66668671,-81.33334649,1,0,0,4.000019193,1.999989331,1,0,0,1,53,213,3,1,,response3disk_3,TRUE,4,4,"[214,249,36,317,81,125,210,120,98,50,100,158,318,95,147,131,177,17,163,299]",2.2659,rectangle
,,,,,,,,,,,,,FF,,,,,,,,1.55,,,,,,,,,,,,,,,,,,,,,,61035f57b8399021c313c379,610364a49d089ebea6141013,2021-07-29_22h32.37.648,Simcolourproject_2stim_asymm_v5,2020.2.10,Win32,60,61025ae37ef11b136ea224fe,,,,,,,,,1500,98.66668868,26.66665673,1,0,0,response1disk,,6,-13.33331466,-1.07288E-05,1,0,0,rectangle,-13.33331466,-1.07288E-05,1,0,0,-13.33331466,-1.07288E-05,1,0,0,1,54,214,102,1,,,,,,,,
,,,,,,,,,,,,,FF,,,,,,,,0.7666,,,,,,,,,,,,,,,,,,,,,,61035f57b8399021c313c379,610364a49d089ebea6141013,2021-07-29_22h32.37.648,Simcolourproject_2stim_asymm_v5,2020.2.10,Win32,60,61025ae37ef11b136ea224fe,,,,,,,,,3292,71.33335453,-53.33334565,1,0,0,response3disk,,5,13.33339349,-6.666677594,1,0,0,rectangle,13.33339349,-6.666677594,1,0,0,13.33339349,-6.666677594,1,0,0,1,55,215,49,1,,,,,,,,
,,,,,,,,,,,,,FF,,,,,,,,0.5832,,,,,,,,,,,,,,,,,,,,,,61035f57b8399021c313c379,610364a49d089ebea6141013,2021-07-29_22h32.37.648,Simcolourproject_2stim_asymm_v5,2020.2.10,Win32,60,61025ae37ef11b136ea224fe,,,,,,,,,828,64.00002098,-38.00001186,1,0,0,response3disk,,5,12.66668612,-1.333344102,1,0,0,rectangle,12.66668612,-1.333344102,1,0,0,12.66668612,-1.333344102,1,0,0,1,56,216,31,1,,,,,,,,
,,,,,,,,,,,,,FF,,,,,,,,0.6332,,,,,,,,,,,,,,,,,,,,,,61035f57b8399021c313c379,610364a49d089ebea6141013,2021-07-29_22h32.37.648,Simcolourproject_2stim_asymm_v5,2020.2.10,Win32,60,61025ae37ef11b136ea224fe,,,,,,,,,3750,39.33339427,-65.33334601,1,0,0,response3disk,,4,8.666685998,-4.666677535,1,0,0,rectangle,8.666685998,-4.666677535,1,0,0,8.666685998,-4.666677535,1,0,0,1,57,217,76,1,,,,,,,,
,,,,,,,,,,,,,FF,,,,,,,,1.0169,,,,,,,,,,,,,,,,,,,,,,61035f57b8399021c313c379,610364a49d089ebea6141013,2021-07-29_22h32.37.648,Simcolourproject_2stim_asymm_v5,2020.2.10,Win32,60,61025ae37ef11b136ea224fe,,,,,,,,,1520,83.33335489,-44.00001204,1,0,0,response3disk,,5,-22.66660758,-4.000010848,1,0,0,rectangle,-22.66660758,-4.000010848,1,0,0,-22.66660758,-4.000010848,1,0,0,1,58,218,124,1,,,,,,,,
,,,,,,,,,,,,,FF,,,,,,,,0.8675,,,,,,,,,,,,,,,,,,,,,,61035f57b8399021c313c379,610364a49d089ebea6141013,2021-07-29_22h32.37.648,Simcolourproject_2stim_asymm_v5,2020.2.10,Win32,60,61025ae37ef11b136ea224fe,,,,,,,,,3284,39.33339427,-69.33334613,1,0,0,response3disk,,4,14.00001949,-4.666677535,1,0,0,rectangle,14.00001949,-4.666677535,1,0,0,14.00001949,-4.666677535,1,0,0,1,59,219,8,1,,,,,,,,
,,,,,,,,,,,,,FF,,,,,,,,0.6496,,,,,,,,,,,,,,,,,,,,,,61035f57b8399021c313c379,610364a49d089ebea6141013,2021-07-29_22h32.37.648,Simcolourproject_2stim_asymm_v5,2020.2.10,Win32,60,61025ae37ef11b136ea224fe,,,,,,,,,3310,64.66668767,-50.66667891,1,0,0,response3disk,,5,8.000019312,-11.3333444,1,0,0,rectangle,8.000019312,-11.3333444,1,0,0,8.000019312,-11.3333444,1,0,0,1,60,220,137,1,,,,,,,,
,,,,,,,,,,,,,FF,,,,,,,,0.6165,,,,,,,,,,,,,,,,,,,,,,61035f57b8399021c313c379,610364a49d089ebea6141013,2021-07-29_22h32.37.648,Simcolourproject_2stim_asymm_v5,2020.2.10,Win32,60,61025ae37ef11b136ea224fe,,,,,,,,,4283,46.00002044,-69.33334613,1,0,0,response3disk,,4,2.66668582,-2.666677475,1,0,0,rectangle,2.66668582,-2.666677475,1,0,0,2.66668582,-2.666677475,1,0,0,1,61,221,85,1,,,,,,,,
,,,,,,,,,,,,,FF,,,,,,,,0.9162,,,,,,,,,,,,,,,,,,,,,,61035f57b8399021c313c379,610364a49d089ebea6141013,2021-07-29_22h32.37.648,Simcolourproject_2stim_asymm_v5,2020.2.10,Win32,60,61025ae37ef11b136ea224fe,,,,,,,,,3916,79.33335477,-53.33334565,1,0,0,response3disk,,5,19.33339367,-7.333344281,1,0,0,rectangle,19.33339367,-7.333344281,1,0,0,19.33339367,-7.333344281,1,0,0,1,62,222,139,1,,,,,,,,
,,,,,,,,,,,,,FF,,,,,,,,1.8996,,,,,,,,,,,,,,,,,,,,,,61035f57b8399021c313c379,610364a49d089ebea6141013,2021-07-29_22h32.37.648,Simcolourproject_2stim_asymm_v5,2020.2.10,Win32,60,61025ae37ef11b136ea224fe,,,,,,,,,933,75.33335465,-17.33334458,1,0,0,response3disk,,5,9.333393375,8.666656196,1,0,0,rectangle,9.333393375,8.666656196,1,0,0,9.333393375,8.666656196,1,0,0,1,63,223,91,1,,,,,,,,
,,,,,,,,,,,,,FF,,,,,,,,0.7834,,,,,,,,,,,,,,,,,,,,,,61035f57b8399021c313c379,610364a49d089ebea6141013,2021-07-29_22h32.37.648,Simcolourproject_2stim_asymm_v5,2020.2.10,Win32,60,61025ae37ef11b136ea224fe,,,,,,,,,547,27.33339391,-82.66667986,1,0,0,response3disk,,4,-3.999981046,-2.666677475,1,0,0,rectangle,-3.999981046,-2.666677475,1,0,0,-3.999981046,-2.666677475,1,0,0,1,64,224,151,1,,,,,,,,
,,,,,,,,,,,,,FF,,,,,,,,0.7662,,,,,,,,,,,,,,,,,,,,,,61035f57b8399021c313c379,610364a49d089ebea6141013,2021-07-29_22h32.37.648,Simcolourproject_2stim_asymm_v5,2020.2.10,Win32,60,61025ae37ef11b136ea224fe,,,,,,,,,465,51.33335394,-68.66667944,1,0,0,response3disk,,4,18.00001961,-0.666677415,1,0,0,rectangle,18.00001961,-0.666677415,1,0,0,18.00001961,-0.666677415,1,0,0,1,65,225,2,1,,,,,,,,
,,,,,,,,,,,,,FF,,,,,,,,0.6336,,,,,,,,,,,,,,,,,,,,,,61035f57b8399021c313c379,610364a49d089ebea6141013,2021-07-29_22h32.37.648,Simcolourproject_2stim_asymm_v5,2020.2.10,Win32,60,61025ae37ef11b136ea224fe,,,,,,,,,3334,64.00002098,-40.00001192,1,0,0,response3disk,,5,-7.333314478,5.333322763,1,0,0,rectangle,-7.333314478,5.333322763,1,0,0,-7.333314478,5.333322763,1,0,0,1,66,226,37,1,,,,,,,,
,,,,,,,,,,,,,FF,,,,,,,,0.6998,,,,,,,,,,,,,,,,,,,,,,61035f57b8399021c313c379,610364a49d089ebea6141013,2021-07-29_22h32.37.648,Simcolourproject_2stim_asymm_v5,2020.2.10,Win32,60,61025ae37ef11b136ea224fe,,,,,,,,,3453,64.66668767,34.66665697,1,0,0,response1disk,,6,-2.666606983,3.99998939,1,0,0,rectangle,-2.666606983,3.99998939,1,0,0,-2.666606983,3.99998939,1,0,0,1,67,227,141,1,,,,,,,,
,,,,,,,,,,,,,FF,,,,,,,,0.8835,,,,,,,,,,,,,,,,,,,,,,61035f57b8399021c313c379,610364a49d089ebea6141013,2021-07-29_22h32.37.648,Simcolourproject_2stim_asymm_v5,2020.2.10,Win32,60,61025ae37ef11b136ea224fe,,,,,,,,,1696,59.33335418,41.99999052,1,0,0,response1disk,,6,22.66668642,3.99998939,1,0,0,rectangle,22.66668642,3.99998939,1,0,0,22.66668642,3.99998939,1,0,0,1,68,228,107,1,,,,,,,,
,,,,,,,,,,,,,FF,,,,,,,,0.6988,,,,,,,,,,,,,,,,,,,,,,61035f57b8399021c313c379,610364a49d089ebea6141013,2021-07-29_22h32.37.648,Simcolourproject_2stim_asymm_v5,2020.2.10,Win32,60,61025ae37ef11b136ea224fe,,,,,,,,,1997,66.66668773,-34.00001174,1,0,0,response3disk,,5,12.00001943,4.666656077,1,0,0,rectangle,12.00001943,4.666656077,1,0,0,12.00001943,4.666656077,1,0,0,1,69,229,134,1,,,,,,,,
,,,,,,,,,,,,,FF,,,,,,,,1.0167,,,,,,,,,,,,,,,,,,,,,,61035f57b8399021c313c379,610364a49d089ebea6141013,2021-07-29_22h32.37.648,Simcolourproject_2stim_asymm_v5,2020.2.10,Win32,60,61025ae37ef11b136ea224fe,,,,,,,,,1237,64.00002098,92.6666587,1,0,0,response1disk,,7,14.66668618,5.99998945,1,0,0,rectangle,14.66668618,5.99998945,1,0,0,14.66668618,5.99998945,1,0,0,1,70,230,26,1,,,,,,,,
,,,,,,,,,,,,,FF,,,,,,,,1.7327,,,,,,,,,,,,,,,,,,,,,,61035f57b8399021c313c379,610364a49d089ebea6141013,2021-07-29_22h32.37.648,Simcolourproject_2stim_asymm_v5,2020.2.10,Win32,60,61025ae37ef11b136ea224fe,,,,,,,,,185,-74.66660913,27.33330307,1,0,0,response7disk,,1,-9.999981225,-1.07288E-05,1,0,0,rectangle,-9.999981225,-1.07288E-05,1,0,0,-9.999981225,-1.07288E-05,1,0,0,1,71,231,156,1,,,,,,,,
,,,,,,,,,,,,,FF,,,,,,,,1.0002,,,,,,,,,,,,,,,,,,,,,,61035f57b8399021c313c379,610364a49d089ebea6141013,2021-07-29_22h32.37.648,Simcolourproject_2stim_asymm_v5,2020.2.10,Win32,60,61025ae37ef11b136ea224fe,,,,,,,,,1031,-21.3333149,-77.33334637,1,0,0,response5disk,,3,20.00001967,5.99998945,1,0,0,rectangle,20.00001967,5.99998945,1,0,0,20.00001967,5.99998945,1,0,0,1,72,232,149,1,,,,,,,,
,,,,,,,,,,,,,FF,,,,,,,,0.9617,,,,,,,,,,,,,,,,,,,,,,61035f57b8399021c313c379,610364a49d089ebea6141013,2021-07-29_22h32.37.648,Simcolourproject_2stim_asymm_v5,2020.2.10,Win32,60,61025ae37ef11b136ea224fe,,,,,,,,,2295,-22.66660758,-88.66668004,1,0,0,response5disk,,3,19.33339367,7.99998951,1,0,0,rectangle,19.33339367,7.99998951,1,0,0,19.33339367,7.99998951,1,0,0,1,73,233,17,1,,,,,,,,
,,,,,,,,,,,,,FF,,,,,,,,0.7378,,,,,,,,,,,,,,,,,,,,,,61035f57b8399021c313c379,610364a49d089ebea6141013,2021-07-29_22h32.37.648,Simcolourproject_2stim_asymm_v5,2020.2.10,Win32,60,61025ae37ef11b136ea224fe,,,,,,,,,3950,32.00002003,-64.66667932,1,0,0,response3disk,,4,10.66668606,-0.666677415,1,0,0,rectangle,10.66668606,-0.666677415,1,0,0,10.66668606,-0.666677415,1,0,0,1,74,234,5,1,,,,,,,,
,,,,,,,,,,,,,FF,,,,,,,,2.2163,,,,,,,,,,,,,,,,,,,,,,61035f57b8399021c313c379,610364a49d089ebea6141013,2021-07-29_22h32.37.648,Simcolourproject_2stim_asymm_v5,2020.2.10,Win32,60,61025ae37ef11b136ea224fe,,,,,,,,,2741,88.66668838,-19.33334464,1,0,0,response3disk,,5,16.00001955,8.666656196,1,0,0,rectangle,16.00001955,8.666656196,1,0,0,16.00001955,8.666656196,1,0,0,1,75,235,81,1,,,,,,,,
,,,,,,,,,,,,,FF,,,,,,,,0.9673,,,,,,,,,,,,,,,,,,,,,,61035f57b8399021c313c379,610364a49d089ebea6141013,2021-07-29_22h32.37.648,Simcolourproject_2stim_asymm_v5,2020.2.10,Win32,60,61025ae37ef11b136ea224fe,,,,,,,,,323,92.00002182,37.33330337,1,0,0,response1disk,,6,18.6666863,8.666656196,1,0,0,rectangle,18.6666863,8.666656196,1,0,0,18.6666863,8.666656196,1,0,0,1,76,236,6,1,,,,,,,,
,,,,,,,,,,,,,FF,,,,,,,,0.821,,,,,,,,,,,,,,,,,,,,,,61035f57b8399021c313c379,610364a49d089ebea6141013,2021-07-29_22h32.37.648,Simcolourproject_2stim_asymm_v5,2020.2.10,Win32,60,61025ae37ef11b136ea224fe,,,,,,,,,2271,31.33339403,70.66665804,1,0,0,response1disk,,7,19.33339367,4.666656077,1,0,0,rectangle,19.33339367,4.666656077,1,0,0,19.33339367,4.666656077,1,0,0,1,77,237,108,1,,,,,,,,
,,,,,,,,,,,,,FF,,,,,,,,2.2161,,,,,,,,,,,,,,,,,,,,,,61035f57b8399021c313c379,610364a49d089ebea6141013,2021-07-29_22h32.37.648,Simcolourproject_2stim_asymm_v5,2020.2.10,Win32,60,61025ae37ef11b136ea224fe,,,,,,,,,349,-23.99998164,-88.00001335,1,0,0,response5disk,,3,16.00001955,3.99998939,1,0,0,rectangle,16.00001955,3.99998939,1,0,0,16.00001955,3.99998939,1,0,0,1,78,238,142,1,,,,,,,,
,,,,,,,,,,,,,FF,,,,,,,,1.383,,,,,,,,,,,,,,,,,,,,,,61035f57b8399021c313c379,610364a49d089ebea6141013,2021-07-29_22h32.37.648,Simcolourproject_2stim_asymm_v5,2020.2.10,Win32,60,61025ae37ef11b136ea224fe,,,,,,,,,300,102.6666888,28.66665679,1,0,0,response1disk,,6,17.33339361,5.99998945,1,0,0,rectangle,17.33339361,5.99998945,1,0,0,17.33339361,5.99998945,1,0,0,1,79,239,100,1,,,,,,,,
,,,,,,,,,,,,,FF,,,,,,,,1.8882,,,,,,,,,,,,,,,,,,,,,,61035f57b8399021c313c379,610364a49d089ebea6141013,2021-07-29_22h32.37.648,Simcolourproject_2stim_asymm_v5,2020.2.10,Win32,60,61025ae37ef11b136ea224fe,,,,,,,,,735,71.33335453,-66.66667938,1,0,0,response3disk,,5,-28.66660776,-5.333344221,1,0,0,rectangle,-28.66660776,-5.333344221,1,0,0,-28.66660776,-5.333344221,1,0,0,1,80,240,136,1,,,,,,,,
,,,,,,,,,,,,,FF,,,,,,,,1.166,,,,,,,,,,,,,,,,,,,,,,61035f57b8399021c313c379,610364a49d089ebea6141013,2021-07-29_22h32.37.648,Simcolourproject_2stim_asymm_v5,2020.2.10,Win32,60,61025ae37ef11b136ea224fe,,,,,,,,,3381,-68.66660895,32.66665691,1,0,0,response7disk,,1,24.00001979,-2.666677475,1,0,0,rectangle,24.00001979,-2.666677475,1,0,0,24.00001979,-2.666677475,1,0,0,1,81,241,55,1,,,,,,,,
,,,,,,,,,,,,,FF,,,,,,,,1.033,,,,,,,,,,,,,,,,,,,,,,61035f57b8399021c313c379,610364a49d089ebea6141013,2021-07-29_22h32.37.648,Simcolourproject_2stim_asymm_v5,2020.2.10,Win32,60,61025ae37ef11b136ea224fe,,,,,,,,,4308,44.00002038,-76.66667968,1,0,0,response3disk,,4,3.333393196,-7.333344281,1,0,0,rectangle,3.333393196,-7.333344281,1,0,0,3.333393196,-7.333344281,1,0,0,1,82,242,103,1,,,,,,,,
