key_resp.keys,key_resp.rt,key_resp_14.keys,key_resp_14.rt,key_resp_15.keys,key_resp_15.rt,key_resp_17.keys,key_resp_17.rt,key_resp_9.keys,key_resp_9.rt,key_resp_10.keys,key_resp_10.rt,practice_comparison,Ecc,mouse_5.x,mouse_5.y,mouse_5.leftButton,mouse_5.midButton,mouse_5.rightButton,mouse_5.clicked_name,pracsimilarity,response_time,mouse_10.x,mouse_10.y,mouse_10.leftButton,mouse_10.midButton,mouse_10.rightButton,mouse_10.clicked_name,mouse_7.x,mouse_7.y,mouse_7.leftButton,mouse_7.midButton,mouse_7.rightButton,mouse_6.x,mouse_6.y,mouse_6.leftButton,mouse_6.midButton,mouse_6.rightButton,duringprac.thisRepN,duringprac.thisTrialN,duringprac.thisN,duringprac.thisIndex,duringprac.ran,participant,session,date,expName,psychopyVersion,OS,frameRate,study_id,mouse_7.clicked_name,catchpracsimilarity,catch_response_time,catchnumberprac,catchtrialorderprac,mouse_6.clicked_name,key_resp_22.keys,key_resp_22.rt,realcomparison,mouse.x,mouse.y,mouse.leftButton,mouse.midButton,mouse.rightButton,mouse.clicked_name,Colour2,similarity,mouse_2.x,mouse_2.y,mouse_2.leftButton,mouse_2.midButton,mouse_2.rightButton,mouse_2.clicked_name,mouse_3.x,mouse_3.y,mouse_3.leftButton,mouse_3.midButton,mouse_3.rightButton,mouse_11.x,mouse_11.y,mouse_11.leftButton,mouse_11.midButton,mouse_11.rightButton,trials_2.thisRepN,trials_2.thisTrialN,trials_2.thisN,trials_2.thisIndex,trials_2.ran,Colour1,mouse_3.clicked_name,catchornah,catchsimilarity,catchnumber,catchtrialorder,catchRT,mouse_11.clicked_name
space,0.6968,space,2.1813,space,22.2657,space,1.6659,space,1.1502,space,2.0021,141,FF,36.16796875,82.73046875,1,0,0,response1disk_5,7,6.869,2.6953125,-7.40234375,1,0,0,rectangle_8,2.6953125,-7.40234375,1,0,0,2.6953125,-7.40234375,1,0,0,0,0,0,0,1,610317bf4ff2cfcff5c3d8d1,61036e76feab2892fddca0c1,2021-07-29_20h16.57.766,Simcolourproject_2stim_asymm_v5,2020.2.10,MacIntel,60,61025ae37ef11b136ea224fe,,,,,,,,,,,,,,,,,,,,,,,,,,,,,,,,,,,,,,,,,,,,,,
,,,,,,,,,,,,139,FF,33.13671875,80.77734375,1,0,0,response1disk_5,7,1.9988,-2.59375,9.6953125,1,0,0,rectangle_8,-94.5703125,33.44140625,1,0,0,-2.640625,-0.046875,1,0,0,0,1,1,3,1,610317bf4ff2cfcff5c3d8d1,61036e76feab2892fddca0c1,2021-07-29_20h16.57.766,Simcolourproject_2stim_asymm_v5,2020.2.10,MacIntel,60,61025ae37ef11b136ea224fe,response7disk_7,1,1.8505,1,"[2,5]",rectangle_4,,,,,,,,,,,,,,,,,,,,,,,,,,,,,,,,,,,,,,,,
,,,,,,,,,,,,148,PF,-33.47265625,-70.953125,1,0,0,response5disk_5,3,2.5165,4.20703125,-2.328125,1,0,0,rectangle_8,4.20703125,-2.328125,1,0,0,4.20703125,-2.328125,1,0,0,0,2,2,2,1,610317bf4ff2cfcff5c3d8d1,61036e76feab2892fddca0c1,2021-07-29_20h16.57.766,Simcolourproject_2stim_asymm_v5,2020.2.10,MacIntel,60,61025ae37ef11b136ea224fe,,,,,,,,,,,,,,,,,,,,,,,,,,,,,,,,,,,,,,,,,,,,,,
,,,,,,,,,,,,61,PF,27.62890625,-55.71484375,1,0,0,response3disk_5,4,1.65,-1.51953125,8.6171875,1,0,0,rectangle_8,-1.51953125,8.6171875,1,0,0,-1.51953125,8.6171875,1,0,0,0,3,3,4,1,610317bf4ff2cfcff5c3d8d1,61036e76feab2892fddca0c1,2021-07-29_20h16.57.766,Simcolourproject_2stim_asymm_v5,2020.2.10,MacIntel,60,61025ae37ef11b136ea224fe,,,,,,,,,,,,,,,,,,,,,,,,,,,,,,,,,,,,,,,,,,,,,,
,,,,,,,,,,,,78,PF,-77.19921875,25.24609375,1,0,0,response7disk_5,1,0.6824,7.71484375,-2.42578125,1,0,0,rectangle_8,-91.53515625,37.3828125,1,0,0,-4.4453125,-5.390625,1,0,0,0,4,4,6,1,610317bf4ff2cfcff5c3d8d1,61036e76feab2892fddca0c1,2021-07-29_20h16.57.766,Simcolourproject_2stim_asymm_v5,2020.2.10,MacIntel,60,61025ae37ef11b136ea224fe,response7disk_7,1,1.4489,1,"[2,5]",rectangle_4,,,,,,,,,,,,,,,,,,,,,,,,,,,,,,,,,,,,,,,,
,,,,,,,,,,,,125,PF,32.91015625,-51.828125,1,0,0,response3disk_5,4,2.2658,-20.4140625,4.625,1,0,0,rectangle_8,-20.4140625,4.625,1,0,0,-20.4140625,4.625,1,0,0,0,5,5,1,1,610317bf4ff2cfcff5c3d8d1,61036e76feab2892fddca0c1,2021-07-29_20h16.57.766,Simcolourproject_2stim_asymm_v5,2020.2.10,MacIntel,60,61025ae37ef11b136ea224fe,,,,,,,,,,,,,,,,,,,,,,,,,,,,,,,,,,,,,,,,,,,,,,
,,,,,,,,,,,,92,FF,-83.67578125,-42.84375,1,0,0,response5disk_5,2,2.4654,-1.57421875,-1.4453125,1,0,0,rectangle_8,-1.57421875,-1.4453125,1,0,0,-1.57421875,-1.4453125,1,0,0,0,6,6,5,1,610317bf4ff2cfcff5c3d8d1,61036e76feab2892fddca0c1,2021-07-29_20h16.57.766,Simcolourproject_2stim_asymm_v5,2020.2.10,MacIntel,60,61025ae37ef11b136ea224fe,,,,,,,,,,,,,,,,,,,,,,,,,,,,,,,,,,,,,,,,,,,,,,
,,,,,,,,,,,,,FF,,,,,,,,1.7499,,,,,,,,,,,,,,,,,,,,,,610317bf4ff2cfcff5c3d8d1,61036e76feab2892fddca0c1,2021-07-29_20h16.57.766,Simcolourproject_2stim_asymm_v5,2020.2.10,MacIntel,60,61025ae37ef11b136ea224fe,,,,,,,space,2.5739,1149,-30.73828125,-73.6640625,1,0,0,response5disk,,3,4.2265625,0.38671875,1,0,0,rectangle,4.2265625,0.38671875,1,0,0,4.2265625,0.38671875,1,0,0,0,0,0,48,1,,,,,,,,
,,,,,,,,,,,,,FF,,,,,,,,2.3332,,,,,,,,,,,,,,,,,,,,,,610317bf4ff2cfcff5c3d8d1,61036e76feab2892fddca0c1,2021-07-29_20h16.57.766,Simcolourproject_2stim_asymm_v5,2020.2.10,MacIntel,60,61025ae37ef11b136ea224fe,,,,,,,,,2496,50.16796875,-33.9375,1,0,0,response3disk,,5,3.7890625,1.390625,1,0,0,rectangle,3.7890625,1.390625,1,0,0,3.7890625,1.390625,1,0,0,0,1,1,83,1,,,,,,,,
,,,,,,,,,,,,,FF,,,,,,,,1.7331,,,,,,,,,,,,,,,,,,,,,,610317bf4ff2cfcff5c3d8d1,61036e76feab2892fddca0c1,2021-07-29_20h16.57.766,Simcolourproject_2stim_asymm_v5,2020.2.10,MacIntel,60,61025ae37ef11b136ea224fe,,,,,,,,,4199,26.53125,67.99609375,1,0,0,response1disk,,7,2.07421875,-0.87109375,1,0,0,rectangle,2.07421875,-0.87109375,1,0,0,2.07421875,-0.87109375,1,0,0,0,2,2,113,1,,,,,,,,
,,,,,,,,,,,,,FF,,,,,,,,1.3667,,,,,,,,,,,,,,,,,,,,,,610317bf4ff2cfcff5c3d8d1,61036e76feab2892fddca0c1,2021-07-29_20h16.57.766,Simcolourproject_2stim_asymm_v5,2020.2.10,MacIntel,60,61025ae37ef11b136ea224fe,,,,,,,,,632,-37.6796875,-98.53515625,1,0,0,response5disk,,3,-3.83203125,-5.93359375,1,0,0,rectangle,-3.83203125,-5.93359375,1,0,0,-3.83203125,-5.93359375,1,0,0,0,3,3,30,1,,,,,,,,
,,,,,,,,,,,,,FF,,,,,,,,1.0494,,,,,,,,,,,,,,,,,,,,,,610317bf4ff2cfcff5c3d8d1,61036e76feab2892fddca0c1,2021-07-29_20h16.57.766,Simcolourproject_2stim_asymm_v5,2020.2.10,MacIntel,60,61025ae37ef11b136ea224fe,,,,,,,,,1727,18.59375,54.4453125,1,0,0,response1disk,,7,5.81640625,-3.29296875,1,0,0,rectangle,5.81640625,-3.29296875,1,0,0,5.81640625,-3.29296875,1,0,0,0,4,4,37,1,,,,,,,,
,,,,,,,,,,,,,FF,,,,,,,,1.1673,,,,,,,,,,,,,,,,,,,,,,610317bf4ff2cfcff5c3d8d1,61036e76feab2892fddca0c1,2021-07-29_20h16.57.766,Simcolourproject_2stim_asymm_v5,2020.2.10,MacIntel,60,61025ae37ef11b136ea224fe,,,,,,,,,173,65.93359375,-35.4296875,1,0,0,response3disk,,5,-5,2.62109375,1,0,0,rectangle,-5,2.62109375,1,0,0,-5,2.62109375,1,0,0,0,5,5,139,1,,,,,,,,
,,,,,,,,,,,,,FF,,,,,,,,1.5839,,,,,,,,,,,,,,,,,,,,,,610317bf4ff2cfcff5c3d8d1,61036e76feab2892fddca0c1,2021-07-29_20h16.57.766,Simcolourproject_2stim_asymm_v5,2020.2.10,MacIntel,60,61025ae37ef11b136ea224fe,,,,,,,,,3308,38.79296875,74.76171875,1,0,0,response1disk,,7,-5.58203125,-5.3984375,1,0,0,rectangle,-5.58203125,-5.3984375,1,0,0,-5.58203125,-5.3984375,1,0,0,0,6,6,77,1,,,,,,,,
,,,,,,,,,,,,,FF,,,,,,,,1.3844,,,,,,,,,,,,,,,,,,,,,,610317bf4ff2cfcff5c3d8d1,61036e76feab2892fddca0c1,2021-07-29_20h16.57.766,Simcolourproject_2stim_asymm_v5,2020.2.10,MacIntel,60,61025ae37ef11b136ea224fe,,,,,,,,,4188,-54.4921875,-78.6953125,1,0,0,response5disk,,3,-5.375,5.46484375,1,0,0,rectangle,-5.375,5.46484375,1,0,0,-5.375,5.46484375,1,0,0,0,7,7,107,1,,,,,,,,
,,,,,,,,,,,,,FF,,,,,,,,1.1537,,,,,,,,,,,,,,,,,,,,,,610317bf4ff2cfcff5c3d8d1,61036e76feab2892fddca0c1,2021-07-29_20h16.57.766,Simcolourproject_2stim_asymm_v5,2020.2.10,MacIntel,60,61025ae37ef11b136ea224fe,,,,,,,,,253,-65.234375,-28.80078125,1,0,0,response5disk,,2,10.34375,0.07421875,1,0,0,rectangle,10.34375,0.07421875,1,0,0,10.34375,0.07421875,1,0,0,0,8,8,94,1,,,,,,,,
,,,,,,,,,,,,,FF,,,,,,,,1.4,,,,,,,,,,,,,,,,,,,,,,610317bf4ff2cfcff5c3d8d1,61036e76feab2892fddca0c1,2021-07-29_20h16.57.766,Simcolourproject_2stim_asymm_v5,2020.2.10,MacIntel,60,61025ae37ef11b136ea224fe,,,,,,,,,1970,-32.82421875,-67.8046875,1,0,0,response5disk,,3,3.9375,5.64453125,1,0,0,rectangle,3.9375,5.64453125,1,0,0,3.9375,5.64453125,1,0,0,0,9,9,154,1,,,,,,,,
,,,,,,,,,,,,,FF,,,,,,,,1.5186,,,,,,,,,,,,,,,,,,,,,,610317bf4ff2cfcff5c3d8d1,61036e76feab2892fddca0c1,2021-07-29_20h16.57.766,Simcolourproject_2stim_asymm_v5,2020.2.10,MacIntel,60,61025ae37ef11b136ea224fe,,,,,,,,,1459,-80.6953125,-55.296875,1,0,0,response5disk,,2,-1.6875,-3.89453125,1,0,0,rectangle,-1.6875,-3.89453125,1,0,0,-1.6875,-3.89453125,1,0,0,0,10,10,79,1,,,,,,,,
,,,,,,,,,,,,,FF,,,,,,,,1.3996,,,,,,,,,,,,,,,,,,,,,,610317bf4ff2cfcff5c3d8d1,61036e76feab2892fddca0c1,2021-07-29_20h16.57.766,Simcolourproject_2stim_asymm_v5,2020.2.10,MacIntel,60,61025ae37ef11b136ea224fe,,,,,,,,,2681,41.046875,-77.19921875,1,0,0,response3disk,,4,1.64453125,-0.71875,1,0,0,rectangle,1.64453125,-0.71875,1,0,0,1.64453125,-0.71875,1,0,0,0,11,11,131,1,,,,,,,,
,,,,,,,,,,,,,FF,,,,,,,,0.9156,,,,,,,,,,,,,,,,,,,,,,610317bf4ff2cfcff5c3d8d1,61036e76feab2892fddca0c1,2021-07-29_20h16.57.766,Simcolourproject_2stim_asymm_v5,2020.2.10,MacIntel,60,61025ae37ef11b136ea224fe,,,,,,,,,437,-36.32421875,-90.12109375,1,0,0,response5disk,,3,-5.6484375,-0.1171875,1,0,0,rectangle,-5.6484375,-0.1171875,1,0,0,-5.6484375,-0.1171875,1,0,0,0,12,12,87,1,,,,,,,,
,,,,,,,,,,,,,FF,,,,,,,,1.8354,,,,,,,,,,,,,,,,,,,,,,610317bf4ff2cfcff5c3d8d1,61036e76feab2892fddca0c1,2021-07-29_20h16.57.766,Simcolourproject_2stim_asymm_v5,2020.2.10,MacIntel,60,61025ae37ef11b136ea224fe,,,,,,,,,2475,67.6484375,31.7109375,1,0,0,response1disk,,6,-25.83203125,-10.44921875,1,0,0,rectangle,-25.83203125,-10.44921875,1,0,0,-25.83203125,-10.44921875,1,0,0,0,13,13,28,1,,,,,,,,
,,,,,,,,,,,,,FF,,,,,,,,2.5678,,,,,,,,,,,,,,,,,,,,,,610317bf4ff2cfcff5c3d8d1,61036e76feab2892fddca0c1,2021-07-29_20h16.57.766,Simcolourproject_2stim_asymm_v5,2020.2.10,MacIntel,60,61025ae37ef11b136ea224fe,,,,,,,,,2337,73.8671875,-45.4609375,1,0,0,response3disk,,5,15.96875,-1.66796875,1,0,0,rectangle,15.96875,-1.66796875,1,0,0,15.96875,-1.66796875,1,0,0,0,14,14,58,1,,,,,,,,
,,,,,,,,,,,,,FF,,,,,,,,1.1843,,,,,,,,,,,,,,,,,,,,,,610317bf4ff2cfcff5c3d8d1,61036e76feab2892fddca0c1,2021-07-29_20h16.57.766,Simcolourproject_2stim_asymm_v5,2020.2.10,MacIntel,60,61025ae37ef11b136ea224fe,,,,,,,,,3996,83.18359375,-48.6640625,1,0,0,response3disk,,5,11.8125,-6.2421875,1,0,0,rectangle,11.8125,-6.2421875,1,0,0,11.8125,-6.2421875,1,0,0,0,15,15,51,1,,,,,,,,
,,,,,,,,,,,,,FF,,,,,,,,1.6842,,,,,,,,,,,,,,,,,,,,,,610317bf4ff2cfcff5c3d8d1,61036e76feab2892fddca0c1,2021-07-29_20h16.57.766,Simcolourproject_2stim_asymm_v5,2020.2.10,MacIntel,60,61025ae37ef11b136ea224fe,,,,,,,,,1732,27.71484375,-57.0703125,1,0,0,response3disk,,4,-9.515625,3.41015625,1,0,0,rectangle,-9.515625,3.41015625,1,0,0,-9.515625,3.41015625,1,0,0,0,16,16,114,1,,,,,,,,
,,,,,,,,,,,,,FF,,,,,,,,0.7677,,,,,,,,,,,,,,,,,,,,,,610317bf4ff2cfcff5c3d8d1,61036e76feab2892fddca0c1,2021-07-29_20h16.57.766,Simcolourproject_2stim_asymm_v5,2020.2.10,MacIntel,60,61025ae37ef11b136ea224fe,,,,,,,,,3243,-66.96875,31.76953125,1,0,0,response7disk,,1,19.28125,-1.6640625,1,0,0,rectangle,19.28125,-1.6640625,1,0,0,19.28125,-1.6640625,1,0,0,0,17,17,80,1,,,,,,,,
,,,,,,,,,,,,,FF,,,,,,,,1.1502,,,,,,,,,,,,,,,,,,,,,,610317bf4ff2cfcff5c3d8d1,61036e76feab2892fddca0c1,2021-07-29_20h16.57.766,Simcolourproject_2stim_asymm_v5,2020.2.10,MacIntel,60,61025ae37ef11b136ea224fe,,,,,,,,,307,82.18359375,29.30859375,1,0,0,response1disk,,6,-16.02734375,-9.578125,1,0,0,rectangle,-16.02734375,-9.578125,1,0,0,-16.02734375,-9.578125,1,0,0,0,18,18,136,1,,,,,,,,
,,,,,,,,,,,,,FF,,,,,,,,2.0844,,,,,,,,,,,,,,,,,,,,,,610317bf4ff2cfcff5c3d8d1,61036e76feab2892fddca0c1,2021-07-29_20h16.57.766,Simcolourproject_2stim_asymm_v5,2020.2.10,MacIntel,60,61025ae37ef11b136ea224fe,,,,,,,,,1330,74.83984375,36.69921875,1,0,0,response1disk,,6,-7.765625,-2.70703125,1,0,0,rectangle,-7.765625,-2.70703125,1,0,0,-7.765625,-2.70703125,1,0,0,0,19,19,5,1,,,,,,,,
,,,,,,,,,,,,,FF,,,,,,,,0.866,,,,,,,,,,,,,,,,,,,,,,610317bf4ff2cfcff5c3d8d1,61036e76feab2892fddca0c1,2021-07-29_20h16.57.766,Simcolourproject_2stim_asymm_v5,2020.2.10,MacIntel,60,61025ae37ef11b136ea224fe,,,,,,,,,239,-33.95703125,-84.5390625,1,0,0,response5disk,,3,-6.1796875,3.6328125,1,0,0,rectangle,-6.1796875,3.6328125,1,0,0,-6.1796875,3.6328125,1,0,0,0,20,20,36,1,,,,,,,,
,,,,,,,,,,,,,FF,,,,,,,,0.8337,,,,,,,,,,,,,,,,,,,,,,610317bf4ff2cfcff5c3d8d1,61036e76feab2892fddca0c1,2021-07-29_20h16.57.766,Simcolourproject_2stim_asymm_v5,2020.2.10,MacIntel,60,61025ae37ef11b136ea224fe,,,,,,,,,3178,59.18359375,31.4921875,1,0,0,response1disk,,6,-11.2109375,-0.375,1,0,0,rectangle,-11.2109375,-0.375,1,0,0,-11.2109375,-0.375,1,0,0,0,21,21,76,1,,,,,,,,
,,,,,,,,,,,,,FF,,,,,,,,0.9525,,,,,,,,,,,,,,,,,,,,,,610317bf4ff2cfcff5c3d8d1,61036e76feab2892fddca0c1,2021-07-29_20h16.57.766,Simcolourproject_2stim_asymm_v5,2020.2.10,MacIntel,60,61025ae37ef11b136ea224fe,,,,,,,,,2417,95.90625,-46.828125,1,0,0,response3disk,,5,6.3359375,-1.0859375,1,0,0,rectangle,6.3359375,-1.0859375,1,0,0,6.3359375,-1.0859375,1,0,0,0,22,22,12,1,,,,,,,,
,,,,,,,,,,,,,FF,,,,,,,,1.5843,,,,,,,,,,,,,,,,,,,,,,610317bf4ff2cfcff5c3d8d1,61036e76feab2892fddca0c1,2021-07-29_20h16.57.766,Simcolourproject_2stim_asymm_v5,2020.2.10,MacIntel,60,61025ae37ef11b136ea224fe,,,,,,,,,506,88.58984375,-31.76953125,1,0,0,response3disk,,5,5.546875,-6.421875,1,0,0,rectangle,5.546875,-6.421875,1,0,0,5.546875,-6.421875,1,0,0,0,23,23,152,1,,,,,,,,
,,,,,,,,,,,,,FF,,,,,,,,1.6837,,,,,,,,,,,,,,,,,,,,,,610317bf4ff2cfcff5c3d8d1,61036e76feab2892fddca0c1,2021-07-29_20h16.57.766,Simcolourproject_2stim_asymm_v5,2020.2.10,MacIntel,60,61025ae37ef11b136ea224fe,,,,,,,,,2498,32.9765625,-53.234375,1,0,0,response3disk,,4,-2.30078125,3.0390625,1,0,0,rectangle,-2.30078125,3.0390625,1,0,0,-2.30078125,3.0390625,1,0,0,0,24,24,45,1,,,,,,,,
,,,,,,,,,,,,,FF,,,,,,,,1.1345,,,,,,,,,,,,,,,,,,,,,,610317bf4ff2cfcff5c3d8d1,61036e76feab2892fddca0c1,2021-07-29_20h16.57.766,Simcolourproject_2stim_asymm_v5,2020.2.10,MacIntel,60,61025ae37ef11b136ea224fe,,,,,,,,,252,69.55078125,29.16015625,1,0,0,response1disk,,6,-15.984375,-6.44140625,1,0,0,rectangle,-15.984375,-6.44140625,1,0,0,-15.984375,-6.44140625,1,0,0,0,25,25,54,1,,,,,,,,
,,,,,,,,,,,,,FF,,,,,,,,1.1488,,,,,,,,,,,,,,,,,,,,,,610317bf4ff2cfcff5c3d8d1,61036e76feab2892fddca0c1,2021-07-29_20h16.57.766,Simcolourproject_2stim_asymm_v5,2020.2.10,MacIntel,60,61025ae37ef11b136ea224fe,,,,,,,,,3474,-48.20703125,-93.86328125,1,0,0,response5disk,,3,-2.23828125,0.625,1,0,0,rectangle,-2.23828125,0.625,1,0,0,-2.23828125,0.625,1,0,0,0,26,26,159,1,,,,,,,,
,,,,,,,,,,,,,FF,,,,,,,,0.8663,,,,,,,,,,,,,,,,,,,,,,610317bf4ff2cfcff5c3d8d1,61036e76feab2892fddca0c1,2021-07-29_20h16.57.766,Simcolourproject_2stim_asymm_v5,2020.2.10,MacIntel,60,61025ae37ef11b136ea224fe,,,,,,,,,3725,44.79296875,-87.671875,1,0,0,response3disk,,4,12.078125,-7.421875,1,0,0,rectangle,12.078125,-7.421875,1,0,0,12.078125,-7.421875,1,0,0,0,27,27,129,1,,,,,,,,
,,,,,,,,,,,,,FF,,,,,,,,1.2837,,,,,,,,,,,,,,,,,,,,,,610317bf4ff2cfcff5c3d8d1,61036e76feab2892fddca0c1,2021-07-29_20h16.57.766,Simcolourproject_2stim_asymm_v5,2020.2.10,MacIntel,60,61025ae37ef11b136ea224fe,,,,,,,,,2786,-26.87890625,-77.37890625,1,0,0,response5disk,,3,-0.04296875,-0.86328125,1,0,0,rectangle,-0.04296875,-0.86328125,1,0,0,-0.04296875,-0.86328125,1,0,0,0,28,28,145,1,,,,,,,,
,,,,,,,,,,,,,FF,,,,,,,,0.9672,,,,,,,,,,,,,,,,,,,,,,610317bf4ff2cfcff5c3d8d1,61036e76feab2892fddca0c1,2021-07-29_20h16.57.766,Simcolourproject_2stim_asymm_v5,2020.2.10,MacIntel,60,61025ae37ef11b136ea224fe,,,,,,,,,3131,-23.61328125,-66.9609375,1,0,0,response5disk,,3,1.9140625,-2.76953125,1,0,0,rectangle,1.9140625,-2.76953125,1,0,0,1.9140625,-2.76953125,1,0,0,0,29,29,19,1,,,,,,,,
,,,,,,,,,,,,,FF,,,,,,,,1.0166,,,,,,,,,,,,,,,,,,,,,,610317bf4ff2cfcff5c3d8d1,61036e76feab2892fddca0c1,2021-07-29_20h16.57.766,Simcolourproject_2stim_asymm_v5,2020.2.10,MacIntel,60,61025ae37ef11b136ea224fe,,,,,,,,,313,37.33203125,-77.421875,1,0,0,response3disk,,4,5.68359375,-6.07421875,1,0,0,rectangle,5.68359375,-6.07421875,1,0,0,5.68359375,-6.07421875,1,0,0,0,30,30,101,1,,,,,,,,
,,,,,,,,,,,,,FF,,,,,,,,1.213,,,,,,,,,,,,,,,,,,,,,,610317bf4ff2cfcff5c3d8d1,61036e76feab2892fddca0c1,2021-07-29_20h16.57.766,Simcolourproject_2stim_asymm_v5,2020.2.10,MacIntel,60,61025ae37ef11b136ea224fe,,,,,,,,,3072,67.2421875,39.53125,1,0,0,response1disk,,6,-6.85546875,1.08203125,1,0,0,rectangle,-6.85546875,1.08203125,1,0,0,-6.85546875,1.08203125,1,0,0,0,31,31,155,1,,,,,,,,
,,,,,,,,,,,,,FF,,,,,,,,1.3995,,,,,,,,,,,,,,,,,,,,,,610317bf4ff2cfcff5c3d8d1,61036e76feab2892fddca0c1,2021-07-29_20h16.57.766,Simcolourproject_2stim_asymm_v5,2020.2.10,MacIntel,60,61025ae37ef11b136ea224fe,,,,,,,,,616,46.5078125,-92.71484375,1,0,0,response3disk,,4,-0.75,10.44140625,1,0,0,rectangle,-0.75,10.44140625,1,0,0,-0.75,10.44140625,1,0,0,0,32,32,81,1,,,,,,,,
,,,,,,,,,,,,,FF,,,,,,,,0.7661,,,,,,,,,,,,,,,,,,,,,,610317bf4ff2cfcff5c3d8d1,61036e76feab2892fddca0c1,2021-07-29_20h16.57.766,Simcolourproject_2stim_asymm_v5,2020.2.10,MacIntel,60,61025ae37ef11b136ea224fe,,,,,,,,,3873,66.578125,-32.20703125,1,0,0,response3disk,,5,-11.6484375,-2.31640625,1,0,0,rectangle,-11.6484375,-2.31640625,1,0,0,-11.6484375,-2.31640625,1,0,0,0,33,33,153,1,,,,,,,,
,,,,,,,,,,,,,FF,,,,,,,,1.8514,,,,,,,,,,,,,,,,,,,,,,610317bf4ff2cfcff5c3d8d1,61036e76feab2892fddca0c1,2021-07-29_20h16.57.766,Simcolourproject_2stim_asymm_v5,2020.2.10,MacIntel,60,61025ae37ef11b136ea224fe,,,,,,,,,3172,-28.74609375,-91.58984375,1,0,0,response5disk,,3,-8.5625,1.9296875,1,0,0,rectangle,-8.5625,1.9296875,1,0,0,-8.5625,1.9296875,1,0,0,0,34,34,156,1,,,,,,,,
,,,,,,,,,,,,,FF,,,,,,,,2.333,,,,,,,,,,,,,,,,,,,,,,610317bf4ff2cfcff5c3d8d1,61036e76feab2892fddca0c1,2021-07-29_20h16.57.766,Simcolourproject_2stim_asymm_v5,2020.2.10,MacIntel,60,61025ae37ef11b136ea224fe,,,,,,,,,363,80.94921875,31.5234375,1,0,0,response1disk,,6,0.20703125,-5.8359375,1,0,0,rectangle,0.20703125,-5.8359375,1,0,0,0.20703125,-5.8359375,1,0,0,0,35,35,122,1,,,,,,,,
,,,,,,,,,,,,,FF,,,,,,,,1.0368,,,,,,,,,,,,,,,,,,,,,,610317bf4ff2cfcff5c3d8d1,61036e76feab2892fddca0c1,2021-07-29_20h16.57.766,Simcolourproject_2stim_asymm_v5,2020.2.10,MacIntel,60,61025ae37ef11b136ea224fe,,,,,,,,,1403,-39.67578125,-79.78515625,1,0,0,response5disk,,3,-1.6171875,-5.44140625,1,0,0,rectangle,-1.6171875,-5.44140625,1,0,0,-1.6171875,-5.44140625,1,0,0,0,36,36,123,1,,,,,,,,
,,,,,,,,,,,,,FF,,,,,,,,1.3013,,,,,,,,,,,,,,,,,,,,,,610317bf4ff2cfcff5c3d8d1,61036e76feab2892fddca0c1,2021-07-29_20h16.57.766,Simcolourproject_2stim_asymm_v5,2020.2.10,MacIntel,60,61025ae37ef11b136ea224fe,,,,,,,,,607,17.4375,-72.6953125,1,0,0,response3disk,,4,-0.609375,8.3125,1,0,0,rectangle,-0.609375,8.3125,1,0,0,-0.609375,8.3125,1,0,0,0,37,37,146,1,,,,,,,,
,,,,,,,,,,,,,FF,,,,,,,,1.5525,,,,,,,,,,,,,,,,,,,,,,610317bf4ff2cfcff5c3d8d1,61036e76feab2892fddca0c1,2021-07-29_20h16.57.766,Simcolourproject_2stim_asymm_v5,2020.2.10,MacIntel,60,61025ae37ef11b136ea224fe,,,,,,,,,2628,64.97265625,33.34375,1,0,0,response1disk,,6,-2.171875,-10.00390625,1,0,0,rectangle,-2.171875,-10.00390625,1,0,0,-2.171875,-10.00390625,1,0,0,0,38,38,2,1,,,,,,,,
,,,,,,,,,,,,,FF,,,,,,,,1.4167,,,,,,,,,,,,,,,,,,,,,,610317bf4ff2cfcff5c3d8d1,61036e76feab2892fddca0c1,2021-07-29_20h16.57.766,Simcolourproject_2stim_asymm_v5,2020.2.10,MacIntel,60,61025ae37ef11b136ea224fe,,,,,,,,,2242,-49.1328125,-91.78125,1,0,0,response5disk,,3,11.8203125,2.36328125,1,0,0,rectangle,-24.796875,97.78515625,1,0,0,-5.5546875,-2.9765625,1,0,0,0,39,39,6,1,,response7disk_3,TRUE,0,0,"[319,42,224,157,232,246,298,253,55,273,122,65,178,319,40,315,118,49,111,223]",1.6498,rectangle
,,,,,,,,,,,,,FF,,,,,,,,0.8835,,,,,,,,,,,,,,,,,,,,,,610317bf4ff2cfcff5c3d8d1,61036e76feab2892fddca0c1,2021-07-29_20h16.57.766,Simcolourproject_2stim_asymm_v5,2020.2.10,MacIntel,60,61025ae37ef11b136ea224fe,,,,,,,,,3671,-94.49609375,-46.46875,1,0,0,response5disk,,2,-15.296875,-4.2734375,1,0,0,rectangle,-15.296875,-4.2734375,1,0,0,-15.296875,-4.2734375,1,0,0,0,40,40,140,1,,,,,,,,
,,,,,,,,,,,,,FF,,,,,,,,0.9657,,,,,,,,,,,,,,,,,,,,,,610317bf4ff2cfcff5c3d8d1,61036e76feab2892fddca0c1,2021-07-29_20h16.57.766,Simcolourproject_2stim_asymm_v5,2020.2.10,MacIntel,60,61025ae37ef11b136ea224fe,,,,,,,,,3126,70.37109375,-37.7734375,1,0,0,response3disk,,5,14.16796875,-4.63671875,1,0,0,rectangle,74.34765625,35.8984375,1,0,0,-4.56640625,-1.5,1,0,0,0,41,41,142,1,,response1disk_3,TRUE,6,6,"[319,42,224,157,232,246,298,253,55,273,122,65,178,319,40,315,118,49,111,223]",1.5841,rectangle
,,,,,,,,,,,,,FF,,,,,,,,1.1599,,,,,,,,,,,,,,,,,,,,,,610317bf4ff2cfcff5c3d8d1,61036e76feab2892fddca0c1,2021-07-29_20h16.57.766,Simcolourproject_2stim_asymm_v5,2020.2.10,MacIntel,60,61025ae37ef11b136ea224fe,,,,,,,,,3695,42.23828125,87.109375,1,0,0,response1disk,,7,-14.44921875,3.8359375,1,0,0,rectangle,-14.44921875,3.8359375,1,0,0,-14.44921875,3.8359375,1,0,0,0,42,42,110,1,,,,,,,,
,,,,,,,,,,,,,FF,,,,,,,,0.8,,,,,,,,,,,,,,,,,,,,,,610317bf4ff2cfcff5c3d8d1,61036e76feab2892fddca0c1,2021-07-29_20h16.57.766,Simcolourproject_2stim_asymm_v5,2020.2.10,MacIntel,60,61025ae37ef11b136ea224fe,,,,,,,,,2054,-39.4921875,-95.66796875,1,0,0,response5disk,,3,-4.66015625,-3.6171875,1,0,0,rectangle,-4.66015625,-3.6171875,1,0,0,-4.66015625,-3.6171875,1,0,0,0,43,43,27,1,,,,,,,,
,,,,,,,,,,,,,FF,,,,,,,,0.9159,,,,,,,,,,,,,,,,,,,,,,610317bf4ff2cfcff5c3d8d1,61036e76feab2892fddca0c1,2021-07-29_20h16.57.766,Simcolourproject_2stim_asymm_v5,2020.2.10,MacIntel,60,61025ae37ef11b136ea224fe,,,,,,,,,794,68.84375,-31.51953125,1,0,0,response3disk,,5,22.0390625,-2.83203125,1,0,0,rectangle,22.0390625,-2.83203125,1,0,0,22.0390625,-2.83203125,1,0,0,0,44,44,86,1,,,,,,,,
,,,,,,,,,,,,,FF,,,,,,,,0.7163,,,,,,,,,,,,,,,,,,,,,,610317bf4ff2cfcff5c3d8d1,61036e76feab2892fddca0c1,2021-07-29_20h16.57.766,Simcolourproject_2stim_asymm_v5,2020.2.10,MacIntel,60,61025ae37ef11b136ea224fe,,,,,,,,,3830,67.953125,36.05859375,1,0,0,response1disk,,6,-9.30078125,10.046875,1,0,0,rectangle,-9.30078125,10.046875,1,0,0,-9.30078125,10.046875,1,0,0,0,45,45,135,1,,,,,,,,
,,,,,,,,,,,,,FF,,,,,,,,0.7509,,,,,,,,,,,,,,,,,,,,,,610317bf4ff2cfcff5c3d8d1,61036e76feab2892fddca0c1,2021-07-29_20h16.57.766,Simcolourproject_2stim_asymm_v5,2020.2.10,MacIntel,60,61025ae37ef11b136ea224fe,,,,,,,,,3993,-79.55078125,39.27734375,1,0,0,response7disk,,1,-7.40625,6.8828125,1,0,0,rectangle,-7.40625,6.8828125,1,0,0,-7.40625,6.8828125,1,0,0,0,46,46,49,1,,,,,,,,
,,,,,,,,,,,,,FF,,,,,,,,0.7345,,,,,,,,,,,,,,,,,,,,,,610317bf4ff2cfcff5c3d8d1,61036e76feab2892fddca0c1,2021-07-29_20h16.57.766,Simcolourproject_2stim_asymm_v5,2020.2.10,MacIntel,60,61025ae37ef11b136ea224fe,,,,,,,,,1312,-39.171875,-102.5898438,1,0,0,response5disk,,3,13.3515625,-2.90234375,1,0,0,rectangle,13.3515625,-2.90234375,1,0,0,13.3515625,-2.90234375,1,0,0,0,47,47,148,1,,,,,,,,
,,,,,,,,,,,,,FF,,,,,,,,1.3007,,,,,,,,,,,,,,,,,,,,,,610317bf4ff2cfcff5c3d8d1,61036e76feab2892fddca0c1,2021-07-29_20h16.57.766,Simcolourproject_2stim_asymm_v5,2020.2.10,MacIntel,60,61025ae37ef11b136ea224fe,,,,,,,,,1801,26.078125,-76.4609375,1,0,0,response3disk,,4,-4.05859375,1.92578125,1,0,0,rectangle,-83.59765625,38.13671875,1,0,0,2.16796875,2.69140625,1,0,0,0,48,48,78,1,,response7disk_3,TRUE,1,1,"[319,42,224,157,232,246,298,253,55,273,122,65,178,319,40,315,118,49,111,223]",1.1165,rectangle
,,,,,,,,,,,,,FF,,,,,,,,1.3661,,,,,,,,,,,,,,,,,,,,,,610317bf4ff2cfcff5c3d8d1,61036e76feab2892fddca0c1,2021-07-29_20h16.57.766,Simcolourproject_2stim_asymm_v5,2020.2.10,MacIntel,60,61025ae37ef11b136ea224fe,,,,,,,,,1588,-32.85546875,-76.42578125,1,0,0,response5disk,,3,-1.8125,-0.48046875,1,0,0,rectangle,-1.8125,-0.48046875,1,0,0,-1.8125,-0.48046875,1,0,0,0,49,49,149,1,,,,,,,,
,,,,,,,,,,,,,FF,,,,,,,,0.7826,,,,,,,,,,,,,,,,,,,,,,610317bf4ff2cfcff5c3d8d1,61036e76feab2892fddca0c1,2021-07-29_20h16.57.766,Simcolourproject_2stim_asymm_v5,2020.2.10,MacIntel,60,61025ae37ef11b136ea224fe,,,,,,,,,1867,74.87109375,-36.16015625,1,0,0,response3disk,,5,11.01953125,2.12890625,1,0,0,rectangle,11.01953125,2.12890625,1,0,0,11.01953125,2.12890625,1,0,0,0,50,50,96,1,,,,,,,,
,,,,,,,,,,,,,FF,,,,,,,,1,,,,,,,,,,,,,,,,,,,,,,610317bf4ff2cfcff5c3d8d1,61036e76feab2892fddca0c1,2021-07-29_20h16.57.766,Simcolourproject_2stim_asymm_v5,2020.2.10,MacIntel,60,61025ae37ef11b136ea224fe,,,,,,,,,1024,-33.203125,-71.9140625,1,0,0,response5disk,,3,-4.515625,-6.33203125,1,0,0,rectangle,-4.515625,-6.33203125,1,0,0,-4.515625,-6.33203125,1,0,0,0,51,51,115,1,,,,,,,,
,,,,,,,,,,,,,FF,,,,,,,,0.6997,,,,,,,,,,,,,,,,,,,,,,610317bf4ff2cfcff5c3d8d1,61036e76feab2892fddca0c1,2021-07-29_20h16.57.766,Simcolourproject_2stim_asymm_v5,2020.2.10,MacIntel,60,61025ae37ef11b136ea224fe,,,,,,,,,918,64.09375,-38.9140625,1,0,0,response3disk,,5,24.73046875,1.390625,1,0,0,rectangle,24.73046875,1.390625,1,0,0,24.73046875,1.390625,1,0,0,0,52,52,8,1,,,,,,,,
,,,,,,,,,,,,,FF,,,,,,,,0.6166,,,,,,,,,,,,,,,,,,,,,,610317bf4ff2cfcff5c3d8d1,61036e76feab2892fddca0c1,2021-07-29_20h16.57.766,Simcolourproject_2stim_asymm_v5,2020.2.10,MacIntel,60,61025ae37ef11b136ea224fe,,,,,,,,,3076,75.83203125,40.51171875,1,0,0,response1disk,,6,-23.46875,-4.2890625,1,0,0,rectangle,-23.46875,-4.2890625,1,0,0,-23.46875,-4.2890625,1,0,0,0,53,53,111,1,,,,,,,,
,,,,,,,,,,,,,FF,,,,,,,,0.6331,,,,,,,,,,,,,,,,,,,,,,610317bf4ff2cfcff5c3d8d1,61036e76feab2892fddca0c1,2021-07-29_20h16.57.766,Simcolourproject_2stim_asymm_v5,2020.2.10,MacIntel,60,61025ae37ef11b136ea224fe,,,,,,,,,3686,28.66015625,76.90234375,1,0,0,response1disk,,7,-4.01953125,6.7109375,1,0,0,rectangle,-31.8828125,-93.06640625,1,0,0,-10.0703125,6.03125,1,0,0,0,54,54,4,1,,response5disk_3,TRUE,3,3,"[319,42,224,157,232,246,298,253,55,273,122,65,178,319,40,315,118,49,111,223]",1.6316,rectangle
,,,,,,,,,,,,,FF,,,,,,,,1.7501,,,,,,,,,,,,,,,,,,,,,,610317bf4ff2cfcff5c3d8d1,61036e76feab2892fddca0c1,2021-07-29_20h16.57.766,Simcolourproject_2stim_asymm_v5,2020.2.10,MacIntel,60,61025ae37ef11b136ea224fe,,,,,,,,,1200,75.21875,-41.9140625,1,0,0,response3disk,,5,-7.1015625,6.80078125,1,0,0,rectangle,-7.1015625,6.80078125,1,0,0,-7.1015625,6.80078125,1,0,0,0,55,55,10,1,,,,,,,,
,,,,,,,,,,,,,FF,,,,,,,,0.8682,,,,,,,,,,,,,,,,,,,,,,610317bf4ff2cfcff5c3d8d1,61036e76feab2892fddca0c1,2021-07-29_20h16.57.766,Simcolourproject_2stim_asymm_v5,2020.2.10,MacIntel,60,61025ae37ef11b136ea224fe,,,,,,,,,1592,70.65234375,32.38671875,1,0,0,response1disk,,6,6.14453125,10.3359375,1,0,0,rectangle,6.14453125,10.3359375,1,0,0,6.14453125,10.3359375,1,0,0,0,56,56,99,1,,,,,,,,
,,,,,,,,,,,,,FF,,,,,,,,0.7827,,,,,,,,,,,,,,,,,,,,,,610317bf4ff2cfcff5c3d8d1,61036e76feab2892fddca0c1,2021-07-29_20h16.57.766,Simcolourproject_2stim_asymm_v5,2020.2.10,MacIntel,60,61025ae37ef11b136ea224fe,,,,,,,,,1161,64.17578125,27.953125,1,0,0,response1disk,,6,-11.84765625,0.171875,1,0,0,rectangle,-11.84765625,0.171875,1,0,0,-11.84765625,0.171875,1,0,0,0,57,57,112,1,,,,,,,,
,,,,,,,,,,,,,FF,,,,,,,,0.6504,,,,,,,,,,,,,,,,,,,,,,610317bf4ff2cfcff5c3d8d1,61036e76feab2892fddca0c1,2021-07-29_20h16.57.766,Simcolourproject_2stim_asymm_v5,2020.2.10,MacIntel,60,61025ae37ef11b136ea224fe,,,,,,,,,2413,69.3046875,25.35546875,1,0,0,response1disk,,6,1.8671875,-0.953125,1,0,0,rectangle,1.8671875,-0.953125,1,0,0,1.8671875,-0.953125,1,0,0,0,58,58,137,1,,,,,,,,
,,,,,,,,,,,,,FF,,,,,,,,0.6176,,,,,,,,,,,,,,,,,,,,,,610317bf4ff2cfcff5c3d8d1,61036e76feab2892fddca0c1,2021-07-29_20h16.57.766,Simcolourproject_2stim_asymm_v5,2020.2.10,MacIntel,60,61025ae37ef11b136ea224fe,,,,,,,,,3078,58.85546875,32.90625,1,0,0,response1disk,,6,-9.78515625,13.2578125,1,0,0,rectangle,-9.78515625,13.2578125,1,0,0,-9.78515625,13.2578125,1,0,0,0,59,59,46,1,,,,,,,,
,,,,,,,,,,,,,FF,,,,,,,,0.9834,,,,,,,,,,,,,,,,,,,,,,610317bf4ff2cfcff5c3d8d1,61036e76feab2892fddca0c1,2021-07-29_20h16.57.766,Simcolourproject_2stim_asymm_v5,2020.2.10,MacIntel,60,61025ae37ef11b136ea224fe,,,,,,,,,1482,80.1640625,-45.79296875,1,0,0,response3disk,,5,1.7265625,-9.625,1,0,0,rectangle,1.7265625,-9.625,1,0,0,1.7265625,-9.625,1,0,0,0,60,60,128,1,,,,,,,,
,,,,,,,,,,,,,FF,,,,,,,,1.2497,,,,,,,,,,,,,,,,,,,,,,610317bf4ff2cfcff5c3d8d1,61036e76feab2892fddca0c1,2021-07-29_20h16.57.766,Simcolourproject_2stim_asymm_v5,2020.2.10,MacIntel,60,61025ae37ef11b136ea224fe,,,,,,,,,2769,75.87890625,-42.65625,1,0,0,response3disk,,5,-15.18359375,-10.50390625,1,0,0,rectangle,-15.18359375,-10.50390625,1,0,0,-15.18359375,-10.50390625,1,0,0,0,61,61,144,1,,,,,,,,
,,,,,,,,,,,,,FF,,,,,,,,2.0987,,,,,,,,,,,,,,,,,,,,,,610317bf4ff2cfcff5c3d8d1,61036e76feab2892fddca0c1,2021-07-29_20h16.57.766,Simcolourproject_2stim_asymm_v5,2020.2.10,MacIntel,60,61025ae37ef11b136ea224fe,,,,,,,,,3861,65.87109375,-37.765625,1,0,0,response3disk,,5,3.75390625,4.7421875,1,0,0,rectangle,3.75390625,4.7421875,1,0,0,3.75390625,4.7421875,1,0,0,0,62,62,150,1,,,,,,,,
,,,,,,,,,,,,,FF,,,,,,,,1.0021,,,,,,,,,,,,,,,,,,,,,,610317bf4ff2cfcff5c3d8d1,61036e76feab2892fddca0c1,2021-07-29_20h16.57.766,Simcolourproject_2stim_asymm_v5,2020.2.10,MacIntel,60,61025ae37ef11b136ea224fe,,,,,,,,,3443,64.5625,32.69921875,1,0,0,response1disk,,6,6.49609375,1.69140625,1,0,0,rectangle,6.49609375,1.69140625,1,0,0,6.49609375,1.69140625,1,0,0,0,63,63,22,1,,,,,,,,
,,,,,,,,,,,,,FF,,,,,,,,1.0519,,,,,,,,,,,,,,,,,,,,,,610317bf4ff2cfcff5c3d8d1,61036e76feab2892fddca0c1,2021-07-29_20h16.57.766,Simcolourproject_2stim_asymm_v5,2020.2.10,MacIntel,60,61025ae37ef11b136ea224fe,,,,,,,,,3,32.71875,-95.3359375,1,0,0,response3disk,,4,-9.890625,2.58984375,1,0,0,rectangle,33.3203125,85.9921875,1,0,0,5.92578125,-8.59375,1,0,0,0,64,64,117,1,,response1disk_3,TRUE,7,7,"[319,42,224,157,232,246,298,253,55,273,122,65,178,319,40,315,118,49,111,223]",1.6486,rectangle
,,,,,,,,,,,,,FF,,,,,,,,1.1333,,,,,,,,,,,,,,,,,,,,,,610317bf4ff2cfcff5c3d8d1,61036e76feab2892fddca0c1,2021-07-29_20h16.57.766,Simcolourproject_2stim_asymm_v5,2020.2.10,MacIntel,60,61025ae37ef11b136ea224fe,,,,,,,,,1834,-26.05078125,-101.1328125,1,0,0,response5disk,,3,-0.4140625,-3.8984375,1,0,0,rectangle,-0.4140625,-3.8984375,1,0,0,-0.4140625,-3.8984375,1,0,0,0,65,65,1,1,,,,,,,,
,,,,,,,,,,,,,FF,,,,,,,,0.9169,,,,,,,,,,,,,,,,,,,,,,610317bf4ff2cfcff5c3d8d1,61036e76feab2892fddca0c1,2021-07-29_20h16.57.766,Simcolourproject_2stim_asymm_v5,2020.2.10,MacIntel,60,61025ae37ef11b136ea224fe,,,,,,,,,2911,41.8671875,-76.22265625,1,0,0,response3disk,,4,2.0234375,2.66796875,1,0,0,rectangle,2.0234375,2.66796875,1,0,0,2.0234375,2.66796875,1,0,0,0,66,66,134,1,,,,,,,,
,,,,,,,,,,,,,FF,,,,,,,,0.7502,,,,,,,,,,,,,,,,,,,,,,610317bf4ff2cfcff5c3d8d1,61036e76feab2892fddca0c1,2021-07-29_20h16.57.766,Simcolourproject_2stim_asymm_v5,2020.2.10,MacIntel,60,61025ae37ef11b136ea224fe,,,,,,,,,1131,-86.7578125,38.359375,1,0,0,response7disk,,1,-7.6875,5.55859375,1,0,0,rectangle,-7.6875,5.55859375,1,0,0,-7.6875,5.55859375,1,0,0,0,67,67,69,1,,,,,,,,
,,,,,,,,,,,,,FF,,,,,,,,0.716,,,,,,,,,,,,,,,,,,,,,,610317bf4ff2cfcff5c3d8d1,61036e76feab2892fddca0c1,2021-07-29_20h16.57.766,Simcolourproject_2stim_asymm_v5,2020.2.10,MacIntel,60,61025ae37ef11b136ea224fe,,,,,,,,,693,-71.99609375,-39.2109375,1,0,0,response5disk,,2,-3.3515625,1.1484375,1,0,0,rectangle,-3.3515625,1.1484375,1,0,0,-3.3515625,1.1484375,1,0,0,0,68,68,124,1,,,,,,,,
,,,,,,,,,,,,,FF,,,,,,,,0.8649,,,,,,,,,,,,,,,,,,,,,,610317bf4ff2cfcff5c3d8d1,61036e76feab2892fddca0c1,2021-07-29_20h16.57.766,Simcolourproject_2stim_asymm_v5,2020.2.10,MacIntel,60,61025ae37ef11b136ea224fe,,,,,,,,,4097,-86.3203125,-37.9296875,1,0,0,response5disk,,2,15.7734375,4.8046875,1,0,0,rectangle,15.7734375,4.8046875,1,0,0,15.7734375,4.8046875,1,0,0,0,69,69,92,1,,,,,,,,
,,,,,,,,,,,,,FF,,,,,,,,0.8359,,,,,,,,,,,,,,,,,,,,,,610317bf4ff2cfcff5c3d8d1,61036e76feab2892fddca0c1,2021-07-29_20h16.57.766,Simcolourproject_2stim_asymm_v5,2020.2.10,MacIntel,60,61025ae37ef11b136ea224fe,,,,,,,,,1557,64.18359375,21.75,1,0,0,response1disk,,6,-11.1015625,-11.3828125,1,0,0,rectangle,-11.1015625,-11.3828125,1,0,0,-11.1015625,-11.3828125,1,0,0,0,70,70,89,1,,,,,,,,
,,,,,,,,,,,,,FF,,,,,,,,0.9161,,,,,,,,,,,,,,,,,,,,,,610317bf4ff2cfcff5c3d8d1,61036e76feab2892fddca0c1,2021-07-29_20h16.57.766,Simcolourproject_2stim_asymm_v5,2020.2.10,MacIntel,60,61025ae37ef11b136ea224fe,,,,,,,,,2059,31.4765625,66.3046875,1,0,0,response1disk,,7,-12.94921875,-5.20703125,1,0,0,rectangle,-12.94921875,-5.20703125,1,0,0,-12.94921875,-5.20703125,1,0,0,0,71,71,118,1,,,,,,,,
,,,,,,,,,,,,,FF,,,,,,,,0.799,,,,,,,,,,,,,,,,,,,,,,610317bf4ff2cfcff5c3d8d1,61036e76feab2892fddca0c1,2021-07-29_20h16.57.766,Simcolourproject_2stim_asymm_v5,2020.2.10,MacIntel,60,61025ae37ef11b136ea224fe,,,,,,,,,1770,67.515625,-24.640625,1,0,0,response3disk,,5,3.06640625,16.7890625,1,0,0,rectangle,3.06640625,16.7890625,1,0,0,3.06640625,16.7890625,1,0,0,0,72,72,132,1,,,,,,,,
,,,,,,,,,,,,,FF,,,,,,,,1.5018,,,,,,,,,,,,,,,,,,,,,,610317bf4ff2cfcff5c3d8d1,61036e76feab2892fddca0c1,2021-07-29_20h16.57.766,Simcolourproject_2stim_asymm_v5,2020.2.10,MacIntel,60,61025ae37ef11b136ea224fe,,,,,,,,,3268,94.765625,-52.859375,1,0,0,response3disk,,5,-31.296875,2.33203125,1,0,0,rectangle,-31.296875,2.33203125,1,0,0,-31.296875,2.33203125,1,0,0,0,73,73,50,1,,,,,,,,
,,,,,,,,,,,,,FF,,,,,,,,0.6998,,,,,,,,,,,,,,,,,,,,,,610317bf4ff2cfcff5c3d8d1,61036e76feab2892fddca0c1,2021-07-29_20h16.57.766,Simcolourproject_2stim_asymm_v5,2020.2.10,MacIntel,60,61025ae37ef11b136ea224fe,,,,,,,,,4015,23.91015625,85.2578125,1,0,0,response1disk,,7,10.90234375,6.76171875,1,0,0,rectangle,10.90234375,6.76171875,1,0,0,10.90234375,6.76171875,1,0,0,0,74,74,74,1,,,,,,,,
,,,,,,,,,,,,,FF,,,,,,,,1.7995,,,,,,,,,,,,,,,,,,,,,,610317bf4ff2cfcff5c3d8d1,61036e76feab2892fddca0c1,2021-07-29_20h16.57.766,Simcolourproject_2stim_asymm_v5,2020.2.10,MacIntel,60,61025ae37ef11b136ea224fe,,,,,,,,,2262,83.51953125,-16.296875,1,0,0,response3disk,,5,-7.7421875,1.53515625,1,0,0,rectangle,-7.7421875,1.53515625,1,0,0,-7.7421875,1.53515625,1,0,0,0,75,75,67,1,,,,,,,,
,,,,,,,,,,,,,FF,,,,,,,,1.1165,,,,,,,,,,,,,,,,,,,,,,610317bf4ff2cfcff5c3d8d1,61036e76feab2892fddca0c1,2021-07-29_20h16.57.766,Simcolourproject_2stim_asymm_v5,2020.2.10,MacIntel,60,61025ae37ef11b136ea224fe,,,,,,,,,2412,69.73828125,33.08203125,1,0,0,response1disk,,6,-10.31640625,0.078125,1,0,0,rectangle,-10.31640625,0.078125,1,0,0,-10.31640625,0.078125,1,0,0,0,76,76,39,1,,,,,,,,
,,,,,,,,,,,,,FF,,,,,,,,0.8677,,,,,,,,,,,,,,,,,,,,,,610317bf4ff2cfcff5c3d8d1,61036e76feab2892fddca0c1,2021-07-29_20h16.57.766,Simcolourproject_2stim_asymm_v5,2020.2.10,MacIntel,60,61025ae37ef11b136ea224fe,,,,,,,,,4121,-38.77734375,-85.0859375,1,0,0,response5disk,,3,1.53125,6.25,1,0,0,rectangle,1.53125,6.25,1,0,0,1.53125,6.25,1,0,0,0,77,77,31,1,,,,,,,,
,,,,,,,,,,,,,FF,,,,,,,,0.5171,,,,,,,,,,,,,,,,,,,,,,610317bf4ff2cfcff5c3d8d1,61036e76feab2892fddca0c1,2021-07-29_20h16.57.766,Simcolourproject_2stim_asymm_v5,2020.2.10,MacIntel,60,61025ae37ef11b136ea224fe,,,,,,,,,3425,-75.13671875,-27.859375,1,0,0,response5disk,,2,-10.1796875,8.5,1,0,0,rectangle,-10.1796875,8.5,1,0,0,-10.1796875,8.5,1,0,0,0,78,78,26,1,,,,,,,,
,,,,,,,,,,,,,FF,,,,,,,,1.3505,,,,,,,,,,,,,,,,,,,,,,610317bf4ff2cfcff5c3d8d1,61036e76feab2892fddca0c1,2021-07-29_20h16.57.766,Simcolourproject_2stim_asymm_v5,2020.2.10,MacIntel,60,61025ae37ef11b136ea224fe,,,,,,,,,1143,-34.48828125,-96.92578125,1,0,0,response5disk,,3,-2.43359375,5.66796875,1,0,0,rectangle,-2.43359375,5.66796875,1,0,0,-2.43359375,5.66796875,1,0,0,0,79,79,93,1,,,,,,,,
,,,,,,,,,,,,,FF,,,,,,,,1.2125,,,,,,,,,,,,,,,,,,,,,,610317bf4ff2cfcff5c3d8d1,61036e76feab2892fddca0c1,2021-07-29_20h16.57.766,Simcolourproject_2stim_asymm_v5,2020.2.10,MacIntel,60,61025ae37ef11b136ea224fe,,,,,,,,,3279,49.1484375,-33.83203125,1,0,0,response3disk,,5,-8.73828125,2.734375,1,0,0,rectangle,-8.73828125,2.734375,1,0,0,-8.73828125,2.734375,1,0,0,0,80,80,103,1,,,,,,,,
,,,,,,,,,,,,,FF,,,,,,,,0.7666,,,,,,,,,,,,,,,,,,,,,,610317bf4ff2cfcff5c3d8d1,61036e76feab2892fddca0c1,2021-07-29_20h16.57.766,Simcolourproject_2stim_asymm_v5,2020.2.10,MacIntel,60,61025ae37ef11b136ea224fe,,,,,,,,,2161,-15.9921875,-45.33984375,1,0,0,response5disk,,3,-8.15234375,3.28515625,1,0,0,rectangle,-8.15234375,3.28515625,1,0,0,-8.15234375,3.28515625,1,0,0,0,81,81,56,1,,,,,,,,
,,,,,,,,,,,,,FF,,,,,,,,0.917,,,,,,,,,,,,,,,,,,,,,,610317bf4ff2cfcff5c3d8d1,61036e76feab2892fddca0c1,2021-07-29_20h16.57.766,Simcolourproject_2stim_asymm_v5,2020.2.10,MacIntel,60,61025ae37ef11b136ea224fe,,,,,,,,,1653,62.421875,-32.60546875,1,0,0,response3disk,,5,-7.21484375,-1.90625,1,0,0,rectangle,-7.21484375,-1.90625,1,0,0,-7.21484375,-1.90625,1,0,0,0,82,82,85,1,,,,,,,,
,,,,,,,,,,,,,FF,,,,,,,,1.3189,,,,,,,,,,,,,,,,,,,,,,610317bf4ff2cfcff5c3d8d1,61036e76feab2892fddca0c1,2021-07-29_20h16.57.766,Simcolourproject_2stim_asymm_v5,2020.2.10,MacIntel,60,61025ae37ef11b136ea224fe,,,,,,,,,4061,42.359375,-95.76953125,1,0,0,response3disk,,4,-3.29296875,-11.0625,1,0,0,rectangle,-3.29296875,-11.0625,1,0,0,-3.29296875,-11.0625,1,0,0,0,83,83,100,1,,,,,,,,
,,,,,,,,,,,,,FF,,,,,,,,1.5175,,,,,,,,,,,,,,,,,,,,,,610317bf4ff2cfcff5c3d8d1,61036e76feab2892fddca0c1,2021-07-29_20h16.57.766,Simcolourproject_2stim_asymm_v5,2020.2.10,MacIntel,60,61025ae37ef11b136ea224fe,,,,,,,,,1612,39.6328125,-73.83203125,1,0,0,response3disk,,4,2.76953125,1.015625,1,0,0,rectangle,2.76953125,1.015625,1,0,0,2.76953125,1.015625,1,0,0,0,84,84,88,1,,,,,,,,
,,,,,,,,,,,,,FF,,,,,,,,1.4333,,,,,,,,,,,,,,,,,,,,,,610317bf4ff2cfcff5c3d8d1,61036e76feab2892fddca0c1,2021-07-29_20h16.57.766,Simcolourproject_2stim_asymm_v5,2020.2.10,MacIntel,60,61025ae37ef11b136ea224fe,,,,,,,,,480,74.234375,29.328125,1,0,0,response1disk,,6,-17.85546875,-4.359375,1,0,0,rectangle,-17.85546875,-4.359375,1,0,0,-17.85546875,-4.359375,1,0,0,0,85,85,73,1,,,,,,,,
,,,,,,,,,,,,,FF,,,,,,,,0.7488,,,,,,,,,,,,,,,,,,,,,,610317bf4ff2cfcff5c3d8d1,61036e76feab2892fddca0c1,2021-07-29_20h16.57.766,Simcolourproject_2stim_asymm_v5,2020.2.10,MacIntel,60,61025ae37ef11b136ea224fe,,,,,,,,,1638,69.01171875,21.546875,1,0,0,response1disk,,6,4.04296875,-5.12890625,1,0,0,rectangle,4.04296875,-5.12890625,1,0,0,4.04296875,-5.12890625,1,0,0,0,86,86,32,1,,,,,,,,
,,,,,,,,,,,,,FF,,,,,,,,0.6326,,,,,,,,,,,,,,,,,,,,,,610317bf4ff2cfcff5c3d8d1,61036e76feab2892fddca0c1,2021-07-29_20h16.57.766,Simcolourproject_2stim_asymm_v5,2020.2.10,MacIntel,60,61025ae37ef11b136ea224fe,,,,,,,,,3723,15.68359375,59.71484375,1,0,0,response1disk,,7,4.94140625,-0.68359375,1,0,0,rectangle,4.94140625,-0.68359375,1,0,0,4.94140625,-0.68359375,1,0,0,0,87,87,42,1,,,,,,,,
,,,,,,,,,,,,,FF,,,,,,,,1.1839,,,,,,,,,,,,,,,,,,,,,,610317bf4ff2cfcff5c3d8d1,61036e76feab2892fddca0c1,2021-07-29_20h16.57.766,Simcolourproject_2stim_asymm_v5,2020.2.10,MacIntel,60,61025ae37ef11b136ea224fe,,,,,,,,,2978,45.68359375,71.7890625,1,0,0,response1disk,,7,14.81640625,-10.60546875,1,0,0,rectangle,14.81640625,-10.60546875,1,0,0,14.81640625,-10.60546875,1,0,0,0,88,88,44,1,,,,,,,,
,,,,,,,,,,,,,FF,,,,,,,,0.8175,,,,,,,,,,,,,,,,,,,,,,610317bf4ff2cfcff5c3d8d1,61036e76feab2892fddca0c1,2021-07-29_20h16.57.766,Simcolourproject_2stim_asymm_v5,2020.2.10,MacIntel,60,61025ae37ef11b136ea224fe,,,,,,,,,142,34.38671875,-73.96484375,1,0,0,response3disk,,4,-3.86328125,4.96484375,1,0,0,rectangle,-3.86328125,4.96484375,1,0,0,-3.86328125,4.96484375,1,0,0,0,89,89,63,1,,,,,,,,
,,,,,,,,,,,,,FF,,,,,,,,1.2348,,,,,,,,,,,,,,,,,,,,,,610317bf4ff2cfcff5c3d8d1,61036e76feab2892fddca0c1,2021-07-29_20h16.57.766,Simcolourproject_2stim_asymm_v5,2020.2.10,MacIntel,60,61025ae37ef11b136ea224fe,,,,,,,,,4058,75.0078125,-32.5703125,1,0,0,response3disk,,5,18.1640625,11.0859375,1,0,0,rectangle,18.1640625,11.0859375,1,0,0,18.1640625,11.0859375,1,0,0,0,90,90,72,1,,,,,,,,
,,,,,,,,,,,,,FF,,,,,,,,0.6501,,,,,,,,,,,,,,,,,,,,,,610317bf4ff2cfcff5c3d8d1,61036e76feab2892fddca0c1,2021-07-29_20h16.57.766,Simcolourproject_2stim_asymm_v5,2020.2.10,MacIntel,60,61025ae37ef11b136ea224fe,,,,,,,,,1881,61.2109375,32.74609375,1,0,0,response1disk,,6,-1.9375,1.87109375,1,0,0,rectangle,-1.9375,1.87109375,1,0,0,-1.9375,1.87109375,1,0,0,0,91,91,95,1,,,,,,,,
,,,,,,,,,,,,,FF,,,,,,,,1.3493,,,,,,,,,,,,,,,,,,,,,,610317bf4ff2cfcff5c3d8d1,61036e76feab2892fddca0c1,2021-07-29_20h16.57.766,Simcolourproject_2stim_asymm_v5,2020.2.10,MacIntel,60,61025ae37ef11b136ea224fe,,,,,,,,,1136,-49.8515625,-84.734375,1,0,0,response5disk,,3,-0.55859375,-5.90625,1,0,0,rectangle,-0.55859375,-5.90625,1,0,0,-0.55859375,-5.90625,1,0,0,0,92,92,24,1,,,,,,,,
,,,,,,,,,,,,,FF,,,,,,,,1.4746,,,,,,,,,,,,,,,,,,,,,,610317bf4ff2cfcff5c3d8d1,61036e76feab2892fddca0c1,2021-07-29_20h16.57.766,Simcolourproject_2stim_asymm_v5,2020.2.10,MacIntel,60,61025ae37ef11b136ea224fe,,,,,,,,,2283,-36.8671875,-76.37890625,1,0,0,response5disk,,3,5.10546875,-9.38671875,1,0,0,rectangle,5.10546875,-9.38671875,1,0,0,5.10546875,-9.38671875,1,0,0,0,93,93,127,1,,,,,,,,
,,,,,,,,,,,,,FF,,,,,,,,0.5841,,,,,,,,,,,,,,,,,,,,,,610317bf4ff2cfcff5c3d8d1,61036e76feab2892fddca0c1,2021-07-29_20h16.57.766,Simcolourproject_2stim_asymm_v5,2020.2.10,MacIntel,60,61025ae37ef11b136ea224fe,,,,,,,,,1542,34.51171875,-74.6171875,1,0,0,response3disk,,4,-16.0703125,13.04296875,1,0,0,rectangle,-16.0703125,13.04296875,1,0,0,-16.0703125,13.04296875,1,0,0,0,94,94,71,1,,,,,,,,
,,,,,,,,,,,,,FF,,,,,,,,0.9155,,,,,,,,,,,,,,,,,,,,,,610317bf4ff2cfcff5c3d8d1,61036e76feab2892fddca0c1,2021-07-29_20h16.57.766,Simcolourproject_2stim_asymm_v5,2020.2.10,MacIntel,60,61025ae37ef11b136ea224fe,,,,,,,,,4026,76.44921875,31.85546875,1,0,0,response1disk,,6,-15.515625,-5.53515625,1,0,0,rectangle,-15.515625,-5.53515625,1,0,0,-15.515625,-5.53515625,1,0,0,0,95,95,13,1,,,,,,,,
,,,,,,,,,,,,,FF,,,,,,,,1.6328,,,,,,,,,,,,,,,,,,,,,,610317bf4ff2cfcff5c3d8d1,61036e76feab2892fddca0c1,2021-07-29_20h16.57.766,Simcolourproject_2stim_asymm_v5,2020.2.10,MacIntel,60,61025ae37ef11b136ea224fe,,,,,,,,,124,96.1171875,-28.38671875,1,0,0,response3disk,,5,15,-6.6484375,1,0,0,rectangle,15,-6.6484375,1,0,0,15,-6.6484375,1,0,0,0,96,96,61,1,,,,,,,,
,,,,,,,,,,,,,FF,,,,,,,,0.683,,,,,,,,,,,,,,,,,,,,,,610317bf4ff2cfcff5c3d8d1,61036e76feab2892fddca0c1,2021-07-29_20h16.57.766,Simcolourproject_2stim_asymm_v5,2020.2.10,MacIntel,60,61025ae37ef11b136ea224fe,,,,,,,,,4367,-61.93359375,-48.58203125,1,0,0,response5disk,,2,10.97265625,-2.72265625,1,0,0,rectangle,10.97265625,-2.72265625,1,0,0,10.97265625,-2.72265625,1,0,0,0,97,97,158,1,,,,,,,,
,,,,,,,,,,,,,FF,,,,,,,,0.9342,,,,,,,,,,,,,,,,,,,,,,610317bf4ff2cfcff5c3d8d1,61036e76feab2892fddca0c1,2021-07-29_20h16.57.766,Simcolourproject_2stim_asymm_v5,2020.2.10,MacIntel,60,61025ae37ef11b136ea224fe,,,,,,,,,1625,35.4140625,-64.82421875,1,0,0,response3disk,,4,-4.09375,2.21484375,1,0,0,rectangle,-4.09375,2.21484375,1,0,0,-4.09375,2.21484375,1,0,0,0,98,98,147,1,,,,,,,,
,,,,,,,,,,,,,FF,,,,,,,,1.4156,,,,,,,,,,,,,,,,,,,,,,610317bf4ff2cfcff5c3d8d1,61036e76feab2892fddca0c1,2021-07-29_20h16.57.766,Simcolourproject_2stim_asymm_v5,2020.2.10,MacIntel,60,61025ae37ef11b136ea224fe,,,,,,,,,3518,-82.765625,-25.85546875,1,0,0,response5disk,,2,-6.7265625,-6.18359375,1,0,0,rectangle,-6.7265625,-6.18359375,1,0,0,-6.7265625,-6.18359375,1,0,0,0,99,99,35,1,,,,,,,,
,,,,,,,,,,,,,FF,,,,,,,,0.8332,,,,,,,,,,,,,,,,,,,,,,610317bf4ff2cfcff5c3d8d1,61036e76feab2892fddca0c1,2021-07-29_20h16.57.766,Simcolourproject_2stim_asymm_v5,2020.2.10,MacIntel,60,61025ae37ef11b136ea224fe,,,,,,,,,2403,24.04296875,-69.22265625,1,0,0,response3disk,,4,1.13671875,-3.25390625,1,0,0,rectangle,1.13671875,-3.25390625,1,0,0,1.13671875,-3.25390625,1,0,0,0,100,100,119,1,,,,,,,,
,,,,,,,,,,,,,FF,,,,,,,,1.2832,,,,,,,,,,,,,,,,,,,,,,610317bf4ff2cfcff5c3d8d1,61036e76feab2892fddca0c1,2021-07-29_20h16.57.766,Simcolourproject_2stim_asymm_v5,2020.2.10,MacIntel,60,61025ae37ef11b136ea224fe,,,,,,,,,954,66.23046875,-35.02734375,1,0,0,response3disk,,5,13.984375,-9.95703125,1,0,0,rectangle,13.984375,-9.95703125,1,0,0,13.984375,-9.95703125,1,0,0,0,101,101,90,1,,,,,,,,
,,,,,,,,,,,,,FF,,,,,,,,1.0006,,,,,,,,,,,,,,,,,,,,,,610317bf4ff2cfcff5c3d8d1,61036e76feab2892fddca0c1,2021-07-29_20h16.57.766,Simcolourproject_2stim_asymm_v5,2020.2.10,MacIntel,60,61025ae37ef11b136ea224fe,,,,,,,,,3815,-33.546875,-91.40625,1,0,0,response5disk,,3,4.73828125,-4.55078125,1,0,0,rectangle,4.73828125,-4.55078125,1,0,0,4.73828125,-4.55078125,1,0,0,0,102,102,40,1,,,,,,,,
,,,,,,,,,,,,,FF,,,,,,,,1.2996,,,,,,,,,,,,,,,,,,,,,,610317bf4ff2cfcff5c3d8d1,61036e76feab2892fddca0c1,2021-07-29_20h16.57.766,Simcolourproject_2stim_asymm_v5,2020.2.10,MacIntel,60,61025ae37ef11b136ea224fe,,,,,,,,,2778,-32.91796875,-83.7421875,1,0,0,response5disk,,3,-0.77734375,6.4765625,1,0,0,rectangle,-0.77734375,6.4765625,1,0,0,-0.77734375,6.4765625,1,0,0,0,103,103,143,1,,,,,,,,
,,,,,,,,,,,,,FF,,,,,,,,1.6333,,,,,,,,,,,,,,,,,,,,,,610317bf4ff2cfcff5c3d8d1,61036e76feab2892fddca0c1,2021-07-29_20h16.57.766,Simcolourproject_2stim_asymm_v5,2020.2.10,MacIntel,60,61025ae37ef11b136ea224fe,,,,,,,,,2241,-49.3046875,-87.1171875,1,0,0,response5disk,,3,-2.40234375,1.51171875,1,0,0,rectangle,-2.40234375,1.51171875,1,0,0,-2.40234375,1.51171875,1,0,0,0,104,104,60,1,,,,,,,,
,,,,,,,,,,,,,FF,,,,,,,,1.6503,,,,,,,,,,,,,,,,,,,,,,610317bf4ff2cfcff5c3d8d1,61036e76feab2892fddca0c1,2021-07-29_20h16.57.766,Simcolourproject_2stim_asymm_v5,2020.2.10,MacIntel,60,61025ae37ef11b136ea224fe,,,,,,,,,4231,65.5859375,44.45703125,1,0,0,response1disk,,6,2.546875,8.2734375,1,0,0,rectangle,2.546875,8.2734375,1,0,0,2.546875,8.2734375,1,0,0,0,105,105,43,1,,,,,,,,
,,,,,,,,,,,,,FF,,,,,,,,0.7156,,,,,,,,,,,,,,,,,,,,,,610317bf4ff2cfcff5c3d8d1,61036e76feab2892fddca0c1,2021-07-29_20h16.57.766,Simcolourproject_2stim_asymm_v5,2020.2.10,MacIntel,60,61025ae37ef11b136ea224fe,,,,,,,,,871,69.6171875,-37.89453125,1,0,0,response3disk,,5,-1.4453125,4.97265625,1,0,0,rectangle,-1.4453125,4.97265625,1,0,0,-1.4453125,4.97265625,1,0,0,0,106,106,108,1,,,,,,,,
,,,,,,,,,,,,,FF,,,,,,,,1.2325,,,,,,,,,,,,,,,,,,,,,,610317bf4ff2cfcff5c3d8d1,61036e76feab2892fddca0c1,2021-07-29_20h16.57.766,Simcolourproject_2stim_asymm_v5,2020.2.10,MacIntel,60,61025ae37ef11b136ea224fe,,,,,,,,,1085,80.98828125,-42.92578125,1,0,0,response3disk,,5,9.390625,-3.59765625,1,0,0,rectangle,9.390625,-3.59765625,1,0,0,9.390625,-3.59765625,1,0,0,0,107,107,9,1,,,,,,,,
,,,,,,,,,,,,,FF,,,,,,,,1.4189,,,,,,,,,,,,,,,,,,,,,,610317bf4ff2cfcff5c3d8d1,61036e76feab2892fddca0c1,2021-07-29_20h16.57.766,Simcolourproject_2stim_asymm_v5,2020.2.10,MacIntel,60,61025ae37ef11b136ea224fe,,,,,,,,,1650,77.0625,39.328125,1,0,0,response1disk,,6,10.1875,-1.78125,1,0,0,rectangle,10.1875,-1.78125,1,0,0,10.1875,-1.78125,1,0,0,0,108,108,53,1,,,,,,,,
,,,,,,,,,,,,,FF,,,,,,,,0.7172,,,,,,,,,,,,,,,,,,,,,,610317bf4ff2cfcff5c3d8d1,61036e76feab2892fddca0c1,2021-07-29_20h16.57.766,Simcolourproject_2stim_asymm_v5,2020.2.10,MacIntel,60,61025ae37ef11b136ea224fe,,,,,,,,,129,-33.56640625,-102.9492188,1,0,0,response5disk,,3,-3.6796875,6.30859375,1,0,0,rectangle,-3.6796875,6.30859375,1,0,0,-3.6796875,6.30859375,1,0,0,0,109,109,33,1,,,,,,,,
,,,,,,,,,,,,,FF,,,,,,,,1.084,,,,,,,,,,,,,,,,,,,,,,610317bf4ff2cfcff5c3d8d1,61036e76feab2892fddca0c1,2021-07-29_20h16.57.766,Simcolourproject_2stim_asymm_v5,2020.2.10,MacIntel,60,61025ae37ef11b136ea224fe,,,,,,,,,881,29.9609375,-71.1015625,1,0,0,response3disk,,4,5.92578125,-0.28125,1,0,0,rectangle,28.765625,-90.26953125,1,0,0,0.0078125,-4.79296875,1,0,0,0,110,110,15,1,,response3disk_3,TRUE,4,4,"[319,42,224,157,232,246,298,253,55,273,122,65,178,319,40,315,118,49,111,223]",1.8499,rectangle
,,,,,,,,,,,,,FF,,,,,,,,1.317,,,,,,,,,,,,,,,,,,,,,,610317bf4ff2cfcff5c3d8d1,61036e76feab2892fddca0c1,2021-07-29_20h16.57.766,Simcolourproject_2stim_asymm_v5,2020.2.10,MacIntel,60,61025ae37ef11b136ea224fe,,,,,,,,,2066,70.5390625,-27.4453125,1,0,0,response3disk,,5,-11.890625,8.90234375,1,0,0,rectangle,-11.890625,8.90234375,1,0,0,-11.890625,8.90234375,1,0,0,0,111,111,66,1,,,,,,,,
,,,,,,,,,,,,,FF,,,,,,,,0.684,,,,,,,,,,,,,,,,,,,,,,610317bf4ff2cfcff5c3d8d1,61036e76feab2892fddca0c1,2021-07-29_20h16.57.766,Simcolourproject_2stim_asymm_v5,2020.2.10,MacIntel,60,61025ae37ef11b136ea224fe,,,,,,,,,1458,-33.10546875,-72.8984375,1,0,0,response5disk,,3,-21.12890625,6.08984375,1,0,0,rectangle,-21.12890625,6.08984375,1,0,0,-21.12890625,6.08984375,1,0,0,0,112,112,47,1,,,,,,,,
,,,,,,,,,,,,,FF,,,,,,,,0.6499,,,,,,,,,,,,,,,,,,,,,,610317bf4ff2cfcff5c3d8d1,61036e76feab2892fddca0c1,2021-07-29_20h16.57.766,Simcolourproject_2stim_asymm_v5,2020.2.10,MacIntel,60,61025ae37ef11b136ea224fe,,,,,,,,,171,-24.6796875,-91.625,1,0,0,response5disk,,3,-7.76953125,12.125,1,0,0,rectangle,-7.76953125,12.125,1,0,0,-7.76953125,12.125,1,0,0,0,113,113,34,1,,,,,,,,
,,,,,,,,,,,,,FF,,,,,,,,0.9988,,,,,,,,,,,,,,,,,,,,,,610317bf4ff2cfcff5c3d8d1,61036e76feab2892fddca0c1,2021-07-29_20h16.57.766,Simcolourproject_2stim_asymm_v5,2020.2.10,MacIntel,60,61025ae37ef11b136ea224fe,,,,,,,,,909,41.4921875,-86.98046875,1,0,0,response3disk,,4,3.4453125,3.23046875,1,0,0,rectangle,3.4453125,3.23046875,1,0,0,3.4453125,3.23046875,1,0,0,0,114,114,109,1,,,,,,,,
,,,,,,,,,,,,,FF,,,,,,,,1.5336,,,,,,,,,,,,,,,,,,,,,,610317bf4ff2cfcff5c3d8d1,61036e76feab2892fddca0c1,2021-07-29_20h16.57.766,Simcolourproject_2stim_asymm_v5,2020.2.10,MacIntel,60,61025ae37ef11b136ea224fe,,,,,,,,,1665,17.23046875,52.55859375,1,0,0,response1disk,,7,-1.24609375,-15.18359375,1,0,0,rectangle,-1.24609375,-15.18359375,1,0,0,-1.24609375,-15.18359375,1,0,0,0,115,115,41,1,,,,,,,,
,,,,,,,,,,,,,FF,,,,,,,,2.3336,,,,,,,,,,,,,,,,,,,,,,610317bf4ff2cfcff5c3d8d1,61036e76feab2892fddca0c1,2021-07-29_20h16.57.766,Simcolourproject_2stim_asymm_v5,2020.2.10,MacIntel,60,61025ae37ef11b136ea224fe,,,,,,,,,2631,42.66015625,79.125,1,0,0,response1disk,,7,-10.7109375,-10.41796875,1,0,0,rectangle,-10.7109375,-10.41796875,1,0,0,-10.7109375,-10.41796875,1,0,0,0,116,116,55,1,,,,,,,,
,,,,,,,,,,,,,FF,,,,,,,,0.899,,,,,,,,,,,,,,,,,,,,,,610317bf4ff2cfcff5c3d8d1,61036e76feab2892fddca0c1,2021-07-29_20h16.57.766,Simcolourproject_2stim_asymm_v5,2020.2.10,MacIntel,60,61025ae37ef11b136ea224fe,,,,,,,,,2179,34.01171875,-82.94140625,1,0,0,response3disk,,4,2.21875,2.43359375,1,0,0,rectangle,39.30078125,82.16796875,1,0,0,2.34765625,-5.51171875,1,0,0,0,117,117,105,1,,response1disk_3,TRUE,7,7,"[319,42,224,157,232,246,298,253,55,273,122,65,178,319,40,315,118,49,111,223]",1.2668,rectangle
,,,,,,,,,,,,,FF,,,,,,,,0.8514,,,,,,,,,,,,,,,,,,,,,,610317bf4ff2cfcff5c3d8d1,61036e76feab2892fddca0c1,2021-07-29_20h16.57.766,Simcolourproject_2stim_asymm_v5,2020.2.10,MacIntel,60,61025ae37ef11b136ea224fe,,,,,,,,,2505,27.4453125,74.08203125,1,0,0,response1disk,,7,-0.34765625,0.46484375,1,0,0,rectangle,-0.34765625,0.46484375,1,0,0,-0.34765625,0.46484375,1,0,0,0,118,118,57,1,,,,,,,,
,,,,,,,,,,,,,FF,,,,,,,,0.816,,,,,,,,,,,,,,,,,,,,,,610317bf4ff2cfcff5c3d8d1,61036e76feab2892fddca0c1,2021-07-29_20h16.57.766,Simcolourproject_2stim_asymm_v5,2020.2.10,MacIntel,60,61025ae37ef11b136ea224fe,,,,,,,,,1009,57.09765625,-41.81640625,1,0,0,response3disk,,5,-13.3515625,-1.31640625,1,0,0,rectangle,-13.3515625,-1.31640625,1,0,0,-13.3515625,-1.31640625,1,0,0,0,119,119,91,1,,,,,,,,
,,,,,,,,,,,,,FF,,,,,,,,0.8995,,,,,,,,,,,,,,,,,,,,,,610317bf4ff2cfcff5c3d8d1,61036e76feab2892fddca0c1,2021-07-29_20h16.57.766,Simcolourproject_2stim_asymm_v5,2020.2.10,MacIntel,60,61025ae37ef11b136ea224fe,,,,,,,,,942,73.25390625,39.76953125,1,0,0,response1disk,,6,1.8359375,4.79296875,1,0,0,rectangle,1.8359375,4.79296875,1,0,0,1.8359375,4.79296875,1,0,0,0,120,120,130,1,,,,,,,,
,,,,,,,,,,,,,FF,,,,,,,,1.3671,,,,,,,,,,,,,,,,,,,,,,610317bf4ff2cfcff5c3d8d1,61036e76feab2892fddca0c1,2021-07-29_20h16.57.766,Simcolourproject_2stim_asymm_v5,2020.2.10,MacIntel,60,61025ae37ef11b136ea224fe,,,,,,,,,1955,77.11328125,32.80859375,1,0,0,response1disk,,6,-6.8828125,9.59375,1,0,0,rectangle,-36.53515625,-111.9453125,1,0,0,-1.1796875,17.32421875,1,0,0,0,121,121,29,1,,response5disk_3,TRUE,3,3,"[319,42,224,157,232,246,298,253,55,273,122,65,178,319,40,315,118,49,111,223]",1.9497,rectangle
,,,,,,,,,,,,,FF,,,,,,,,0.7498,,,,,,,,,,,,,,,,,,,,,,610317bf4ff2cfcff5c3d8d1,61036e76feab2892fddca0c1,2021-07-29_20h16.57.766,Simcolourproject_2stim_asymm_v5,2020.2.10,MacIntel,60,61025ae37ef11b136ea224fe,,,,,,,,,3351,65.4296875,35.828125,1,0,0,response1disk,,6,-1.359375,-1.1484375,1,0,0,rectangle,-1.359375,-1.1484375,1,0,0,-1.359375,-1.1484375,1,0,0,0,122,122,20,1,,,,,,,,
,,,,,,,,,,,,,FF,,,,,,,,0.7681,,,,,,,,,,,,,,,,,,,,,,610317bf4ff2cfcff5c3d8d1,61036e76feab2892fddca0c1,2021-07-29_20h16.57.766,Simcolourproject_2stim_asymm_v5,2020.2.10,MacIntel,60,61025ae37ef11b136ea224fe,,,,,,,,,369,34.8046875,-80.39453125,1,0,0,response3disk,,4,2.6796875,-1.30078125,1,0,0,rectangle,2.6796875,-1.30078125,1,0,0,2.6796875,-1.30078125,1,0,0,0,123,123,121,1,,,,,,,,
,,,,,,,,,,,,,FF,,,,,,,,1.1502,,,,,,,,,,,,,,,,,,,,,,610317bf4ff2cfcff5c3d8d1,61036e76feab2892fddca0c1,2021-07-29_20h16.57.766,Simcolourproject_2stim_asymm_v5,2020.2.10,MacIntel,60,61025ae37ef11b136ea224fe,,,,,,,,,2771,18.9921875,-68.625,1,0,0,response3disk,,4,-4.57421875,2.515625,1,0,0,rectangle,-4.57421875,2.515625,1,0,0,-4.57421875,2.515625,1,0,0,0,124,124,106,1,,,,,,,,
,,,,,,,,,,,,,FF,,,,,,,,1.1676,,,,,,,,,,,,,,,,,,,,,,610317bf4ff2cfcff5c3d8d1,61036e76feab2892fddca0c1,2021-07-29_20h16.57.766,Simcolourproject_2stim_asymm_v5,2020.2.10,MacIntel,60,61025ae37ef11b136ea224fe,,,,,,,,,788,56.0625,-25.36328125,1,0,0,response3disk,,5,-2.69921875,0.21484375,1,0,0,rectangle,-2.69921875,0.21484375,1,0,0,-2.69921875,0.21484375,1,0,0,0,125,125,104,1,,,,,,,,
,,,,,,,,,,,,,FF,,,,,,,,1.4334,,,,,,,,,,,,,,,,,,,,,,610317bf4ff2cfcff5c3d8d1,61036e76feab2892fddca0c1,2021-07-29_20h16.57.766,Simcolourproject_2stim_asymm_v5,2020.2.10,MacIntel,60,61025ae37ef11b136ea224fe,,,,,,,,,699,79.453125,37,1,0,0,response1disk,,6,21.09375,-8.83984375,1,0,0,rectangle,21.09375,-8.83984375,1,0,0,21.09375,-8.83984375,1,0,0,0,126,126,120,1,,,,,,,,
,,,,,,,,,,,,,FF,,,,,,,,0.6487,,,,,,,,,,,,,,,,,,,,,,610317bf4ff2cfcff5c3d8d1,61036e76feab2892fddca0c1,2021-07-29_20h16.57.766,Simcolourproject_2stim_asymm_v5,2020.2.10,MacIntel,60,61025ae37ef11b136ea224fe,,,,,,,,,3541,35.859375,75.97265625,1,0,0,response1disk,,7,-0.91796875,5.3203125,1,0,0,rectangle,-0.91796875,5.3203125,1,0,0,-0.91796875,5.3203125,1,0,0,0,127,127,18,1,,,,,,,,
,,,,,,,,,,,,,FF,,,,,,,,1.0159,,,,,,,,,,,,,,,,,,,,,,610317bf4ff2cfcff5c3d8d1,61036e76feab2892fddca0c1,2021-07-29_20h16.57.766,Simcolourproject_2stim_asymm_v5,2020.2.10,MacIntel,60,61025ae37ef11b136ea224fe,,,,,,,,,940,32.53125,86.12890625,1,0,0,response1disk,,7,8.9453125,-6.81640625,1,0,0,rectangle,8.9453125,-6.81640625,1,0,0,8.9453125,-6.81640625,1,0,0,0,128,128,25,1,,,,,,,,
,,,,,,,,,,,,,FF,,,,,,,,1.1501,,,,,,,,,,,,,,,,,,,,,,610317bf4ff2cfcff5c3d8d1,61036e76feab2892fddca0c1,2021-07-29_20h16.57.766,Simcolourproject_2stim_asymm_v5,2020.2.10,MacIntel,60,61025ae37ef11b136ea224fe,,,,,,,,,2423,-33.55859375,-94.30859375,1,0,0,response5disk,,3,8.01171875,14.0859375,1,0,0,rectangle,8.01171875,14.0859375,1,0,0,8.01171875,14.0859375,1,0,0,0,129,129,65,1,,,,,,,,
,,,,,,,,,,,,,FF,,,,,,,,0.8164,,,,,,,,,,,,,,,,,,,,,,610317bf4ff2cfcff5c3d8d1,61036e76feab2892fddca0c1,2021-07-29_20h16.57.766,Simcolourproject_2stim_asymm_v5,2020.2.10,MacIntel,60,61025ae37ef11b136ea224fe,,,,,,,,,1451,-70.859375,-47.76171875,1,0,0,response5disk,,2,7.9296875,-2.77734375,1,0,0,rectangle,7.9296875,-2.77734375,1,0,0,7.9296875,-2.77734375,1,0,0,0,130,130,157,1,,,,,,,,
,,,,,,,,,,,,,FF,,,,,,,,0.816,,,,,,,,,,,,,,,,,,,,,,610317bf4ff2cfcff5c3d8d1,61036e76feab2892fddca0c1,2021-07-29_20h16.57.766,Simcolourproject_2stim_asymm_v5,2020.2.10,MacIntel,60,61025ae37ef11b136ea224fe,,,,,,,,,1667,73.44140625,-39.4140625,1,0,0,response3disk,,5,18.40625,-1.6640625,1,0,0,rectangle,18.40625,-1.6640625,1,0,0,18.40625,-1.6640625,1,0,0,0,131,131,84,1,,,,,,,,
,,,,,,,,,,,,,FF,,,,,,,,0.7834,,,,,,,,,,,,,,,,,,,,,,610317bf4ff2cfcff5c3d8d1,61036e76feab2892fddca0c1,2021-07-29_20h16.57.766,Simcolourproject_2stim_asymm_v5,2020.2.10,MacIntel,60,61025ae37ef11b136ea224fe,,,,,,,,,4356,-32.390625,83.54296875,1,0,0,response7disk,,0,3.8828125,6.7890625,1,0,0,rectangle,3.8828125,6.7890625,1,0,0,3.8828125,6.7890625,1,0,0,0,132,132,17,1,,,,,,,,
,,,,,,,,,,,,,FF,,,,,,,,0.7344,,,,,,,,,,,,,,,,,,,,,,610317bf4ff2cfcff5c3d8d1,61036e76feab2892fddca0c1,2021-07-29_20h16.57.766,Simcolourproject_2stim_asymm_v5,2020.2.10,MacIntel,60,61025ae37ef11b136ea224fe,,,,,,,,,1209,61.37109375,31.390625,1,0,0,response1disk,,6,9.51171875,-0.8515625,1,0,0,rectangle,9.51171875,-0.8515625,1,0,0,9.51171875,-0.8515625,1,0,0,0,133,133,151,1,,,,,,,,
,,,,,,,,,,,,,FF,,,,,,,,0.9514,,,,,,,,,,,,,,,,,,,,,,610317bf4ff2cfcff5c3d8d1,61036e76feab2892fddca0c1,2021-07-29_20h16.57.766,Simcolourproject_2stim_asymm_v5,2020.2.10,MacIntel,60,61025ae37ef11b136ea224fe,,,,,,,,,894,82.44140625,-52.046875,1,0,0,response3disk,,5,-7.18359375,6.38671875,1,0,0,rectangle,-7.18359375,6.38671875,1,0,0,-7.18359375,6.38671875,1,0,0,0,134,134,23,1,,,,,,,,
,,,,,,,,,,,,,FF,,,,,,,,1.0345,,,,,,,,,,,,,,,,,,,,,,610317bf4ff2cfcff5c3d8d1,61036e76feab2892fddca0c1,2021-07-29_20h16.57.766,Simcolourproject_2stim_asymm_v5,2020.2.10,MacIntel,60,61025ae37ef11b136ea224fe,,,,,,,,,1483,37.8125,-64.2890625,1,0,0,response3disk,,4,19.6328125,-11.2421875,1,0,0,rectangle,19.6328125,-11.2421875,1,0,0,19.6328125,-11.2421875,1,0,0,0,135,135,7,1,,,,,,,,
,,,,,,,,,,,,,FF,,,,,,,,0.9161,,,,,,,,,,,,,,,,,,,,,,610317bf4ff2cfcff5c3d8d1,61036e76feab2892fddca0c1,2021-07-29_20h16.57.766,Simcolourproject_2stim_asymm_v5,2020.2.10,MacIntel,60,61025ae37ef11b136ea224fe,,,,,,,,,757,65.55859375,34.79296875,1,0,0,response1disk,,6,-15.06640625,10,1,0,0,rectangle,-15.06640625,10,1,0,0,-15.06640625,10,1,0,0,0,136,136,82,1,,,,,,,,
,,,,,,,,,,,,,FF,,,,,,,,0.8173,,,,,,,,,,,,,,,,,,,,,,610317bf4ff2cfcff5c3d8d1,61036e76feab2892fddca0c1,2021-07-29_20h16.57.766,Simcolourproject_2stim_asymm_v5,2020.2.10,MacIntel,60,61025ae37ef11b136ea224fe,,,,,,,,,1512,66.83984375,30.00390625,1,0,0,response1disk,,6,-21.9453125,6.86328125,1,0,0,rectangle,-21.9453125,6.86328125,1,0,0,-21.9453125,6.86328125,1,0,0,0,137,137,38,1,,,,,,,,
,,,,,,,,,,,,,FF,,,,,,,,1.1013,,,,,,,,,,,,,,,,,,,,,,610317bf4ff2cfcff5c3d8d1,61036e76feab2892fddca0c1,2021-07-29_20h16.57.766,Simcolourproject_2stim_asymm_v5,2020.2.10,MacIntel,60,61025ae37ef11b136ea224fe,,,,,,,,,4117,38.96875,-93.57421875,1,0,0,response3disk,,4,-10.48828125,9.98828125,1,0,0,rectangle,-10.48828125,9.98828125,1,0,0,-10.48828125,9.98828125,1,0,0,0,138,138,68,1,,,,,,,,
,,,,,,,,,,,,,FF,,,,,,,,0.9337,,,,,,,,,,,,,,,,,,,,,,610317bf4ff2cfcff5c3d8d1,61036e76feab2892fddca0c1,2021-07-29_20h16.57.766,Simcolourproject_2stim_asymm_v5,2020.2.10,MacIntel,60,61025ae37ef11b136ea224fe,,,,,,,,,139,43.91015625,80.06640625,1,0,0,response1disk,,7,7.26171875,16.5390625,1,0,0,rectangle,7.26171875,16.5390625,1,0,0,7.26171875,16.5390625,1,0,0,0,139,139,138,1,,,,,,,,
,,,,,,,,,,,,,FF,,,,,,,,1.5156,,,,,,,,,,,,,,,,,,,,,,610317bf4ff2cfcff5c3d8d1,61036e76feab2892fddca0c1,2021-07-29_20h16.57.766,Simcolourproject_2stim_asymm_v5,2020.2.10,MacIntel,60,61025ae37ef11b136ea224fe,,,,,,,,,1070,38.67578125,-102.3359375,1,0,0,response3disk,,4,6.3203125,6.59765625,1,0,0,rectangle,6.3203125,6.59765625,1,0,0,6.3203125,6.59765625,1,0,0,0,140,140,125,1,,,,,,,,
,,,,,,,,,,,,,FF,,,,,,,,0.7652,,,,,,,,,,,,,,,,,,,,,,610317bf4ff2cfcff5c3d8d1,61036e76feab2892fddca0c1,2021-07-29_20h16.57.766,Simcolourproject_2stim_asymm_v5,2020.2.10,MacIntel,60,61025ae37ef11b136ea224fe,,,,,,,,,565,51.73046875,31.53515625,1,0,0,response1disk,,6,2.09765625,-0.0859375,1,0,0,rectangle,2.09765625,-0.0859375,1,0,0,2.09765625,-0.0859375,1,0,0,0,141,141,3,1,,,,,,,,
,,,,,,,,,,,,,FF,,,,,,,,1.4325,,,,,,,,,,,,,,,,,,,,,,610317bf4ff2cfcff5c3d8d1,61036e76feab2892fddca0c1,2021-07-29_20h16.57.766,Simcolourproject_2stim_asymm_v5,2020.2.10,MacIntel,60,61025ae37ef11b136ea224fe,,,,,,,,,1112,31.8203125,59.48828125,1,0,0,response1disk,,7,-1.3046875,4.78515625,1,0,0,rectangle,-1.3046875,4.78515625,1,0,0,-1.3046875,4.78515625,1,0,0,0,142,142,16,1,,,,,,,,
,,,,,,,,,,,,,FF,,,,,,,,0.75,,,,,,,,,,,,,,,,,,,,,,610317bf4ff2cfcff5c3d8d1,61036e76feab2892fddca0c1,2021-07-29_20h16.57.766,Simcolourproject_2stim_asymm_v5,2020.2.10,MacIntel,60,61025ae37ef11b136ea224fe,,,,,,,,,532,78.09375,-48.05859375,1,0,0,response3disk,,5,-5.3515625,-2.6484375,1,0,0,rectangle,-5.3515625,-2.6484375,1,0,0,-5.3515625,-2.6484375,1,0,0,0,143,143,21,1,,,,,,,,
,,,,,,,,,,,,,FF,,,,,,,,2.5496,,,,,,,,,,,,,,,,,,,,,,610317bf4ff2cfcff5c3d8d1,61036e76feab2892fddca0c1,2021-07-29_20h16.57.766,Simcolourproject_2stim_asymm_v5,2020.2.10,MacIntel,60,61025ae37ef11b136ea224fe,,,,,,,,,1453,26.078125,-85.83203125,1,0,0,response3disk,,4,-5.16015625,-8.234375,1,0,0,rectangle,-5.16015625,-8.234375,1,0,0,-5.16015625,-8.234375,1,0,0,0,144,144,98,1,,,,,,,,
,,,,,,,,,,,,,FF,,,,,,,,1.0003,,,,,,,,,,,,,,,,,,,,,,610317bf4ff2cfcff5c3d8d1,61036e76feab2892fddca0c1,2021-07-29_20h16.57.766,Simcolourproject_2stim_asymm_v5,2020.2.10,MacIntel,60,61025ae37ef11b136ea224fe,,,,,,,,,3728,23.890625,73.41015625,1,0,0,response1disk,,7,1.6875,9.40625,1,0,0,rectangle,1.6875,9.40625,1,0,0,1.6875,9.40625,1,0,0,0,145,145,75,1,,,,,,,,
,,,,,,,,,,,,,FF,,,,,,,,1.7667,,,,,,,,,,,,,,,,,,,,,,610317bf4ff2cfcff5c3d8d1,61036e76feab2892fddca0c1,2021-07-29_20h16.57.766,Simcolourproject_2stim_asymm_v5,2020.2.10,MacIntel,60,61025ae37ef11b136ea224fe,,,,,,,,,1286,-30.6015625,-101.7265625,1,0,0,response5disk,,3,-2.7265625,-13.046875,1,0,0,rectangle,-2.7265625,-13.046875,1,0,0,-2.7265625,-13.046875,1,0,0,0,146,146,62,1,,,,,,,,
,,,,,,,,,,,,,FF,,,,,,,,1.6001,,,,,,,,,,,,,,,,,,,,,,610317bf4ff2cfcff5c3d8d1,61036e76feab2892fddca0c1,2021-07-29_20h16.57.766,Simcolourproject_2stim_asymm_v5,2020.2.10,MacIntel,60,61025ae37ef11b136ea224fe,,,,,,,,,2383,40.79296875,-76.41015625,1,0,0,response3disk,,4,5.58984375,-15.05078125,1,0,0,rectangle,5.58984375,-15.05078125,1,0,0,5.58984375,-15.05078125,1,0,0,0,147,147,14,1,,,,,,,,
,,,,,,,,,,,,,FF,,,,,,,,0.9837,,,,,,,,,,,,,,,,,,,,,,610317bf4ff2cfcff5c3d8d1,61036e76feab2892fddca0c1,2021-07-29_20h16.57.766,Simcolourproject_2stim_asymm_v5,2020.2.10,MacIntel,60,61025ae37ef11b136ea224fe,,,,,,,,,49,32.9140625,-82.02734375,1,0,0,response3disk,,4,-9.24609375,-2.57421875,1,0,0,rectangle,-9.24609375,-2.57421875,1,0,0,-9.24609375,-2.57421875,1,0,0,0,148,148,70,1,,,,,,,,
,,,,,,,,,,,,,FF,,,,,,,,1.3172,,,,,,,,,,,,,,,,,,,,,,610317bf4ff2cfcff5c3d8d1,61036e76feab2892fddca0c1,2021-07-29_20h16.57.766,Simcolourproject_2stim_asymm_v5,2020.2.10,MacIntel,60,61025ae37ef11b136ea224fe,,,,,,,,,3084,33.9296875,72.0234375,1,0,0,response1disk,,7,7.57421875,8.15234375,1,0,0,rectangle,7.57421875,8.15234375,1,0,0,7.57421875,8.15234375,1,0,0,0,149,149,141,1,,,,,,,,
,,,,,,,,,,,,,FF,,,,,,,,0.5837,,,,,,,,,,,,,,,,,,,,,,610317bf4ff2cfcff5c3d8d1,61036e76feab2892fddca0c1,2021-07-29_20h16.57.766,Simcolourproject_2stim_asymm_v5,2020.2.10,MacIntel,60,61025ae37ef11b136ea224fe,,,,,,,,,119,30.56640625,66.08984375,1,0,0,response1disk,,7,-9.83984375,5.1328125,1,0,0,rectangle,-9.83984375,5.1328125,1,0,0,-9.83984375,5.1328125,1,0,0,0,150,150,59,1,,,,,,,,
,,,,,,,,,,,,,FF,,,,,,,,1.9495,,,,,,,,,,,,,,,,,,,,,,610317bf4ff2cfcff5c3d8d1,61036e76feab2892fddca0c1,2021-07-29_20h16.57.766,Simcolourproject_2stim_asymm_v5,2020.2.10,MacIntel,60,61025ae37ef11b136ea224fe,,,,,,,,,1138,-89.77734375,-53.22265625,1,0,0,response5disk,,2,-3.41796875,-0.04296875,1,0,0,rectangle,-3.41796875,-0.04296875,1,0,0,-3.41796875,-0.04296875,1,0,0,0,151,151,102,1,,,,,,,,
,,,,,,,,,,,,,FF,,,,,,,,0.9818,,,,,,,,,,,,,,,,,,,,,,610317bf4ff2cfcff5c3d8d1,61036e76feab2892fddca0c1,2021-07-29_20h16.57.766,Simcolourproject_2stim_asymm_v5,2020.2.10,MacIntel,60,61025ae37ef11b136ea224fe,,,,,,,,,806,-85.58984375,-53.19140625,1,0,0,response5disk,,2,-1.4140625,1.328125,1,0,0,rectangle,-1.4140625,1.328125,1,0,0,-1.4140625,1.328125,1,0,0,0,152,152,126,1,,,,,,,,
,,,,,,,,,,,,,FF,,,,,,,,0.7164,,,,,,,,,,,,,,,,,,,,,,610317bf4ff2cfcff5c3d8d1,61036e76feab2892fddca0c1,2021-07-29_20h16.57.766,Simcolourproject_2stim_asymm_v5,2020.2.10,MacIntel,60,61025ae37ef11b136ea224fe,,,,,,,,,1669,28.015625,67.1875,1,0,0,response1disk,,7,-6.140625,3.4765625,1,0,0,rectangle,-6.140625,3.4765625,1,0,0,-6.140625,3.4765625,1,0,0,0,153,153,116,1,,,,,,,,
,,,,,,,,,,,,,FF,,,,,,,,1.0672,,,,,,,,,,,,,,,,,,,,,,610317bf4ff2cfcff5c3d8d1,61036e76feab2892fddca0c1,2021-07-29_20h16.57.766,Simcolourproject_2stim_asymm_v5,2020.2.10,MacIntel,60,61025ae37ef11b136ea224fe,,,,,,,,,2935,32.6015625,68.17578125,1,0,0,response1disk,,7,14.26953125,9.08203125,1,0,0,rectangle,14.26953125,9.08203125,1,0,0,14.26953125,9.08203125,1,0,0,0,154,154,0,1,,,,,,,,
,,,,,,,,,,,,,FF,,,,,,,,0.6166,,,,,,,,,,,,,,,,,,,,,,610317bf4ff2cfcff5c3d8d1,61036e76feab2892fddca0c1,2021-07-29_20h16.57.766,Simcolourproject_2stim_asymm_v5,2020.2.10,MacIntel,60,61025ae37ef11b136ea224fe,,,,,,,,,3399,70.08203125,26.08203125,1,0,0,response1disk,,6,-1.82421875,2.8984375,1,0,0,rectangle,-1.82421875,2.8984375,1,0,0,-1.82421875,2.8984375,1,0,0,0,155,155,52,1,,,,,,,,
,,,,,,,,,,,,,FF,,,,,,,,0.8845,,,,,,,,,,,,,,,,,,,,,,610317bf4ff2cfcff5c3d8d1,61036e76feab2892fddca0c1,2021-07-29_20h16.57.766,Simcolourproject_2stim_asymm_v5,2020.2.10,MacIntel,60,61025ae37ef11b136ea224fe,,,,,,,,,1916,77.671875,-38.50390625,1,0,0,response3disk,,5,5.515625,-0.4140625,1,0,0,rectangle,-20.26171875,84.21875,1,0,0,3.765625,3.6875,1,0,0,0,156,156,97,1,,response7disk_3,TRUE,0,0,"[319,42,224,157,232,246,298,253,55,273,122,65,178,319,40,315,118,49,111,223]",1.0833,rectangle
,,,,,,,,,,,,,FF,,,,,,,,1.4671,,,,,,,,,,,,,,,,,,,,,,610317bf4ff2cfcff5c3d8d1,61036e76feab2892fddca0c1,2021-07-29_20h16.57.766,Simcolourproject_2stim_asymm_v5,2020.2.10,MacIntel,60,61025ae37ef11b136ea224fe,,,,,,,,,3788,-27.8984375,-68.21875,1,0,0,response5disk,,3,6.03515625,16.5703125,1,0,0,rectangle,6.03515625,16.5703125,1,0,0,6.03515625,16.5703125,1,0,0,0,157,157,64,1,,,,,,,,
,,,,,,,,,,,,,FF,,,,,,,,1.7507,,,,,,,,,,,,,,,,,,,,,,610317bf4ff2cfcff5c3d8d1,61036e76feab2892fddca0c1,2021-07-29_20h16.57.766,Simcolourproject_2stim_asymm_v5,2020.2.10,MacIntel,60,61025ae37ef11b136ea224fe,,,,,,,,,3477,-38.64453125,-88.53515625,1,0,0,response5disk,,3,-5.94921875,-1.8671875,1,0,0,rectangle,-5.94921875,-1.8671875,1,0,0,-5.94921875,-1.8671875,1,0,0,0,158,158,133,1,,,,,,,,
,,,,,,,,,,,,,FF,,,,,,,,1.2008,,,,,,,,,,,,,,,,,,,,,,610317bf4ff2cfcff5c3d8d1,61036e76feab2892fddca0c1,2021-07-29_20h16.57.766,Simcolourproject_2stim_asymm_v5,2020.2.10,MacIntel,60,61025ae37ef11b136ea224fe,,,,,,,,,602,83.33984375,18.61328125,1,0,0,response1disk,,6,0.4609375,-2.90234375,1,0,0,rectangle,0.4609375,-2.90234375,1,0,0,0.4609375,-2.90234375,1,0,0,0,159,159,11,1,,,,,,,,
,,,,,,,,,,,,,FF,,,,,,,,1.0176,,,,,,,,,,,,,,,,,,,,,,610317bf4ff2cfcff5c3d8d1,61036e76feab2892fddca0c1,2021-07-29_20h16.57.766,Simcolourproject_2stim_asymm_v5,2020.2.10,MacIntel,60,61025ae37ef11b136ea224fe,,,,,,,,,1149,30.7890625,-88.09375,1,0,0,response3disk,,4,0.2421875,7.91015625,1,0,0,rectangle,0.2421875,7.91015625,1,0,0,0.2421875,7.91015625,1,0,0,1,0,160,74,1,,,,,,,,
,,,,,,,,,,,,,FF,,,,,,,,0.8506,,,,,,,,,,,,,,,,,,,,,,610317bf4ff2cfcff5c3d8d1,61036e76feab2892fddca0c1,2021-07-29_20h16.57.766,Simcolourproject_2stim_asymm_v5,2020.2.10,MacIntel,60,61025ae37ef11b136ea224fe,,,,,,,,,2496,85.89453125,-48.765625,1,0,0,response3disk,,5,5.87109375,9.14453125,1,0,0,rectangle,5.87109375,9.14453125,1,0,0,5.87109375,9.14453125,1,0,0,1,1,161,71,1,,,,,,,,
,,,,,,,,,,,,,FF,,,,,,,,2.3495,,,,,,,,,,,,,,,,,,,,,,610317bf4ff2cfcff5c3d8d1,61036e76feab2892fddca0c1,2021-07-29_20h16.57.766,Simcolourproject_2stim_asymm_v5,2020.2.10,MacIntel,60,61025ae37ef11b136ea224fe,,,,,,,,,4199,39.80859375,93.37890625,1,0,0,response1disk,,7,10.39453125,12.515625,1,0,0,rectangle,10.39453125,12.515625,1,0,0,10.39453125,12.515625,1,0,0,1,2,162,41,1,,,,,,,,
,,,,,,,,,,,,,FF,,,,,,,,0.8001,,,,,,,,,,,,,,,,,,,,,,610317bf4ff2cfcff5c3d8d1,61036e76feab2892fddca0c1,2021-07-29_20h16.57.766,Simcolourproject_2stim_asymm_v5,2020.2.10,MacIntel,60,61025ae37ef11b136ea224fe,,,,,,,,,632,84.0390625,-32.1171875,1,0,0,response3disk,,5,-10.08984375,-1.4296875,1,0,0,rectangle,-10.08984375,-1.4296875,1,0,0,-10.08984375,-1.4296875,1,0,0,1,3,163,19,1,,,,,,,,
,,,,,,,,,,,,,FF,,,,,,,,0.785,,,,,,,,,,,,,,,,,,,,,,610317bf4ff2cfcff5c3d8d1,61036e76feab2892fddca0c1,2021-07-29_20h16.57.766,Simcolourproject_2stim_asymm_v5,2020.2.10,MacIntel,60,61025ae37ef11b136ea224fe,,,,,,,,,1727,60.87890625,41.28515625,1,0,0,response1disk,,6,-8.58203125,2.5078125,1,0,0,rectangle,-8.58203125,2.5078125,1,0,0,-8.58203125,2.5078125,1,0,0,1,4,164,42,1,,,,,,,,
,,,,,,,,,,,,,FF,,,,,,,,0.7001,,,,,,,,,,,,,,,,,,,,,,610317bf4ff2cfcff5c3d8d1,61036e76feab2892fddca0c1,2021-07-29_20h16.57.766,Simcolourproject_2stim_asymm_v5,2020.2.10,MacIntel,60,61025ae37ef11b136ea224fe,,,,,,,,,173,-26.82421875,-68.09765625,1,0,0,response5disk,,3,-2.2890625,-5.890625,1,0,0,rectangle,-2.2890625,-5.890625,1,0,0,-2.2890625,-5.890625,1,0,0,1,5,165,43,1,,,,,,,,
,,,,,,,,,,,,,FF,,,,,,,,0.5492,,,,,,,,,,,,,,,,,,,,,,610317bf4ff2cfcff5c3d8d1,61036e76feab2892fddca0c1,2021-07-29_20h16.57.766,Simcolourproject_2stim_asymm_v5,2020.2.10,MacIntel,60,61025ae37ef11b136ea224fe,,,,,,,,,3308,48.11328125,-98.671875,1,0,0,response3disk,,4,18.3125,0.53125,1,0,0,rectangle,18.3125,0.53125,1,0,0,18.3125,0.53125,1,0,0,1,6,166,69,1,,,,,,,,
,,,,,,,,,,,,,FF,,,,,,,,0.9997,,,,,,,,,,,,,,,,,,,,,,610317bf4ff2cfcff5c3d8d1,61036e76feab2892fddca0c1,2021-07-29_20h16.57.766,Simcolourproject_2stim_asymm_v5,2020.2.10,MacIntel,60,61025ae37ef11b136ea224fe,,,,,,,,,4188,-49.84375,-93.65625,1,0,0,response5disk,,3,-6.30078125,0.4453125,1,0,0,rectangle,-6.30078125,0.4453125,1,0,0,-6.30078125,0.4453125,1,0,0,1,7,167,79,1,,,,,,,,
,,,,,,,,,,,,,FF,,,,,,,,0.7329,,,,,,,,,,,,,,,,,,,,,,610317bf4ff2cfcff5c3d8d1,61036e76feab2892fddca0c1,2021-07-29_20h16.57.766,Simcolourproject_2stim_asymm_v5,2020.2.10,MacIntel,60,61025ae37ef11b136ea224fe,,,,,,,,,253,-36.7890625,-88.65625,1,0,0,response5disk,,3,17.265625,-4.30078125,1,0,0,rectangle,17.265625,-4.30078125,1,0,0,17.265625,-4.30078125,1,0,0,1,8,168,5,1,,,,,,,,
,,,,,,,,,,,,,FF,,,,,,,,0.9007,,,,,,,,,,,,,,,,,,,,,,610317bf4ff2cfcff5c3d8d1,61036e76feab2892fddca0c1,2021-07-29_20h16.57.766,Simcolourproject_2stim_asymm_v5,2020.2.10,MacIntel,60,61025ae37ef11b136ea224fe,,,,,,,,,1970,-80.390625,-41.359375,1,0,0,response5disk,,2,3.9375,3.234375,1,0,0,rectangle,3.9375,3.234375,1,0,0,3.9375,3.234375,1,0,0,1,9,169,148,1,,,,,,,,
,,,,,,,,,,,,,FF,,,,,,,,0.4673,,,,,,,,,,,,,,,,,,,,,,610317bf4ff2cfcff5c3d8d1,61036e76feab2892fddca0c1,2021-07-29_20h16.57.766,Simcolourproject_2stim_asymm_v5,2020.2.10,MacIntel,60,61025ae37ef11b136ea224fe,,,,,,,,,1459,-73.03125,-32.828125,1,0,0,response5disk,,2,-3.89453125,-0.37890625,1,0,0,rectangle,-3.89453125,-0.37890625,1,0,0,-3.89453125,-0.37890625,1,0,0,1,10,170,14,1,,,,,,,,
,,,,,,,,,,,,,FF,,,,,,,,0.7495,,,,,,,,,,,,,,,,,,,,,,610317bf4ff2cfcff5c3d8d1,61036e76feab2892fddca0c1,2021-07-29_20h16.57.766,Simcolourproject_2stim_asymm_v5,2020.2.10,MacIntel,60,61025ae37ef11b136ea224fe,,,,,,,,,2681,42.14453125,-27.0234375,1,0,0,response3disk,,5,6.6796875,9.171875,1,0,0,rectangle,6.6796875,9.171875,1,0,0,6.6796875,9.171875,1,0,0,1,11,171,18,1,,,,,,,,
,,,,,,,,,,,,,FF,,,,,,,,1.2841,,,,,,,,,,,,,,,,,,,,,,610317bf4ff2cfcff5c3d8d1,61036e76feab2892fddca0c1,2021-07-29_20h16.57.766,Simcolourproject_2stim_asymm_v5,2020.2.10,MacIntel,60,61025ae37ef11b136ea224fe,,,,,,,,,437,60.6171875,-33.046875,1,0,0,response3disk,,5,8.55078125,3.27734375,1,0,0,rectangle,8.55078125,3.27734375,1,0,0,8.55078125,3.27734375,1,0,0,1,12,172,156,1,,,,,,,,
,,,,,,,,,,,,,FF,,,,,,,,0.6512,,,,,,,,,,,,,,,,,,,,,,610317bf4ff2cfcff5c3d8d1,61036e76feab2892fddca0c1,2021-07-29_20h16.57.766,Simcolourproject_2stim_asymm_v5,2020.2.10,MacIntel,60,61025ae37ef11b136ea224fe,,,,,,,,,2475,16.4921875,75.51953125,1,0,0,response1disk,,7,-18.0078125,-13.9296875,1,0,0,rectangle,-18.0078125,-13.9296875,1,0,0,-18.0078125,-13.9296875,1,0,0,1,13,173,11,1,,,,,,,,
,,,,,,,,,,,,,FF,,,,,,,,0.4831,,,,,,,,,,,,,,,,,,,,,,610317bf4ff2cfcff5c3d8d1,61036e76feab2892fddca0c1,2021-07-29_20h16.57.766,Simcolourproject_2stim_asymm_v5,2020.2.10,MacIntel,60,61025ae37ef11b136ea224fe,,,,,,,,,2337,20.71875,57.6015625,1,0,0,response1disk,,7,3.5,5.7734375,1,0,0,rectangle,3.5,5.7734375,1,0,0,3.5,5.7734375,1,0,0,1,14,174,46,1,,,,,,,,
,,,,,,,,,,,,,FF,,,,,,,,0.9015,,,,,,,,,,,,,,,,,,,,,,610317bf4ff2cfcff5c3d8d1,61036e76feab2892fddca0c1,2021-07-29_20h16.57.766,Simcolourproject_2stim_asymm_v5,2020.2.10,MacIntel,60,61025ae37ef11b136ea224fe,,,,,,,,,3996,68.640625,15.8203125,1,0,0,response1disk,,6,2.00390625,-8.08203125,1,0,0,rectangle,2.00390625,-8.08203125,1,0,0,2.00390625,-8.08203125,1,0,0,1,15,175,59,1,,,,,,,,
,,,,,,,,,,,,,FF,,,,,,,,1.1005,,,,,,,,,,,,,,,,,,,,,,610317bf4ff2cfcff5c3d8d1,61036e76feab2892fddca0c1,2021-07-29_20h16.57.766,Simcolourproject_2stim_asymm_v5,2020.2.10,MacIntel,60,61025ae37ef11b136ea224fe,,,,,,,,,1732,40.80078125,-81.73828125,1,0,0,response3disk,,4,8.63671875,-11.38671875,1,0,0,rectangle,8.63671875,-11.38671875,1,0,0,8.63671875,-11.38671875,1,0,0,1,16,176,87,1,,,,,,,,
,,,,,,,,,,,,,FF,,,,,,,,0.65,,,,,,,,,,,,,,,,,,,,,,610317bf4ff2cfcff5c3d8d1,61036e76feab2892fddca0c1,2021-07-29_20h16.57.766,Simcolourproject_2stim_asymm_v5,2020.2.10,MacIntel,60,61025ae37ef11b136ea224fe,,,,,,,,,3243,-65.91015625,-24.87890625,1,0,0,response5disk,,2,-18.8203125,5.734375,1,0,0,rectangle,-46.68359375,89.65625,1,0,0,-0.19140625,-1.9140625,1,0,0,1,17,177,57,1,,response7disk_3,TRUE,0,0,"[319,42,224,157,232,246,298,253,55,273,122,65,178,319,40,315,118,49,111,223]",1.149,rectangle
,,,,,,,,,,,,,FF,,,,,,,,0.8335,,,,,,,,,,,,,,,,,,,,,,610317bf4ff2cfcff5c3d8d1,61036e76feab2892fddca0c1,2021-07-29_20h16.57.766,Simcolourproject_2stim_asymm_v5,2020.2.10,MacIntel,60,61025ae37ef11b136ea224fe,,,,,,,,,307,30.37890625,-76.1484375,1,0,0,response3disk,,4,9.953125,4.359375,1,0,0,rectangle,9.953125,4.359375,1,0,0,9.953125,4.359375,1,0,0,1,18,178,61,1,,,,,,,,
,,,,,,,,,,,,,FF,,,,,,,,1.5327,,,,,,,,,,,,,,,,,,,,,,610317bf4ff2cfcff5c3d8d1,61036e76feab2892fddca0c1,2021-07-29_20h16.57.766,Simcolourproject_2stim_asymm_v5,2020.2.10,MacIntel,60,61025ae37ef11b136ea224fe,,,,,,,,,1330,110.359375,-39.86328125,1,0,0,response3disk,,5,33.66796875,-6.1328125,1,0,0,rectangle,33.66796875,-6.1328125,1,0,0,33.66796875,-6.1328125,1,0,0,1,19,179,103,1,,,,,,,,
,,,,,,,,,,,,,FF,,,,,,,,1.2001,,,,,,,,,,,,,,,,,,,,,,610317bf4ff2cfcff5c3d8d1,61036e76feab2892fddca0c1,2021-07-29_20h16.57.766,Simcolourproject_2stim_asymm_v5,2020.2.10,MacIntel,60,61025ae37ef11b136ea224fe,,,,,,,,,239,72.796875,-38.4609375,1,0,0,response3disk,,5,-6.03515625,11.0234375,1,0,0,rectangle,-6.03515625,11.0234375,1,0,0,-6.03515625,11.0234375,1,0,0,1,20,180,6,1,,,,,,,,
,,,,,,,,,,,,,FF,,,,,,,,0.6331,,,,,,,,,,,,,,,,,,,,,,610317bf4ff2cfcff5c3d8d1,61036e76feab2892fddca0c1,2021-07-29_20h16.57.766,Simcolourproject_2stim_asymm_v5,2020.2.10,MacIntel,60,61025ae37ef11b136ea224fe,,,,,,,,,3178,38.87890625,73.27734375,1,0,0,response1disk,,7,-0.5078125,1.02734375,1,0,0,rectangle,-0.5078125,1.02734375,1,0,0,-0.5078125,1.02734375,1,0,0,1,21,181,28,1,,,,,,,,
,,,,,,,,,,,,,FF,,,,,,,,2.8494,,,,,,,,,,,,,,,,,,,,,,610317bf4ff2cfcff5c3d8d1,61036e76feab2892fddca0c1,2021-07-29_20h16.57.766,Simcolourproject_2stim_asymm_v5,2020.2.10,MacIntel,60,61025ae37ef11b136ea224fe,,,,,,,,,2417,-23.37890625,-85.5703125,1,0,0,response5disk,,3,-3.1015625,-1.94921875,1,0,0,rectangle,-3.1015625,-1.94921875,1,0,0,-3.1015625,-1.94921875,1,0,0,1,22,182,4,1,,,,,,,,
,,,,,,,,,,,,,FF,,,,,,,,1.4488,,,,,,,,,,,,,,,,,,,,,,610317bf4ff2cfcff5c3d8d1,61036e76feab2892fddca0c1,2021-07-29_20h16.57.766,Simcolourproject_2stim_asymm_v5,2020.2.10,MacIntel,60,61025ae37ef11b136ea224fe,,,,,,,,,506,75.50390625,-35.1484375,1,0,0,response3disk,,5,2.60546875,1.05078125,1,0,0,rectangle,2.60546875,1.05078125,1,0,0,2.60546875,1.05078125,1,0,0,1,23,183,56,1,,,,,,,,
,,,,,,,,,,,,,FF,,,,,,,,0.784,,,,,,,,,,,,,,,,,,,,,,610317bf4ff2cfcff5c3d8d1,61036e76feab2892fddca0c1,2021-07-29_20h16.57.766,Simcolourproject_2stim_asymm_v5,2020.2.10,MacIntel,60,61025ae37ef11b136ea224fe,,,,,,,,,2498,75.67578125,41.65625,1,0,0,response1disk,,6,0.44921875,6.46875,1,0,0,rectangle,0.44921875,6.46875,1,0,0,0.44921875,6.46875,1,0,0,1,24,184,85,1,,,,,,,,
,,,,,,,,,,,,,FF,,,,,,,,0.5165,,,,,,,,,,,,,,,,,,,,,,610317bf4ff2cfcff5c3d8d1,61036e76feab2892fddca0c1,2021-07-29_20h16.57.766,Simcolourproject_2stim_asymm_v5,2020.2.10,MacIntel,60,61025ae37ef11b136ea224fe,,,,,,,,,252,40.8828125,74.6484375,1,0,0,response1disk,,7,-4.15234375,6.9765625,1,0,0,rectangle,-4.15234375,6.9765625,1,0,0,-4.15234375,6.9765625,1,0,0,1,25,185,55,1,,,,,,,,
,,,,,,,,,,,,,FF,,,,,,,,0.849,,,,,,,,,,,,,,,,,,,,,,610317bf4ff2cfcff5c3d8d1,61036e76feab2892fddca0c1,2021-07-29_20h16.57.766,Simcolourproject_2stim_asymm_v5,2020.2.10,MacIntel,60,61025ae37ef11b136ea224fe,,,,,,,,,3474,-35.89453125,-60.0390625,1,0,0,response5disk,,3,-16.05859375,10.51953125,1,0,0,rectangle,-16.05859375,10.51953125,1,0,0,-16.05859375,10.51953125,1,0,0,1,26,186,76,1,,,,,,,,
,,,,,,,,,,,,,FF,,,,,,,,0.6656,,,,,,,,,,,,,,,,,,,,,,610317bf4ff2cfcff5c3d8d1,61036e76feab2892fddca0c1,2021-07-29_20h16.57.766,Simcolourproject_2stim_asymm_v5,2020.2.10,MacIntel,60,61025ae37ef11b136ea224fe,,,,,,,,,3725,62.9140625,-39.609375,1,0,0,response3disk,,5,7.46875,-10.84375,1,0,0,rectangle,7.46875,-10.84375,1,0,0,7.46875,-10.84375,1,0,0,1,27,187,139,1,,,,,,,,
,,,,,,,,,,,,,FF,,,,,,,,0.9641,,,,,,,,,,,,,,,,,,,,,,610317bf4ff2cfcff5c3d8d1,61036e76feab2892fddca0c1,2021-07-29_20h16.57.766,Simcolourproject_2stim_asymm_v5,2020.2.10,MacIntel,60,61025ae37ef11b136ea224fe,,,,,,,,,2786,24.44140625,-98.0703125,1,0,0,response3disk,,4,-8.625,4.98828125,1,0,0,rectangle,-8.625,4.98828125,1,0,0,-8.625,4.98828125,1,0,0,1,28,188,82,1,,,,,,,,
,,,,,,,,,,,,,FF,,,,,,,,0.7994,,,,,,,,,,,,,,,,,,,,,,610317bf4ff2cfcff5c3d8d1,61036e76feab2892fddca0c1,2021-07-29_20h16.57.766,Simcolourproject_2stim_asymm_v5,2020.2.10,MacIntel,60,61025ae37ef11b136ea224fe,,,,,,,,,3131,91.3984375,-41.16015625,1,0,0,response3disk,,5,-11.07421875,5.39453125,1,0,0,rectangle,-11.07421875,5.39453125,1,0,0,-11.07421875,5.39453125,1,0,0,1,29,189,34,1,,,,,,,,
,,,,,,,,,,,,,FF,,,,,,,,1.4348,,,,,,,,,,,,,,,,,,,,,,610317bf4ff2cfcff5c3d8d1,61036e76feab2892fddca0c1,2021-07-29_20h16.57.766,Simcolourproject_2stim_asymm_v5,2020.2.10,MacIntel,60,61025ae37ef11b136ea224fe,,,,,,,,,313,32.078125,-100.53125,1,0,0,response3disk,,4,-0.46875,3.3984375,1,0,0,rectangle,-0.46875,3.3984375,1,0,0,-0.46875,3.3984375,1,0,0,1,30,190,54,1,,,,,,,,
,,,,,,,,,,,,,FF,,,,,,,,0.6345,,,,,,,,,,,,,,,,,,,,,,610317bf4ff2cfcff5c3d8d1,61036e76feab2892fddca0c1,2021-07-29_20h16.57.766,Simcolourproject_2stim_asymm_v5,2020.2.10,MacIntel,60,61025ae37ef11b136ea224fe,,,,,,,,,3072,24.26171875,69.27734375,1,0,0,response1disk,,7,5.95703125,14.75,1,0,0,rectangle,5.95703125,14.75,1,0,0,5.95703125,14.75,1,0,0,1,31,191,116,1,,,,,,,,
,,,,,,,,,,,,,FF,,,,,,,,0.9664,,,,,,,,,,,,,,,,,,,,,,610317bf4ff2cfcff5c3d8d1,61036e76feab2892fddca0c1,2021-07-29_20h16.57.766,Simcolourproject_2stim_asymm_v5,2020.2.10,MacIntel,60,61025ae37ef11b136ea224fe,,,,,,,,,616,-35.359375,-83.51953125,1,0,0,response5disk,,3,3.1171875,-8.046875,1,0,0,rectangle,3.1171875,-8.046875,1,0,0,3.1171875,-8.046875,1,0,0,1,32,192,1,1,,,,,,,,
,,,,,,,,,,,,,FF,,,,,,,,1.5676,,,,,,,,,,,,,,,,,,,,,,610317bf4ff2cfcff5c3d8d1,61036e76feab2892fddca0c1,2021-07-29_20h16.57.766,Simcolourproject_2stim_asymm_v5,2020.2.10,MacIntel,60,61025ae37ef11b136ea224fe,,,,,,,,,3873,-65.2578125,-99.80859375,1,0,0,response5disk,,3,7.28515625,13.2890625,1,0,0,rectangle,7.28515625,13.2890625,1,0,0,7.28515625,13.2890625,1,0,0,1,33,193,81,1,,,,,,,,
,,,,,,,,,,,,,FF,,,,,,,,1.5999,,,,,,,,,,,,,,,,,,,,,,610317bf4ff2cfcff5c3d8d1,61036e76feab2892fddca0c1,2021-07-29_20h16.57.766,Simcolourproject_2stim_asymm_v5,2020.2.10,MacIntel,60,61025ae37ef11b136ea224fe,,,,,,,,,3172,-38.6484375,-110.3828125,1,0,0,response5disk,,3,-0.9296875,-7.16796875,1,0,0,rectangle,-0.9296875,-7.16796875,1,0,0,-0.9296875,-7.16796875,1,0,0,1,34,194,15,1,,,,,,,,
,,,,,,,,,,,,,FF,,,,,,,,0.6001,,,,,,,,,,,,,,,,,,,,,,610317bf4ff2cfcff5c3d8d1,61036e76feab2892fddca0c1,2021-07-29_20h16.57.766,Simcolourproject_2stim_asymm_v5,2020.2.10,MacIntel,60,61025ae37ef11b136ea224fe,,,,,,,,,363,63.45703125,-25.296875,1,0,0,response3disk,,5,20.49609375,8.796875,1,0,0,rectangle,20.49609375,8.796875,1,0,0,20.49609375,8.796875,1,0,0,1,35,195,120,1,,,,,,,,
,,,,,,,,,,,,,FF,,,,,,,,0.9999,,,,,,,,,,,,,,,,,,,,,,610317bf4ff2cfcff5c3d8d1,61036e76feab2892fddca0c1,2021-07-29_20h16.57.766,Simcolourproject_2stim_asymm_v5,2020.2.10,MacIntel,60,61025ae37ef11b136ea224fe,,,,,,,,,1403,43.98046875,-75.07421875,1,0,0,response3disk,,4,12.06640625,-0.3515625,1,0,0,rectangle,12.06640625,-0.3515625,1,0,0,12.06640625,-0.3515625,1,0,0,1,36,196,60,1,,,,,,,,
,,,,,,,,,,,,,FF,,,,,,,,1.2507,,,,,,,,,,,,,,,,,,,,,,610317bf4ff2cfcff5c3d8d1,61036e76feab2892fddca0c1,2021-07-29_20h16.57.766,Simcolourproject_2stim_asymm_v5,2020.2.10,MacIntel,60,61025ae37ef11b136ea224fe,,,,,,,,,607,29.93359375,-83.4765625,1,0,0,response3disk,,4,-1.08203125,-6.3203125,1,0,0,rectangle,-1.08203125,-6.3203125,1,0,0,-1.08203125,-6.3203125,1,0,0,1,37,197,0,1,,,,,,,,
,,,,,,,,,,,,,FF,,,,,,,,0.7661,,,,,,,,,,,,,,,,,,,,,,610317bf4ff2cfcff5c3d8d1,61036e76feab2892fddca0c1,2021-07-29_20h16.57.766,Simcolourproject_2stim_asymm_v5,2020.2.10,MacIntel,60,61025ae37ef11b136ea224fe,,,,,,,,,2628,68.30859375,-24.71875,1,0,0,response3disk,,5,23.98046875,-2.40234375,1,0,0,rectangle,23.98046875,-2.40234375,1,0,0,23.98046875,-2.40234375,1,0,0,1,38,198,144,1,,,,,,,,
,,,,,,,,,,,,,FF,,,,,,,,0.7499,,,,,,,,,,,,,,,,,,,,,,610317bf4ff2cfcff5c3d8d1,61036e76feab2892fddca0c1,2021-07-29_20h16.57.766,Simcolourproject_2stim_asymm_v5,2020.2.10,MacIntel,60,61025ae37ef11b136ea224fe,,,,,,,,,2242,-32.98046875,-91.9375,1,0,0,response5disk,,3,-7.8515625,0.5625,1,0,0,rectangle,-7.8515625,0.5625,1,0,0,-7.8515625,0.5625,1,0,0,1,39,199,45,1,,,,,,,,
,,,,,,,,,,,,,FF,,,,,,,,0.5338,,,,,,,,,,,,,,,,,,,,,,610317bf4ff2cfcff5c3d8d1,61036e76feab2892fddca0c1,2021-07-29_20h16.57.766,Simcolourproject_2stim_asymm_v5,2020.2.10,MacIntel,60,61025ae37ef11b136ea224fe,,,,,,,,,3671,-63.8828125,-27.40625,1,0,0,response5disk,,2,-10.74609375,12.828125,1,0,0,rectangle,-10.74609375,12.828125,1,0,0,-10.74609375,12.828125,1,0,0,1,40,200,24,1,,,,,,,,
,,,,,,,,,,,,,FF,,,,,,,,0.6166,,,,,,,,,,,,,,,,,,,,,,610317bf4ff2cfcff5c3d8d1,61036e76feab2892fddca0c1,2021-07-29_20h16.57.766,Simcolourproject_2stim_asymm_v5,2020.2.10,MacIntel,60,61025ae37ef11b136ea224fe,,,,,,,,,3126,41.00390625,101.6367188,1,0,0,response1disk,,7,0.94140625,-2.296875,1,0,0,rectangle,0.94140625,-2.296875,1,0,0,0.94140625,-2.296875,1,0,0,1,41,201,21,1,,,,,,,,
,,,,,,,,,,,,,FF,,,,,,,,0.6332,,,,,,,,,,,,,,,,,,,,,,610317bf4ff2cfcff5c3d8d1,61036e76feab2892fddca0c1,2021-07-29_20h16.57.766,Simcolourproject_2stim_asymm_v5,2020.2.10,MacIntel,60,61025ae37ef11b136ea224fe,,,,,,,,,3695,32.05078125,79.6484375,1,0,0,response1disk,,7,-6.515625,2.23046875,1,0,0,rectangle,-6.515625,2.23046875,1,0,0,-6.515625,2.23046875,1,0,0,1,42,202,138,1,,,,,,,,
,,,,,,,,,,,,,FF,,,,,,,,1.5658,,,,,,,,,,,,,,,,,,,,,,610317bf4ff2cfcff5c3d8d1,61036e76feab2892fddca0c1,2021-07-29_20h16.57.766,Simcolourproject_2stim_asymm_v5,2020.2.10,MacIntel,60,61025ae37ef11b136ea224fe,,,,,,,,,2054,-50.16796875,-96.65625,1,0,0,response5disk,,3,6.80078125,-3.75390625,1,0,0,rectangle,6.80078125,-3.75390625,1,0,0,6.80078125,-3.75390625,1,0,0,1,43,203,9,1,,,,,,,,
,,,,,,,,,,,,,FF,,,,,,,,0.8574,,,,,,,,,,,,,,,,,,,,,,610317bf4ff2cfcff5c3d8d1,61036e76feab2892fddca0c1,2021-07-29_20h16.57.766,Simcolourproject_2stim_asymm_v5,2020.2.10,MacIntel,60,61025ae37ef11b136ea224fe,,,,,,,,,794,36.5625,-96.7734375,1,0,0,response3disk,,4,6.296875,-3.12109375,1,0,0,rectangle,6.296875,-3.12109375,1,0,0,6.296875,-3.12109375,1,0,0,1,44,204,90,1,,,,,,,,
,,,,,,,,,,,,,FF,,,,,,,,0.8494,,,,,,,,,,,,,,,,,,,,,,610317bf4ff2cfcff5c3d8d1,61036e76feab2892fddca0c1,2021-07-29_20h16.57.766,Simcolourproject_2stim_asymm_v5,2020.2.10,MacIntel,60,61025ae37ef11b136ea224fe,,,,,,,,,3830,55.7109375,22.234375,1,0,0,response1disk,,6,-9.046875,8.55859375,1,0,0,rectangle,-9.046875,8.55859375,1,0,0,-9.046875,8.55859375,1,0,0,1,45,205,22,1,,,,,,,,
,,,,,,,,,,,,,FF,,,,,,,,0.8335,,,,,,,,,,,,,,,,,,,,,,610317bf4ff2cfcff5c3d8d1,61036e76feab2892fddca0c1,2021-07-29_20h16.57.766,Simcolourproject_2stim_asymm_v5,2020.2.10,MacIntel,60,61025ae37ef11b136ea224fe,,,,,,,,,3993,-80.4375,34.21484375,1,0,0,response7disk,,1,-24.5625,8.39453125,1,0,0,rectangle,-24.5625,8.39453125,1,0,0,-24.5625,8.39453125,1,0,0,1,46,206,146,1,,,,,,,,
,,,,,,,,,,,,,FF,,,,,,,,0.717,,,,,,,,,,,,,,,,,,,,,,610317bf4ff2cfcff5c3d8d1,61036e76feab2892fddca0c1,2021-07-29_20h16.57.766,Simcolourproject_2stim_asymm_v5,2020.2.10,MacIntel,60,61025ae37ef11b136ea224fe,,,,,,,,,1312,-79.296875,-44.80078125,1,0,0,response5disk,,2,6.4609375,1.95703125,1,0,0,rectangle,6.4609375,1.95703125,1,0,0,6.4609375,1.95703125,1,0,0,1,47,207,95,1,,,,,,,,
,,,,,,,,,,,,,FF,,,,,,,,0.6511,,,,,,,,,,,,,,,,,,,,,,610317bf4ff2cfcff5c3d8d1,61036e76feab2892fddca0c1,2021-07-29_20h16.57.766,Simcolourproject_2stim_asymm_v5,2020.2.10,MacIntel,60,61025ae37ef11b136ea224fe,,,,,,,,,1801,-78.6171875,-18.8828125,1,0,0,response5disk,,2,-17.84375,9.59765625,1,0,0,rectangle,-17.84375,9.59765625,1,0,0,-17.84375,9.59765625,1,0,0,1,48,208,142,1,,,,,,,,
,,,,,,,,,,,,,FF,,,,,,,,0.983,,,,,,,,,,,,,,,,,,,,,,610317bf4ff2cfcff5c3d8d1,61036e76feab2892fddca0c1,2021-07-29_20h16.57.766,Simcolourproject_2stim_asymm_v5,2020.2.10,MacIntel,60,61025ae37ef11b136ea224fe,,,,,,,,,1588,25.09765625,-81.75390625,1,0,0,response3disk,,4,3.41796875,-7.38671875,1,0,0,rectangle,3.41796875,-7.38671875,1,0,0,3.41796875,-7.38671875,1,0,0,1,49,209,48,1,,,,,,,,
,,,,,,,,,,,,,FF,,,,,,,,0.8183,,,,,,,,,,,,,,,,,,,,,,610317bf4ff2cfcff5c3d8d1,61036e76feab2892fddca0c1,2021-07-29_20h16.57.766,Simcolourproject_2stim_asymm_v5,2020.2.10,MacIntel,60,61025ae37ef11b136ea224fe,,,,,,,,,1867,56.83984375,39.1953125,1,0,0,response1disk,,6,7.24609375,-5.046875,1,0,0,rectangle,7.24609375,-5.046875,1,0,0,7.24609375,-5.046875,1,0,0,1,50,210,133,1,,,,,,,,
,,,,,,,,,,,,,FF,,,,,,,,0.9331,,,,,,,,,,,,,,,,,,,,,,610317bf4ff2cfcff5c3d8d1,61036e76feab2892fddca0c1,2021-07-29_20h16.57.766,Simcolourproject_2stim_asymm_v5,2020.2.10,MacIntel,60,61025ae37ef11b136ea224fe,,,,,,,,,1024,79.4453125,-35.19140625,1,0,0,response3disk,,5,19.9140625,-13.40625,1,0,0,rectangle,19.9140625,-13.40625,1,0,0,19.9140625,-13.40625,1,0,0,1,51,211,147,1,,,,,,,,
,,,,,,,,,,,,,FF,,,,,,,,0.7839,,,,,,,,,,,,,,,,,,,,,,610317bf4ff2cfcff5c3d8d1,61036e76feab2892fddca0c1,2021-07-29_20h16.57.766,Simcolourproject_2stim_asymm_v5,2020.2.10,MacIntel,60,61025ae37ef11b136ea224fe,,,,,,,,,918,57.765625,19.87890625,1,0,0,response1disk,,6,-14,-11.25390625,1,0,0,rectangle,-14,-11.25390625,1,0,0,-14,-11.25390625,1,0,0,1,52,212,37,1,,,,,,,,
,,,,,,,,,,,,,FF,,,,,,,,0.4527,,,,,,,,,,,,,,,,,,,,,,610317bf4ff2cfcff5c3d8d1,61036e76feab2892fddca0c1,2021-07-29_20h16.57.766,Simcolourproject_2stim_asymm_v5,2020.2.10,MacIntel,60,61025ae37ef11b136ea224fe,,,,,,,,,3076,25.0625,43.6328125,1,0,0,response1disk,,7,-3.7734375,-12.38671875,1,0,0,rectangle,-3.7734375,-12.38671875,1,0,0,-3.7734375,-12.38671875,1,0,0,1,53,213,150,1,,,,,,,,
,,,,,,,,,,,,,FF,,,,,,,,0.7666,,,,,,,,,,,,,,,,,,,,,,610317bf4ff2cfcff5c3d8d1,61036e76feab2892fddca0c1,2021-07-29_20h16.57.766,Simcolourproject_2stim_asymm_v5,2020.2.10,MacIntel,60,61025ae37ef11b136ea224fe,,,,,,,,,3686,72.62890625,29.9921875,1,0,0,response1disk,,6,-5.609375,-0.54296875,1,0,0,rectangle,-5.609375,-0.54296875,1,0,0,-5.609375,-0.54296875,1,0,0,1,54,214,78,1,,,,,,,,
,,,,,,,,,,,,,FF,,,,,,,,0.9507,,,,,,,,,,,,,,,,,,,,,,610317bf4ff2cfcff5c3d8d1,61036e76feab2892fddca0c1,2021-07-29_20h16.57.766,Simcolourproject_2stim_asymm_v5,2020.2.10,MacIntel,60,61025ae37ef11b136ea224fe,,,,,,,,,1200,85.69921875,-54.515625,1,0,0,response3disk,,5,3.64453125,-12.0390625,1,0,0,rectangle,3.64453125,-12.0390625,1,0,0,3.64453125,-12.0390625,1,0,0,1,55,215,100,1,,,,,,,,
,,,,,,,,,,,,,FF,,,,,,,,1.8834,,,,,,,,,,,,,,,,,,,,,,610317bf4ff2cfcff5c3d8d1,61036e76feab2892fddca0c1,2021-07-29_20h16.57.766,Simcolourproject_2stim_asymm_v5,2020.2.10,MacIntel,60,61025ae37ef11b136ea224fe,,,,,,,,,1592,74.29296875,-45.40234375,1,0,0,response3disk,,5,-0.234375,2.484375,1,0,0,rectangle,-0.234375,2.484375,1,0,0,-0.234375,2.484375,1,0,0,1,56,216,23,1,,,,,,,,
,,,,,,,,,,,,,FF,,,,,,,,0.75,,,,,,,,,,,,,,,,,,,,,,610317bf4ff2cfcff5c3d8d1,61036e76feab2892fddca0c1,2021-07-29_20h16.57.766,Simcolourproject_2stim_asymm_v5,2020.2.10,MacIntel,60,61025ae37ef11b136ea224fe,,,,,,,,,1161,72.828125,40.609375,1,0,0,response1disk,,6,-0.4453125,1.05078125,1,0,0,rectangle,-0.4453125,1.05078125,1,0,0,-0.4453125,1.05078125,1,0,0,1,57,217,101,1,,,,,,,,
,,,,,,,,,,,,,FF,,,,,,,,0.9674,,,,,,,,,,,,,,,,,,,,,,610317bf4ff2cfcff5c3d8d1,61036e76feab2892fddca0c1,2021-07-29_20h16.57.766,Simcolourproject_2stim_asymm_v5,2020.2.10,MacIntel,60,61025ae37ef11b136ea224fe,,,,,,,,,2413,78.890625,21.3203125,1,0,0,response1disk,,6,-2.36328125,0.6640625,1,0,0,rectangle,-2.36328125,0.6640625,1,0,0,-2.36328125,0.6640625,1,0,0,1,58,218,12,1,,,,,,,,
,,,,,,,,,,,,,FF,,,,,,,,0.7663,,,,,,,,,,,,,,,,,,,,,,610317bf4ff2cfcff5c3d8d1,61036e76feab2892fddca0c1,2021-07-29_20h16.57.766,Simcolourproject_2stim_asymm_v5,2020.2.10,MacIntel,60,61025ae37ef11b136ea224fe,,,,,,,,,3078,17.0703125,68.515625,1,0,0,response1disk,,7,-4.1171875,10.25390625,1,0,0,rectangle,-4.1171875,10.25390625,1,0,0,-4.1171875,10.25390625,1,0,0,1,59,219,126,1,,,,,,,,
,,,,,,,,,,,,,FF,,,,,,,,1.6173,,,,,,,,,,,,,,,,,,,,,,610317bf4ff2cfcff5c3d8d1,61036e76feab2892fddca0c1,2021-07-29_20h16.57.766,Simcolourproject_2stim_asymm_v5,2020.2.10,MacIntel,60,61025ae37ef11b136ea224fe,,,,,,,,,1482,44.62109375,-80.36328125,1,0,0,response3disk,,4,11.703125,-0.3671875,1,0,0,rectangle,11.703125,-0.3671875,1,0,0,11.703125,-0.3671875,1,0,0,1,60,220,106,1,,,,,,,,
,,,,,,,,,,,,,FF,,,,,,,,0.8005,,,,,,,,,,,,,,,,,,,,,,610317bf4ff2cfcff5c3d8d1,61036e76feab2892fddca0c1,2021-07-29_20h16.57.766,Simcolourproject_2stim_asymm_v5,2020.2.10,MacIntel,60,61025ae37ef11b136ea224fe,,,,,,,,,2769,-24.75390625,-76.21875,1,0,0,response5disk,,3,-3.73046875,-6.94140625,1,0,0,rectangle,-3.73046875,-6.94140625,1,0,0,-3.73046875,-6.94140625,1,0,0,1,61,221,8,1,,,,,,,,
,,,,,,,,,,,,,FF,,,,,,,,1.3828,,,,,,,,,,,,,,,,,,,,,,610317bf4ff2cfcff5c3d8d1,61036e76feab2892fddca0c1,2021-07-29_20h16.57.766,Simcolourproject_2stim_asymm_v5,2020.2.10,MacIntel,60,61025ae37ef11b136ea224fe,,,,,,,,,3861,98.015625,-50.98828125,1,0,0,response3disk,,5,10.58203125,6.703125,1,0,0,rectangle,85.375,37.78125,1,0,0,4.80078125,10.6953125,1,0,0,1,62,222,52,1,,response1disk_3,TRUE,6,6,"[319,42,224,157,232,246,298,253,55,273,122,65,178,319,40,315,118,49,111,223]",1.1001,rectangle
,,,,,,,,,,,,,FF,,,,,,,,0.7864,,,,,,,,,,,,,,,,,,,,,,610317bf4ff2cfcff5c3d8d1,61036e76feab2892fddca0c1,2021-07-29_20h16.57.766,Simcolourproject_2stim_asymm_v5,2020.2.10,MacIntel,60,61025ae37ef11b136ea224fe,,,,,,,,,3443,58.4765625,-33.44921875,1,0,0,response3disk,,5,-7.64453125,4.96875,1,0,0,rectangle,93.98828125,28.6171875,1,0,0,-4.0390625,13.08203125,1,0,0,1,63,223,75,1,,response1disk_3,TRUE,6,6,"[319,42,224,157,232,246,298,253,55,273,122,65,178,319,40,315,118,49,111,223]",1.6335,rectangle
,,,,,,,,,,,,,FF,,,,,,,,0.9658,,,,,,,,,,,,,,,,,,,,,,610317bf4ff2cfcff5c3d8d1,61036e76feab2892fddca0c1,2021-07-29_20h16.57.766,Simcolourproject_2stim_asymm_v5,2020.2.10,MacIntel,60,61025ae37ef11b136ea224fe,,,,,,,,,3,-38.47265625,-91.8125,1,0,0,response5disk,,3,0.890625,-0.03125,1,0,0,rectangle,0.890625,-0.03125,1,0,0,0.890625,-0.03125,1,0,0,1,64,224,92,1,,,,,,,,
,,,,,,,,,,,,,FF,,,,,,,,0.7993,,,,,,,,,,,,,,,,,,,,,,610317bf4ff2cfcff5c3d8d1,61036e76feab2892fddca0c1,2021-07-29_20h16.57.766,Simcolourproject_2stim_asymm_v5,2020.2.10,MacIntel,60,61025ae37ef11b136ea224fe,,,,,,,,,1834,-21.8515625,-80.4453125,1,0,0,response5disk,,3,4.28515625,13.58984375,1,0,0,rectangle,4.28515625,13.58984375,1,0,0,4.28515625,13.58984375,1,0,0,1,65,225,68,1,,,,,,,,
,,,,,,,,,,,,,FF,,,,,,,,0.766,,,,,,,,,,,,,,,,,,,,,,610317bf4ff2cfcff5c3d8d1,61036e76feab2892fddca0c1,2021-07-29_20h16.57.766,Simcolourproject_2stim_asymm_v5,2020.2.10,MacIntel,60,61025ae37ef11b136ea224fe,,,,,,,,,2911,58.7265625,-79.9765625,1,0,0,response3disk,,4,15.34765625,-0.51171875,1,0,0,rectangle,15.34765625,-0.51171875,1,0,0,15.34765625,-0.51171875,1,0,0,1,66,226,80,1,,,,,,,,
,,,,,,,,,,,,,FF,,,,,,,,0.6995,,,,,,,,,,,,,,,,,,,,,,610317bf4ff2cfcff5c3d8d1,61036e76feab2892fddca0c1,2021-07-29_20h16.57.766,Simcolourproject_2stim_asymm_v5,2020.2.10,MacIntel,60,61025ae37ef11b136ea224fe,,,,,,,,,1131,-78.8125,39.546875,1,0,0,response7disk,,1,-9.3359375,-4.5625,1,0,0,rectangle,-9.3359375,-4.5625,1,0,0,-9.3359375,-4.5625,1,0,0,1,67,227,35,1,,,,,,,,
,,,,,,,,,,,,,FF,,,,,,,,0.5997,,,,,,,,,,,,,,,,,,,,,,610317bf4ff2cfcff5c3d8d1,61036e76feab2892fddca0c1,2021-07-29_20h16.57.766,Simcolourproject_2stim_asymm_v5,2020.2.10,MacIntel,60,61025ae37ef11b136ea224fe,,,,,,,,,693,-80.6640625,-40.6328125,1,0,0,response5disk,,2,-17.96875,3.23828125,1,0,0,rectangle,-17.96875,3.23828125,1,0,0,-17.96875,3.23828125,1,0,0,1,68,228,131,1,,,,,,,,
,,,,,,,,,,,,,FF,,,,,,,,0.5988,,,,,,,,,,,,,,,,,,,,,,610317bf4ff2cfcff5c3d8d1,61036e76feab2892fddca0c1,2021-07-29_20h16.57.766,Simcolourproject_2stim_asymm_v5,2020.2.10,MacIntel,60,61025ae37ef11b136ea224fe,,,,,,,,,4097,-74.4375,-30.68359375,1,0,0,response5disk,,2,-9.24609375,1.01953125,1,0,0,rectangle,-9.24609375,1.01953125,1,0,0,-9.24609375,1.01953125,1,0,0,1,69,229,132,1,,,,,,,,
,,,,,,,,,,,,,FF,,,,,,,,1.2001,,,,,,,,,,,,,,,,,,,,,,610317bf4ff2cfcff5c3d8d1,61036e76feab2892fddca0c1,2021-07-29_20h16.57.766,Simcolourproject_2stim_asymm_v5,2020.2.10,MacIntel,60,61025ae37ef11b136ea224fe,,,,,,,,,1557,78.83984375,-44.50390625,1,0,0,response3disk,,5,11.41015625,-0.79296875,1,0,0,rectangle,11.41015625,-0.79296875,1,0,0,11.41015625,-0.79296875,1,0,0,1,70,230,65,1,,,,,,,,
,,,,,,,,,,,,,FF,,,,,,,,0.6657,,,,,,,,,,,,,,,,,,,,,,610317bf4ff2cfcff5c3d8d1,61036e76feab2892fddca0c1,2021-07-29_20h16.57.766,Simcolourproject_2stim_asymm_v5,2020.2.10,MacIntel,60,61025ae37ef11b136ea224fe,,,,,,,,,2059,70.29296875,33.83984375,1,0,0,response1disk,,6,7.83203125,-1.484375,1,0,0,rectangle,83.79296875,40.1796875,1,0,0,-14.33203125,4.12890625,1,0,0,1,71,231,25,1,,response1disk_3,TRUE,6,6,"[319,42,224,157,232,246,298,253,55,273,122,65,178,319,40,315,118,49,111,223]",1.199,rectangle
,,,,,,,,,,,,,FF,,,,,,,,2.4167,,,,,,,,,,,,,,,,,,,,,,610317bf4ff2cfcff5c3d8d1,61036e76feab2892fddca0c1,2021-07-29_20h16.57.766,Simcolourproject_2stim_asymm_v5,2020.2.10,MacIntel,60,61025ae37ef11b136ea224fe,,,,,,,,,1770,92.359375,-36.30078125,1,0,0,response3disk,,5,-6.19140625,0.71484375,1,0,0,rectangle,-6.19140625,0.71484375,1,0,0,-6.19140625,0.71484375,1,0,0,1,72,232,129,1,,,,,,,,
,,,,,,,,,,,,,FF,,,,,,,,0.6834,,,,,,,,,,,,,,,,,,,,,,610317bf4ff2cfcff5c3d8d1,61036e76feab2892fddca0c1,2021-07-29_20h16.57.766,Simcolourproject_2stim_asymm_v5,2020.2.10,MacIntel,60,61025ae37ef11b136ea224fe,,,,,,,,,3268,60.42578125,26.79296875,1,0,0,response1disk,,6,-23.2578125,11.3125,1,0,0,rectangle,-23.2578125,11.3125,1,0,0,-23.2578125,11.3125,1,0,0,1,73,233,77,1,,,,,,,,
,,,,,,,,,,,,,FF,,,,,,,,0.6342,,,,,,,,,,,,,,,,,,,,,,610317bf4ff2cfcff5c3d8d1,61036e76feab2892fddca0c1,2021-07-29_20h16.57.766,Simcolourproject_2stim_asymm_v5,2020.2.10,MacIntel,60,61025ae37ef11b136ea224fe,,,,,,,,,4015,83.15625,41.00390625,1,0,0,response1disk,,6,0.953125,13.56640625,1,0,0,rectangle,0.953125,13.56640625,1,0,0,0.953125,13.56640625,1,0,0,1,74,234,10,1,,,,,,,,
,,,,,,,,,,,,,FF,,,,,,,,1.6998,,,,,,,,,,,,,,,,,,,,,,610317bf4ff2cfcff5c3d8d1,61036e76feab2892fddca0c1,2021-07-29_20h16.57.766,Simcolourproject_2stim_asymm_v5,2020.2.10,MacIntel,60,61025ae37ef11b136ea224fe,,,,,,,,,2262,79.65625,-49.22265625,1,0,0,response3disk,,5,0.46484375,1.7109375,1,0,0,rectangle,0.46484375,1.7109375,1,0,0,0.46484375,1.7109375,1,0,0,1,75,235,141,1,,,,,,,,
,,,,,,,,,,,,,FF,,,,,,,,0.6826,,,,,,,,,,,,,,,,,,,,,,610317bf4ff2cfcff5c3d8d1,61036e76feab2892fddca0c1,2021-07-29_20h16.57.766,Simcolourproject_2stim_asymm_v5,2020.2.10,MacIntel,60,61025ae37ef11b136ea224fe,,,,,,,,,2412,79.34765625,-44.11328125,1,0,0,response3disk,,5,-7.97265625,-2.2265625,1,0,0,rectangle,-7.97265625,-2.2265625,1,0,0,-7.97265625,-2.2265625,1,0,0,1,76,236,38,1,,,,,,,,
,,,,,,,,,,,,,FF,,,,,,,,2.5495,,,,,,,,,,,,,,,,,,,,,,610317bf4ff2cfcff5c3d8d1,61036e76feab2892fddca0c1,2021-07-29_20h16.57.766,Simcolourproject_2stim_asymm_v5,2020.2.10,MacIntel,60,61025ae37ef11b136ea224fe,,,,,,,,,4121,88.74609375,-48.03515625,1,0,0,response3disk,,5,16.0703125,-10.3125,1,0,0,rectangle,16.0703125,-10.3125,1,0,0,16.0703125,-10.3125,1,0,0,1,77,237,30,1,,,,,,,,
,,,,,,,,,,,,,FF,,,,,,,,0.5002,,,,,,,,,,,,,,,,,,,,,,610317bf4ff2cfcff5c3d8d1,61036e76feab2892fddca0c1,2021-07-29_20h16.57.766,Simcolourproject_2stim_asymm_v5,2020.2.10,MacIntel,60,61025ae37ef11b136ea224fe,,,,,,,,,3425,-86.53515625,-29.34765625,1,0,0,response5disk,,2,-17.09765625,2.71484375,1,0,0,rectangle,-17.09765625,2.71484375,1,0,0,-17.09765625,2.71484375,1,0,0,1,78,238,134,1,,,,,,,,
,,,,,,,,,,,,,FF,,,,,,,,0.8161,,,,,,,,,,,,,,,,,,,,,,610317bf4ff2cfcff5c3d8d1,61036e76feab2892fddca0c1,2021-07-29_20h16.57.766,Simcolourproject_2stim_asymm_v5,2020.2.10,MacIntel,60,61025ae37ef11b136ea224fe,,,,,,,,,1143,-42.8203125,-86.9921875,1,0,0,response5disk,,3,-2.05859375,-9.953125,1,0,0,rectangle,-2.05859375,-9.953125,1,0,0,-2.05859375,-9.953125,1,0,0,1,79,239,20,1,,,,,,,,
,,,,,,,,,,,,,FF,,,,,,,,1.4675,,,,,,,,,,,,,,,,,,,,,,610317bf4ff2cfcff5c3d8d1,61036e76feab2892fddca0c1,2021-07-29_20h16.57.766,Simcolourproject_2stim_asymm_v5,2020.2.10,MacIntel,60,61025ae37ef11b136ea224fe,,,,,,,,,3279,86.0859375,-67.1640625,1,0,0,response3disk,,5,7.14453125,4.8203125,1,0,0,rectangle,7.14453125,4.8203125,1,0,0,7.14453125,4.8203125,1,0,0,1,80,240,93,1,,,,,,,,
,,,,,,,,,,,,,FF,,,,,,,,1.2658,,,,,,,,,,,,,,,,,,,,,,610317bf4ff2cfcff5c3d8d1,61036e76feab2892fddca0c1,2021-07-29_20h16.57.766,Simcolourproject_2stim_asymm_v5,2020.2.10,MacIntel,60,61025ae37ef11b136ea224fe,,,,,,,,,2161,-36.2578125,-103.4375,1,0,0,response5disk,,3,24.640625,0.98828125,1,0,0,rectangle,24.640625,0.98828125,1,0,0,24.640625,0.98828125,1,0,0,1,81,241,70,1,,,,,,,,
,,,,,,,,,,,,,FF,,,,,,,,1.2493,,,,,,,,,,,,,,,,,,,,,,610317bf4ff2cfcff5c3d8d1,61036e76feab2892fddca0c1,2021-07-29_20h16.57.766,Simcolourproject_2stim_asymm_v5,2020.2.10,MacIntel,60,61025ae37ef11b136ea224fe,,,,,,,,,1653,-22.55859375,-98.53515625,1,0,0,response5disk,,3,-2.84765625,5.39453125,1,0,0,rectangle,-2.84765625,5.39453125,1,0,0,-2.84765625,5.39453125,1,0,0,1,82,242,44,1,,,,,,,,
,,,,,,,,,,,,,FF,,,,,,,,0.9843,,,,,,,,,,,,,,,,,,,,,,610317bf4ff2cfcff5c3d8d1,61036e76feab2892fddca0c1,2021-07-29_20h16.57.766,Simcolourproject_2stim_asymm_v5,2020.2.10,MacIntel,60,61025ae37ef11b136ea224fe,,,,,,,,,4061,47.296875,-78.671875,1,0,0,response3disk,,4,15.77734375,-7.328125,1,0,0,rectangle,15.77734375,-7.328125,1,0,0,15.77734375,-7.328125,1,0,0,1,83,243,84,1,,,,,,,,
,,,,,,,,,,,,,FF,,,,,,,,1.4,,,,,,,,,,,,,,,,,,,,,,610317bf4ff2cfcff5c3d8d1,61036e76feab2892fddca0c1,2021-07-29_20h16.57.766,Simcolourproject_2stim_asymm_v5,2020.2.10,MacIntel,60,61025ae37ef11b136ea224fe,,,,,,,,,1612,37.53125,-87.328125,1,0,0,response3disk,,4,27.86328125,4.81640625,1,0,0,rectangle,27.86328125,4.81640625,1,0,0,27.86328125,4.81640625,1,0,0,1,84,244,108,1,,,,,,,,
,,,,,,,,,,,,,FF,,,,,,,,0.9333,,,,,,,,,,,,,,,,,,,,,,610317bf4ff2cfcff5c3d8d1,61036e76feab2892fddca0c1,2021-07-29_20h16.57.766,Simcolourproject_2stim_asymm_v5,2020.2.10,MacIntel,60,61025ae37ef11b136ea224fe,,,,,,,,,480,73.45703125,30.78515625,1,0,0,response1disk,,6,-15.76953125,2.8046875,1,0,0,rectangle,-41.5234375,-98.64453125,1,0,0,1.83203125,-4.00390625,1,0,0,1,85,245,39,1,,response5disk_3,TRUE,3,4,"[319,42,224,157,232,246,298,253,55,273,122,65,178,319,40,315,118,49,111,223]",1.5833,rectangle
,,,,,,,,,,,,,FF,,,,,,,,1.2015,,,,,,,,,,,,,,,,,,,,,,610317bf4ff2cfcff5c3d8d1,61036e76feab2892fddca0c1,2021-07-29_20h16.57.766,Simcolourproject_2stim_asymm_v5,2020.2.10,MacIntel,60,61025ae37ef11b136ea224fe,,,,,,,,,1638,72.18359375,-41.68359375,1,0,0,response3disk,,5,-2.30859375,-2.78515625,1,0,0,rectangle,-2.30859375,-2.78515625,1,0,0,-2.30859375,-2.78515625,1,0,0,1,86,246,64,1,,,,,,,,
,,,,,,,,,,,,,FF,,,,,,,,0.8835,,,,,,,,,,,,,,,,,,,,,,610317bf4ff2cfcff5c3d8d1,61036e76feab2892fddca0c1,2021-07-29_20h16.57.766,Simcolourproject_2stim_asymm_v5,2020.2.10,MacIntel,60,61025ae37ef11b136ea224fe,,,,,,,,,3723,60.28515625,28.828125,1,0,0,response1disk,,6,-12.30859375,-15.34765625,1,0,0,rectangle,-12.30859375,-15.34765625,1,0,0,-12.30859375,-15.34765625,1,0,0,1,87,247,107,1,,,,,,,,
,,,,,,,,,,,,,FF,,,,,,,,1.1157,,,,,,,,,,,,,,,,,,,,,,610317bf4ff2cfcff5c3d8d1,61036e76feab2892fddca0c1,2021-07-29_20h16.57.766,Simcolourproject_2stim_asymm_v5,2020.2.10,MacIntel,60,61025ae37ef11b136ea224fe,,,,,,,,,2978,75.4375,38.45703125,1,0,0,response1disk,,6,-5.59375,-0.28515625,1,0,0,rectangle,-5.59375,-0.28515625,1,0,0,-5.59375,-0.28515625,1,0,0,1,88,248,123,1,,,,,,,,
