key_resp.keys,key_resp.rt,key_resp_14.keys,key_resp_14.rt,key_resp_15.keys,key_resp_15.rt,key_resp_17.keys,key_resp_17.rt,key_resp_9.keys,key_resp_9.rt,key_resp_10.keys,key_resp_10.rt,practice_comparison,Ecc,mouse_5.x,mouse_5.y,mouse_5.leftButton,mouse_5.midButton,mouse_5.rightButton,mouse_5.clicked_name,pracsimilarity,response_time,mouse_10.x,mouse_10.y,mouse_10.leftButton,mouse_10.midButton,mouse_10.rightButton,mouse_10.clicked_name,mouse_7.x,mouse_7.y,mouse_7.leftButton,mouse_7.midButton,mouse_7.rightButton,mouse_6.x,mouse_6.y,mouse_6.leftButton,mouse_6.midButton,mouse_6.rightButton,duringprac.thisRepN,duringprac.thisTrialN,duringprac.thisN,duringprac.thisIndex,duringprac.ran,participant,session,date,expName,psychopyVersion,OS,frameRate,study_id,mouse_7.clicked_name,catchpracsimilarity,catch_response_time,catchnumberprac,catchtrialorderprac,mouse_6.clicked_name,key_resp_22.keys,key_resp_22.rt,realcomparison,mouse.x,mouse.y,mouse.leftButton,mouse.midButton,mouse.rightButton,mouse.clicked_name,Colour2,similarity,mouse_2.x,mouse_2.y,mouse_2.leftButton,mouse_2.midButton,mouse_2.rightButton,mouse_2.clicked_name,mouse_3.x,mouse_3.y,mouse_3.leftButton,mouse_3.midButton,mouse_3.rightButton,mouse_11.x,mouse_11.y,mouse_11.leftButton,mouse_11.midButton,mouse_11.rightButton,trials_2.thisRepN,trials_2.thisTrialN,trials_2.thisN,trials_2.thisIndex,trials_2.ran,Colour1,mouse_3.clicked_name,catchornah,catchsimilarity,catchnumber,catchtrialorder,catchRT,mouse_11.clicked_name
space,1.5266,space,8.0748,space,32.228,space,21.92,space,2.3309,space,5.9891,115,FF,79.27781773,-52.38891172,1,0,0,response3disk_5,5,15.1133,-12.94440889,3.166646481,1,0,0,rectangle_8,-12.94440889,3.166646481,1,0,0,-12.94440889,3.166646481,1,0,0,0,0,0,3,1,610302f87498dc46e622b4bb,61036b98419789b8498b9e80,2021-07-29_21h02.42.511,Simcolourproject_2stim_asymm_v5,2020.2.10,Win32,60,61025ae37ef11b136ea224fe,,,,,,,,,,,,,,,,,,,,,,,,,,,,,,,,,,,,,,,,,,,,,,
,,,,,,,,,,,,91,PF,58.16670561,118.7222075,1,0,0,response1disk_5,7,2.3305,2.611147404,6.499946064,1,0,0,rectangle_8,-95.16663504,-50.1666894,1,0,0,-8.49989642,-0.166687012,1,0,0,0,1,1,1,1,610302f87498dc46e622b4bb,61036b98419789b8498b9e80,2021-07-29_21h02.42.511,Simcolourproject_2stim_asymm_v5,2020.2.10,Win32,60,61025ae37ef11b136ea224fe,response5disk_7,2,3.5365,2,"[2,5]",rectangle_4,,,,,,,,,,,,,,,,,,,,,,,,,,,,,,,,,,,,,,,,
,,,,,,,,,,,,150,FF,111.5001093,46.49994797,1,0,0,response1disk_5,6,3.8698,-6.277741909,-6.833353996,1,0,0,rectangle_8,-6.277741909,-6.833353996,1,0,0,-6.277741909,-6.833353996,1,0,0,0,2,2,5,1,610302f87498dc46e622b4bb,61036b98419789b8498b9e80,2021-07-29_21h02.42.511,Simcolourproject_2stim_asymm_v5,2020.2.10,Win32,60,61025ae37ef11b136ea224fe,,,,,,,,,,,,,,,,,,,,,,,,,,,,,,,,,,,,,,,,,,,,,,
,,,,,,,,,,,,48,PF,44.83337164,-84.61116939,1,0,0,response3disk_5,4,3.9003,-5.166630745,3.166646481,1,0,0,rectangle_8,-5.166630745,3.166646481,1,0,0,-5.166630745,3.166646481,1,0,0,0,3,3,6,1,610302f87498dc46e622b4bb,61036b98419789b8498b9e80,2021-07-29_21h02.42.511,Simcolourproject_2stim_asymm_v5,2020.2.10,Win32,60,61025ae37ef11b136ea224fe,,,,,,,,,,,,,,,,,,,,,,,,,,,,,,,,,,,,,,,,,,,,,,
,,,,,,,,,,,,105,PF,-92.94441271,-30.16668844,1,0,0,response5disk_5,2,4.3981,9.277882205,-2.38890934,1,0,0,rectangle_8,-80.72212209,-27.94446611,1,0,0,3.722258568,-2.38890934,1,0,0,0,4,4,4,1,610302f87498dc46e622b4bb,61036b98419789b8498b9e80,2021-07-29_21h02.42.511,Simcolourproject_2stim_asymm_v5,2020.2.10,Win32,60,61025ae37ef11b136ea224fe,response5disk_7,2,1.946,2,"[2,5]",rectangle_4,,,,,,,,,,,,,,,,,,,,,,,,,,,,,,,,,,,,,,,,
,,,,,,,,,,,,138,PF,-37.3888545,-77.9444685,1,0,0,response5disk_5,3,2.9725,4.833369732,7.611091137,1,0,0,rectangle_8,4.833369732,7.611091137,1,0,0,4.833369732,7.611091137,1,0,0,0,5,5,2,1,610302f87498dc46e622b4bb,61036b98419789b8498b9e80,2021-07-29_21h02.42.511,Simcolourproject_2stim_asymm_v5,2020.2.10,Win32,60,61025ae37ef11b136ea224fe,,,,,,,,,,,,,,,,,,,,,,,,,,,,,,,,,,,,,,,,,,,,,,
,,,,,,,,,,,,146,FF,43.72232829,-89.05561405,1,0,0,response3disk_5,4,2.298,0.388925076,2.055535316,1,0,0,rectangle_8,0.388925076,2.055535316,1,0,0,0.388925076,2.055535316,1,0,0,0,6,6,0,1,610302f87498dc46e622b4bb,61036b98419789b8498b9e80,2021-07-29_21h02.42.511,Simcolourproject_2stim_asymm_v5,2020.2.10,Win32,60,61025ae37ef11b136ea224fe,,,,,,,,,,,,,,,,,,,,,,,,,,,,,,,,,,,,,,,,,,,,,,
,,,,,,,,,,,,,FF,,,,,,,,4.3706,,,,,,,,,,,,,,,,,,,,,,610302f87498dc46e622b4bb,61036b98419789b8498b9e80,2021-07-29_21h02.42.511,Simcolourproject_2stim_asymm_v5,2020.2.10,Win32,60,61025ae37ef11b136ea224fe,,,,,,,space,3.741,3353,88.16670704,-53.5000568,1,0,0,response3disk,,5,9.277882205,-3.500054412,1,0,0,rectangle,9.277882205,-3.500054412,1,0,0,9.277882205,-3.500054412,1,0,0,0,0,0,101,1,,,,,,,,
,,,,,,,,,,,,,FF,,,,,,,,3.1669,,,,,,,,,,,,,,,,,,,,,,610302f87498dc46e622b4bb,61036b98419789b8498b9e80,2021-07-29_21h02.42.511,Simcolourproject_2stim_asymm_v5,2020.2.10,Win32,60,61025ae37ef11b136ea224fe,,,,,,,,,1730,83.7223302,-46.8333559,1,0,0,response3disk,,5,-14.05552006,5.3888349,1,0,0,rectangle,-14.05552006,5.3888349,1,0,0,-14.05552006,5.3888349,1,0,0,0,1,1,27,1,,,,,,,,
,,,,,,,,,,,,,FF,,,,,,,,2.2805,,,,,,,,,,,,,,,,,,,,,,610302f87498dc46e622b4bb,61036b98419789b8498b9e80,2021-07-29_21h02.42.511,Simcolourproject_2stim_asymm_v5,2020.2.10,Win32,60,61025ae37ef11b136ea224fe,,,,,,,,,2666,-29.61107635,-72.38891268,1,0,0,response5disk,,3,0.388925076,-1.277798176,1,0,0,rectangle,0.388925076,-1.277798176,1,0,0,0.388925076,-1.277798176,1,0,0,0,2,2,45,1,,,,,,,,
,,,,,,,,,,,,,FF,,,,,,,,3.3356,,,,,,,,,,,,,,,,,,,,,,610302f87498dc46e622b4bb,61036b98419789b8498b9e80,2021-07-29_21h02.42.511,Simcolourproject_2stim_asymm_v5,2020.2.10,Win32,60,61025ae37ef11b136ea224fe,,,,,,,,,850,109.2778192,75.38887215,1,0,0,response1disk,,6,1.500104056,5.3888349,1,0,0,rectangle,1.500104056,5.3888349,1,0,0,1.500104056,5.3888349,1,0,0,0,3,3,4,1,,,,,,,,
,,,,,,,,,,,,,FF,,,,,,,,1.4542,,,,,,,,,,,,,,,,,,,,,,610302f87498dc46e622b4bb,61036b98419789b8498b9e80,2021-07-29_21h02.42.511,Simcolourproject_2stim_asymm_v5,2020.2.10,Win32,60,61025ae37ef11b136ea224fe,,,,,,,,,4119,-78.49989976,-40.16668892,1,0,0,response5disk,,2,5.944480896,3.166646481,1,0,0,rectangle,5.944480896,3.166646481,1,0,0,5.944480896,3.166646481,1,0,0,0,4,4,122,1,,,,,,,,
,,,,,,,,,,,,,FF,,,,,,,,2.2763,,,,,,,,,,,,,,,,,,,,,,610302f87498dc46e622b4bb,61036b98419789b8498b9e80,2021-07-29_21h02.42.511,Simcolourproject_2stim_asymm_v5,2020.2.10,Win32,60,61025ae37ef11b136ea224fe,,,,,,,,,1302,-85.16663456,-51.27780056,1,0,0,response5disk,,2,-6.277741909,-0.166687012,1,0,0,rectangle,-6.277741909,-0.166687012,1,0,0,-6.277741909,-0.166687012,1,0,0,0,5,5,6,1,,,,,,,,
,,,,,,,,,,,,,FF,,,,,,,,1.2892,,,,,,,,,,,,,,,,,,,,,,610302f87498dc46e622b4bb,61036b98419789b8498b9e80,2021-07-29_21h02.42.511,Simcolourproject_2stim_asymm_v5,2020.2.10,Win32,60,61025ae37ef11b136ea224fe,,,,,,,,,2026,-76.27774525,43.16664839,1,0,0,response7disk,,1,1.500104056,5.3888349,1,0,0,rectangle,1.500104056,5.3888349,1,0,0,1.500104056,5.3888349,1,0,0,0,6,6,89,1,,,,,,,,
,,,,,,,,,,,,,FF,,,,,,,,1.4072,,,,,,,,,,,,,,,,,,,,,,610302f87498dc46e622b4bb,61036b98419789b8498b9e80,2021-07-29_21h02.42.511,Simcolourproject_2stim_asymm_v5,2020.2.10,Win32,60,61025ae37ef11b136ea224fe,,,,,,,,,1874,40.38892698,64.27776051,1,0,0,response1disk,,7,0.388925076,-2.38890934,1,0,0,rectangle,0.388925076,-2.38890934,1,0,0,0.388925076,-2.38890934,1,0,0,0,7,7,42,1,,,,,,,,
,,,,,,,,,,,,,FF,,,,,,,,3.0488,,,,,,,,,,,,,,,,,,,,,,610302f87498dc46e622b4bb,61036b98419789b8498b9e80,2021-07-29_21h02.42.511,Simcolourproject_2stim_asymm_v5,2020.2.10,Win32,60,61025ae37ef11b136ea224fe,,,,,,,,,2970,55.94448328,86.49994988,1,0,0,response1disk,,7,8.166703224,5.3888349,1,0,0,rectangle,8.166703224,5.3888349,1,0,0,8.166703224,5.3888349,1,0,0,0,8,8,9,1,,,,,,,,
,,,,,,,,,,,,,FF,,,,,,,,1.678,,,,,,,,,,,,,,,,,,,,,,610302f87498dc46e622b4bb,61036b98419789b8498b9e80,2021-07-29_21h02.42.511,Simcolourproject_2stim_asymm_v5,2020.2.10,Win32,60,61025ae37ef11b136ea224fe,,,,,,,,,869,-52.9444108,-83.50005823,1,0,0,response5disk,,3,11.50010453,-2.38890934,1,0,0,rectangle,11.50010453,-2.38890934,1,0,0,11.50010453,-2.38890934,1,0,0,0,9,9,26,1,,,,,,,,
,,,,,,,,,,,,,FF,,,,,,,,2.0077,,,,,,,,,,,,,,,,,,,,,,610302f87498dc46e622b4bb,61036b98419789b8498b9e80,2021-07-29_21h02.42.511,Simcolourproject_2stim_asymm_v5,2020.2.10,Win32,60,61025ae37ef11b136ea224fe,,,,,,,,,1724,95.94448519,39.8333149,1,0,0,response1disk,,6,9.277882205,6.499946064,1,0,0,rectangle,9.277882205,6.499946064,1,0,0,9.277882205,6.499946064,1,0,0,0,10,10,84,1,,,,,,,,
,,,,,,,,,,,,,FF,,,,,,,,2.0094,,,,,,,,,,,,,,,,,,,,,,610302f87498dc46e622b4bb,61036b98419789b8498b9e80,2021-07-29_21h02.42.511,Simcolourproject_2stim_asymm_v5,2020.2.10,Win32,60,61025ae37ef11b136ea224fe,,,,,,,,,3878,74.83337307,-60.16668987,1,0,0,response3disk,,5,2.611147404,-1.277798176,1,0,0,rectangle,2.611147404,-1.277798176,1,0,0,2.611147404,-1.277798176,1,0,0,0,11,11,32,1,,,,,,,,
,,,,,,,,,,,,,FF,,,,,,,,1.6416,,,,,,,,,,,,,,,,,,,,,,610302f87498dc46e622b4bb,61036b98419789b8498b9e80,2021-07-29_21h02.42.511,Simcolourproject_2stim_asymm_v5,2020.2.10,Win32,60,61025ae37ef11b136ea224fe,,,,,,,,,2714,-94.05552387,-37.94446659,1,0,0,response5disk,,2,2.611147404,15.38883538,1,0,0,rectangle,2.611147404,15.38883538,1,0,0,2.611147404,15.38883538,1,0,0,0,12,12,67,1,,,,,,,,
,,,,,,,,,,,,,FF,,,,,,,,2.8797,,,,,,,,,,,,,,,,,,,,,,610302f87498dc46e622b4bb,61036b98419789b8498b9e80,2021-07-29_21h02.42.511,Simcolourproject_2stim_asymm_v5,2020.2.10,Win32,60,61025ae37ef11b136ea224fe,,,,,,,,,2643,77.0555954,-50.1666894,1,0,0,response3disk,,5,8.166703224,-12.38890982,1,0,0,rectangle,8.166703224,-12.38890982,1,0,0,8.166703224,-12.38890982,1,0,0,0,13,13,126,1,,,,,,,,
,,,,,,,,,,,,,FF,,,,,,,,1.5443,,,,,,,,,,,,,,,,,,,,,,610302f87498dc46e622b4bb,61036b98419789b8498b9e80,2021-07-29_21h02.42.511,Simcolourproject_2stim_asymm_v5,2020.2.10,Win32,60,61025ae37ef11b136ea224fe,,,,,,,,,2869,91.50010835,-45.72227865,1,0,0,response3disk,,5,2.611147404,-2.38890934,1,0,0,rectangle,2.611147404,-2.38890934,1,0,0,2.611147404,-2.38890934,1,0,0,0,14,14,81,1,,,,,,,,
,,,,,,,,,,,,,FF,,,,,,,,2.9626,,,,,,,,,,,,,,,,,,,,,,610302f87498dc46e622b4bb,61036b98419789b8498b9e80,2021-07-29_21h02.42.511,Simcolourproject_2stim_asymm_v5,2020.2.10,Win32,60,61025ae37ef11b136ea224fe,,,,,,,,,2223,58.16670561,90.94442844,1,0,0,response1disk,,7,-24.05552053,-4.611165577,1,0,0,rectangle,-24.05552053,-4.611165577,1,0,0,-24.05552053,-4.611165577,1,0,0,0,15,15,52,1,,,,,,,,
,,,,,,,,,,,,,FF,,,,,,,,1.2921,,,,,,,,,,,,,,,,,,,,,,610302f87498dc46e622b4bb,61036b98419789b8498b9e80,2021-07-29_21h02.42.511,Simcolourproject_2stim_asymm_v5,2020.2.10,Win32,60,61025ae37ef11b136ea224fe,,,,,,,,,1063,-44.05552149,-74.61116891,1,0,0,response5disk,,3,-8.49989642,4.277757645,1,0,0,rectangle,-49.61107731,-83.50005823,1,0,0,-5.166630745,6.499946064,1,0,0,0,16,16,132,1,,response5disk_3,TRUE,3,3,"[21,138,188,62,251,241,32,264,144,151,219,280,300,228,284,17,214,136,150,102]",2.5358,rectangle
,,,,,,,,,,,,,FF,,,,,,,,5.3294,,,,,,,,,,,,,,,,,,,,,,610302f87498dc46e622b4bb,61036b98419789b8498b9e80,2021-07-29_21h02.42.511,Simcolourproject_2stim_asymm_v5,2020.2.10,Win32,60,61025ae37ef11b136ea224fe,,,,,,,,,2400,59.27781677,88.72220612,1,0,0,response1disk,,7,-6.277741909,3.166646481,1,0,0,rectangle,-6.277741909,3.166646481,1,0,0,-6.277741909,3.166646481,1,0,0,0,17,17,136,1,,,,,,,,
,,,,,,,,,,,,,FF,,,,,,,,1.5708,,,,,,,,,,,,,,,,,,,,,,610302f87498dc46e622b4bb,61036b98419789b8498b9e80,2021-07-29_21h02.42.511,Simcolourproject_2stim_asymm_v5,2020.2.10,Win32,60,61025ae37ef11b136ea224fe,,,,,,,,,1595,-47.38885498,-100.1666918,1,0,0,response5disk,,3,2.611147404,14.27775812,1,0,0,rectangle,2.611147404,14.27775812,1,0,0,2.611147404,14.27775812,1,0,0,0,18,18,123,1,,,,,,,,
,,,,,,,,,,,,,FF,,,,,,,,2.1516,,,,,,,,,,,,,,,,,,,,,,610302f87498dc46e622b4bb,61036b98419789b8498b9e80,2021-07-29_21h02.42.511,Simcolourproject_2stim_asymm_v5,2020.2.10,Win32,60,61025ae37ef11b136ea224fe,,,,,,,,,29,104.8333745,85.38887262,1,0,0,response1disk,,6,-12.94440889,4.277757645,1,0,0,rectangle,-12.94440889,4.277757645,1,0,0,-12.94440889,4.277757645,1,0,0,0,19,19,98,1,,,,,,,,
,,,,,,,,,,,,,FF,,,,,,,,1.7595,,,,,,,,,,,,,,,,,,,,,,610302f87498dc46e622b4bb,61036b98419789b8498b9e80,2021-07-29_21h02.42.511,Simcolourproject_2stim_asymm_v5,2020.2.10,Win32,60,61025ae37ef11b136ea224fe,,,,,,,,,3887,-87.38885689,-64.61116844,1,0,0,response5disk,,2,2.611147404,-9.055576324,1,0,0,rectangle,-55.16663313,-32.38891077,1,0,0,-1.833297253,2.055535316,1,0,0,0,20,20,61,1,,response5disk_3,TRUE,2,2,"[21,138,188,62,251,241,32,264,144,151,219,280,300,228,284,17,214,136,150,102]",1.5447,rectangle
,,,,,,,,,,,,,FF,,,,,,,,1.6723,,,,,,,,,,,,,,,,,,,,,,610302f87498dc46e622b4bb,61036b98419789b8498b9e80,2021-07-29_21h02.42.511,Simcolourproject_2stim_asymm_v5,2020.2.10,Win32,60,61025ae37ef11b136ea224fe,,,,,,,,,863,53.72232877,46.49994797,1,0,0,response1disk,,6,-14.05552006,12.05553579,1,0,0,rectangle,-14.05552006,12.05553579,1,0,0,-14.05552006,12.05553579,1,0,0,0,21,21,141,1,,,,,,,,
,,,,,,,,,,,,,FF,,,,,,,,1.878,,,,,,,,,,,,,,,,,,,,,,610302f87498dc46e622b4bb,61036b98419789b8498b9e80,2021-07-29_21h02.42.511,Simcolourproject_2stim_asymm_v5,2020.2.10,Win32,60,61025ae37ef11b136ea224fe,,,,,,,,,1403,100.3889298,25.38883585,1,0,0,response1disk,,6,15.94448137,8.722202301,1,0,0,rectangle,15.94448137,8.722202301,1,0,0,15.94448137,8.722202301,1,0,0,0,22,22,128,1,,,,,,,,
,,,,,,,,,,,,,FF,,,,,,,,1.6387,,,,,,,,,,,,,,,,,,,,,,610302f87498dc46e622b4bb,61036b98419789b8498b9e80,2021-07-29_21h02.42.511,Simcolourproject_2stim_asymm_v5,2020.2.10,Win32,60,61025ae37ef11b136ea224fe,,,,,,,,,2110,64.83337259,-53.5000568,1,0,0,response3disk,,5,24.83337069,-3.500054412,1,0,0,rectangle,24.83337069,-3.500054412,1,0,0,24.83337069,-3.500054412,1,0,0,0,23,23,29,1,,,,,,,,
,,,,,,,,,,,,,FF,,,,,,,,4.0681,,,,,,,,,,,,,,,,,,,,,,610302f87498dc46e622b4bb,61036b98419789b8498b9e80,2021-07-29_21h02.42.511,Simcolourproject_2stim_asymm_v5,2020.2.10,Win32,60,61025ae37ef11b136ea224fe,,,,,,,,,1185,117.0555973,58.72220469,1,0,0,response1disk,,6,9.277882205,14.27775812,1,0,0,rectangle,9.277882205,14.27775812,1,0,0,9.277882205,14.27775812,1,0,0,0,24,24,31,1,,,,,,,,
,,,,,,,,,,,,,FF,,,,,,,,1.3848,,,,,,,,,,,,,,,,,,,,,,610302f87498dc46e622b4bb,61036b98419789b8498b9e80,2021-07-29_21h02.42.511,Simcolourproject_2stim_asymm_v5,2020.2.10,Win32,60,61025ae37ef11b136ea224fe,,,,,,,,,1076,32.61114883,-105.7222476,1,0,0,response3disk,,4,5.944480896,-3.500054412,1,0,0,rectangle,5.944480896,-3.500054412,1,0,0,5.944480896,-3.500054412,1,0,0,0,25,25,131,1,,,,,,,,
,,,,,,,,,,,,,FF,,,,,,,,3.7405,,,,,,,,,,,,,,,,,,,,,,610302f87498dc46e622b4bb,61036b98419789b8498b9e80,2021-07-29_21h02.42.511,Simcolourproject_2stim_asymm_v5,2020.2.10,Win32,60,61025ae37ef11b136ea224fe,,,,,,,,,295,87.05559587,42.05553722,1,0,0,response1disk,,6,-2.944408417,3.166646481,1,0,0,rectangle,-2.944408417,3.166646481,1,0,0,-2.944408417,3.166646481,1,0,0,0,26,26,80,1,,,,,,,,
,,,,,,,,,,,,,FF,,,,,,,,1.6719,,,,,,,,,,,,,,,,,,,,,,610302f87498dc46e622b4bb,61036b98419789b8498b9e80,2021-07-29_21h02.42.511,Simcolourproject_2stim_asymm_v5,2020.2.10,Win32,60,61025ae37ef11b136ea224fe,,,,,,,,,2885,72.61115074,35.38883633,1,0,0,response1disk,,6,0.388925076,9.833313465,1,0,0,rectangle,0.388925076,9.833313465,1,0,0,0.388925076,9.833313465,1,0,0,0,27,27,82,1,,,,,,,,
,,,,,,,,,,,,,FF,,,,,,,,1.4455,,,,,,,,,,,,,,,,,,,,,,610302f87498dc46e622b4bb,61036b98419789b8498b9e80,2021-07-29_21h02.42.511,Simcolourproject_2stim_asymm_v5,2020.2.10,Win32,60,61025ae37ef11b136ea224fe,,,,,,,,,2208,77.0555954,-43.50005632,1,0,0,response3disk,,5,-6.277741909,5.3888349,1,0,0,rectangle,-6.277741909,5.3888349,1,0,0,-6.277741909,5.3888349,1,0,0,0,28,28,24,1,,,,,,,,
,,,,,,,,,,,,,FF,,,,,,,,2.5134,,,,,,,,,,,,,,,,,,,,,,610302f87498dc46e622b4bb,61036b98419789b8498b9e80,2021-07-29_21h02.42.511,Simcolourproject_2stim_asymm_v5,2020.2.10,Win32,60,61025ae37ef11b136ea224fe,,,,,,,,,1542,128.1667089,42.05553722,1,0,0,response1disk,,6,18.1667037,-6.833353996,1,0,0,rectangle,18.1667037,-6.833353996,1,0,0,18.1667037,-6.833353996,1,0,0,0,29,29,34,1,,,,,,,,
,,,,,,,,,,,,,FF,,,,,,,,1.9268,,,,,,,,,,,,,,,,,,,,,,610302f87498dc46e622b4bb,61036b98419789b8498b9e80,2021-07-29_21h02.42.511,Simcolourproject_2stim_asymm_v5,2020.2.10,Win32,60,61025ae37ef11b136ea224fe,,,,,,,,,119,32.61114883,124.2777634,1,0,0,response1disk,,7,-4.055519581,8.722202301,1,0,0,rectangle,-4.055519581,8.722202301,1,0,0,-4.055519581,8.722202301,1,0,0,0,30,30,65,1,,,,,,,,
,,,,,,,,,,,,,FF,,,,,,,,1.3671,,,,,,,,,,,,,,,,,,,,,,610302f87498dc46e622b4bb,61036b98419789b8498b9e80,2021-07-29_21h02.42.511,Simcolourproject_2stim_asymm_v5,2020.2.10,Win32,60,61025ae37ef11b136ea224fe,,,,,,,,,1298,-38.49989785,77.61106057,1,0,0,response7disk,,0,17.05559254,0.944424152,1,0,0,rectangle,-36.27774334,69.83331633,1,0,0,-4.055519581,-1.277798176,1,0,0,0,31,31,44,1,,response7disk_3,TRUE,0,0,"[21,138,188,62,251,241,32,264,144,151,219,280,300,228,284,17,214,136,150,102]",1.7227,rectangle
,,,,,,,,,,,,,FF,,,,,,,,3.1139,,,,,,,,,,,,,,,,,,,,,,610302f87498dc46e622b4bb,61036b98419789b8498b9e80,2021-07-29_21h02.42.511,Simcolourproject_2stim_asymm_v5,2020.2.10,Win32,60,61025ae37ef11b136ea224fe,,,,,,,,,924,97.05559635,-51.27780056,1,0,0,response3disk,,5,29.27781534,-3.500054412,1,0,0,rectangle,29.27781534,-3.500054412,1,0,0,29.27781534,-3.500054412,1,0,0,0,32,32,18,1,,,,,,,,
,,,,,,,,,,,,,FF,,,,,,,,1.3114,,,,,,,,,,,,,,,,,,,,,,610302f87498dc46e622b4bb,61036b98419789b8498b9e80,2021-07-29_21h02.42.511,Simcolourproject_2stim_asymm_v5,2020.2.10,Win32,60,61025ae37ef11b136ea224fe,,,,,,,,,550,-78.49989976,-42.38891125,1,0,0,response5disk,,2,-10.72211875,-5.722242832,1,0,0,rectangle,-10.72211875,-5.722242832,1,0,0,-10.72211875,-5.722242832,1,0,0,0,33,33,21,1,,,,,,,,
,,,,,,,,,,,,,FF,,,,,,,,0.9732,,,,,,,,,,,,,,,,,,,,,,610302f87498dc46e622b4bb,61036b98419789b8498b9e80,2021-07-29_21h02.42.511,Simcolourproject_2stim_asymm_v5,2020.2.10,Win32,60,61025ae37ef11b136ea224fe,,,,,,,,,3465,54.83337212,63.16664934,1,0,0,response1disk,,7,7.05559206,-12.38890982,1,0,0,rectangle,7.05559206,-12.38890982,1,0,0,7.05559206,-12.38890982,1,0,0,0,34,34,107,1,,,,,,,,
,,,,,,,,,,,,,FF,,,,,,,,1.193,,,,,,,,,,,,,,,,,,,,,,610302f87498dc46e622b4bb,61036b98419789b8498b9e80,2021-07-29_21h02.42.511,Simcolourproject_2stim_asymm_v5,2020.2.10,Win32,60,61025ae37ef11b136ea224fe,,,,,,,,,3172,-45.16663265,-84.61116939,1,0,0,response5disk,,3,-16.27774239,-5.722242832,1,0,0,rectangle,-16.27774239,-5.722242832,1,0,0,-16.27774239,-5.722242832,1,0,0,0,35,35,150,1,,,,,,,,
,,,,,,,,,,,,,FF,,,,,,,,2.3272,,,,,,,,,,,,,,,,,,,,,,610302f87498dc46e622b4bb,61036b98419789b8498b9e80,2021-07-29_21h02.42.511,Simcolourproject_2stim_asymm_v5,2020.2.10,Win32,60,61025ae37ef11b136ea224fe,,,,,,,,,1435,47.05559397,-75.72228008,1,0,0,response3disk,,4,2.611147404,5.3888349,1,0,0,rectangle,2.611147404,5.3888349,1,0,0,2.611147404,5.3888349,1,0,0,0,36,36,96,1,,,,,,,,
,,,,,,,,,,,,,FF,,,,,,,,2.7833,,,,,,,,,,,,,,,,,,,,,,610302f87498dc46e622b4bb,61036b98419789b8498b9e80,2021-07-29_21h02.42.511,Simcolourproject_2stim_asymm_v5,2020.2.10,Win32,60,61025ae37ef11b136ea224fe,,,,,,,,,3485,38.16670465,-82.38891315,1,0,0,response3disk,,4,7.05559206,-10.16668749,1,0,0,rectangle,7.05559206,-10.16668749,1,0,0,7.05559206,-10.16668749,1,0,0,0,37,37,157,1,,,,,,,,
,,,,,,,,,,,,,FF,,,,,,,,1.3464,,,,,,,,,,,,,,,,,,,,,,610302f87498dc46e622b4bb,61036b98419789b8498b9e80,2021-07-29_21h02.42.511,Simcolourproject_2stim_asymm_v5,2020.2.10,Win32,60,61025ae37ef11b136ea224fe,,,,,,,,,995,69.27781725,59.83331585,1,0,0,response1disk,,6,10.38892555,-0.166687012,1,0,0,rectangle,10.38892555,-0.166687012,1,0,0,10.38892555,-0.166687012,1,0,0,0,38,38,152,1,,,,,,,,
,,,,,,,,,,,,,FF,,,,,,,,1.4239,,,,,,,,,,,,,,,,,,,,,,610302f87498dc46e622b4bb,61036b98419789b8498b9e80,2021-07-29_21h02.42.511,Simcolourproject_2stim_asymm_v5,2020.2.10,Win32,60,61025ae37ef11b136ea224fe,,,,,,,,,134,59.27781677,-21.27779913,1,0,0,response3disk,,5,-9.611075401,10.94442463,1,0,0,rectangle,-9.611075401,10.94442463,1,0,0,-9.611075401,10.94442463,1,0,0,0,39,39,15,1,,,,,,,,
,,,,,,,,,,,,,FF,,,,,,,,1.2911,,,,,,,,,,,,,,,,,,,,,,610302f87498dc46e622b4bb,61036b98419789b8498b9e80,2021-07-29_21h02.42.511,Simcolourproject_2stim_asymm_v5,2020.2.10,Win32,60,61025ae37ef11b136ea224fe,,,,,,,,,3995,-81.83330107,-36.83335543,1,0,0,response5disk,,2,-24.05552053,5.3888349,1,0,0,rectangle,-24.05552053,5.3888349,1,0,0,-24.05552053,5.3888349,1,0,0,0,40,40,106,1,,,,,,,,
,,,,,,,,,,,,,FF,,,,,,,,1.0047,,,,,,,,,,,,,,,,,,,,,,610302f87498dc46e622b4bb,61036b98419789b8498b9e80,2021-07-29_21h02.42.511,Simcolourproject_2stim_asymm_v5,2020.2.10,Win32,60,61025ae37ef11b136ea224fe,,,,,,,,,915,67.05559492,44.27775955,1,0,0,response1disk,,6,8.166703224,-0.166687012,1,0,0,rectangle,8.166703224,-0.166687012,1,0,0,8.166703224,-0.166687012,1,0,0,0,41,41,10,1,,,,,,,,
,,,,,,,,,,,,,FF,,,,,,,,2.8919,,,,,,,,,,,,,,,,,,,,,,610302f87498dc46e622b4bb,61036b98419789b8498b9e80,2021-07-29_21h02.42.511,Simcolourproject_2stim_asymm_v5,2020.2.10,Win32,60,61025ae37ef11b136ea224fe,,,,,,,,,241,72.61115074,-59.05557871,1,0,0,response3disk,,5,13.72225904,-7.94446516,1,0,0,rectangle,13.72225904,-7.94446516,1,0,0,13.72225904,-7.94446516,1,0,0,0,42,42,23,1,,,,,,,,
,,,,,,,,,,,,,FF,,,,,,,,1.1899,,,,,,,,,,,,,,,,,,,,,,610302f87498dc46e622b4bb,61036b98419789b8498b9e80,2021-07-29_21h02.42.511,Simcolourproject_2stim_asymm_v5,2020.2.10,Win32,60,61025ae37ef11b136ea224fe,,,,,,,,,3386,-49.61107731,-82.38891315,1,0,0,response5disk,,3,7.05559206,8.722202301,1,0,0,rectangle,7.05559206,8.722202301,1,0,0,7.05559206,8.722202301,1,0,0,0,43,43,158,1,,,,,,,,
,,,,,,,,,,,,,FF,,,,,,,,1.0061,,,,,,,,,,,,,,,,,,,,,,610302f87498dc46e622b4bb,61036b98419789b8498b9e80,2021-07-29_21h02.42.511,Simcolourproject_2stim_asymm_v5,2020.2.10,Win32,60,61025ae37ef11b136ea224fe,,,,,,,,,2006,87.05559587,38.72220373,1,0,0,response1disk,,6,12.61114788,-1.277798176,1,0,0,rectangle,12.61114788,-1.277798176,1,0,0,12.61114788,-1.277798176,1,0,0,0,44,44,22,1,,,,,,,,
,,,,,,,,,,,,,FF,,,,,,,,1.1057,,,,,,,,,,,,,,,,,,,,,,610302f87498dc46e622b4bb,61036b98419789b8498b9e80,2021-07-29_21h02.42.511,Simcolourproject_2stim_asymm_v5,2020.2.10,Win32,60,61025ae37ef11b136ea224fe,,,,,,,,,2780,-76.27774525,59.83331585,1,0,0,response7disk,,1,19.27781487,-12.38890982,1,0,0,rectangle,19.27781487,-12.38890982,1,0,0,19.27781487,-12.38890982,1,0,0,0,45,45,46,1,,,,,,,,
,,,,,,,,,,,,,FF,,,,,,,,1.2338,,,,,,,,,,,,,,,,,,,,,,610302f87498dc46e622b4bb,61036b98419789b8498b9e80,2021-07-29_21h02.42.511,Simcolourproject_2stim_asymm_v5,2020.2.10,Win32,60,61025ae37ef11b136ea224fe,,,,,,,,,3183,107.0555968,67.61106009,1,0,0,response1disk,,6,11.50010453,-0.166687012,1,0,0,rectangle,11.50010453,-0.166687012,1,0,0,11.50010453,-0.166687012,1,0,0,0,46,46,135,1,,,,,,,,
,,,,,,,,,,,,,FF,,,,,,,,1.908,,,,,,,,,,,,,,,,,,,,,,610302f87498dc46e622b4bb,61036b98419789b8498b9e80,2021-07-29_21h02.42.511,Simcolourproject_2stim_asymm_v5,2020.2.10,Win32,60,61025ae37ef11b136ea224fe,,,,,,,,,632,-41.83329916,108.7222071,1,0,0,response7disk,,0,-10.72211875,-0.166687012,1,0,0,rectangle,-10.72211875,-0.166687012,1,0,0,-10.72211875,-0.166687012,1,0,0,0,47,47,92,1,,,,,,,,
,,,,,,,,,,,,,FF,,,,,,,,2.1949,,,,,,,,,,,,,,,,,,,,,,610302f87498dc46e622b4bb,61036b98419789b8498b9e80,2021-07-29_21h02.42.511,Simcolourproject_2stim_asymm_v5,2020.2.10,Win32,60,61025ae37ef11b136ea224fe,,,,,,,,,2851,33.72232782,113.1666517,1,0,0,response1disk,,7,10.38892555,12.05553579,1,0,0,rectangle,10.38892555,12.05553579,1,0,0,10.38892555,12.05553579,1,0,0,0,48,48,149,1,,,,,,,,
,,,,,,,,,,,,,FF,,,,,,,,1.814,,,,,,,,,,,,,,,,,,,,,,610302f87498dc46e622b4bb,61036b98419789b8498b9e80,2021-07-29_21h02.42.511,Simcolourproject_2stim_asymm_v5,2020.2.10,Win32,60,61025ae37ef11b136ea224fe,,,,,,,,,889,-30.7221197,96.49995036,1,0,0,response7disk,,0,18.1667037,8.722202301,1,0,0,rectangle,18.1667037,8.722202301,1,0,0,18.1667037,8.722202301,1,0,0,0,49,49,142,1,,,,,,,,
,,,,,,,,,,,,,FF,,,,,,,,1.3508,,,,,,,,,,,,,,,,,,,,,,610302f87498dc46e622b4bb,61036b98419789b8498b9e80,2021-07-29_21h02.42.511,Simcolourproject_2stim_asymm_v5,2020.2.10,Win32,60,61025ae37ef11b136ea224fe,,,,,,,,,793,73.72232972,29.83331442,1,0,0,response1disk,,6,0.388925076,-2.38890934,1,0,0,rectangle,0.388925076,-2.38890934,1,0,0,0.388925076,-2.38890934,1,0,0,0,50,50,108,1,,,,,,,,
,,,,,,,,,,,,,FF,,,,,,,,1.2373,,,,,,,,,,,,,,,,,,,,,,610302f87498dc46e622b4bb,61036b98419789b8498b9e80,2021-07-29_21h02.42.511,Simcolourproject_2stim_asymm_v5,2020.2.10,Win32,60,61025ae37ef11b136ea224fe,,,,,,,,,2163,-58.4998988,32.05553675,1,0,0,response7disk,,1,5.944480896,-3.500054412,1,0,0,rectangle,5.944480896,-3.500054412,1,0,0,5.944480896,-3.500054412,1,0,0,0,51,51,60,1,,,,,,,,
,,,,,,,,,,,,,FF,,,,,,,,2.0132,,,,,,,,,,,,,,,,,,,,,,610302f87498dc46e622b4bb,61036b98419789b8498b9e80,2021-07-29_21h02.42.511,Simcolourproject_2stim_asymm_v5,2020.2.10,Win32,60,61025ae37ef11b136ea224fe,,,,,,,,,3649,70.38892841,46.49994797,1,0,0,response1disk,,6,25.94448185,-0.166687012,1,0,0,rectangle,25.94448185,-0.166687012,1,0,0,25.94448185,-0.166687012,1,0,0,0,52,52,19,1,,,,,,,,
,,,,,,,,,,,,,FF,,,,,,,,1.6522,,,,,,,,,,,,,,,,,,,,,,610302f87498dc46e622b4bb,61036b98419789b8498b9e80,2021-07-29_21h02.42.511,Simcolourproject_2stim_asymm_v5,2020.2.10,Win32,60,61025ae37ef11b136ea224fe,,,,,,,,,1738,38.16670465,78.72220564,1,0,0,response1disk,,7,-1.833297253,-0.166687012,1,0,0,rectangle,-1.833297253,-0.166687012,1,0,0,-1.833297253,-0.166687012,1,0,0,0,53,53,138,1,,,,,,,,
,,,,,,,,,,,,,FF,,,,,,,,2.5678,,,,,,,,,,,,,,,,,,,,,,610302f87498dc46e622b4bb,61036b98419789b8498b9e80,2021-07-29_21h02.42.511,Simcolourproject_2stim_asymm_v5,2020.2.10,Win32,60,61025ae37ef11b136ea224fe,,,,,,,,,1655,59.27781677,87.61106104,1,0,0,response1disk,,7,-4.055519581,-1.277798176,1,0,0,rectangle,-4.055519581,-1.277798176,1,0,0,-4.055519581,-1.277798176,1,0,0,0,54,54,35,1,,,,,,,,
,,,,,,,,,,,,,FF,,,,,,,,1.21,,,,,,,,,,,,,,,,,,,,,,610302f87498dc46e622b4bb,61036b98419789b8498b9e80,2021-07-29_21h02.42.511,Simcolourproject_2stim_asymm_v5,2020.2.10,Win32,60,61025ae37ef11b136ea224fe,,,,,,,,,368,-72.94441175,49.83331537,1,0,0,response7disk,,1,-5.166630745,-6.833353996,1,0,0,rectangle,-5.166630745,-6.833353996,1,0,0,-5.166630745,-6.833353996,1,0,0,0,55,55,3,1,,,,,,,,
,,,,,,,,,,,,,FF,,,,,,,,2.327,,,,,,,,,,,,,,,,,,,,,,610302f87498dc46e622b4bb,61036b98419789b8498b9e80,2021-07-29_21h02.42.511,Simcolourproject_2stim_asymm_v5,2020.2.10,Win32,60,61025ae37ef11b136ea224fe,,,,,,,,,2243,71.50010739,39.8333149,1,0,0,response1disk,,6,12.61114788,9.833313465,1,0,0,rectangle,12.61114788,9.833313465,1,0,0,12.61114788,9.833313465,1,0,0,0,56,56,159,1,,,,,,,,
,,,,,,,,,,,,,FF,,,,,,,,1.3295,,,,,,,,,,,,,,,,,,,,,,610302f87498dc46e622b4bb,61036b98419789b8498b9e80,2021-07-29_21h02.42.511,Simcolourproject_2stim_asymm_v5,2020.2.10,Win32,60,61025ae37ef11b136ea224fe,,,,,,,,,373,-88.49990024,33.16664791,1,0,0,response7disk,,1,-1.833297253,-1.277798176,1,0,0,rectangle,-1.833297253,-1.277798176,1,0,0,-1.833297253,-1.277798176,1,0,0,0,57,57,2,1,,,,,,,,
,,,,,,,,,,,,,FF,,,,,,,,1.1352,,,,,,,,,,,,,,,,,,,,,,610302f87498dc46e622b4bb,61036b98419789b8498b9e80,2021-07-29_21h02.42.511,Simcolourproject_2stim_asymm_v5,2020.2.10,Win32,60,61025ae37ef11b136ea224fe,,,,,,,,,2037,-74.05552292,-45.72227865,1,0,0,response5disk,,2,1.500104056,13.16664696,1,0,0,rectangle,1.500104056,13.16664696,1,0,0,1.500104056,13.16664696,1,0,0,0,58,58,105,1,,,,,,,,
,,,,,,,,,,,,,FF,,,,,,,,1.9293,,,,,,,,,,,,,,,,,,,,,,610302f87498dc46e622b4bb,61036b98419789b8498b9e80,2021-07-29_21h02.42.511,Simcolourproject_2stim_asymm_v5,2020.2.10,Win32,60,61025ae37ef11b136ea224fe,,,,,,,,,2571,109.2778192,57.61105961,1,0,0,response1disk,,6,22.61114836,2.055535316,1,0,0,rectangle,22.61114836,2.055535316,1,0,0,22.61114836,2.055535316,1,0,0,0,59,59,73,1,,,,,,,,
,,,,,,,,,,,,,FF,,,,,,,,2.0952,,,,,,,,,,,,,,,,,,,,,,610302f87498dc46e622b4bb,61036b98419789b8498b9e80,2021-07-29_21h02.42.511,Simcolourproject_2stim_asymm_v5,2020.2.10,Win32,60,61025ae37ef11b136ea224fe,,,,,,,,,2524,78.16670656,25.38883585,1,0,0,response1disk,,6,12.61114788,0.944424152,1,0,0,rectangle,12.61114788,0.944424152,1,0,0,12.61114788,0.944424152,1,0,0,0,60,60,118,1,,,,,,,,
,,,,,,,,,,,,,FF,,,,,,,,1.2267,,,,,,,,,,,,,,,,,,,,,,610302f87498dc46e622b4bb,61036b98419789b8498b9e80,2021-07-29_21h02.42.511,Simcolourproject_2stim_asymm_v5,2020.2.10,Win32,60,61025ae37ef11b136ea224fe,,,,,,,,,3840,61.50010692,32.05553675,1,0,0,response1disk,,6,2.611147404,-3.500054412,1,0,0,rectangle,89.2778182,-39.05557775,1,0,0,7.05559206,0.944424152,1,0,0,0,61,61,39,1,,response3disk_3,TRUE,5,5,"[21,138,188,62,251,241,32,264,144,151,219,280,300,228,284,17,214,136,150,102]",1.8562,rectangle
,,,,,,,,,,,,,FF,,,,,,,,1.2063,,,,,,,,,,,,,,,,,,,,,,610302f87498dc46e622b4bb,61036b98419789b8498b9e80,2021-07-29_21h02.42.511,Simcolourproject_2stim_asymm_v5,2020.2.10,Win32,60,61025ae37ef11b136ea224fe,,,,,,,,,2590,58.16670561,80.94442797,1,0,0,response1disk,,7,13.72225904,3.166646481,1,0,0,rectangle,13.72225904,3.166646481,1,0,0,13.72225904,3.166646481,1,0,0,0,62,62,7,1,,,,,,,,
,,,,,,,,,,,,,FF,,,,,,,,1.8147,,,,,,,,,,,,,,,,,,,,,,610302f87498dc46e622b4bb,61036b98419789b8498b9e80,2021-07-29_21h02.42.511,Simcolourproject_2stim_asymm_v5,2020.2.10,Win32,60,61025ae37ef11b136ea224fe,,,,,,,,,239,68.16670609,-40.16668892,1,0,0,response3disk,,5,-18.4998969,6.499946064,1,0,0,rectangle,-18.4998969,6.499946064,1,0,0,-18.4998969,6.499946064,1,0,0,0,63,63,43,1,,,,,,,,
,,,,,,,,,,,,,FF,,,,,,,,1.2553,,,,,,,,,,,,,,,,,,,,,,610302f87498dc46e622b4bb,61036b98419789b8498b9e80,2021-07-29_21h02.42.511,Simcolourproject_2stim_asymm_v5,2020.2.10,Win32,60,61025ae37ef11b136ea224fe,,,,,,,,,4276,30.38892651,-82.38891315,1,0,0,response3disk,,4,-9.611075401,-2.38890934,1,0,0,rectangle,-9.611075401,-2.38890934,1,0,0,-9.611075401,-2.38890934,1,0,0,0,64,64,140,1,,,,,,,,
,,,,,,,,,,,,,FF,,,,,,,,166.5696,,,,,,,,,,,,,,,,,,,,,,610302f87498dc46e622b4bb,61036b98419789b8498b9e80,2021-07-29_21h02.42.511,Simcolourproject_2stim_asymm_v5,2020.2.10,Win32,60,61025ae37ef11b136ea224fe,,,,,,,,,2217,73.72232972,-39.05557775,1,0,0,response3disk,,5,-10.72211875,5.3888349,1,0,0,rectangle,-10.72211875,5.3888349,1,0,0,-10.72211875,5.3888349,1,0,0,0,65,65,116,1,,,,,,,,
,,,,,,,,,,,,,FF,,,,,,,,3.2863,,,,,,,,,,,,,,,,,,,,,,610302f87498dc46e622b4bb,61036b98419789b8498b9e80,2021-07-29_21h02.42.511,Simcolourproject_2stim_asymm_v5,2020.2.10,Win32,60,61025ae37ef11b136ea224fe,,,,,,,,,2047,51.50010644,-84.61116939,1,0,0,response3disk,,4,2.611147404,-6.833353996,1,0,0,rectangle,2.611147404,-6.833353996,1,0,0,2.611147404,-6.833353996,1,0,0,0,66,66,14,1,,,,,,,,
,,,,,,,,,,,,,FF,,,,,,,,3.3981,,,,,,,,,,,,,,,,,,,,,,610302f87498dc46e622b4bb,61036b98419789b8498b9e80,2021-07-29_21h02.42.511,Simcolourproject_2stim_asymm_v5,2020.2.10,Win32,60,61025ae37ef11b136ea224fe,,,,,,,,,120,27.05559301,-72.38891268,1,0,0,response3disk,,4,1.500104056,-5.722242832,1,0,0,rectangle,1.500104056,-5.722242832,1,0,0,1.500104056,-5.722242832,1,0,0,0,67,67,110,1,,,,,,,,
,,,,,,,,,,,,,FF,,,,,,,,0.9856,,,,,,,,,,,,,,,,,,,,,,610302f87498dc46e622b4bb,61036b98419789b8498b9e80,2021-07-29_21h02.42.511,Simcolourproject_2stim_asymm_v5,2020.2.10,Win32,60,61025ae37ef11b136ea224fe,,,,,,,,,2852,87.05559587,52.0555377,1,0,0,response1disk,,6,7.05559206,5.3888349,1,0,0,rectangle,7.05559206,5.3888349,1,0,0,7.05559206,5.3888349,1,0,0,0,68,68,78,1,,,,,,,,
,,,,,,,,,,,,,FF,,,,,,,,1.3525,,,,,,,,,,,,,,,,,,,,,,610302f87498dc46e622b4bb,61036b98419789b8498b9e80,2021-07-29_21h02.42.511,Simcolourproject_2stim_asymm_v5,2020.2.10,Win32,60,61025ae37ef11b136ea224fe,,,,,,,,,876,43.72232829,106.4999847,1,0,0,response1disk,,7,9.277882205,5.3888349,1,0,0,rectangle,9.277882205,5.3888349,1,0,0,9.277882205,5.3888349,1,0,0,0,69,69,112,1,,,,,,,,
,,,,,,,,,,,,,FF,,,,,,,,1.1586,,,,,,,,,,,,,,,,,,,,,,610302f87498dc46e622b4bb,61036b98419789b8498b9e80,2021-07-29_21h02.42.511,Simcolourproject_2stim_asymm_v5,2020.2.10,Win32,60,61025ae37ef11b136ea224fe,,,,,,,,,2916,41.50010596,88.72220612,1,0,0,response1disk,,7,5.944480896,-12.38890982,1,0,0,rectangle,5.944480896,-12.38890982,1,0,0,5.944480896,-12.38890982,1,0,0,0,70,70,71,1,,,,,,,,
,,,,,,,,,,,,,FF,,,,,,,,0.9867,,,,,,,,,,,,,,,,,,,,,,610302f87498dc46e622b4bb,61036b98419789b8498b9e80,2021-07-29_21h02.42.511,Simcolourproject_2stim_asymm_v5,2020.2.10,Win32,60,61025ae37ef11b136ea224fe,,,,,,,,,168,84.83337355,46.49994797,1,0,0,response1disk,,6,12.61114788,-0.166687012,1,0,0,rectangle,12.61114788,-0.166687012,1,0,0,12.61114788,-0.166687012,1,0,0,0,71,71,25,1,,,,,,,,
,,,,,,,,,,,,,FF,,,,,,,,1.2771,,,,,,,,,,,,,,,,,,,,,,610302f87498dc46e622b4bb,61036b98419789b8498b9e80,2021-07-29_21h02.42.511,Simcolourproject_2stim_asymm_v5,2020.2.10,Win32,60,61025ae37ef11b136ea224fe,,,,,,,,,3981,52.61114979,-29.05557728,1,0,0,response3disk,,5,1.500104056,-9.055576324,1,0,0,rectangle,1.500104056,-9.055576324,1,0,0,1.500104056,-9.055576324,1,0,0,0,72,72,121,1,,,,,,,,
,,,,,,,,,,,,,FF,,,,,,,,1.5199,,,,,,,,,,,,,,,,,,,,,,610302f87498dc46e622b4bb,61036b98419789b8498b9e80,2021-07-29_21h02.42.511,Simcolourproject_2stim_asymm_v5,2020.2.10,Win32,60,61025ae37ef11b136ea224fe,,,,,,,,,3071,41.50010596,87.61106104,1,0,0,response1disk,,7,-1.833297253,8.722202301,1,0,0,rectangle,-1.833297253,8.722202301,1,0,0,-1.833297253,8.722202301,1,0,0,0,73,73,38,1,,,,,,,,
,,,,,,,,,,,,,FF,,,,,,,,1.4082,,,,,,,,,,,,,,,,,,,,,,610302f87498dc46e622b4bb,61036b98419789b8498b9e80,2021-07-29_21h02.42.511,Simcolourproject_2stim_asymm_v5,2020.2.10,Win32,60,61025ae37ef11b136ea224fe,,,,,,,,,2332,22.61114836,-73.50005775,1,0,0,response3disk,,4,-14.05552006,4.277757645,1,0,0,rectangle,-14.05552006,4.277757645,1,0,0,-14.05552006,4.277757645,1,0,0,0,74,74,63,1,,,,,,,,
,,,,,,,,,,,,,FF,,,,,,,,2.5983,,,,,,,,,,,,,,,,,,,,,,610302f87498dc46e622b4bb,61036b98419789b8498b9e80,2021-07-29_21h02.42.511,Simcolourproject_2stim_asymm_v5,2020.2.10,Win32,60,61025ae37ef11b136ea224fe,,,,,,,,,503,87.05559587,50.94442654,1,0,0,response1disk,,6,-2.944408417,-0.166687012,1,0,0,rectangle,-2.944408417,-0.166687012,1,0,0,-2.944408417,-0.166687012,1,0,0,0,75,75,49,1,,,,,,,,
,,,,,,,,,,,,,FF,,,,,,,,4.1201,,,,,,,,,,,,,,,,,,,,,,610302f87498dc46e622b4bb,61036b98419789b8498b9e80,2021-07-29_21h02.42.511,Simcolourproject_2stim_asymm_v5,2020.2.10,Win32,60,61025ae37ef11b136ea224fe,,,,,,,,,840,88.16670704,39.8333149,1,0,0,response1disk,,6,27.05559301,9.833313465,1,0,0,rectangle,27.05559301,9.833313465,1,0,0,27.05559301,9.833313465,1,0,0,0,76,76,130,1,,,,,,,,
,,,,,,,,,,,,,FF,,,,,,,,1.5705,,,,,,,,,,,,,,,,,,,,,,610302f87498dc46e622b4bb,61036b98419789b8498b9e80,2021-07-29_21h02.42.511,Simcolourproject_2stim_asymm_v5,2020.2.10,Win32,60,61025ae37ef11b136ea224fe,,,,,,,,,1984,94.83337402,-46.8333559,1,0,0,response3disk,,5,3.722258568,-0.166687012,1,0,0,rectangle,3.722258568,-0.166687012,1,0,0,3.722258568,-0.166687012,1,0,0,0,77,77,57,1,,,,,,,,
,,,,,,,,,,,,,FF,,,,,,,,2.1937,,,,,,,,,,,,,,,,,,,,,,610302f87498dc46e622b4bb,61036b98419789b8498b9e80,2021-07-29_21h02.42.511,Simcolourproject_2stim_asymm_v5,2020.2.10,Win32,60,61025ae37ef11b136ea224fe,,,,,,,,,1928,-18.4998969,-85.72224665,1,0,0,response5disk,,3,-2.944408417,5.3888349,1,0,0,rectangle,-2.944408417,5.3888349,1,0,0,-2.944408417,5.3888349,1,0,0,0,78,78,5,1,,,,,,,,
,,,,,,,,,,,,,FF,,,,,,,,1.7255,,,,,,,,,,,,,,,,,,,,,,610302f87498dc46e622b4bb,61036b98419789b8498b9e80,2021-07-29_21h02.42.511,Simcolourproject_2stim_asymm_v5,2020.2.10,Win32,60,61025ae37ef11b136ea224fe,,,,,,,,,729,-89.61107922,42.05553722,1,0,0,response7disk,,1,8.166703224,-12.38890982,1,0,0,rectangle,8.166703224,-12.38890982,1,0,0,8.166703224,-12.38890982,1,0,0,0,79,79,36,1,,,,,,,,
,,,,,,,,,,,,,FF,,,,,,,,2.0808,,,,,,,,,,,,,,,,,,,,,,610302f87498dc46e622b4bb,61036b98419789b8498b9e80,2021-07-29_21h02.42.511,Simcolourproject_2stim_asymm_v5,2020.2.10,Win32,60,61025ae37ef11b136ea224fe,,,,,,,,,1247,25.94448185,-72.38891268,1,0,0,response3disk,,4,-6.277741909,3.166646481,1,0,0,rectangle,-6.277741909,3.166646481,1,0,0,-6.277741909,3.166646481,1,0,0,0,80,80,56,1,,,,,,,,
,,,,,,,,,,,,,FF,,,,,,,,1.6797,,,,,,,,,,,,,,,,,,,,,,610302f87498dc46e622b4bb,61036b98419789b8498b9e80,2021-07-29_21h02.42.511,Simcolourproject_2stim_asymm_v5,2020.2.10,Win32,60,61025ae37ef11b136ea224fe,,,,,,,,,3682,-49.61107731,-85.72224665,1,0,0,response5disk,,3,-16.27774239,-2.38890934,1,0,0,rectangle,-16.27774239,-2.38890934,1,0,0,-16.27774239,-2.38890934,1,0,0,0,81,81,109,1,,,,,,,,
,,,,,,,,,,,,,FF,,,,,,,,1.4742,,,,,,,,,,,,,,,,,,,,,,610302f87498dc46e622b4bb,61036b98419789b8498b9e80,2021-07-29_21h02.42.511,Simcolourproject_2stim_asymm_v5,2020.2.10,Win32,60,61025ae37ef11b136ea224fe,,,,,,,,,4347,-65.16663361,-34.61116701,1,0,0,response5disk,,2,3.722258568,6.499946064,1,0,0,rectangle,3.722258568,6.499946064,1,0,0,3.722258568,6.499946064,1,0,0,0,82,82,12,1,,,,,,,,
,,,,,,,,,,,,,FF,,,,,,,,1.6961,,,,,,,,,,,,,,,,,,,,,,610302f87498dc46e622b4bb,61036b98419789b8498b9e80,2021-07-29_21h02.42.511,Simcolourproject_2stim_asymm_v5,2020.2.10,Win32,60,61025ae37ef11b136ea224fe,,,,,,,,,4195,48.16670513,-87.94446898,1,0,0,response3disk,,4,3.722258568,-4.611165577,1,0,0,rectangle,3.722258568,-4.611165577,1,0,0,3.722258568,-4.611165577,1,0,0,0,83,83,75,1,,,,,,,,
,,,,,,,,,,,,,FF,,,,,,,,1.804,,,,,,,,,,,,,,,,,,,,,,610302f87498dc46e622b4bb,61036b98419789b8498b9e80,2021-07-29_21h02.42.511,Simcolourproject_2stim_asymm_v5,2020.2.10,Win32,60,61025ae37ef11b136ea224fe,,,,,,,,,3520,29.27781534,-80.16669083,1,0,0,response3disk,,4,0.388925076,-3.500054412,1,0,0,rectangle,0.388925076,-3.500054412,1,0,0,0.388925076,-3.500054412,1,0,0,0,84,84,74,1,,,,,,,,
,,,,,,,,,,,,,FF,,,,,,,,0.9761,,,,,,,,,,,,,,,,,,,,,,610302f87498dc46e622b4bb,61036b98419789b8498b9e80,2021-07-29_21h02.42.511,Simcolourproject_2stim_asymm_v5,2020.2.10,Win32,60,61025ae37ef11b136ea224fe,,,,,,,,,596,67.05559492,80.94442797,1,0,0,response1disk,,7,-0.722118272,-3.500054412,1,0,0,rectangle,-0.722118272,-3.500054412,1,0,0,-0.722118272,-3.500054412,1,0,0,0,85,85,151,1,,,,,,,,
,,,,,,,,,,,,,FF,,,,,,,,0.9273,,,,,,,,,,,,,,,,,,,,,,610302f87498dc46e622b4bb,61036b98419789b8498b9e80,2021-07-29_21h02.42.511,Simcolourproject_2stim_asymm_v5,2020.2.10,Win32,60,61025ae37ef11b136ea224fe,,,,,,,,,216,44.83337164,56.49994845,1,0,0,response1disk,,7,8.166703224,2.055535316,1,0,0,rectangle,8.166703224,2.055535316,1,0,0,8.166703224,2.055535316,1,0,0,0,86,86,100,1,,,,,,,,
,,,,,,,,,,,,,FF,,,,,,,,8.8928,,,,,,,,,,,,,,,,,,,,,,610302f87498dc46e622b4bb,61036b98419789b8498b9e80,2021-07-29_21h02.42.511,Simcolourproject_2stim_asymm_v5,2020.2.10,Win32,60,61025ae37ef11b136ea224fe,,,,,,,,,2754,47.05559397,-77.9444685,1,0,0,response3disk,,4,4.833369732,5.3888349,1,0,0,rectangle,4.833369732,5.3888349,1,0,0,4.833369732,5.3888349,1,0,0,0,87,87,72,1,,,,,,,,
,,,,,,,,,,,,,FF,,,,,,,,1.3444,,,,,,,,,,,,,,,,,,,,,,610302f87498dc46e622b4bb,61036b98419789b8498b9e80,2021-07-29_21h02.42.511,Simcolourproject_2stim_asymm_v5,2020.2.10,Win32,60,61025ae37ef11b136ea224fe,,,,,,,,,1942,-81.83330107,-39.05557775,1,0,0,response5disk,,2,-6.277741909,8.722202301,1,0,0,rectangle,-6.277741909,8.722202301,1,0,0,-6.277741909,8.722202301,1,0,0,0,88,88,117,1,,,,,,,,
,,,,,,,,,,,,,FF,,,,,,,,1.177,,,,,,,,,,,,,,,,,,,,,,610302f87498dc46e622b4bb,61036b98419789b8498b9e80,2021-07-29_21h02.42.511,Simcolourproject_2stim_asymm_v5,2020.2.10,Win32,60,61025ae37ef11b136ea224fe,,,,,,,,,3293,-64.05552244,-29.05557728,1,0,0,response5disk,,2,3.722258568,9.833313465,1,0,0,rectangle,3.722258568,9.833313465,1,0,0,3.722258568,9.833313465,1,0,0,0,89,89,64,1,,,,,,,,
,,,,,,,,,,,,,FF,,,,,,,,0.8354,,,,,,,,,,,,,,,,,,,,,,610302f87498dc46e622b4bb,61036b98419789b8498b9e80,2021-07-29_21h02.42.511,Simcolourproject_2stim_asymm_v5,2020.2.10,Win32,60,61025ae37ef11b136ea224fe,,,,,,,,,2380,39.27781582,-80.16669083,1,0,0,response3disk,,4,24.83337069,0.944424152,1,0,0,rectangle,24.83337069,0.944424152,1,0,0,24.83337069,0.944424152,1,0,0,0,90,90,53,1,,,,,,,,
,,,,,,,,,,,,,FF,,,,,,,,1.8855,,,,,,,,,,,,,,,,,,,,,,610302f87498dc46e622b4bb,61036b98419789b8498b9e80,2021-07-29_21h02.42.511,Simcolourproject_2stim_asymm_v5,2020.2.10,Win32,60,61025ae37ef11b136ea224fe,,,,,,,,,3315,24.83337069,-63.50005727,1,0,0,response3disk,,4,13.72225904,-4.611165577,1,0,0,rectangle,13.72225904,-4.611165577,1,0,0,13.72225904,-4.611165577,1,0,0,0,91,91,69,1,,,,,,,,
,,,,,,,,,,,,,FF,,,,,,,,1.278,,,,,,,,,,,,,,,,,,,,,,610302f87498dc46e622b4bb,61036b98419789b8498b9e80,2021-07-29_21h02.42.511,Simcolourproject_2stim_asymm_v5,2020.2.10,Win32,60,61025ae37ef11b136ea224fe,,,,,,,,,113,87.05559587,-42.38891125,1,0,0,response3disk,,5,19.27781487,-0.166687012,1,0,0,rectangle,19.27781487,-0.166687012,1,0,0,19.27781487,-0.166687012,1,0,0,0,92,92,79,1,,,,,,,,
,,,,,,,,,,,,,FF,,,,,,,,0.9686,,,,,,,,,,,,,,,,,,,,,,610302f87498dc46e622b4bb,61036b98419789b8498b9e80,2021-07-29_21h02.42.511,Simcolourproject_2stim_asymm_v5,2020.2.10,Win32,60,61025ae37ef11b136ea224fe,,,,,,,,,2301,-45.16663265,-71.27780151,1,0,0,response5disk,,3,-2.944408417,-3.500054412,1,0,0,rectangle,-2.944408417,-3.500054412,1,0,0,-2.944408417,-3.500054412,1,0,0,0,93,93,144,1,,,,,,,,
,,,,,,,,,,,,,FF,,,,,,,,1.5952,,,,,,,,,,,,,,,,,,,,,,610302f87498dc46e622b4bb,61036b98419789b8498b9e80,2021-07-29_21h02.42.511,Simcolourproject_2stim_asymm_v5,2020.2.10,Win32,60,61025ae37ef11b136ea224fe,,,,,,,,,518,83.7223302,-44.61116748,1,0,0,response3disk,,5,29.27781534,-0.166687012,1,0,0,rectangle,29.27781534,-0.166687012,1,0,0,29.27781534,-0.166687012,1,0,0,0,94,94,11,1,,,,,,,,
,,,,,,,,,,,,,FF,,,,,,,,0.9048,,,,,,,,,,,,,,,,,,,,,,610302f87498dc46e622b4bb,61036b98419789b8498b9e80,2021-07-29_21h02.42.511,Simcolourproject_2stim_asymm_v5,2020.2.10,Win32,60,61025ae37ef11b136ea224fe,,,,,,,,,3580,83.7223302,47.61105914,1,0,0,response1disk,,6,3.722258568,-9.055576324,1,0,0,rectangle,3.722258568,-9.055576324,1,0,0,3.722258568,-9.055576324,1,0,0,0,95,95,16,1,,,,,,,,
,,,,,,,,,,,,,FF,,,,,,,,1.3111,,,,,,,,,,,,,,,,,,,,,,610302f87498dc46e622b4bb,61036b98419789b8498b9e80,2021-07-29_21h02.42.511,Simcolourproject_2stim_asymm_v5,2020.2.10,Win32,60,61025ae37ef11b136ea224fe,,,,,,,,,4176,57.05559444,95.3888731,1,0,0,response1disk,,7,-19.61107588,-10.16668749,1,0,0,rectangle,-19.61107588,-10.16668749,1,0,0,-19.61107588,-10.16668749,1,0,0,0,96,96,115,1,,,,,,,,
,,,,,,,,,,,,,FF,,,,,,,,1.1069,,,,,,,,,,,,,,,,,,,,,,610302f87498dc46e622b4bb,61036b98419789b8498b9e80,2021-07-29_21h02.42.511,Simcolourproject_2stim_asymm_v5,2020.2.10,Win32,60,61025ae37ef11b136ea224fe,,,,,,,,,1682,-64.05552244,40.94442606,1,0,0,response7disk,,1,-7.388853073,13.16664696,1,0,0,rectangle,-7.388853073,13.16664696,1,0,0,-7.388853073,13.16664696,1,0,0,0,97,97,127,1,,,,,,,,
,,,,,,,,,,,,,FF,,,,,,,,1.3586,,,,,,,,,,,,,,,,,,,,,,610302f87498dc46e622b4bb,61036b98419789b8498b9e80,2021-07-29_21h02.42.511,Simcolourproject_2stim_asymm_v5,2020.2.10,Win32,60,61025ae37ef11b136ea224fe,,,,,,,,,424,59.27781677,-25.72224379,1,0,0,response3disk,,5,20.38892603,14.27775812,1,0,0,rectangle,20.38892603,14.27775812,1,0,0,20.38892603,14.27775812,1,0,0,0,98,98,47,1,,,,,,,,
,,,,,,,,,,,,,FF,,,,,,,,3.7378,,,,,,,,,,,,,,,,,,,,,,610302f87498dc46e622b4bb,61036b98419789b8498b9e80,2021-07-29_21h02.42.511,Simcolourproject_2stim_asymm_v5,2020.2.10,Win32,60,61025ae37ef11b136ea224fe,,,,,,,,,229,63.72232925,-22.38891029,1,0,0,response3disk,,5,25.94448185,6.499946064,1,0,0,rectangle,25.94448185,6.499946064,1,0,0,25.94448185,6.499946064,1,0,0,0,99,99,120,1,,,,,,,,
,,,,,,,,,,,,,FF,,,,,,,,2.8408,,,,,,,,,,,,,,,,,,,,,,610302f87498dc46e622b4bb,61036b98419789b8498b9e80,2021-07-29_21h02.42.511,Simcolourproject_2stim_asymm_v5,2020.2.10,Win32,60,61025ae37ef11b136ea224fe,,,,,,,,,2152,-42.94441032,-91.27783638,1,0,0,response5disk,,3,-4.055519581,-2.38890934,1,0,0,rectangle,-4.055519581,-2.38890934,1,0,0,-4.055519581,-2.38890934,1,0,0,0,100,100,114,1,,,,,,,,
,,,,,,,,,,,,,FF,,,,,,,,1.7965,,,,,,,,,,,,,,,,,,,,,,610302f87498dc46e622b4bb,61036b98419789b8498b9e80,2021-07-29_21h02.42.511,Simcolourproject_2stim_asymm_v5,2020.2.10,Win32,60,61025ae37ef11b136ea224fe,,,,,,,,,1003,37.05559349,-85.72224665,1,0,0,response3disk,,4,8.166703224,7.611091137,1,0,0,rectangle,-54.05552197,-82.38891315,1,0,0,-7.388853073,10.94442463,1,0,0,0,101,101,40,1,,response5disk_3,TRUE,3,3,"[21,138,188,62,251,241,32,264,144,151,219,280,300,228,284,17,214,136,150,102]",1.8468,rectangle
,,,,,,,,,,,,,FF,,,,,,,,3.1221,,,,,,,,,,,,,,,,,,,,,,610302f87498dc46e622b4bb,61036b98419789b8498b9e80,2021-07-29_21h02.42.511,Simcolourproject_2stim_asymm_v5,2020.2.10,Win32,60,61025ae37ef11b136ea224fe,,,,,,,,,341,65.94448376,-45.72227865,1,0,0,response3disk,,5,18.1667037,-1.277798176,1,0,0,rectangle,18.1667037,-1.277798176,1,0,0,18.1667037,-1.277798176,1,0,0,0,102,102,51,1,,,,,,,,
,,,,,,,,,,,,,FF,,,,,,,,1.3038,,,,,,,,,,,,,,,,,,,,,,610302f87498dc46e622b4bb,61036b98419789b8498b9e80,2021-07-29_21h02.42.511,Simcolourproject_2stim_asymm_v5,2020.2.10,Win32,60,61025ae37ef11b136ea224fe,,,,,,,,,231,65.94448376,-42.38891125,1,0,0,response3disk,,5,12.61114788,-2.38890934,1,0,0,rectangle,12.61114788,-2.38890934,1,0,0,12.61114788,-2.38890934,1,0,0,0,103,103,91,1,,,,,,,,
,,,,,,,,,,,,,FF,,,,,,,,1.8114,,,,,,,,,,,,,,,,,,,,,,610302f87498dc46e622b4bb,61036b98419789b8498b9e80,2021-07-29_21h02.42.511,Simcolourproject_2stim_asymm_v5,2020.2.10,Win32,60,61025ae37ef11b136ea224fe,,,,,,,,,2253,92.6111517,44.27775955,1,0,0,response1disk,,6,-11.83329773,-5.722242832,1,0,0,rectangle,-11.83329773,-5.722242832,1,0,0,-11.83329773,-5.722242832,1,0,0,0,104,104,20,1,,,,,,,,
,,,,,,,,,,,,,FF,,,,,,,,0.968,,,,,,,,,,,,,,,,,,,,,,610302f87498dc46e622b4bb,61036b98419789b8498b9e80,2021-07-29_21h02.42.511,Simcolourproject_2stim_asymm_v5,2020.2.10,Win32,60,61025ae37ef11b136ea224fe,,,,,,,,,1055,-41.83329916,-64.61116844,1,0,0,response5disk,,3,-1.833297253,-1.277798176,1,0,0,rectangle,-1.833297253,-1.277798176,1,0,0,-1.833297253,-1.277798176,1,0,0,0,105,105,153,1,,,,,,,,
,,,,,,,,,,,,,FF,,,,,,,,1.2538,,,,,,,,,,,,,,,,,,,,,,610302f87498dc46e622b4bb,61036b98419789b8498b9e80,2021-07-29_21h02.42.511,Simcolourproject_2stim_asymm_v5,2020.2.10,Win32,60,61025ae37ef11b136ea224fe,,,,,,,,,2863,78.16670656,-40.16668892,1,0,0,response3disk,,5,14.83337021,-5.722242832,1,0,0,rectangle,14.83337021,-5.722242832,1,0,0,14.83337021,-5.722242832,1,0,0,0,106,106,54,1,,,,,,,,
,,,,,,,,,,,,,FF,,,,,,,,1.3999,,,,,,,,,,,,,,,,,,,,,,610302f87498dc46e622b4bb,61036b98419789b8498b9e80,2021-07-29_21h02.42.511,Simcolourproject_2stim_asymm_v5,2020.2.10,Win32,60,61025ae37ef11b136ea224fe,,,,,,,,,399,59.27781677,38.72220373,1,0,0,response1disk,,6,-6.277741909,-5.722242832,1,0,0,rectangle,-6.277741909,-5.722242832,1,0,0,-6.277741909,-5.722242832,1,0,0,0,107,107,155,1,,,,,,,,
,,,,,,,,,,,,,FF,,,,,,,,0.8931,,,,,,,,,,,,,,,,,,,,,,610302f87498dc46e622b4bb,61036b98419789b8498b9e80,2021-07-29_21h02.42.511,Simcolourproject_2stim_asymm_v5,2020.2.10,Win32,60,61025ae37ef11b136ea224fe,,,,,,,,,1643,34.83337116,64.27776051,1,0,0,response1disk,,7,5.944480896,9.833313465,1,0,0,rectangle,5.944480896,9.833313465,1,0,0,5.944480896,9.833313465,1,0,0,0,108,108,62,1,,,,,,,,
,,,,,,,,,,,,,FF,,,,,,,,1.2104,,,,,,,,,,,,,,,,,,,,,,610302f87498dc46e622b4bb,61036b98419789b8498b9e80,2021-07-29_21h02.42.511,Simcolourproject_2stim_asymm_v5,2020.2.10,Win32,60,61025ae37ef11b136ea224fe,,,,,,,,,3445,-32.94440985,-94.61116987,1,0,0,response5disk,,3,1.500104056,0.944424152,1,0,0,rectangle,1.500104056,0.944424152,1,0,0,1.500104056,0.944424152,1,0,0,0,109,109,93,1,,,,,,,,
,,,,,,,,,,,,,FF,,,,,,,,1.8473,,,,,,,,,,,,,,,,,,,,,,610302f87498dc46e622b4bb,61036b98419789b8498b9e80,2021-07-29_21h02.42.511,Simcolourproject_2stim_asymm_v5,2020.2.10,Win32,60,61025ae37ef11b136ea224fe,,,,,,,,,1400,67.05559492,40.94442606,1,0,0,response1disk,,6,8.166703224,-3.500054412,1,0,0,rectangle,8.166703224,-3.500054412,1,0,0,8.166703224,-3.500054412,1,0,0,0,110,110,134,1,,,,,,,,
,,,,,,,,,,,,,FF,,,,,,,,1.3077,,,,,,,,,,,,,,,,,,,,,,610302f87498dc46e622b4bb,61036b98419789b8498b9e80,2021-07-29_21h02.42.511,Simcolourproject_2stim_asymm_v5,2020.2.10,Win32,60,61025ae37ef11b136ea224fe,,,,,,,,,3750,-44.05552149,-96.8333922,1,0,0,response5disk,,3,12.61114788,8.722202301,1,0,0,rectangle,12.61114788,8.722202301,1,0,0,12.61114788,8.722202301,1,0,0,0,111,111,99,1,,,,,,,,
,,,,,,,,,,,,,FF,,,,,,,,1.3394,,,,,,,,,,,,,,,,,,,,,,610302f87498dc46e622b4bb,61036b98419789b8498b9e80,2021-07-29_21h02.42.511,Simcolourproject_2stim_asymm_v5,2020.2.10,Win32,60,61025ae37ef11b136ea224fe,,,,,,,,,281,-57.38885546,-92.38891363,1,0,0,response5disk,,3,-8.49989642,9.833313465,1,0,0,rectangle,-8.49989642,9.833313465,1,0,0,-8.49989642,9.833313465,1,0,0,0,112,112,86,1,,,,,,,,
,,,,,,,,,,,,,FF,,,,,,,,1.6393,,,,,,,,,,,,,,,,,,,,,,610302f87498dc46e622b4bb,61036b98419789b8498b9e80,2021-07-29_21h02.42.511,Simcolourproject_2stim_asymm_v5,2020.2.10,Win32,60,61025ae37ef11b136ea224fe,,,,,,,,,970,-45.16663265,66.49994893,1,0,0,response7disk,,0,-21.83329821,8.722202301,1,0,0,rectangle,-21.83329821,8.722202301,1,0,0,-21.83329821,8.722202301,1,0,0,0,113,113,95,1,,,,,,,,
,,,,,,,,,,,,,FF,,,,,,,,1.88,,,,,,,,,,,,,,,,,,,,,,610302f87498dc46e622b4bb,61036b98419789b8498b9e80,2021-07-29_21h02.42.511,Simcolourproject_2stim_asymm_v5,2020.2.10,Win32,60,61025ae37ef11b136ea224fe,,,,,,,,,1127,87.05559587,-56.83335638,1,0,0,response3disk,,5,15.94448137,5.3888349,1,0,0,rectangle,15.94448137,5.3888349,1,0,0,15.94448137,5.3888349,1,0,0,0,114,114,28,1,,,,,,,,
,,,,,,,,,,,,,FF,,,,,,,,1.6888,,,,,,,,,,,,,,,,,,,,,,610302f87498dc46e622b4bb,61036b98419789b8498b9e80,2021-07-29_21h02.42.511,Simcolourproject_2stim_asymm_v5,2020.2.10,Win32,60,61025ae37ef11b136ea224fe,,,,,,,,,244,107.0555968,68.72220516,1,0,0,response1disk,,6,24.83337069,2.055535316,1,0,0,rectangle,24.83337069,2.055535316,1,0,0,24.83337069,2.055535316,1,0,0,0,115,115,55,1,,,,,,,,
,,,,,,,,,,,,,FF,,,,,,,,1.0082,,,,,,,,,,,,,,,,,,,,,,610302f87498dc46e622b4bb,61036b98419789b8498b9e80,2021-07-29_21h02.42.511,Simcolourproject_2stim_asymm_v5,2020.2.10,Win32,60,61025ae37ef11b136ea224fe,,,,,,,,,712,-34.05552101,-70.16669035,1,0,0,response5disk,,3,-4.055519581,10.94442463,1,0,0,rectangle,-4.055519581,10.94442463,1,0,0,-4.055519581,10.94442463,1,0,0,0,116,116,88,1,,,,,,,,
,,,,,,,,,,,,,FF,,,,,,,,1.0219,,,,,,,,,,,,,,,,,,,,,,610302f87498dc46e622b4bb,61036b98419789b8498b9e80,2021-07-29_21h02.42.511,Simcolourproject_2stim_asymm_v5,2020.2.10,Win32,60,61025ae37ef11b136ea224fe,,,,,,,,,660,-41.83329916,-67.94446802,1,0,0,response5disk,,3,-6.277741909,-0.166687012,1,0,0,rectangle,-6.277741909,-0.166687012,1,0,0,-6.277741909,-0.166687012,1,0,0,0,117,117,119,1,,,,,,,,
,,,,,,,,,,,,,FF,,,,,,,,1.5062,,,,,,,,,,,,,,,,,,,,,,610302f87498dc46e622b4bb,61036b98419789b8498b9e80,2021-07-29_21h02.42.511,Simcolourproject_2stim_asymm_v5,2020.2.10,Win32,60,61025ae37ef11b136ea224fe,,,,,,,,,3864,87.05559587,37.61109257,1,0,0,response1disk,,6,7.05559206,8.722202301,1,0,0,rectangle,7.05559206,8.722202301,1,0,0,7.05559206,8.722202301,1,0,0,0,118,118,13,1,,,,,,,,
,,,,,,,,,,,,,FF,,,,,,,,1.4567,,,,,,,,,,,,,,,,,,,,,,610302f87498dc46e622b4bb,61036b98419789b8498b9e80,2021-07-29_21h02.42.511,Simcolourproject_2stim_asymm_v5,2020.2.10,Win32,60,61025ae37ef11b136ea224fe,,,,,,,,,3944,-36.27774334,-76.83335733,1,0,0,response5disk,,3,7.05559206,9.833313465,1,0,0,rectangle,7.05559206,9.833313465,1,0,0,7.05559206,9.833313465,1,0,0,0,119,119,129,1,,,,,,,,
,,,,,,,,,,,,,FF,,,,,,,,1.0206,,,,,,,,,,,,,,,,,,,,,,610302f87498dc46e622b4bb,61036b98419789b8498b9e80,2021-07-29_21h02.42.511,Simcolourproject_2stim_asymm_v5,2020.2.10,Win32,60,61025ae37ef11b136ea224fe,,,,,,,,,197,-67.38885593,-49.05557823,1,0,0,response5disk,,2,-11.83329773,-6.833353996,1,0,0,rectangle,-11.83329773,-6.833353996,1,0,0,-11.83329773,-6.833353996,1,0,0,0,120,120,143,1,,,,,,,,
,,,,,,,,,,,,,FF,,,,,,,,1.194,,,,,,,,,,,,,,,,,,,,,,610302f87498dc46e622b4bb,61036b98419789b8498b9e80,2021-07-29_21h02.42.511,Simcolourproject_2stim_asymm_v5,2020.2.10,Win32,60,61025ae37ef11b136ea224fe,,,,,,,,,1818,-72.94441175,34.27775908,1,0,0,response7disk,,1,-15.16663122,-3.500054412,1,0,0,rectangle,-15.16663122,-3.500054412,1,0,0,-15.16663122,-3.500054412,1,0,0,0,121,121,33,1,,,,,,,,
,,,,,,,,,,,,,FF,,,,,,,,1.0168,,,,,,,,,,,,,,,,,,,,,,610302f87498dc46e622b4bb,61036b98419789b8498b9e80,2021-07-29_21h02.42.511,Simcolourproject_2stim_asymm_v5,2020.2.10,Win32,60,61025ae37ef11b136ea224fe,,,,,,,,,3142,-65.16663361,33.16664791,1,0,0,response7disk,,1,-4.055519581,-5.722242832,1,0,0,rectangle,-4.055519581,-5.722242832,1,0,0,-4.055519581,-5.722242832,1,0,0,0,122,122,146,1,,,,,,,,
,,,,,,,,,,,,,FF,,,,,,,,1.1785,,,,,,,,,,,,,,,,,,,,,,610302f87498dc46e622b4bb,61036b98419789b8498b9e80,2021-07-29_21h02.42.511,Simcolourproject_2stim_asymm_v5,2020.2.10,Win32,60,61025ae37ef11b136ea224fe,,,,,,,,,3176,117.0555973,54.27776003,1,0,0,response1disk,,6,18.1667037,9.833313465,1,0,0,rectangle,18.1667037,9.833313465,1,0,0,18.1667037,9.833313465,1,0,0,0,123,123,139,1,,,,,,,,
,,,,,,,,,,,,,FF,,,,,,,,1.2923,,,,,,,,,,,,,,,,,,,,,,610302f87498dc46e622b4bb,61036b98419789b8498b9e80,2021-07-29_21h02.42.511,Simcolourproject_2stim_asymm_v5,2020.2.10,Win32,60,61025ae37ef11b136ea224fe,,,,,,,,,3903,-54.05552197,-76.83335733,1,0,0,response5disk,,3,-0.722118272,-2.38890934,1,0,0,rectangle,-0.722118272,-2.38890934,1,0,0,-0.722118272,-2.38890934,1,0,0,0,124,124,124,1,,,,,,,,
,,,,,,,,,,,,,FF,,,,,,,,1.7933,,,,,,,,,,,,,,,,,,,,,,610302f87498dc46e622b4bb,61036b98419789b8498b9e80,2021-07-29_21h02.42.511,Simcolourproject_2stim_asymm_v5,2020.2.10,Win32,60,61025ae37ef11b136ea224fe,,,,,,,,,1959,-72.94441175,54.27776003,1,0,0,response7disk,,1,17.05559254,-10.16668749,1,0,0,rectangle,17.05559254,-10.16668749,1,0,0,17.05559254,-10.16668749,1,0,0,0,125,125,154,1,,,,,,,,
,,,,,,,,,,,,,FF,,,,,,,,1.1183,,,,,,,,,,,,,,,,,,,,,,610302f87498dc46e622b4bb,61036b98419789b8498b9e80,2021-07-29_21h02.42.511,Simcolourproject_2stim_asymm_v5,2020.2.10,Win32,60,61025ae37ef11b136ea224fe,,,,,,,,,3252,-46.27774382,66.49994893,1,0,0,response7disk,,0,-5.166630745,7.611091137,1,0,0,rectangle,-5.166630745,7.611091137,1,0,0,-5.166630745,7.611091137,1,0,0,0,126,126,50,1,,,,,,,,
,,,,,,,,,,,,,FF,,,,,,,,2.0239,,,,,,,,,,,,,,,,,,,,,,610302f87498dc46e622b4bb,61036b98419789b8498b9e80,2021-07-29_21h02.42.511,Simcolourproject_2stim_asymm_v5,2020.2.10,Win32,60,61025ae37ef11b136ea224fe,,,,,,,,,1549,84.83337355,-36.83335543,1,0,0,response3disk,,5,3.722258568,-7.94446516,1,0,0,rectangle,3.722258568,-7.94446516,1,0,0,3.722258568,-7.94446516,1,0,0,0,127,127,0,1,,,,,,,,
,,,,,,,,,,,,,FF,,,,,,,,0.9012,,,,,,,,,,,,,,,,,,,,,,610302f87498dc46e622b4bb,61036b98419789b8498b9e80,2021-07-29_21h02.42.511,Simcolourproject_2stim_asymm_v5,2020.2.10,Win32,60,61025ae37ef11b136ea224fe,,,,,,,,,913,91.50010835,-53.5000568,1,0,0,response3disk,,5,19.27781487,-2.38890934,1,0,0,rectangle,19.27781487,-2.38890934,1,0,0,19.27781487,-2.38890934,1,0,0,0,128,128,111,1,,,,,,,,
,,,,,,,,,,,,,FF,,,,,,,,1.9095,,,,,,,,,,,,,,,,,,,,,,610302f87498dc46e622b4bb,61036b98419789b8498b9e80,2021-07-29_21h02.42.511,Simcolourproject_2stim_asymm_v5,2020.2.10,Win32,60,61025ae37ef11b136ea224fe,,,,,,,,,937,25.94448185,72.05553865,1,0,0,response1disk,,7,0.388925076,2.055535316,1,0,0,rectangle,0.388925076,2.055535316,1,0,0,0.388925076,2.055535316,1,0,0,0,129,129,103,1,,,,,,,,
,,,,,,,,,,,,,FF,,,,,,,,0.9214,,,,,,,,,,,,,,,,,,,,,,610302f87498dc46e622b4bb,61036b98419789b8498b9e80,2021-07-29_21h02.42.511,Simcolourproject_2stim_asymm_v5,2020.2.10,Win32,60,61025ae37ef11b136ea224fe,,,,,,,,,2233,-34.05552101,55.38887119,1,0,0,response7disk,,0,-9.611075401,9.833313465,1,0,0,rectangle,-9.611075401,9.833313465,1,0,0,-9.611075401,9.833313465,1,0,0,0,130,130,48,1,,,,,,,,
,,,,,,,,,,,,,FF,,,,,,,,0.9222,,,,,,,,,,,,,,,,,,,,,,610302f87498dc46e622b4bb,61036b98419789b8498b9e80,2021-07-29_21h02.42.511,Simcolourproject_2stim_asymm_v5,2020.2.10,Win32,60,61025ae37ef11b136ea224fe,,,,,,,,,2136,39.27781582,73.16664982,1,0,0,response1disk,,7,0.388925076,-4.611165577,1,0,0,rectangle,0.388925076,-4.611165577,1,0,0,0.388925076,-4.611165577,1,0,0,0,131,131,90,1,,,,,,,,
,,,,,,,,,,,,,FF,,,,,,,,1.4632,,,,,,,,,,,,,,,,,,,,,,610302f87498dc46e622b4bb,61036b98419789b8498b9e80,2021-07-29_21h02.42.511,Simcolourproject_2stim_asymm_v5,2020.2.10,Win32,60,61025ae37ef11b136ea224fe,,,,,,,,,1829,-81.83330107,-31.27779961,1,0,0,response5disk,,2,-10.72211875,-2.38890934,1,0,0,rectangle,-10.72211875,-2.38890934,1,0,0,-10.72211875,-2.38890934,1,0,0,0,132,132,102,1,,,,,,,,
,,,,,,,,,,,,,FF,,,,,,,,1.3074,,,,,,,,,,,,,,,,,,,,,,610302f87498dc46e622b4bb,61036b98419789b8498b9e80,2021-07-29_21h02.42.511,Simcolourproject_2stim_asymm_v5,2020.2.10,Win32,60,61025ae37ef11b136ea224fe,,,,,,,,,4298,-28.49989737,-89.05561405,1,0,0,response5disk,,3,-11.83329773,-5.722242832,1,0,0,rectangle,-11.83329773,-5.722242832,1,0,0,-11.83329773,-5.722242832,1,0,0,0,133,133,97,1,,,,,,,,
,,,,,,,,,,,,,FF,,,,,,,,1.5205,,,,,,,,,,,,,,,,,,,,,,610302f87498dc46e622b4bb,61036b98419789b8498b9e80,2021-07-29_21h02.42.511,Simcolourproject_2stim_asymm_v5,2020.2.10,Win32,60,61025ae37ef11b136ea224fe,,,,,,,,,2247,28.16670418,-67.94446802,1,0,0,response3disk,,4,3.722258568,-7.94446516,1,0,0,rectangle,3.722258568,-7.94446516,1,0,0,3.722258568,-7.94446516,1,0,0,0,134,134,145,1,,,,,,,,
,,,,,,,,,,,,,FF,,,,,,,,1.4413,,,,,,,,,,,,,,,,,,,,,,610302f87498dc46e622b4bb,61036b98419789b8498b9e80,2021-07-29_21h02.42.511,Simcolourproject_2stim_asymm_v5,2020.2.10,Win32,60,61025ae37ef11b136ea224fe,,,,,,,,,3174,48.16670513,-42.38891125,1,0,0,response3disk,,5,2.611147404,-4.611165577,1,0,0,rectangle,-72.94441175,-24.61116653,1,0,0,-9.611075401,-0.166687012,1,0,0,0,135,135,83,1,,response5disk_3,TRUE,2,2,"[21,138,188,62,251,241,32,264,144,151,219,280,300,228,284,17,214,136,150,102]",1.5017,rectangle
,,,,,,,,,,,,,FF,,,,,,,,1.1235,,,,,,,,,,,,,,,,,,,,,,610302f87498dc46e622b4bb,61036b98419789b8498b9e80,2021-07-29_21h02.42.511,Simcolourproject_2stim_asymm_v5,2020.2.10,Win32,60,61025ae37ef11b136ea224fe,,,,,,,,,167,-39.61107683,-89.05561405,1,0,0,response5disk,,3,-6.277741909,2.055535316,1,0,0,rectangle,-6.277741909,2.055535316,1,0,0,-6.277741909,2.055535316,1,0,0,0,136,136,66,1,,,,,,,,
,,,,,,,,,,,,,FF,,,,,,,,1.2431,,,,,,,,,,,,,,,,,,,,,,610302f87498dc46e622b4bb,61036b98419789b8498b9e80,2021-07-29_21h02.42.511,Simcolourproject_2stim_asymm_v5,2020.2.10,Win32,60,61025ae37ef11b136ea224fe,,,,,,,,,2858,53.72232877,46.49994797,1,0,0,response1disk,,6,-5.166630745,-5.722242832,1,0,0,rectangle,41.50010596,75.38887215,1,0,0,2.611147404,0.944424152,1,0,0,0,137,137,85,1,,response1disk_3,TRUE,7,7,"[21,138,188,62,251,241,32,264,144,151,219,280,300,228,284,17,214,136,150,102]",2.0071,rectangle
,,,,,,,,,,,,,FF,,,,,,,,1.2365,,,,,,,,,,,,,,,,,,,,,,610302f87498dc46e622b4bb,61036b98419789b8498b9e80,2021-07-29_21h02.42.511,Simcolourproject_2stim_asymm_v5,2020.2.10,Win32,60,61025ae37ef11b136ea224fe,,,,,,,,,3062,-27.38885403,-73.50005775,1,0,0,response5disk,,3,-5.166630745,4.277757645,1,0,0,rectangle,-5.166630745,4.277757645,1,0,0,-5.166630745,4.277757645,1,0,0,0,138,138,94,1,,,,,,,,
,,,,,,,,,,,,,FF,,,,,,,,2.2489,,,,,,,,,,,,,,,,,,,,,,610302f87498dc46e622b4bb,61036b98419789b8498b9e80,2021-07-29_21h02.42.511,Simcolourproject_2stim_asymm_v5,2020.2.10,Win32,60,61025ae37ef11b136ea224fe,,,,,,,,,1083,70.38892841,-49.05557823,1,0,0,response3disk,,5,9.277882205,7.611091137,1,0,0,rectangle,9.277882205,7.611091137,1,0,0,9.277882205,7.611091137,1,0,0,0,139,139,30,1,,,,,,,,
,,,,,,,,,,,,,FF,,,,,,,,1.8307,,,,,,,,,,,,,,,,,,,,,,610302f87498dc46e622b4bb,61036b98419789b8498b9e80,2021-07-29_21h02.42.511,Simcolourproject_2stim_asymm_v5,2020.2.10,Win32,60,61025ae37ef11b136ea224fe,,,,,,,,,228,75.94448423,-47.94446707,1,0,0,response3disk,,5,17.05559254,-3.500054412,1,0,0,rectangle,17.05559254,-3.500054412,1,0,0,17.05559254,-3.500054412,1,0,0,0,140,140,76,1,,,,,,,,
,,,,,,,,,,,,,FF,,,,,,,,4.8576,,,,,,,,,,,,,,,,,,,,,,610302f87498dc46e622b4bb,61036b98419789b8498b9e80,2021-07-29_21h02.42.511,Simcolourproject_2stim_asymm_v5,2020.2.10,Win32,60,61025ae37ef11b136ea224fe,,,,,,,,,2600,59.27781677,-77.9444685,1,0,0,response3disk,,4,20.38892603,-7.94446516,1,0,0,rectangle,20.38892603,-7.94446516,1,0,0,20.38892603,-7.94446516,1,0,0,0,141,141,137,1,,,,,,,,
,,,,,,,,,,,,,FF,,,,,,,,1.3772,,,,,,,,,,,,,,,,,,,,,,610302f87498dc46e622b4bb,61036b98419789b8498b9e80,2021-07-29_21h02.42.511,Simcolourproject_2stim_asymm_v5,2020.2.10,Win32,60,61025ae37ef11b136ea224fe,,,,,,,,,3133,52.61114979,89.83331728,1,0,0,response1disk,,7,-7.388853073,-1.277798176,1,0,0,rectangle,-7.388853073,-1.277798176,1,0,0,-7.388853073,-1.277798176,1,0,0,0,142,142,148,1,,,,,,,,
,,,,,,,,,,,,,FF,,,,,,,,1.2751,,,,,,,,,,,,,,,,,,,,,,610302f87498dc46e622b4bb,61036b98419789b8498b9e80,2021-07-29_21h02.42.511,Simcolourproject_2stim_asymm_v5,2020.2.10,Win32,60,61025ae37ef11b136ea224fe,,,,,,,,,3631,72.61115074,-52.38891172,1,0,0,response3disk,,5,0.388925076,-11.27779865,1,0,0,rectangle,27.05559301,-94.61116987,1,0,0,12.61114788,-6.833353996,1,0,0,0,143,143,87,1,,response3disk_3,TRUE,4,4,"[21,138,188,62,251,241,32,264,144,151,219,280,300,228,284,17,214,136,150,102]",1.9263,rectangle
,,,,,,,,,,,,,FF,,,,,,,,1.8647,,,,,,,,,,,,,,,,,,,,,,610302f87498dc46e622b4bb,61036b98419789b8498b9e80,2021-07-29_21h02.42.511,Simcolourproject_2stim_asymm_v5,2020.2.10,Win32,60,61025ae37ef11b136ea224fe,,,,,,,,,2382,79.27781773,49.83331537,1,0,0,response1disk,,6,3.722258568,-2.38890934,1,0,0,rectangle,3.722258568,-2.38890934,1,0,0,3.722258568,-2.38890934,1,0,0,0,144,144,68,1,,,,,,,,
,,,,,,,,,,,,,FF,,,,,,,,1.4936,,,,,,,,,,,,,,,,,,,,,,610302f87498dc46e622b4bb,61036b98419789b8498b9e80,2021-07-29_21h02.42.511,Simcolourproject_2stim_asymm_v5,2020.2.10,Win32,60,61025ae37ef11b136ea224fe,,,,,,,,,3880,-90.72212256,-42.38891125,1,0,0,response5disk,,2,-26.27774286,-2.38890934,1,0,0,rectangle,-26.27774286,-2.38890934,1,0,0,-26.27774286,-2.38890934,1,0,0,0,145,145,113,1,,,,,,,,
,,,,,,,,,,,,,FF,,,,,,,,2.1759,,,,,,,,,,,,,,,,,,,,,,610302f87498dc46e622b4bb,61036b98419789b8498b9e80,2021-07-29_21h02.42.511,Simcolourproject_2stim_asymm_v5,2020.2.10,Win32,60,61025ae37ef11b136ea224fe,,,,,,,,,558,25.94448185,-75.72228008,1,0,0,response3disk,,4,-19.61107588,3.166646481,1,0,0,rectangle,-19.61107588,3.166646481,1,0,0,-19.61107588,3.166646481,1,0,0,0,146,146,58,1,,,,,,,,
,,,,,,,,,,,,,FF,,,,,,,,1.8908,,,,,,,,,,,,,,,,,,,,,,610302f87498dc46e622b4bb,61036b98419789b8498b9e80,2021-07-29_21h02.42.511,Simcolourproject_2stim_asymm_v5,2020.2.10,Win32,60,61025ae37ef11b136ea224fe,,,,,,,,,1833,90.38892937,49.83331537,1,0,0,response1disk,,6,4.833369732,14.27775812,1,0,0,rectangle,4.833369732,14.27775812,1,0,0,4.833369732,14.27775812,1,0,0,0,147,147,41,1,,,,,,,,
,,,,,,,,,,,,,FF,,,,,,,,1.1292,,,,,,,,,,,,,,,,,,,,,,610302f87498dc46e622b4bb,61036b98419789b8498b9e80,2021-07-29_21h02.42.511,Simcolourproject_2stim_asymm_v5,2020.2.10,Win32,60,61025ae37ef11b136ea224fe,,,,,,,,,2997,-70.72212161,-36.83335543,1,0,0,response5disk,,2,-7.388853073,14.27775812,1,0,0,rectangle,-7.388853073,14.27775812,1,0,0,-7.388853073,14.27775812,1,0,0,0,148,148,1,1,,,,,,,,
,,,,,,,,,,,,,FF,,,,,,,,1.1192,,,,,,,,,,,,,,,,,,,,,,610302f87498dc46e622b4bb,61036b98419789b8498b9e80,2021-07-29_21h02.42.511,Simcolourproject_2stim_asymm_v5,2020.2.10,Win32,60,61025ae37ef11b136ea224fe,,,,,,,,,2570,77.0555954,34.27775908,1,0,0,response1disk,,6,14.83337021,3.166646481,1,0,0,rectangle,-75.16663408,50.94442654,1,0,0,-17.38885355,2.055535316,1,0,0,0,149,149,156,1,,response7disk_3,TRUE,1,1,"[21,138,188,62,251,241,32,264,144,151,219,280,300,228,284,17,214,136,150,102]",1.4579,rectangle
,,,,,,,,,,,,,FF,,,,,,,,1.1186,,,,,,,,,,,,,,,,,,,,,,610302f87498dc46e622b4bb,61036b98419789b8498b9e80,2021-07-29_21h02.42.511,Simcolourproject_2stim_asymm_v5,2020.2.10,Win32,60,61025ae37ef11b136ea224fe,,,,,,,,,1835,-39.61107683,-70.16669035,1,0,0,response5disk,,3,-12.94440889,2.055535316,1,0,0,rectangle,-40.72212018,87.61106104,1,0,0,-14.05552006,4.277757645,1,0,0,0,150,150,70,1,,response7disk_3,TRUE,0,0,"[21,138,188,62,251,241,32,264,144,151,219,280,300,228,284,17,214,136,150,102]",1.5073,rectangle
,,,,,,,,,,,,,FF,,,,,,,,2.6125,,,,,,,,,,,,,,,,,,,,,,610302f87498dc46e622b4bb,61036b98419789b8498b9e80,2021-07-29_21h02.42.511,Simcolourproject_2stim_asymm_v5,2020.2.10,Win32,60,61025ae37ef11b136ea224fe,,,,,,,,,1872,62.61115026,-57.94446754,1,0,0,response3disk,,5,-14.05552006,-6.833353996,1,0,0,rectangle,-14.05552006,-6.833353996,1,0,0,-14.05552006,-6.833353996,1,0,0,0,151,151,77,1,,,,,,,,
,,,,,,,,,,,,,FF,,,,,,,,2.1456,,,,,,,,,,,,,,,,,,,,,,610302f87498dc46e622b4bb,61036b98419789b8498b9e80,2021-07-29_21h02.42.511,Simcolourproject_2stim_asymm_v5,2020.2.10,Win32,60,61025ae37ef11b136ea224fe,,,,,,,,,1029,47.05559397,-76.83335733,1,0,0,response3disk,,4,14.83337021,8.722202301,1,0,0,rectangle,14.83337021,8.722202301,1,0,0,14.83337021,8.722202301,1,0,0,0,152,152,147,1,,,,,,,,
,,,,,,,,,,,,,FF,,,,,,,,1.9591,,,,,,,,,,,,,,,,,,,,,,610302f87498dc46e622b4bb,61036b98419789b8498b9e80,2021-07-29_21h02.42.511,Simcolourproject_2stim_asymm_v5,2020.2.10,Win32,60,61025ae37ef11b136ea224fe,,,,,,,,,1157,40.38892698,-71.27780151,1,0,0,response3disk,,4,3.722258568,-7.94446516,1,0,0,rectangle,3.722258568,-7.94446516,1,0,0,3.722258568,-7.94446516,1,0,0,0,153,153,133,1,,,,,,,,
,,,,,,,,,,,,,FF,,,,,,,,1.9141,,,,,,,,,,,,,,,,,,,,,,610302f87498dc46e622b4bb,61036b98419789b8498b9e80,2021-07-29_21h02.42.511,Simcolourproject_2stim_asymm_v5,2020.2.10,Win32,60,61025ae37ef11b136ea224fe,,,,,,,,,2064,75.94448423,48.72220421,1,0,0,response1disk,,6,3.722258568,-11.27779865,1,0,0,rectangle,3.722258568,-11.27779865,1,0,0,3.722258568,-11.27779865,1,0,0,0,154,154,125,1,,,,,,,,
,,,,,,,,,,,,,FF,,,,,,,,1.6038,,,,,,,,,,,,,,,,,,,,,,610302f87498dc46e622b4bb,61036b98419789b8498b9e80,2021-07-29_21h02.42.511,Simcolourproject_2stim_asymm_v5,2020.2.10,Win32,60,61025ae37ef11b136ea224fe,,,,,,,,,4362,-51.83329964,106.4999847,1,0,0,response7disk,,0,-22.94440937,12.05553579,1,0,0,rectangle,-22.94440937,12.05553579,1,0,0,-22.94440937,12.05553579,1,0,0,0,155,155,37,1,,,,,,,,
,,,,,,,,,,,,,FF,,,,,,,,1.3715,,,,,,,,,,,,,,,,,,,,,,610302f87498dc46e622b4bb,61036b98419789b8498b9e80,2021-07-29_21h02.42.511,Simcolourproject_2stim_asymm_v5,2020.2.10,Win32,60,61025ae37ef11b136ea224fe,,,,,,,,,3392,-62.94441128,-57.94446754,1,0,0,response5disk,,2,-17.38885355,-4.611165577,1,0,0,rectangle,-17.38885355,-4.611165577,1,0,0,-17.38885355,-4.611165577,1,0,0,0,156,156,8,1,,,,,,,,
,,,,,,,,,,,,,FF,,,,,,,,1.395,,,,,,,,,,,,,,,,,,,,,,610302f87498dc46e622b4bb,61036b98419789b8498b9e80,2021-07-29_21h02.42.511,Simcolourproject_2stim_asymm_v5,2020.2.10,Win32,60,61025ae37ef11b136ea224fe,,,,,,,,,256,50.38892746,-83.50005823,1,0,0,response3disk,,4,17.05559254,-1.277798176,1,0,0,rectangle,17.05559254,-1.277798176,1,0,0,17.05559254,-1.277798176,1,0,0,0,157,157,17,1,,,,,,,,
,,,,,,,,,,,,,FF,,,,,,,,0.9891,,,,,,,,,,,,,,,,,,,,,,610302f87498dc46e622b4bb,61036b98419789b8498b9e80,2021-07-29_21h02.42.511,Simcolourproject_2stim_asymm_v5,2020.2.10,Win32,60,61025ae37ef11b136ea224fe,,,,,,,,,3393,-55.16663313,-66.83335686,1,0,0,response5disk,,3,-1.833297253,-3.500054412,1,0,0,rectangle,-1.833297253,-3.500054412,1,0,0,-1.833297253,-3.500054412,1,0,0,0,158,158,104,1,,,,,,,,
,,,,,,,,,,,,,FF,,,,,,,,1.0594,,,,,,,,,,,,,,,,,,,,,,610302f87498dc46e622b4bb,61036b98419789b8498b9e80,2021-07-29_21h02.42.511,Simcolourproject_2stim_asymm_v5,2020.2.10,Win32,60,61025ae37ef11b136ea224fe,,,,,,,,,390,55.94448328,30.94442558,1,0,0,response1disk,,6,8.166703224,2.055535316,1,0,0,rectangle,8.166703224,2.055535316,1,0,0,8.166703224,2.055535316,1,0,0,0,159,159,59,1,,,,,,,,
,,,,,,,,,,,,,FF,,,,,,,,3.837,,,,,,,,,,,,,,,,,,,,,,610302f87498dc46e622b4bb,61036b98419789b8498b9e80,2021-07-29_21h02.42.511,Simcolourproject_2stim_asymm_v5,2020.2.10,Win32,60,61025ae37ef11b136ea224fe,,,,,,,,,3353,61.50010692,-47.94446707,1,0,0,response3disk,,5,-4.055519581,7.611091137,1,0,0,rectangle,-4.055519581,7.611091137,1,0,0,-4.055519581,7.611091137,1,0,0,1,0,160,155,1,,,,,,,,
,,,,,,,,,,,,,FF,,,,,,,,1.1965,,,,,,,,,,,,,,,,,,,,,,610302f87498dc46e622b4bb,61036b98419789b8498b9e80,2021-07-29_21h02.42.511,Simcolourproject_2stim_asymm_v5,2020.2.10,Win32,60,61025ae37ef11b136ea224fe,,,,,,,,,1730,58.16670561,52.0555377,1,0,0,response1disk,,6,21.50010501,13.16664696,1,0,0,rectangle,21.50010501,13.16664696,1,0,0,21.50010501,13.16664696,1,0,0,1,1,161,122,1,,,,,,,,
,,,,,,,,,,,,,FF,,,,,,,,1.2815,,,,,,,,,,,,,,,,,,,,,,610302f87498dc46e622b4bb,61036b98419789b8498b9e80,2021-07-29_21h02.42.511,Simcolourproject_2stim_asymm_v5,2020.2.10,Win32,60,61025ae37ef11b136ea224fe,,,,,,,,,2666,50.38892746,-69.05557919,1,0,0,response3disk,,4,8.166703224,4.277757645,1,0,0,rectangle,8.166703224,4.277757645,1,0,0,8.166703224,4.277757645,1,0,0,1,2,162,112,1,,,,,,,,
,,,,,,,,,,,,,FF,,,,,,,,1.8883,,,,,,,,,,,,,,,,,,,,,,610302f87498dc46e622b4bb,61036b98419789b8498b9e80,2021-07-29_21h02.42.511,Simcolourproject_2stim_asymm_v5,2020.2.10,Win32,60,61025ae37ef11b136ea224fe,,,,,,,,,850,80.38892889,-53.5000568,1,0,0,response3disk,,5,17.05559254,-10.16668749,1,0,0,rectangle,17.05559254,-10.16668749,1,0,0,17.05559254,-10.16668749,1,0,0,1,3,163,146,1,,,,,,,,
,,,,,,,,,,,,,FF,,,,,,,,0.8592,,,,,,,,,,,,,,,,,,,,,,610302f87498dc46e622b4bb,61036b98419789b8498b9e80,2021-07-29_21h02.42.511,Simcolourproject_2stim_asymm_v5,2020.2.10,Win32,60,61025ae37ef11b136ea224fe,,,,,,,,,4119,-34.05552101,-65.7222796,1,0,0,response5disk,,3,-1.833297253,-0.166687012,1,0,0,rectangle,-1.833297253,-0.166687012,1,0,0,-1.833297253,-0.166687012,1,0,0,1,4,164,61,1,,,,,,,,
,,,,,,,,,,,,,FF,,,,,,,,1.2062,,,,,,,,,,,,,,,,,,,,,,610302f87498dc46e622b4bb,61036b98419789b8498b9e80,2021-07-29_21h02.42.511,Simcolourproject_2stim_asymm_v5,2020.2.10,Win32,60,61025ae37ef11b136ea224fe,,,,,,,,,1302,37.05559349,-61.27780104,1,0,0,response3disk,,4,1.500104056,-2.38890934,1,0,0,rectangle,1.500104056,-2.38890934,1,0,0,1.500104056,-2.38890934,1,0,0,1,5,165,132,1,,,,,,,,
,,,,,,,,,,,,,FF,,,,,,,,1.3604,,,,,,,,,,,,,,,,,,,,,,610302f87498dc46e622b4bb,61036b98419789b8498b9e80,2021-07-29_21h02.42.511,Simcolourproject_2stim_asymm_v5,2020.2.10,Win32,60,61025ae37ef11b136ea224fe,,,,,,,,,2026,-48.49989833,-63.50005727,1,0,0,response5disk,,3,0.388925076,12.05553579,1,0,0,rectangle,0.388925076,12.05553579,1,0,0,0.388925076,12.05553579,1,0,0,1,6,166,106,1,,,,,,,,
,,,,,,,,,,,,,FF,,,,,,,,2.3115,,,,,,,,,,,,,,,,,,,,,,610302f87498dc46e622b4bb,61036b98419789b8498b9e80,2021-07-29_21h02.42.511,Simcolourproject_2stim_asymm_v5,2020.2.10,Win32,60,61025ae37ef11b136ea224fe,,,,,,,,,1874,89.2778182,23.16664743,1,0,0,response1disk,,6,-6.277741909,13.16664696,1,0,0,rectangle,-6.277741909,13.16664696,1,0,0,-6.277741909,13.16664696,1,0,0,1,7,167,7,1,,,,,,,,
,,,,,,,,,,,,,FF,,,,,,,,1.1216,,,,,,,,,,,,,,,,,,,,,,610302f87498dc46e622b4bb,61036b98419789b8498b9e80,2021-07-29_21h02.42.511,Simcolourproject_2stim_asymm_v5,2020.2.10,Win32,60,61025ae37ef11b136ea224fe,,,,,,,,,2970,90.38892937,58.72220469,1,0,0,response1disk,,6,-0.722118272,-1.277798176,1,0,0,rectangle,-0.722118272,-1.277798176,1,0,0,-0.722118272,-1.277798176,1,0,0,1,8,168,32,1,,,,,,,,
,,,,,,,,,,,,,FF,,,,,,,,1.2916,,,,,,,,,,,,,,,,,,,,,,610302f87498dc46e622b4bb,61036b98419789b8498b9e80,2021-07-29_21h02.42.511,Simcolourproject_2stim_asymm_v5,2020.2.10,Win32,60,61025ae37ef11b136ea224fe,,,,,,,,,869,75.94448423,-56.83335638,1,0,0,response3disk,,5,0.388925076,-5.722242832,1,0,0,rectangle,0.388925076,-5.722242832,1,0,0,0.388925076,-5.722242832,1,0,0,1,9,169,93,1,,,,,,,,
,,,,,,,,,,,,,FF,,,,,,,,2.0865,,,,,,,,,,,,,,,,,,,,,,610302f87498dc46e622b4bb,61036b98419789b8498b9e80,2021-07-29_21h02.42.511,Simcolourproject_2stim_asymm_v5,2020.2.10,Win32,60,61025ae37ef11b136ea224fe,,,,,,,,,1724,87.05559587,-44.61116748,1,0,0,response3disk,,5,22.61114836,12.05553579,1,0,0,rectangle,22.61114836,12.05553579,1,0,0,22.61114836,12.05553579,1,0,0,1,10,170,19,1,,,,,,,,
,,,,,,,,,,,,,FF,,,,,,,,1.567,,,,,,,,,,,,,,,,,,,,,,610302f87498dc46e622b4bb,61036b98419789b8498b9e80,2021-07-29_21h02.42.511,Simcolourproject_2stim_asymm_v5,2020.2.10,Win32,60,61025ae37ef11b136ea224fe,,,,,,,,,3878,-47.38885498,-82.38891315,1,0,0,response5disk,,3,1.500104056,9.833313465,1,0,0,rectangle,1.500104056,9.833313465,1,0,0,1.500104056,9.833313465,1,0,0,1,11,171,119,1,,,,,,,,
,,,,,,,,,,,,,FF,,,,,,,,0.8878,,,,,,,,,,,,,,,,,,,,,,610302f87498dc46e622b4bb,61036b98419789b8498b9e80,2021-07-29_21h02.42.511,Simcolourproject_2stim_asymm_v5,2020.2.10,Win32,60,61025ae37ef11b136ea224fe,,,,,,,,,2714,-96.2777462,-32.38891077,1,0,0,response5disk,,2,-19.61107588,0.944424152,1,0,0,rectangle,-19.61107588,0.944424152,1,0,0,-19.61107588,0.944424152,1,0,0,1,12,172,130,1,,,,,,,,
,,,,,,,,,,,,,FF,,,,,,,,1.4248,,,,,,,,,,,,,,,,,,,,,,610302f87498dc46e622b4bb,61036b98419789b8498b9e80,2021-07-29_21h02.42.511,Simcolourproject_2stim_asymm_v5,2020.2.10,Win32,60,61025ae37ef11b136ea224fe,,,,,,,,,2643,48.16670513,-63.50005727,1,0,0,response3disk,,4,7.05559206,-0.166687012,1,0,0,rectangle,7.05559206,-0.166687012,1,0,0,7.05559206,-0.166687012,1,0,0,1,13,173,17,1,,,,,,,,
,,,,,,,,,,,,,FF,,,,,,,,1.1125,,,,,,,,,,,,,,,,,,,,,,610302f87498dc46e622b4bb,61036b98419789b8498b9e80,2021-07-29_21h02.42.511,Simcolourproject_2stim_asymm_v5,2020.2.10,Win32,60,61025ae37ef11b136ea224fe,,,,,,,,,2869,60.38892794,78.72220564,1,0,0,response1disk,,7,20.38892603,-6.833353996,1,0,0,rectangle,20.38892603,-6.833353996,1,0,0,20.38892603,-6.833353996,1,0,0,1,14,174,29,1,,,,,,,,
,,,,,,,,,,,,,FF,,,,,,,,1.2909,,,,,,,,,,,,,,,,,,,,,,610302f87498dc46e622b4bb,61036b98419789b8498b9e80,2021-07-29_21h02.42.511,Simcolourproject_2stim_asymm_v5,2020.2.10,Win32,60,61025ae37ef11b136ea224fe,,,,,,,,,2223,48.16670513,-51.27780056,1,0,0,response3disk,,4,9.277882205,-6.833353996,1,0,0,rectangle,9.277882205,-6.833353996,1,0,0,9.277882205,-6.833353996,1,0,0,1,15,175,110,1,,,,,,,,
,,,,,,,,,,,,,FF,,,,,,,,2.2635,,,,,,,,,,,,,,,,,,,,,,610302f87498dc46e622b4bb,61036b98419789b8498b9e80,2021-07-29_21h02.42.511,Simcolourproject_2stim_asymm_v5,2020.2.10,Win32,60,61025ae37ef11b136ea224fe,,,,,,,,,1063,25.94448185,-75.72228008,1,0,0,response3disk,,4,-1.833297253,0.944424152,1,0,0,rectangle,-1.833297253,0.944424152,1,0,0,-1.833297253,0.944424152,1,0,0,1,16,176,87,1,,,,,,,,
,,,,,,,,,,,,,FF,,,,,,,,1.1016,,,,,,,,,,,,,,,,,,,,,,610302f87498dc46e622b4bb,61036b98419789b8498b9e80,2021-07-29_21h02.42.511,Simcolourproject_2stim_asymm_v5,2020.2.10,Win32,60,61025ae37ef11b136ea224fe,,,,,,,,,2400,62.61115026,46.49994797,1,0,0,response1disk,,6,-7.388853073,2.055535316,1,0,0,rectangle,-7.388853073,2.055535316,1,0,0,-7.388853073,2.055535316,1,0,0,1,17,177,95,1,,,,,,,,
,,,,,,,,,,,,,FF,,,,,,,,1.7725,,,,,,,,,,,,,,,,,,,,,,610302f87498dc46e622b4bb,61036b98419789b8498b9e80,2021-07-29_21h02.42.511,Simcolourproject_2stim_asymm_v5,2020.2.10,Win32,60,61025ae37ef11b136ea224fe,,,,,,,,,1595,75.94448423,-40.16668892,1,0,0,response3disk,,5,15.94448137,-6.833353996,1,0,0,rectangle,15.94448137,-6.833353996,1,0,0,15.94448137,-6.833353996,1,0,0,1,18,178,131,1,,,,,,,,
,,,,,,,,,,,,,FF,,,,,,,,1.5387,,,,,,,,,,,,,,,,,,,,,,610302f87498dc46e622b4bb,61036b98419789b8498b9e80,2021-07-29_21h02.42.511,Simcolourproject_2stim_asymm_v5,2020.2.10,Win32,60,61025ae37ef11b136ea224fe,,,,,,,,,29,100.3889298,60.94442701,1,0,0,response1disk,,6,4.833369732,5.3888349,1,0,0,rectangle,4.833369732,5.3888349,1,0,0,4.833369732,5.3888349,1,0,0,1,19,179,100,1,,,,,,,,
,,,,,,,,,,,,,FF,,,,,,,,1.5625,,,,,,,,,,,,,,,,,,,,,,610302f87498dc46e622b4bb,61036b98419789b8498b9e80,2021-07-29_21h02.42.511,Simcolourproject_2stim_asymm_v5,2020.2.10,Win32,60,61025ae37ef11b136ea224fe,,,,,,,,,3887,64.83337259,-44.61116748,1,0,0,response3disk,,5,-4.055519581,3.166646481,1,0,0,rectangle,-4.055519581,3.166646481,1,0,0,-4.055519581,3.166646481,1,0,0,1,20,180,63,1,,,,,,,,
,,,,,,,,,,,,,FF,,,,,,,,1.2356,,,,,,,,,,,,,,,,,,,,,,610302f87498dc46e622b4bb,61036b98419789b8498b9e80,2021-07-29_21h02.42.511,Simcolourproject_2stim_asymm_v5,2020.2.10,Win32,60,61025ae37ef11b136ea224fe,,,,,,,,,863,23.72232734,77.61106057,1,0,0,response1disk,,7,-14.05552006,-1.277798176,1,0,0,rectangle,-14.05552006,-1.277798176,1,0,0,-14.05552006,-1.277798176,1,0,0,1,21,181,4,1,,,,,,,,
,,,,,,,,,,,,,FF,,,,,,,,3.2636,,,,,,,,,,,,,,,,,,,,,,610302f87498dc46e622b4bb,61036b98419789b8498b9e80,2021-07-29_21h02.42.511,Simcolourproject_2stim_asymm_v5,2020.2.10,Win32,60,61025ae37ef11b136ea224fe,,,,,,,,,1403,82.61115122,52.0555377,1,0,0,response1disk,,6,7.05559206,4.277757645,1,0,0,rectangle,7.05559206,4.277757645,1,0,0,7.05559206,4.277757645,1,0,0,1,22,182,55,1,,,,,,,,
,,,,,,,,,,,,,FF,,,,,,,,1.8277,,,,,,,,,,,,,,,,,,,,,,610302f87498dc46e622b4bb,61036b98419789b8498b9e80,2021-07-29_21h02.42.511,Simcolourproject_2stim_asymm_v5,2020.2.10,Win32,60,61025ae37ef11b136ea224fe,,,,,,,,,2110,53.72232877,26.49994702,1,0,0,response1disk,,6,10.38892555,4.277757645,1,0,0,rectangle,10.38892555,4.277757645,1,0,0,10.38892555,4.277757645,1,0,0,1,23,183,107,1,,,,,,,,
,,,,,,,,,,,,,FF,,,,,,,,1.9585,,,,,,,,,,,,,,,,,,,,,,610302f87498dc46e622b4bb,61036b98419789b8498b9e80,2021-07-29_21h02.42.511,Simcolourproject_2stim_asymm_v5,2020.2.10,Win32,60,61025ae37ef11b136ea224fe,,,,,,,,,1185,50.38892746,-39.05557775,1,0,0,response3disk,,5,18.1667037,3.166646481,1,0,0,rectangle,18.1667037,3.166646481,1,0,0,18.1667037,3.166646481,1,0,0,1,24,184,49,1,,,,,,,,
,,,,,,,,,,,,,FF,,,,,,,,1.2062,,,,,,,,,,,,,,,,,,,,,,610302f87498dc46e622b4bb,61036b98419789b8498b9e80,2021-07-29_21h02.42.511,Simcolourproject_2stim_asymm_v5,2020.2.10,Win32,60,61025ae37ef11b136ea224fe,,,,,,,,,1076,62.61115026,27.61109209,1,0,0,response1disk,,6,14.83337021,-7.94446516,1,0,0,rectangle,14.83337021,-7.94446516,1,0,0,14.83337021,-7.94446516,1,0,0,1,25,185,158,1,,,,,,,,
,,,,,,,,,,,,,FF,,,,,,,,3.0378,,,,,,,,,,,,,,,,,,,,,,610302f87498dc46e622b4bb,61036b98419789b8498b9e80,2021-07-29_21h02.42.511,Simcolourproject_2stim_asymm_v5,2020.2.10,Win32,60,61025ae37ef11b136ea224fe,,,,,,,,,295,65.94448376,27.61109209,1,0,0,response1disk,,6,12.61114788,-14.61116605,1,0,0,rectangle,12.61114788,-14.61116605,1,0,0,12.61114788,-14.61116605,1,0,0,1,26,186,46,1,,,,,,,,
,,,,,,,,,,,,,FF,,,,,,,,1.7947,,,,,,,,,,,,,,,,,,,,,,610302f87498dc46e622b4bb,61036b98419789b8498b9e80,2021-07-29_21h02.42.511,Simcolourproject_2stim_asymm_v5,2020.2.10,Win32,60,61025ae37ef11b136ea224fe,,,,,,,,,2885,39.27781582,52.0555377,1,0,0,response1disk,,7,-6.277741909,-0.166687012,1,0,0,rectangle,38.16670465,-83.50005823,1,0,0,4.833369732,5.3888349,1,0,0,1,27,187,35,1,,response3disk_3,TRUE,4,4,"[21,138,188,62,251,241,32,264,144,151,219,280,300,228,284,17,214,136,150,102]",1.9902,rectangle
,,,,,,,,,,,,,FF,,,,,,,,2.2323,,,,,,,,,,,,,,,,,,,,,,610302f87498dc46e622b4bb,61036b98419789b8498b9e80,2021-07-29_21h02.42.511,Simcolourproject_2stim_asymm_v5,2020.2.10,Win32,60,61025ae37ef11b136ea224fe,,,,,,,,,2208,61.50010692,88.72220612,1,0,0,response1disk,,7,-6.277741909,2.055535316,1,0,0,rectangle,-6.277741909,2.055535316,1,0,0,-6.277741909,2.055535316,1,0,0,1,28,188,42,1,,,,,,,,
,,,,,,,,,,,,,FF,,,,,,,,1.1404,,,,,,,,,,,,,,,,,,,,,,610302f87498dc46e622b4bb,61036b98419789b8498b9e80,2021-07-29_21h02.42.511,Simcolourproject_2stim_asymm_v5,2020.2.10,Win32,60,61025ae37ef11b136ea224fe,,,,,,,,,1542,89.2778182,-47.94446707,1,0,0,response3disk,,5,9.277882205,-7.94446516,1,0,0,rectangle,9.277882205,-7.94446516,1,0,0,9.277882205,-7.94446516,1,0,0,1,29,189,138,1,,,,,,,,
,,,,,,,,,,,,,FF,,,,,,,,1.1565,,,,,,,,,,,,,,,,,,,,,,610302f87498dc46e622b4bb,61036b98419789b8498b9e80,2021-07-29_21h02.42.511,Simcolourproject_2stim_asymm_v5,2020.2.10,Win32,60,61025ae37ef11b136ea224fe,,,,,,,,,119,84.83337355,48.72220421,1,0,0,response1disk,,6,0.388925076,-3.500054412,1,0,0,rectangle,0.388925076,-3.500054412,1,0,0,0.388925076,-3.500054412,1,0,0,1,30,190,14,1,,,,,,,,
,,,,,,,,,,,,,FF,,,,,,,,1.9503,,,,,,,,,,,,,,,,,,,,,,610302f87498dc46e622b4bb,61036b98419789b8498b9e80,2021-07-29_21h02.42.511,Simcolourproject_2stim_asymm_v5,2020.2.10,Win32,60,61025ae37ef11b136ea224fe,,,,,,,,,1298,-69.61107826,48.72220421,1,0,0,response7disk,,1,3.722258568,-7.94446516,1,0,0,rectangle,3.722258568,-7.94446516,1,0,0,3.722258568,-7.94446516,1,0,0,1,31,191,16,1,,,,,,,,
,,,,,,,,,,,,,FF,,,,,,,,1.925,,,,,,,,,,,,,,,,,,,,,,610302f87498dc46e622b4bb,61036b98419789b8498b9e80,2021-07-29_21h02.42.511,Simcolourproject_2stim_asymm_v5,2020.2.10,Win32,60,61025ae37ef11b136ea224fe,,,,,,,,,924,37.05559349,60.94442701,1,0,0,response1disk,,7,5.944480896,4.277757645,1,0,0,rectangle,5.944480896,4.277757645,1,0,0,5.944480896,4.277757645,1,0,0,1,32,192,27,1,,,,,,,,
,,,,,,,,,,,,,FF,,,,,,,,2.5126,,,,,,,,,,,,,,,,,,,,,,610302f87498dc46e622b4bb,61036b98419789b8498b9e80,2021-07-29_21h02.42.511,Simcolourproject_2stim_asymm_v5,2020.2.10,Win32,60,61025ae37ef11b136ea224fe,,,,,,,,,550,-89.61107922,-40.16668892,1,0,0,response5disk,,2,-12.94440889,-7.94446516,1,0,0,rectangle,-12.94440889,-7.94446516,1,0,0,-12.94440889,-7.94446516,1,0,0,1,33,193,129,1,,,,,,,,
,,,,,,,,,,,,,FF,,,,,,,,1.6247,,,,,,,,,,,,,,,,,,,,,,610302f87498dc46e622b4bb,61036b98419789b8498b9e80,2021-07-29_21h02.42.511,Simcolourproject_2stim_asymm_v5,2020.2.10,Win32,60,61025ae37ef11b136ea224fe,,,,,,,,,3465,50.38892746,-34.61116701,1,0,0,response3disk,,5,-0.722118272,8.722202301,1,0,0,rectangle,-0.722118272,8.722202301,1,0,0,-0.722118272,8.722202301,1,0,0,1,34,194,88,1,,,,,,,,
,,,,,,,,,,,,,FF,,,,,,,,1.4956,,,,,,,,,,,,,,,,,,,,,,610302f87498dc46e622b4bb,61036b98419789b8498b9e80,2021-07-29_21h02.42.511,Simcolourproject_2stim_asymm_v5,2020.2.10,Win32,60,61025ae37ef11b136ea224fe,,,,,,,,,3172,40.38892698,-66.83335686,1,0,0,response3disk,,4,-4.055519581,4.277757645,1,0,0,rectangle,-4.055519581,4.277757645,1,0,0,-4.055519581,4.277757645,1,0,0,1,35,195,127,1,,,,,,,,
,,,,,,,,,,,,,FF,,,,,,,,1.7423,,,,,,,,,,,,,,,,,,,,,,610302f87498dc46e622b4bb,61036b98419789b8498b9e80,2021-07-29_21h02.42.511,Simcolourproject_2stim_asymm_v5,2020.2.10,Win32,60,61025ae37ef11b136ea224fe,,,,,,,,,1435,-27.38885403,-95.72224712,1,0,0,response5disk,,3,8.166703224,10.94442463,1,0,0,rectangle,8.166703224,10.94442463,1,0,0,8.166703224,10.94442463,1,0,0,1,36,196,33,1,,,,,,,,
,,,,,,,,,,,,,FF,,,,,,,,1.8542,,,,,,,,,,,,,,,,,,,,,,610302f87498dc46e622b4bb,61036b98419789b8498b9e80,2021-07-29_21h02.42.511,Simcolourproject_2stim_asymm_v5,2020.2.10,Win32,60,61025ae37ef11b136ea224fe,,,,,,,,,3485,-60.72212113,-91.27783638,1,0,0,response5disk,,3,-12.94440889,7.611091137,1,0,0,rectangle,-12.94440889,7.611091137,1,0,0,-12.94440889,7.611091137,1,0,0,1,37,197,99,1,,,,,,,,
,,,,,,,,,,,,,FF,,,,,,,,1.1541,,,,,,,,,,,,,,,,,,,,,,610302f87498dc46e622b4bb,61036b98419789b8498b9e80,2021-07-29_21h02.42.511,Simcolourproject_2stim_asymm_v5,2020.2.10,Win32,60,61025ae37ef11b136ea224fe,,,,,,,,,995,-42.94441032,-67.94446802,1,0,0,response5disk,,3,0.388925076,-0.166687012,1,0,0,rectangle,0.388925076,-0.166687012,1,0,0,0.388925076,-0.166687012,1,0,0,1,38,198,65,1,,,,,,,,
,,,,,,,,,,,,,FF,,,,,,,,1.7429,,,,,,,,,,,,,,,,,,,,,,610302f87498dc46e622b4bb,61036b98419789b8498b9e80,2021-07-29_21h02.42.511,Simcolourproject_2stim_asymm_v5,2020.2.10,Win32,60,61025ae37ef11b136ea224fe,,,,,,,,,134,64.83337259,-34.61116701,1,0,0,response3disk,,5,12.61114788,3.166646481,1,0,0,rectangle,12.61114788,3.166646481,1,0,0,12.61114788,3.166646481,1,0,0,1,39,199,22,1,,,,,,,,
,,,,,,,,,,,,,FF,,,,,,,,1.8786,,,,,,,,,,,,,,,,,,,,,,610302f87498dc46e622b4bb,61036b98419789b8498b9e80,2021-07-29_21h02.42.511,Simcolourproject_2stim_asymm_v5,2020.2.10,Win32,60,61025ae37ef11b136ea224fe,,,,,,,,,3995,-29.61107635,-81.27780199,1,0,0,response5disk,,3,1.500104056,3.166646481,1,0,0,rectangle,1.500104056,3.166646481,1,0,0,1.500104056,3.166646481,1,0,0,1,40,200,57,1,,,,,,,,
,,,,,,,,,,,,,FF,,,,,,,,1.7915,,,,,,,,,,,,,,,,,,,,,,610302f87498dc46e622b4bb,61036b98419789b8498b9e80,2021-07-29_21h02.42.511,Simcolourproject_2stim_asymm_v5,2020.2.10,Win32,60,61025ae37ef11b136ea224fe,,,,,,,,,915,74.83337307,-22.38891029,1,0,0,response3disk,,5,-0.722118272,3.166646481,1,0,0,rectangle,-0.722118272,3.166646481,1,0,0,-0.722118272,3.166646481,1,0,0,1,41,201,15,1,,,,,,,,
,,,,,,,,,,,,,FF,,,,,,,,1.1733,,,,,,,,,,,,,,,,,,,,,,610302f87498dc46e622b4bb,61036b98419789b8498b9e80,2021-07-29_21h02.42.511,Simcolourproject_2stim_asymm_v5,2020.2.10,Win32,60,61025ae37ef11b136ea224fe,,,,,,,,,241,93.72233068,50.94442654,1,0,0,response1disk,,6,12.61114788,5.3888349,1,0,0,rectangle,12.61114788,5.3888349,1,0,0,12.61114788,5.3888349,1,0,0,1,42,202,140,1,,,,,,,,
,,,,,,,,,,,,,FF,,,,,,,,1.2942,,,,,,,,,,,,,,,,,,,,,,610302f87498dc46e622b4bb,61036b98419789b8498b9e80,2021-07-29_21h02.42.511,Simcolourproject_2stim_asymm_v5,2020.2.10,Win32,60,61025ae37ef11b136ea224fe,,,,,,,,,3386,-96.2777462,-46.8333559,1,0,0,response5disk,,2,-18.4998969,-5.722242832,1,0,0,rectangle,-18.4998969,-5.722242832,1,0,0,-18.4998969,-5.722242832,1,0,0,1,43,203,51,1,,,,,,,,
,,,,,,,,,,,,,FF,,,,,,,,2.5951,,,,,,,,,,,,,,,,,,,,,,610302f87498dc46e622b4bb,61036b98419789b8498b9e80,2021-07-29_21h02.42.511,Simcolourproject_2stim_asymm_v5,2020.2.10,Win32,60,61025ae37ef11b136ea224fe,,,,,,,,,2006,61.50010692,50.94442654,1,0,0,response1disk,,6,-19.61107588,8.722202301,1,0,0,rectangle,-19.61107588,8.722202301,1,0,0,-19.61107588,8.722202301,1,0,0,1,44,204,54,1,,,,,,,,
,,,,,,,,,,,,,FF,,,,,,,,0.8884,,,,,,,,,,,,,,,,,,,,,,610302f87498dc46e622b4bb,61036b98419789b8498b9e80,2021-07-29_21h02.42.511,Simcolourproject_2stim_asymm_v5,2020.2.10,Win32,60,61025ae37ef11b136ea224fe,,,,,,,,,2780,-80.72212209,45.38887072,1,0,0,response7disk,,1,-15.16663122,10.94442463,1,0,0,rectangle,-15.16663122,10.94442463,1,0,0,-15.16663122,10.94442463,1,0,0,1,45,205,113,1,,,,,,,,
,,,,,,,,,,,,,FF,,,,,,,,1.3472,,,,,,,,,,,,,,,,,,,,,,610302f87498dc46e622b4bb,61036b98419789b8498b9e80,2021-07-29_21h02.42.511,Simcolourproject_2stim_asymm_v5,2020.2.10,Win32,60,61025ae37ef11b136ea224fe,,,,,,,,,3183,73.72232972,36.49994749,1,0,0,response1disk,,6,13.72225904,10.94442463,1,0,0,rectangle,13.72225904,10.94442463,1,0,0,13.72225904,10.94442463,1,0,0,1,46,206,8,1,,,,,,,,
,,,,,,,,,,,,,FF,,,,,,,,1.2058,,,,,,,,,,,,,,,,,,,,,,610302f87498dc46e622b4bb,61036b98419789b8498b9e80,2021-07-29_21h02.42.511,Simcolourproject_2stim_asymm_v5,2020.2.10,Win32,60,61025ae37ef11b136ea224fe,,,,,,,,,632,-62.94441128,36.49994749,1,0,0,response7disk,,1,-2.944408417,-1.277798176,1,0,0,rectangle,-2.944408417,-1.277798176,1,0,0,-2.944408417,-1.277798176,1,0,0,1,47,207,31,1,,,,,,,,
,,,,,,,,,,,,,FF,,,,,,,,1.3243,,,,,,,,,,,,,,,,,,,,,,610302f87498dc46e622b4bb,61036b98419789b8498b9e80,2021-07-29_21h02.42.511,Simcolourproject_2stim_asymm_v5,2020.2.10,Win32,60,61025ae37ef11b136ea224fe,,,,,,,,,2851,52.61114979,89.83331728,1,0,0,response1disk,,7,-4.055519581,-11.27779865,1,0,0,rectangle,-4.055519581,-11.27779865,1,0,0,-4.055519581,-11.27779865,1,0,0,1,48,208,114,1,,,,,,,,
,,,,,,,,,,,,,FF,,,,,,,,1.0104,,,,,,,,,,,,,,,,,,,,,,610302f87498dc46e622b4bb,61036b98419789b8498b9e80,2021-07-29_21h02.42.511,Simcolourproject_2stim_asymm_v5,2020.2.10,Win32,60,61025ae37ef11b136ea224fe,,,,,,,,,889,-68.49989928,38.72220373,1,0,0,response7disk,,1,-11.83329773,10.94442463,1,0,0,rectangle,-11.83329773,10.94442463,1,0,0,-11.83329773,10.94442463,1,0,0,1,49,209,3,1,,,,,,,,
,,,,,,,,,,,,,FF,,,,,,,,2.1317,,,,,,,,,,,,,,,,,,,,,,610302f87498dc46e622b4bb,61036b98419789b8498b9e80,2021-07-29_21h02.42.511,Simcolourproject_2stim_asymm_v5,2020.2.10,Win32,60,61025ae37ef11b136ea224fe,,,,,,,,,793,70.38892841,36.49994749,1,0,0,response1disk,,6,14.83337021,0.944424152,1,0,0,rectangle,14.83337021,0.944424152,1,0,0,14.83337021,0.944424152,1,0,0,1,50,210,133,1,,,,,,,,
,,,,,,,,,,,,,FF,,,,,,,,1.5268,,,,,,,,,,,,,,,,,,,,,,610302f87498dc46e622b4bb,61036b98419789b8498b9e80,2021-07-29_21h02.42.511,Simcolourproject_2stim_asymm_v5,2020.2.10,Win32,60,61025ae37ef11b136ea224fe,,,,,,,,,2163,-46.27774382,-91.27783638,1,0,0,response5disk,,3,-6.277741909,-0.166687012,1,0,0,rectangle,-6.277741909,-0.166687012,1,0,0,-6.277741909,-0.166687012,1,0,0,1,51,211,96,1,,,,,,,,
,,,,,,,,,,,,,FF,,,,,,,,1.8092,,,,,,,,,,,,,,,,,,,,,,610302f87498dc46e622b4bb,61036b98419789b8498b9e80,2021-07-29_21h02.42.511,Simcolourproject_2stim_asymm_v5,2020.2.10,Win32,60,61025ae37ef11b136ea224fe,,,,,,,,,3649,41.50010596,-80.16669083,1,0,0,response3disk,,4,-5.166630745,8.722202301,1,0,0,rectangle,-5.166630745,8.722202301,1,0,0,-5.166630745,8.722202301,1,0,0,1,52,212,50,1,,,,,,,,
,,,,,,,,,,,,,FF,,,,,,,,2.2876,,,,,,,,,,,,,,,,,,,,,,610302f87498dc46e622b4bb,61036b98419789b8498b9e80,2021-07-29_21h02.42.511,Simcolourproject_2stim_asymm_v5,2020.2.10,Win32,60,61025ae37ef11b136ea224fe,,,,,,,,,1738,41.50010596,72.05553865,1,0,0,response1disk,,7,-10.72211875,13.16664696,1,0,0,rectangle,-67.38885593,-111.2778373,1,0,0,-7.388853073,8.722202301,1,0,0,1,53,213,59,1,,response5disk_3,TRUE,3,3,"[21,138,188,62,251,241,32,264,144,151,219,280,300,228,284,17,214,136,150,102]",1.9249,rectangle
,,,,,,,,,,,,,FF,,,,,,,,2.6804,,,,,,,,,,,,,,,,,,,,,,610302f87498dc46e622b4bb,61036b98419789b8498b9e80,2021-07-29_21h02.42.511,Simcolourproject_2stim_asymm_v5,2020.2.10,Win32,60,61025ae37ef11b136ea224fe,,,,,,,,,1655,61.50010692,-49.05557823,1,0,0,response3disk,,5,8.166703224,-1.277798176,1,0,0,rectangle,8.166703224,-1.277798176,1,0,0,8.166703224,-1.277798176,1,0,0,1,54,214,72,1,,,,,,,,
,,,,,,,,,,,,,FF,,,,,,,,1.7044,,,,,,,,,,,,,,,,,,,,,,610302f87498dc46e622b4bb,61036b98419789b8498b9e80,2021-07-29_21h02.42.511,Simcolourproject_2stim_asymm_v5,2020.2.10,Win32,60,61025ae37ef11b136ea224fe,,,,,,,,,368,-82.94441223,-49.05557823,1,0,0,response5disk,,2,7.05559206,3.166646481,1,0,0,rectangle,7.05559206,3.166646481,1,0,0,7.05559206,3.166646481,1,0,0,1,55,215,82,1,,,,,,,,
,,,,,,,,,,,,,FF,,,,,,,,1.9207,,,,,,,,,,,,,,,,,,,,,,610302f87498dc46e622b4bb,61036b98419789b8498b9e80,2021-07-29_21h02.42.511,Simcolourproject_2stim_asymm_v5,2020.2.10,Win32,60,61025ae37ef11b136ea224fe,,,,,,,,,2243,92.6111517,42.05553722,1,0,0,response1disk,,6,-11.83329773,-2.38890934,1,0,0,rectangle,-11.83329773,-2.38890934,1,0,0,-11.83329773,-2.38890934,1,0,0,1,56,216,66,1,,,,,,,,
,,,,,,,,,,,,,FF,,,,,,,,1.0237,,,,,,,,,,,,,,,,,,,,,,610302f87498dc46e622b4bb,61036b98419789b8498b9e80,2021-07-29_21h02.42.511,Simcolourproject_2stim_asymm_v5,2020.2.10,Win32,60,61025ae37ef11b136ea224fe,,,,,,,,,373,-48.49989833,-81.27780199,1,0,0,response5disk,,3,9.277882205,9.833313465,1,0,0,rectangle,9.277882205,9.833313465,1,0,0,9.277882205,9.833313465,1,0,0,1,57,217,67,1,,,,,,,,
,,,,,,,,,,,,,FF,,,,,,,,1.4927,,,,,,,,,,,,,,,,,,,,,,610302f87498dc46e622b4bb,61036b98419789b8498b9e80,2021-07-29_21h02.42.511,Simcolourproject_2stim_asymm_v5,2020.2.10,Win32,60,61025ae37ef11b136ea224fe,,,,,,,,,2037,-32.94440985,-76.83335733,1,0,0,response5disk,,3,10.38892555,3.166646481,1,0,0,rectangle,55.94448328,-75.72228008,1,0,0,4.833369732,0.944424152,1,0,0,1,58,218,43,1,,response3disk_3,TRUE,4,4,"[21,138,188,62,251,241,32,264,144,151,219,280,300,228,284,17,214,136,150,102]",1.5402,rectangle
,,,,,,,,,,,,,FF,,,,,,,,1.7582,,,,,,,,,,,,,,,,,,,,,,610302f87498dc46e622b4bb,61036b98419789b8498b9e80,2021-07-29_21h02.42.511,Simcolourproject_2stim_asymm_v5,2020.2.10,Win32,60,61025ae37ef11b136ea224fe,,,,,,,,,2571,58.16670561,35.38883633,1,0,0,response1disk,,6,-2.944408417,-7.94446516,1,0,0,rectangle,-2.944408417,-7.94446516,1,0,0,-2.944408417,-7.94446516,1,0,0,1,59,219,102,1,,,,,,,,
,,,,,,,,,,,,,FF,,,,,,,,2.7469,,,,,,,,,,,,,,,,,,,,,,610302f87498dc46e622b4bb,61036b98419789b8498b9e80,2021-07-29_21h02.42.511,Simcolourproject_2stim_asymm_v5,2020.2.10,Win32,60,61025ae37ef11b136ea224fe,,,,,,,,,2524,77.0555954,-34.61116701,1,0,0,response3disk,,5,-12.94440889,6.499946064,1,0,0,rectangle,-12.94440889,6.499946064,1,0,0,-12.94440889,6.499946064,1,0,0,1,60,220,52,1,,,,,,,,
,,,,,,,,,,,,,FF,,,,,,,,1.2227,,,,,,,,,,,,,,,,,,,,,,610302f87498dc46e622b4bb,61036b98419789b8498b9e80,2021-07-29_21h02.42.511,Simcolourproject_2stim_asymm_v5,2020.2.10,Win32,60,61025ae37ef11b136ea224fe,,,,,,,,,3840,80.38892889,-55.72227912,1,0,0,response3disk,,5,-0.722118272,3.166646481,1,0,0,rectangle,-0.722118272,3.166646481,1,0,0,-0.722118272,3.166646481,1,0,0,1,61,221,148,1,,,,,,,,
,,,,,,,,,,,,,FF,,,,,,,,1.2526,,,,,,,,,,,,,,,,,,,,,,610302f87498dc46e622b4bb,61036b98419789b8498b9e80,2021-07-29_21h02.42.511,Simcolourproject_2stim_asymm_v5,2020.2.10,Win32,60,61025ae37ef11b136ea224fe,,,,,,,,,2590,88.16670704,47.61105914,1,0,0,response1disk,,6,2.611147404,9.833313465,1,0,0,rectangle,2.611147404,9.833313465,1,0,0,2.611147404,9.833313465,1,0,0,1,62,222,28,1,,,,,,,,
,,,,,,,,,,,,,FF,,,,,,,,1.234,,,,,,,,,,,,,,,,,,,,,,610302f87498dc46e622b4bb,61036b98419789b8498b9e80,2021-07-29_21h02.42.511,Simcolourproject_2stim_asymm_v5,2020.2.10,Win32,60,61025ae37ef11b136ea224fe,,,,,,,,,239,90.38892937,58.72220469,1,0,0,response1disk,,6,-6.277741909,-3.500054412,1,0,0,rectangle,-6.277741909,-3.500054412,1,0,0,-6.277741909,-3.500054412,1,0,0,1,63,223,108,1,,,,,,,,
,,,,,,,,,,,,,FF,,,,,,,,1.96,,,,,,,,,,,,,,,,,,,,,,610302f87498dc46e622b4bb,61036b98419789b8498b9e80,2021-07-29_21h02.42.511,Simcolourproject_2stim_asymm_v5,2020.2.10,Win32,60,61025ae37ef11b136ea224fe,,,,,,,,,4276,89.2778182,39.8333149,1,0,0,response1disk,,6,-17.38885355,9.833313465,1,0,0,rectangle,-17.38885355,9.833313465,1,0,0,-17.38885355,9.833313465,1,0,0,1,64,224,124,1,,,,,,,,
,,,,,,,,,,,,,FF,,,,,,,,3.2097,,,,,,,,,,,,,,,,,,,,,,610302f87498dc46e622b4bb,61036b98419789b8498b9e80,2021-07-29_21h02.42.511,Simcolourproject_2stim_asymm_v5,2020.2.10,Win32,60,61025ae37ef11b136ea224fe,,,,,,,,,2217,25.94448185,-71.27780151,1,0,0,response3disk,,4,-17.38885355,-2.38890934,1,0,0,rectangle,-17.38885355,-2.38890934,1,0,0,-17.38885355,-2.38890934,1,0,0,1,65,225,89,1,,,,,,,,
,,,,,,,,,,,,,FF,,,,,,,,2.0949,,,,,,,,,,,,,,,,,,,,,,610302f87498dc46e622b4bb,61036b98419789b8498b9e80,2021-07-29_21h02.42.511,Simcolourproject_2stim_asymm_v5,2020.2.10,Win32,60,61025ae37ef11b136ea224fe,,,,,,,,,2047,81.50010787,-50.1666894,1,0,0,response3disk,,5,19.27781487,-1.277798176,1,0,0,rectangle,19.27781487,-1.277798176,1,0,0,19.27781487,-1.277798176,1,0,0,1,66,226,39,1,,,,,,,,
,,,,,,,,,,,,,FF,,,,,,,,1.8471,,,,,,,,,,,,,,,,,,,,,,610302f87498dc46e622b4bb,61036b98419789b8498b9e80,2021-07-29_21h02.42.511,Simcolourproject_2stim_asymm_v5,2020.2.10,Win32,60,61025ae37ef11b136ea224fe,,,,,,,,,120,85.94448471,-30.16668844,1,0,0,response3disk,,5,-7.388853073,2.055535316,1,0,0,rectangle,-81.83330107,52.0555377,1,0,0,-22.94440937,13.16664696,1,0,0,1,67,227,60,1,,response7disk_3,TRUE,1,1,"[21,138,188,62,251,241,32,264,144,151,219,280,300,228,284,17,214,136,150,102]",1.3735,rectangle
,,,,,,,,,,,,,FF,,,,,,,,2.1465,,,,,,,,,,,,,,,,,,,,,,610302f87498dc46e622b4bb,61036b98419789b8498b9e80,2021-07-29_21h02.42.511,Simcolourproject_2stim_asymm_v5,2020.2.10,Win32,60,61025ae37ef11b136ea224fe,,,,,,,,,2852,93.72233068,63.16664934,1,0,0,response1disk,,6,-1.833297253,8.722202301,1,0,0,rectangle,-1.833297253,8.722202301,1,0,0,-1.833297253,8.722202301,1,0,0,1,68,228,149,1,,,,,,,,
,,,,,,,,,,,,,FF,,,,,,,,1.6119,,,,,,,,,,,,,,,,,,,,,,610302f87498dc46e622b4bb,61036b98419789b8498b9e80,2021-07-29_21h02.42.511,Simcolourproject_2stim_asymm_v5,2020.2.10,Win32,60,61025ae37ef11b136ea224fe,,,,,,,,,876,89.2778182,62.05553818,1,0,0,response1disk,,6,-10.72211875,-2.38890934,1,0,0,rectangle,-10.72211875,-2.38890934,1,0,0,-10.72211875,-2.38890934,1,0,0,1,69,229,24,1,,,,,,,,
,,,,,,,,,,,,,FF,,,,,,,,1.7635,,,,,,,,,,,,,,,,,,,,,,610302f87498dc46e622b4bb,61036b98419789b8498b9e80,2021-07-29_21h02.42.511,Simcolourproject_2stim_asymm_v5,2020.2.10,Win32,60,61025ae37ef11b136ea224fe,,,,,,,,,2916,47.05559397,94.27776194,1,0,0,response1disk,,7,7.05559206,10.94442463,1,0,0,rectangle,7.05559206,10.94442463,1,0,0,7.05559206,10.94442463,1,0,0,1,70,230,120,1,,,,,,,,
,,,,,,,,,,,,,FF,,,,,,,,1.2745,,,,,,,,,,,,,,,,,,,,,,610302f87498dc46e622b4bb,61036b98419789b8498b9e80,2021-07-29_21h02.42.511,Simcolourproject_2stim_asymm_v5,2020.2.10,Win32,60,61025ae37ef11b136ea224fe,,,,,,,,,168,39.27781582,102.0555401,1,0,0,response1disk,,7,-2.944408417,12.05553579,1,0,0,rectangle,-2.944408417,12.05553579,1,0,0,-2.944408417,12.05553579,1,0,0,1,71,231,115,1,,,,,,,,
,,,,,,,,,,,,,FF,,,,,,,,1.6764,,,,,,,,,,,,,,,,,,,,,,610302f87498dc46e622b4bb,61036b98419789b8498b9e80,2021-07-29_21h02.42.511,Simcolourproject_2stim_asymm_v5,2020.2.10,Win32,60,61025ae37ef11b136ea224fe,,,,,,,,,3981,31.50010549,70.94442749,1,0,0,response1disk,,7,-20.72211923,-5.722242832,1,0,0,rectangle,-20.72211923,-5.722242832,1,0,0,-20.72211923,-5.722242832,1,0,0,1,72,232,53,1,,,,,,,,
,,,,,,,,,,,,,FF,,,,,,,,2.1431,,,,,,,,,,,,,,,,,,,,,,610302f87498dc46e622b4bb,61036b98419789b8498b9e80,2021-07-29_21h02.42.511,Simcolourproject_2stim_asymm_v5,2020.2.10,Win32,60,61025ae37ef11b136ea224fe,,,,,,,,,3071,77.0555954,40.94442606,1,0,0,response1disk,,6,9.277882205,3.166646481,1,0,0,rectangle,9.277882205,3.166646481,1,0,0,9.277882205,3.166646481,1,0,0,1,73,233,111,1,,,,,,,,
,,,,,,,,,,,,,FF,,,,,,,,3.2526,,,,,,,,,,,,,,,,,,,,,,610302f87498dc46e622b4bb,61036b98419789b8498b9e80,2021-07-29_21h02.42.511,Simcolourproject_2stim_asymm_v5,2020.2.10,Win32,60,61025ae37ef11b136ea224fe,,,,,,,,,2332,90.38892937,30.94442558,1,0,0,response1disk,,6,-4.055519581,4.277757645,1,0,0,rectangle,-4.055519581,4.277757645,1,0,0,-4.055519581,4.277757645,1,0,0,1,74,234,145,1,,,,,,,,
,,,,,,,,,,,,,FF,,,,,,,,1.7576,,,,,,,,,,,,,,,,,,,,,,610302f87498dc46e622b4bb,61036b98419789b8498b9e80,2021-07-29_21h02.42.511,Simcolourproject_2stim_asymm_v5,2020.2.10,Win32,60,61025ae37ef11b136ea224fe,,,,,,,,,503,95.94448519,-53.5000568,1,0,0,response3disk,,5,15.94448137,-3.500054412,1,0,0,rectangle,15.94448137,-3.500054412,1,0,0,15.94448137,-3.500054412,1,0,0,1,75,235,85,1,,,,,,,,
,,,,,,,,,,,,,FF,,,,,,,,1.3646,,,,,,,,,,,,,,,,,,,,,,610302f87498dc46e622b4bb,61036b98419789b8498b9e80,2021-07-29_21h02.42.511,Simcolourproject_2stim_asymm_v5,2020.2.10,Win32,60,61025ae37ef11b136ea224fe,,,,,,,,,840,89.2778182,36.49994749,1,0,0,response1disk,,6,-20.72211923,-1.277798176,1,0,0,rectangle,-20.72211923,-1.277798176,1,0,0,-20.72211923,-1.277798176,1,0,0,1,76,236,151,1,,,,,,,,
,,,,,,,,,,,,,FF,,,,,,,,2.0311,,,,,,,,,,,,,,,,,,,,,,610302f87498dc46e622b4bb,61036b98419789b8498b9e80,2021-07-29_21h02.42.511,Simcolourproject_2stim_asymm_v5,2020.2.10,Win32,60,61025ae37ef11b136ea224fe,,,,,,,,,1984,41.50010596,68.72220516,1,0,0,response1disk,,7,-9.611075401,7.611091137,1,0,0,rectangle,-9.611075401,7.611091137,1,0,0,-9.611075401,7.611091137,1,0,0,1,77,237,121,1,,,,,,,,
,,,,,,,,,,,,,FF,,,,,,,,1.4703,,,,,,,,,,,,,,,,,,,,,,610302f87498dc46e622b4bb,61036b98419789b8498b9e80,2021-07-29_21h02.42.511,Simcolourproject_2stim_asymm_v5,2020.2.10,Win32,60,61025ae37ef11b136ea224fe,,,,,,,,,1928,102.6111522,-32.38891077,1,0,0,response3disk,,5,9.277882205,8.722202301,1,0,0,rectangle,9.277882205,8.722202301,1,0,0,9.277882205,8.722202301,1,0,0,1,78,238,13,1,,,,,,,,
,,,,,,,,,,,,,FF,,,,,,,,1.4952,,,,,,,,,,,,,,,,,,,,,,610302f87498dc46e622b4bb,61036b98419789b8498b9e80,2021-07-29_21h02.42.511,Simcolourproject_2stim_asymm_v5,2020.2.10,Win32,60,61025ae37ef11b136ea224fe,,,,,,,,,729,-96.2777462,-52.38891172,1,0,0,response5disk,,2,-9.611075401,-1.277798176,1,0,0,rectangle,-9.611075401,-1.277798176,1,0,0,-9.611075401,-1.277798176,1,0,0,1,79,239,125,1,,,,,,,,
,,,,,,,,,,,,,FF,,,,,,,,1.5602,,,,,,,,,,,,,,,,,,,,,,610302f87498dc46e622b4bb,61036b98419789b8498b9e80,2021-07-29_21h02.42.511,Simcolourproject_2stim_asymm_v5,2020.2.10,Win32,60,61025ae37ef11b136ea224fe,,,,,,,,,1247,83.7223302,43.16664839,1,0,0,response1disk,,6,2.611147404,10.94442463,1,0,0,rectangle,95.94448519,-39.05557775,1,0,0,5.944480896,0.944424152,1,0,0,1,80,240,135,1,,response3disk_3,TRUE,5,5,"[21,138,188,62,251,241,32,264,144,151,219,280,300,228,284,17,214,136,150,102]",1.6132,rectangle
,,,,,,,,,,,,,FF,,,,,,,,1.6857,,,,,,,,,,,,,,,,,,,,,,610302f87498dc46e622b4bb,61036b98419789b8498b9e80,2021-07-29_21h02.42.511,Simcolourproject_2stim_asymm_v5,2020.2.10,Win32,60,61025ae37ef11b136ea224fe,,,,,,,,,3682,47.05559397,-90.1666913,1,0,0,response3disk,,4,1.500104056,-4.611165577,1,0,0,rectangle,1.500104056,-4.611165577,1,0,0,1.500104056,-4.611165577,1,0,0,1,81,241,25,1,,,,,,,,
,,,,,,,,,,,,,FF,,,,,,,,1.089,,,,,,,,,,,,,,,,,,,,,,610302f87498dc46e622b4bb,61036b98419789b8498b9e80,2021-07-29_21h02.42.511,Simcolourproject_2stim_asymm_v5,2020.2.10,Win32,60,61025ae37ef11b136ea224fe,,,,,,,,,4347,-72.94441175,-34.61116701,1,0,0,response5disk,,2,-30.7221197,-7.94446516,1,0,0,rectangle,-30.7221197,-7.94446516,1,0,0,-30.7221197,-7.94446516,1,0,0,1,82,242,101,1,,,,,,,,
