key_resp.keys,key_resp.rt,key_resp_14.keys,key_resp_14.rt,key_resp_15.keys,key_resp_15.rt,key_resp_17.keys,key_resp_17.rt,key_resp_9.keys,key_resp_9.rt,key_resp_10.keys,key_resp_10.rt,practice_comparison,Ecc,mouse_5.x,mouse_5.y,mouse_5.leftButton,mouse_5.midButton,mouse_5.rightButton,mouse_5.clicked_name,pracsimilarity,response_time,mouse_10.x,mouse_10.y,mouse_10.leftButton,mouse_10.midButton,mouse_10.rightButton,mouse_10.clicked_name,mouse_7.x,mouse_7.y,mouse_7.leftButton,mouse_7.midButton,mouse_7.rightButton,mouse_6.x,mouse_6.y,mouse_6.leftButton,mouse_6.midButton,mouse_6.rightButton,duringprac.thisRepN,duringprac.thisTrialN,duringprac.thisN,duringprac.thisIndex,duringprac.ran,participant,session,date,expName,psychopyVersion,OS,frameRate,study_id,mouse_7.clicked_name,catchpracsimilarity,catch_response_time,catchnumberprac,catchtrialorderprac,mouse_6.clicked_name,key_resp_22.keys,key_resp_22.rt,realcomparison,mouse.x,mouse.y,mouse.leftButton,mouse.midButton,mouse.rightButton,mouse.clicked_name,Colour2,similarity,mouse_2.x,mouse_2.y,mouse_2.leftButton,mouse_2.midButton,mouse_2.rightButton,mouse_2.clicked_name,mouse_3.x,mouse_3.y,mouse_3.leftButton,mouse_3.midButton,mouse_3.rightButton,mouse_11.x,mouse_11.y,mouse_11.leftButton,mouse_11.midButton,mouse_11.rightButton,trials_2.thisRepN,trials_2.thisTrialN,trials_2.thisN,trials_2.thisIndex,trials_2.ran,Colour1,mouse_3.clicked_name,catchornah,catchsimilarity,catchnumber,catchtrialorder,catchRT,mouse_11.clicked_name
space,1.5506,space,15.3901,space,24.3159,space,7.1441,space,4.5242,space,4.837,110,FF,56,125.6000061,1,0,0,response1disk_5,7,5.9685,0,4,1,0,0,rectangle_8,0,4,1,0,0,0,4,1,0,0,0,0,0,0,1,61035b9030a71cfbc7b24897,610364d5b25cdebc6342c20d,2021-07-29_22h33.38.000,Simcolourproject_2stim_asymm_v5,2020.2.10,Win32,60,61025ae37ef11b136ea224fe,,,,,,,,,,,,,,,,,,,,,,,,,,,,,,,,,,,,,,,,,,,,,,
,,,,,,,,,,,,4,PF,104,44.79998779,1,0,0,response1disk_5,6,4.2004,1.600036621,1.600006104,1,0,0,rectangle_8,-104,40,1,0,0,2.400024414,-7.200012207,1,0,0,0,1,1,6,1,61035b9030a71cfbc7b24897,610364d5b25cdebc6342c20d,2021-07-29_22h33.38.000,Simcolourproject_2stim_asymm_v5,2020.2.10,Win32,60,61025ae37ef11b136ea224fe,response7disk_7,1,3.6998,1,"[2,5]",rectangle_4,,,,,,,,,,,,,,,,,,,,,,,,,,,,,,,,,,,,,,,,
,,,,,,,,,,,,106,FF,61.60003662,100.7999878,1,0,0,response1disk_5,7,2.016,-1.599975586,-1.600006104,1,0,0,rectangle_8,-1.599975586,-1.600006104,1,0,0,-1.599975586,-1.600006104,1,0,0,0,2,2,5,1,61035b9030a71cfbc7b24897,610364d5b25cdebc6342c20d,2021-07-29_22h33.38.000,Simcolourproject_2stim_asymm_v5,2020.2.10,Win32,60,61025ae37ef11b136ea224fe,,,,,,,,,,,,,,,,,,,,,,,,,,,,,,,,,,,,,,,,,,,,,,
,,,,,,,,,,,,24,PF,55.20001221,103.1999817,1,0,0,response1disk_5,7,4.4826,-1.599975586,3.199981689,1,0,0,rectangle_8,-1.599975586,3.199981689,1,0,0,-1.599975586,3.199981689,1,0,0,0,3,3,4,1,61035b9030a71cfbc7b24897,610364d5b25cdebc6342c20d,2021-07-29_22h33.38.000,Simcolourproject_2stim_asymm_v5,2020.2.10,Win32,60,61025ae37ef11b136ea224fe,,,,,,,,,,,,,,,,,,,,,,,,,,,,,,,,,,,,,,,,,,,,,,
,,,,,,,,,,,,90,PF,106.4000244,43.19998169,1,0,0,response1disk_5,6,4.2478,-4,-1.600006104,1,0,0,rectangle_8,-96,51.19998169,1,0,0,6.400024414,0,1,0,0,0,4,4,2,1,61035b9030a71cfbc7b24897,610364d5b25cdebc6342c20d,2021-07-29_22h33.38.000,Simcolourproject_2stim_asymm_v5,2020.2.10,Win32,60,61025ae37ef11b136ea224fe,response7disk_7,1,2.1831,1,"[2,5]",rectangle_4,,,,,,,,,,,,,,,,,,,,,,,,,,,,,,,,,,,,,,,,
,,,,,,,,,,,,144,FF,110.4000244,49.6000061,1,0,0,response1disk_5,6,6.6996,-16.79998779,-11.20001221,1,0,0,rectangle_8,-16.79998779,-11.20001221,1,0,0,-16.79998779,-11.20001221,1,0,0,0,5,5,3,1,61035b9030a71cfbc7b24897,610364d5b25cdebc6342c20d,2021-07-29_22h33.38.000,Simcolourproject_2stim_asymm_v5,2020.2.10,Win32,60,61025ae37ef11b136ea224fe,,,,,,,,,,,,,,,,,,,,,,,,,,,,,,,,,,,,,,,,,,,,,,
,,,,,,,,,,,,143,PF,63.20001221,-111.2000122,1,0,0,response3disk_5,4,1.8644,4.799987793,-12,1,0,0,rectangle_8,4.799987793,-12,1,0,0,4.799987793,-12,1,0,0,0,6,6,1,1,61035b9030a71cfbc7b24897,610364d5b25cdebc6342c20d,2021-07-29_22h33.38.000,Simcolourproject_2stim_asymm_v5,2020.2.10,Win32,60,61025ae37ef11b136ea224fe,,,,,,,,,,,,,,,,,,,,,,,,,,,,,,,,,,,,,,,,,,,,,,
,,,,,,,,,,,,,FF,,,,,,,,3.0493,,,,,,,,,,,,,,,,,,,,,,61035b9030a71cfbc7b24897,610364d5b25cdebc6342c20d,2021-07-29_22h33.38.000,Simcolourproject_2stim_asymm_v5,2020.2.10,Win32,60,61025ae37ef11b136ea224fe,,,,,,,space,5.0748,3195,-36,101.6000061,1,0,0,response7disk,,0,-15.20001221,2.399993896,1,0,0,rectangle,-15.20001221,2.399993896,1,0,0,-15.20001221,2.399993896,1,0,0,0,0,0,107,1,,,,,,,,
,,,,,,,,,,,,,FF,,,,,,,,3.0494,,,,,,,,,,,,,,,,,,,,,,61035b9030a71cfbc7b24897,610364d5b25cdebc6342c20d,2021-07-29_22h33.38.000,Simcolourproject_2stim_asymm_v5,2020.2.10,Win32,60,61025ae37ef11b136ea224fe,,,,,,,,,1117,-44,-101.6000366,1,0,0,response5disk,,3,4.799987793,4,1,0,0,rectangle,4.799987793,4,1,0,0,4.799987793,4,1,0,0,0,1,1,80,1,,,,,,,,
,,,,,,,,,,,,,FF,,,,,,,,3.0838,,,,,,,,,,,,,,,,,,,,,,61035b9030a71cfbc7b24897,610364d5b25cdebc6342c20d,2021-07-29_22h33.38.000,Simcolourproject_2stim_asymm_v5,2020.2.10,Win32,60,61025ae37ef11b136ea224fe,,,,,,,,,3515,-41.59997559,-94.40002441,1,0,0,response5disk,,3,2.400024414,4,1,0,0,rectangle,2.400024414,4,1,0,0,2.400024414,4,1,0,0,0,2,2,155,1,,,,,,,,
,,,,,,,,,,,,,FF,,,,,,,,1.2646,,,,,,,,,,,,,,,,,,,,,,61035b9030a71cfbc7b24897,610364d5b25cdebc6342c20d,2021-07-29_22h33.38.000,Simcolourproject_2stim_asymm_v5,2020.2.10,Win32,60,61025ae37ef11b136ea224fe,,,,,,,,,2899,110.4000244,-73.6000061,1,0,0,response3disk,,5,-6.399963379,-8.800018311,1,0,0,rectangle,-6.399963379,-8.800018311,1,0,0,-6.399963379,-8.800018311,1,0,0,0,3,3,91,1,,,,,,,,
,,,,,,,,,,,,,FF,,,,,,,,2.5664,,,,,,,,,,,,,,,,,,,,,,61035b9030a71cfbc7b24897,610364d5b25cdebc6342c20d,2021-07-29_22h33.38.000,Simcolourproject_2stim_asymm_v5,2020.2.10,Win32,60,61025ae37ef11b136ea224fe,,,,,,,,,1973,107.2000122,45.6000061,1,0,0,response1disk,,6,8,0.799987793,1,0,0,rectangle,8,0.799987793,1,0,0,8,0.799987793,1,0,0,0,4,4,110,1,,,,,,,,
,,,,,,,,,,,,,FF,,,,,,,,1.0001,,,,,,,,,,,,,,,,,,,,,,61035b9030a71cfbc7b24897,610364d5b25cdebc6342c20d,2021-07-29_22h33.38.000,Simcolourproject_2stim_asymm_v5,2020.2.10,Win32,60,61025ae37ef11b136ea224fe,,,,,,,,,2201,47.20001221,101.6000061,1,0,0,response1disk,,7,5.600036621,2.399993896,1,0,0,rectangle,5.600036621,2.399993896,1,0,0,5.600036621,2.399993896,1,0,0,0,5,5,94,1,,,,,,,,
,,,,,,,,,,,,,FF,,,,,,,,0.8017,,,,,,,,,,,,,,,,,,,,,,61035b9030a71cfbc7b24897,610364d5b25cdebc6342c20d,2021-07-29_22h33.38.000,Simcolourproject_2stim_asymm_v5,2020.2.10,Win32,60,61025ae37ef11b136ea224fe,,,,,,,,,4174,54.40002441,111.1999817,1,0,0,response1disk,,7,4.799987793,1.600006104,1,0,0,rectangle,4.799987793,1.600006104,1,0,0,4.799987793,1.600006104,1,0,0,0,6,6,146,1,,,,,,,,
,,,,,,,,,,,,,FF,,,,,,,,1.7327,,,,,,,,,,,,,,,,,,,,,,61035b9030a71cfbc7b24897,610364d5b25cdebc6342c20d,2021-07-29_22h33.38.000,Simcolourproject_2stim_asymm_v5,2020.2.10,Win32,60,61025ae37ef11b136ea224fe,,,,,,,,,2033,-44.79998779,-95.20001221,1,0,0,response5disk,,3,2.400024414,-4,1,0,0,rectangle,2.400024414,-4,1,0,0,2.400024414,-4,1,0,0,0,7,7,66,1,,,,,,,,
,,,,,,,,,,,,,FF,,,,,,,,0.9477,,,,,,,,,,,,,,,,,,,,,,61035b9030a71cfbc7b24897,610364d5b25cdebc6342c20d,2021-07-29_22h33.38.000,Simcolourproject_2stim_asymm_v5,2020.2.10,Win32,60,61025ae37ef11b136ea224fe,,,,,,,,,3603,38.40002441,109.6000061,1,0,0,response1disk,,7,6.400024414,1.600006104,1,0,0,rectangle,6.400024414,1.600006104,1,0,0,6.400024414,1.600006104,1,0,0,0,8,8,135,1,,,,,,,,
,,,,,,,,,,,,,FF,,,,,,,,1.1843,,,,,,,,,,,,,,,,,,,,,,61035b9030a71cfbc7b24897,610364d5b25cdebc6342c20d,2021-07-29_22h33.38.000,Simcolourproject_2stim_asymm_v5,2020.2.10,Win32,60,61025ae37ef11b136ea224fe,,,,,,,,,3422,125.6000366,-43.20001221,1,0,0,response3disk,,5,-0.799987793,2.399993896,1,0,0,rectangle,-0.799987793,2.399993896,1,0,0,-0.799987793,2.399993896,1,0,0,0,9,9,34,1,,,,,,,,
,,,,,,,,,,,,,FF,,,,,,,,1.7998,,,,,,,,,,,,,,,,,,,,,,61035b9030a71cfbc7b24897,610364d5b25cdebc6342c20d,2021-07-29_22h33.38.000,Simcolourproject_2stim_asymm_v5,2020.2.10,Win32,60,61025ae37ef11b136ea224fe,,,,,,,,,862,109.6000366,-68,1,0,0,response3disk,,5,-1.599975586,11.19998169,1,0,0,rectangle,49.60003662,-112.7999878,1,0,0,5.600036621,-8,1,0,0,0,10,10,12,1,,response3disk_3,TRUE,4,4,"[202,298,130,26,289,235,165,254,109,108,89,11,76,95,108,204,260,152,291,235]",2.0832,rectangle
,,,,,,,,,,,,,FF,,,,,,,,1.0978,,,,,,,,,,,,,,,,,,,,,,61035b9030a71cfbc7b24897,610364d5b25cdebc6342c20d,2021-07-29_22h33.38.000,Simcolourproject_2stim_asymm_v5,2020.2.10,Win32,60,61025ae37ef11b136ea224fe,,,,,,,,,285,111.2000122,59.19998169,1,0,0,response1disk,,6,0.799987793,-4,1,0,0,rectangle,0.799987793,-4,1,0,0,0.799987793,-4,1,0,0,0,11,11,106,1,,,,,,,,
,,,,,,,,,,,,,FF,,,,,,,,0.8806,,,,,,,,,,,,,,,,,,,,,,61035b9030a71cfbc7b24897,610364d5b25cdebc6342c20d,2021-07-29_22h33.38.000,Simcolourproject_2stim_asymm_v5,2020.2.10,Win32,60,61025ae37ef11b136ea224fe,,,,,,,,,3336,-37.59997559,95.19998169,1,0,0,response7disk,,0,7.200012207,-1.600006104,1,0,0,rectangle,7.200012207,-1.600006104,1,0,0,7.200012207,-1.600006104,1,0,0,0,12,12,151,1,,,,,,,,
,,,,,,,,,,,,,FF,,,,,,,,1.731,,,,,,,,,,,,,,,,,,,,,,61035b9030a71cfbc7b24897,610364d5b25cdebc6342c20d,2021-07-29_22h33.38.000,Simcolourproject_2stim_asymm_v5,2020.2.10,Win32,60,61025ae37ef11b136ea224fe,,,,,,,,,1024,49.60003662,106.3999939,1,0,0,response1disk,,7,7.200012207,0.799987793,1,0,0,rectangle,7.200012207,0.799987793,1,0,0,7.200012207,0.799987793,1,0,0,0,13,13,61,1,,,,,,,,
,,,,,,,,,,,,,FF,,,,,,,,1.0148,,,,,,,,,,,,,,,,,,,,,,61035b9030a71cfbc7b24897,610364d5b25cdebc6342c20d,2021-07-29_22h33.38.000,Simcolourproject_2stim_asymm_v5,2020.2.10,Win32,60,61025ae37ef11b136ea224fe,,,,,,,,,828,110.4000244,50.3999939,1,0,0,response1disk,,6,0,-5.600006104,1,0,0,rectangle,0,-5.600006104,1,0,0,0,-5.600006104,1,0,0,0,14,14,19,1,,,,,,,,
,,,,,,,,,,,,,FF,,,,,,,,0.9167,,,,,,,,,,,,,,,,,,,,,,61035b9030a71cfbc7b24897,610364d5b25cdebc6342c20d,2021-07-29_22h33.38.000,Simcolourproject_2stim_asymm_v5,2020.2.10,Win32,60,61025ae37ef11b136ea224fe,,,,,,,,,923,48.79998779,111.1999817,1,0,0,response1disk,,7,12.79998779,-7.200012207,1,0,0,rectangle,12.79998779,-7.200012207,1,0,0,12.79998779,-7.200012207,1,0,0,0,15,15,77,1,,,,,,,,
,,,,,,,,,,,,,FF,,,,,,,,0.7003,,,,,,,,,,,,,,,,,,,,,,61035b9030a71cfbc7b24897,610364d5b25cdebc6342c20d,2021-07-29_22h33.38.000,Simcolourproject_2stim_asymm_v5,2020.2.10,Win32,60,61025ae37ef11b136ea224fe,,,,,,,,,2872,60,112,1,0,0,response1disk,,7,4.799987793,-1.600006104,1,0,0,rectangle,4.799987793,-1.600006104,1,0,0,4.799987793,-1.600006104,1,0,0,0,16,16,156,1,,,,,,,,
,,,,,,,,,,,,,FF,,,,,,,,0.9833,,,,,,,,,,,,,,,,,,,,,,61035b9030a71cfbc7b24897,610364d5b25cdebc6342c20d,2021-07-29_22h33.38.000,Simcolourproject_2stim_asymm_v5,2020.2.10,Win32,60,61025ae37ef11b136ea224fe,,,,,,,,,2790,115.2000122,40.79998779,1,0,0,response1disk,,6,0.799987793,-2.399993896,1,0,0,rectangle,0.799987793,-2.399993896,1,0,0,0.799987793,-2.399993896,1,0,0,0,17,17,65,1,,,,,,,,
,,,,,,,,,,,,,FF,,,,,,,,1.215,,,,,,,,,,,,,,,,,,,,,,61035b9030a71cfbc7b24897,610364d5b25cdebc6342c20d,2021-07-29_22h33.38.000,Simcolourproject_2stim_asymm_v5,2020.2.10,Win32,60,61025ae37ef11b136ea224fe,,,,,,,,,1801,42.40002441,99.19998169,1,0,0,response1disk,,7,-4,5.600006104,1,0,0,rectangle,-4,5.600006104,1,0,0,-4,5.600006104,1,0,0,0,18,18,6,1,,,,,,,,
,,,,,,,,,,,,,FF,,,,,,,,0.7342,,,,,,,,,,,,,,,,,,,,,,61035b9030a71cfbc7b24897,610364d5b25cdebc6342c20d,2021-07-29_22h33.38.000,Simcolourproject_2stim_asymm_v5,2020.2.10,Win32,60,61025ae37ef11b136ea224fe,,,,,,,,,1705,40.79998779,76,1,0,0,response1disk,,7,1.600036621,1.600006104,1,0,0,rectangle,1.600036621,1.600006104,1,0,0,1.600036621,1.600006104,1,0,0,0,19,19,101,1,,,,,,,,
,,,,,,,,,,,,,FF,,,,,,,,0.5835,,,,,,,,,,,,,,,,,,,,,,61035b9030a71cfbc7b24897,610364d5b25cdebc6342c20d,2021-07-29_22h33.38.000,Simcolourproject_2stim_asymm_v5,2020.2.10,Win32,60,61025ae37ef11b136ea224fe,,,,,,,,,3796,36.79998779,76,1,0,0,response1disk,,7,7.200012207,-1.600006104,1,0,0,rectangle,7.200012207,-1.600006104,1,0,0,7.200012207,-1.600006104,1,0,0,0,20,20,30,1,,,,,,,,
,,,,,,,,,,,,,FF,,,,,,,,0.7834,,,,,,,,,,,,,,,,,,,,,,61035b9030a71cfbc7b24897,610364d5b25cdebc6342c20d,2021-07-29_22h33.38.000,Simcolourproject_2stim_asymm_v5,2020.2.10,Win32,60,61025ae37ef11b136ea224fe,,,,,,,,,1867,54.40002441,93.6000061,1,0,0,response1disk,,7,4.799987793,-3.200012207,1,0,0,rectangle,4.799987793,-3.200012207,1,0,0,4.799987793,-3.200012207,1,0,0,0,21,21,70,1,,,,,,,,
,,,,,,,,,,,,,FF,,,,,,,,1.8148,,,,,,,,,,,,,,,,,,,,,,61035b9030a71cfbc7b24897,610364d5b25cdebc6342c20d,2021-07-29_22h33.38.000,Simcolourproject_2stim_asymm_v5,2020.2.10,Win32,60,61025ae37ef11b136ea224fe,,,,,,,,,1660,56,101.6000061,1,0,0,response1disk,,7,14.40002441,-1.600006104,1,0,0,rectangle,14.40002441,-1.600006104,1,0,0,14.40002441,-1.600006104,1,0,0,0,22,22,51,1,,,,,,,,
,,,,,,,,,,,,,FF,,,,,,,,1.0833,,,,,,,,,,,,,,,,,,,,,,61035b9030a71cfbc7b24897,610364d5b25cdebc6342c20d,2021-07-29_22h33.38.000,Simcolourproject_2stim_asymm_v5,2020.2.10,Win32,60,61025ae37ef11b136ea224fe,,,,,,,,,1285,100,48.79998779,1,0,0,response1disk,,6,9.600036621,-11.20001221,1,0,0,rectangle,9.600036621,-11.20001221,1,0,0,9.600036621,-11.20001221,1,0,0,0,23,23,48,1,,,,,,,,
,,,,,,,,,,,,,FF,,,,,,,,0.669,,,,,,,,,,,,,,,,,,,,,,61035b9030a71cfbc7b24897,610364d5b25cdebc6342c20d,2021-07-29_22h33.38.000,Simcolourproject_2stim_asymm_v5,2020.2.10,Win32,60,61025ae37ef11b136ea224fe,,,,,,,,,3137,44,88,1,0,0,response1disk,,7,10.40002441,-13.6000061,1,0,0,rectangle,10.40002441,-13.6000061,1,0,0,10.40002441,-13.6000061,1,0,0,0,24,24,122,1,,,,,,,,
,,,,,,,,,,,,,FF,,,,,,,,1.1663,,,,,,,,,,,,,,,,,,,,,,61035b9030a71cfbc7b24897,610364d5b25cdebc6342c20d,2021-07-29_22h33.38.000,Simcolourproject_2stim_asymm_v5,2020.2.10,Win32,60,61025ae37ef11b136ea224fe,,,,,,,,,644,110.4000244,-38.3999939,1,0,0,response3disk,,5,0,-3.200012207,1,0,0,rectangle,48.79998779,-103.2000122,1,0,0,0.799987793,2.399993896,1,0,0,0,25,25,52,1,,response3disk_3,TRUE,4,4,"[202,298,130,26,289,235,165,254,109,108,89,11,76,95,108,204,260,152,291,235]",1.6164,rectangle
,,,,,,,,,,,,,FF,,,,,,,,1.5829,,,,,,,,,,,,,,,,,,,,,,61035b9030a71cfbc7b24897,610364d5b25cdebc6342c20d,2021-07-29_22h33.38.000,Simcolourproject_2stim_asymm_v5,2020.2.10,Win32,60,61025ae37ef11b136ea224fe,,,,,,,,,306,108,53.6000061,1,0,0,response1disk,,6,12,-2.399993896,1,0,0,rectangle,12,-2.399993896,1,0,0,12,-2.399993896,1,0,0,0,26,26,112,1,,,,,,,,
,,,,,,,,,,,,,FF,,,,,,,,0.6815,,,,,,,,,,,,,,,,,,,,,,61035b9030a71cfbc7b24897,610364d5b25cdebc6342c20d,2021-07-29_22h33.38.000,Simcolourproject_2stim_asymm_v5,2020.2.10,Win32,60,61025ae37ef11b136ea224fe,,,,,,,,,4080,48.79998779,92.79998779,1,0,0,response1disk,,7,15.20001221,0.799987793,1,0,0,rectangle,15.20001221,0.799987793,1,0,0,15.20001221,0.799987793,1,0,0,0,27,27,85,1,,,,,,,,
,,,,,,,,,,,,,FF,,,,,,,,0.6812,,,,,,,,,,,,,,,,,,,,,,61035b9030a71cfbc7b24897,610364d5b25cdebc6342c20d,2021-07-29_22h33.38.000,Simcolourproject_2stim_asymm_v5,2020.2.10,Win32,60,61025ae37ef11b136ea224fe,,,,,,,,,2749,48.79998779,100,1,0,0,response1disk,,7,3.200012207,-6.399993896,1,0,0,rectangle,3.200012207,-6.399993896,1,0,0,3.200012207,-6.399993896,1,0,0,0,28,28,39,1,,,,,,,,
,,,,,,,,,,,,,FF,,,,,,,,1.0478,,,,,,,,,,,,,,,,,,,,,,61035b9030a71cfbc7b24897,610364d5b25cdebc6342c20d,2021-07-29_22h33.38.000,Simcolourproject_2stim_asymm_v5,2020.2.10,Win32,60,61025ae37ef11b136ea224fe,,,,,,,,,1293,60,-110.4000244,1,0,0,response3disk,,4,-8,4,1,0,0,rectangle,-8,4,1,0,0,-8,4,1,0,0,0,29,29,102,1,,,,,,,,
,,,,,,,,,,,,,FF,,,,,,,,1.4502,,,,,,,,,,,,,,,,,,,,,,61035b9030a71cfbc7b24897,610364d5b25cdebc6342c20d,2021-07-29_22h33.38.000,Simcolourproject_2stim_asymm_v5,2020.2.10,Win32,60,61025ae37ef11b136ea224fe,,,,,,,,,2501,108,-45.6000061,1,0,0,response3disk,,5,1.600036621,5.600006104,1,0,0,rectangle,1.600036621,5.600006104,1,0,0,1.600036621,5.600006104,1,0,0,0,30,30,149,1,,,,,,,,
,,,,,,,,,,,,,FF,,,,,,,,1.4982,,,,,,,,,,,,,,,,,,,,,,61035b9030a71cfbc7b24897,610364d5b25cdebc6342c20d,2021-07-29_22h33.38.000,Simcolourproject_2stim_asymm_v5,2020.2.10,Win32,60,61025ae37ef11b136ea224fe,,,,,,,,,3139,-43.20001221,-101.6000366,1,0,0,response5disk,,3,23.20001221,-11.20001221,1,0,0,rectangle,23.20001221,-11.20001221,1,0,0,23.20001221,-11.20001221,1,0,0,0,31,31,25,1,,,,,,,,
,,,,,,,,,,,,,FF,,,,,,,,0.9814,,,,,,,,,,,,,,,,,,,,,,61035b9030a71cfbc7b24897,610364d5b25cdebc6342c20d,2021-07-29_22h33.38.000,Simcolourproject_2stim_asymm_v5,2020.2.10,Win32,60,61025ae37ef11b136ea224fe,,,,,,,,,4036,56,-105.6000366,1,0,0,response3disk,,4,16,4,1,0,0,rectangle,16,4,1,0,0,16,4,1,0,0,0,32,32,121,1,,,,,,,,
,,,,,,,,,,,,,FF,,,,,,,,1.3821,,,,,,,,,,,,,,,,,,,,,,61035b9030a71cfbc7b24897,610364d5b25cdebc6342c20d,2021-07-29_22h33.38.000,Simcolourproject_2stim_asymm_v5,2020.2.10,Win32,60,61025ae37ef11b136ea224fe,,,,,,,,,1613,107.2000122,-51.20001221,1,0,0,response3disk,,5,6.400024414,11.19998169,1,0,0,rectangle,6.400024414,11.19998169,1,0,0,6.400024414,11.19998169,1,0,0,0,33,33,132,1,,,,,,,,
,,,,,,,,,,,,,FF,,,,,,,,0.7861,,,,,,,,,,,,,,,,,,,,,,61035b9030a71cfbc7b24897,610364d5b25cdebc6342c20d,2021-07-29_22h33.38.000,Simcolourproject_2stim_asymm_v5,2020.2.10,Win32,60,61025ae37ef11b136ea224fe,,,,,,,,,1562,53.60003662,89.6000061,1,0,0,response1disk,,7,2.400024414,-13.6000061,1,0,0,rectangle,2.400024414,-13.6000061,1,0,0,2.400024414,-13.6000061,1,0,0,0,34,34,75,1,,,,,,,,
,,,,,,,,,,,,,FF,,,,,,,,0.6318,,,,,,,,,,,,,,,,,,,,,,61035b9030a71cfbc7b24897,610364d5b25cdebc6342c20d,2021-07-29_22h33.38.000,Simcolourproject_2stim_asymm_v5,2020.2.10,Win32,60,61025ae37ef11b136ea224fe,,,,,,,,,4075,48.79998779,74.3999939,1,0,0,response1disk,,7,14.40002441,-4.800018311,1,0,0,rectangle,14.40002441,-4.800018311,1,0,0,14.40002441,-4.800018311,1,0,0,0,35,35,99,1,,,,,,,,
,,,,,,,,,,,,,FF,,,,,,,,0.8149,,,,,,,,,,,,,,,,,,,,,,61035b9030a71cfbc7b24897,610364d5b25cdebc6342c20d,2021-07-29_22h33.38.000,Simcolourproject_2stim_asymm_v5,2020.2.10,Win32,60,61025ae37ef11b136ea224fe,,,,,,,,,750,109.6000366,44,1,0,0,response1disk,,6,16,4,1,0,0,rectangle,16,4,1,0,0,16,4,1,0,0,0,36,36,157,1,,,,,,,,
,,,,,,,,,,,,,FF,,,,,,,,0.9158,,,,,,,,,,,,,,,,,,,,,,61035b9030a71cfbc7b24897,610364d5b25cdebc6342c20d,2021-07-29_22h33.38.000,Simcolourproject_2stim_asymm_v5,2020.2.10,Win32,60,61025ae37ef11b136ea224fe,,,,,,,,,2173,108.7999878,-52.80001831,1,0,0,response3disk,,5,6.400024414,10.3999939,1,0,0,rectangle,6.400024414,10.3999939,1,0,0,6.400024414,10.3999939,1,0,0,0,37,37,10,1,,,,,,,,
,,,,,,,,,,,,,FF,,,,,,,,0.9004,,,,,,,,,,,,,,,,,,,,,,61035b9030a71cfbc7b24897,610364d5b25cdebc6342c20d,2021-07-29_22h33.38.000,Simcolourproject_2stim_asymm_v5,2020.2.10,Win32,60,61025ae37ef11b136ea224fe,,,,,,,,,3608,53.60003662,109.6000061,1,0,0,response1disk,,7,2.400024414,-2.399993896,1,0,0,rectangle,2.400024414,-2.399993896,1,0,0,2.400024414,-2.399993896,1,0,0,0,38,38,37,1,,,,,,,,
,,,,,,,,,,,,,FF,,,,,,,,0.6009,,,,,,,,,,,,,,,,,,,,,,61035b9030a71cfbc7b24897,610364d5b25cdebc6342c20d,2021-07-29_22h33.38.000,Simcolourproject_2stim_asymm_v5,2020.2.10,Win32,60,61025ae37ef11b136ea224fe,,,,,,,,,3018,37.60003662,92.79998779,1,0,0,response1disk,,7,12,-2.399993896,1,0,0,rectangle,12,-2.399993896,1,0,0,12,-2.399993896,1,0,0,0,39,39,148,1,,,,,,,,
,,,,,,,,,,,,,FF,,,,,,,,1.2315,,,,,,,,,,,,,,,,,,,,,,61035b9030a71cfbc7b24897,610364d5b25cdebc6342c20d,2021-07-29_22h33.38.000,Simcolourproject_2stim_asymm_v5,2020.2.10,Win32,60,61025ae37ef11b136ea224fe,,,,,,,,,2097,68.79998779,-103.2000122,1,0,0,response3disk,,4,5.600036621,4,1,0,0,rectangle,5.600036621,4,1,0,0,5.600036621,4,1,0,0,0,40,40,108,1,,,,,,,,
,,,,,,,,,,,,,FF,,,,,,,,2.9141,,,,,,,,,,,,,,,,,,,,,,61035b9030a71cfbc7b24897,610364d5b25cdebc6342c20d,2021-07-29_22h33.38.000,Simcolourproject_2stim_asymm_v5,2020.2.10,Win32,60,61025ae37ef11b136ea224fe,,,,,,,,,3702,111.2000122,-56.80001831,1,0,0,response3disk,,5,19.20001221,4,1,0,0,rectangle,19.20001221,4,1,0,0,19.20001221,4,1,0,0,0,41,41,93,1,,,,,,,,
,,,,,,,,,,,,,FF,,,,,,,,0.8481,,,,,,,,,,,,,,,,,,,,,,61035b9030a71cfbc7b24897,610364d5b25cdebc6342c20d,2021-07-29_22h33.38.000,Simcolourproject_2stim_asymm_v5,2020.2.10,Win32,60,61025ae37ef11b136ea224fe,,,,,,,,,1930,110.4000244,56,1,0,0,response1disk,,6,11.20001221,0,1,0,0,rectangle,11.20001221,0,1,0,0,11.20001221,0,1,0,0,0,42,42,59,1,,,,,,,,
,,,,,,,,,,,,,FF,,,,,,,,1.0336,,,,,,,,,,,,,,,,,,,,,,61035b9030a71cfbc7b24897,610364d5b25cdebc6342c20d,2021-07-29_22h33.38.000,Simcolourproject_2stim_asymm_v5,2020.2.10,Win32,60,61025ae37ef11b136ea224fe,,,,,,,,,1056,-36.79998779,-107.2000122,1,0,0,response5disk,,3,11.20001221,4.799987793,1,0,0,rectangle,11.20001221,4.799987793,1,0,0,11.20001221,4.799987793,1,0,0,0,43,43,11,1,,,,,,,,
,,,,,,,,,,,,,FF,,,,,,,,0.6999,,,,,,,,,,,,,,,,,,,,,,61035b9030a71cfbc7b24897,610364d5b25cdebc6342c20d,2021-07-29_22h33.38.000,Simcolourproject_2stim_asymm_v5,2020.2.10,Win32,60,61025ae37ef11b136ea224fe,,,,,,,,,1995,48,88.79998779,1,0,0,response1disk,,7,8,-11.20001221,1,0,0,rectangle,8,-11.20001221,1,0,0,8,-11.20001221,1,0,0,0,44,44,82,1,,,,,,,,
,,,,,,,,,,,,,FF,,,,,,,,0.5645,,,,,,,,,,,,,,,,,,,,,,61035b9030a71cfbc7b24897,610364d5b25cdebc6342c20d,2021-07-29_22h33.38.000,Simcolourproject_2stim_asymm_v5,2020.2.10,Win32,60,61025ae37ef11b136ea224fe,,,,,,,,,1259,37.60003662,74.3999939,1,0,0,response1disk,,7,0.799987793,-3.200012207,1,0,0,rectangle,0.799987793,-3.200012207,1,0,0,0.799987793,-3.200012207,1,0,0,0,45,45,141,1,,,,,,,,
,,,,,,,,,,,,,FF,,,,,,,,0.7837,,,,,,,,,,,,,,,,,,,,,,61035b9030a71cfbc7b24897,610364d5b25cdebc6342c20d,2021-07-29_22h33.38.000,Simcolourproject_2stim_asymm_v5,2020.2.10,Win32,60,61025ae37ef11b136ea224fe,,,,,,,,,4213,54.40002441,94.3999939,1,0,0,response1disk,,7,10.40002441,-1.600006104,1,0,0,rectangle,10.40002441,-1.600006104,1,0,0,10.40002441,-1.600006104,1,0,0,0,46,46,83,1,,,,,,,,
,,,,,,,,,,,,,FF,,,,,,,,0.6504,,,,,,,,,,,,,,,,,,,,,,61035b9030a71cfbc7b24897,610364d5b25cdebc6342c20d,2021-07-29_22h33.38.000,Simcolourproject_2stim_asymm_v5,2020.2.10,Win32,60,61025ae37ef11b136ea224fe,,,,,,,,,3699,48,90.3999939,1,0,0,response1disk,,7,10.40002441,-1.600006104,1,0,0,rectangle,10.40002441,-1.600006104,1,0,0,10.40002441,-1.600006104,1,0,0,0,47,47,117,1,,,,,,,,
,,,,,,,,,,,,,FF,,,,,,,,0.6164,,,,,,,,,,,,,,,,,,,,,,61035b9030a71cfbc7b24897,610364d5b25cdebc6342c20d,2021-07-29_22h33.38.000,Simcolourproject_2stim_asymm_v5,2020.2.10,Win32,60,61025ae37ef11b136ea224fe,,,,,,,,,2747,44.79998779,81.6000061,1,0,0,response1disk,,7,11.20001221,-2.399993896,1,0,0,rectangle,11.20001221,-2.399993896,1,0,0,11.20001221,-2.399993896,1,0,0,0,48,48,45,1,,,,,,,,
,,,,,,,,,,,,,FF,,,,,,,,0.6146,,,,,,,,,,,,,,,,,,,,,,61035b9030a71cfbc7b24897,610364d5b25cdebc6342c20d,2021-07-29_22h33.38.000,Simcolourproject_2stim_asymm_v5,2020.2.10,Win32,60,61025ae37ef11b136ea224fe,,,,,,,,,2118,40.79998779,92,1,0,0,response1disk,,7,10.40002441,-8,1,0,0,rectangle,10.40002441,-8,1,0,0,10.40002441,-8,1,0,0,0,49,49,20,1,,,,,,,,
,,,,,,,,,,,,,FF,,,,,,,,0.6149,,,,,,,,,,,,,,,,,,,,,,61035b9030a71cfbc7b24897,610364d5b25cdebc6342c20d,2021-07-29_22h33.38.000,Simcolourproject_2stim_asymm_v5,2020.2.10,Win32,60,61025ae37ef11b136ea224fe,,,,,,,,,3645,51.20001221,96,1,0,0,response1disk,,7,13.60003662,-5.600006104,1,0,0,rectangle,13.60003662,-5.600006104,1,0,0,13.60003662,-5.600006104,1,0,0,0,50,50,120,1,,,,,,,,
,,,,,,,,,,,,,FF,,,,,,,,1.2001,,,,,,,,,,,,,,,,,,,,,,61035b9030a71cfbc7b24897,610364d5b25cdebc6342c20d,2021-07-29_22h33.38.000,Simcolourproject_2stim_asymm_v5,2020.2.10,Win32,60,61025ae37ef11b136ea224fe,,,,,,,,,3546,59.20001221,112,1,0,0,response1disk,,7,14.40002441,1.600006104,1,0,0,rectangle,14.40002441,1.600006104,1,0,0,14.40002441,1.600006104,1,0,0,0,51,51,119,1,,,,,,,,
,,,,,,,,,,,,,FF,,,,,,,,1.0163,,,,,,,,,,,,,,,,,,,,,,61035b9030a71cfbc7b24897,610364d5b25cdebc6342c20d,2021-07-29_22h33.38.000,Simcolourproject_2stim_asymm_v5,2020.2.10,Win32,60,61025ae37ef11b136ea224fe,,,,,,,,,3709,52.79998779,-110.4000244,1,0,0,response3disk,,4,-1.599975586,-0.800018311,1,0,0,rectangle,-1.599975586,-0.800018311,1,0,0,-1.599975586,-0.800018311,1,0,0,0,52,52,55,1,,,,,,,,
,,,,,,,,,,,,,FF,,,,,,,,0.583,,,,,,,,,,,,,,,,,,,,,,61035b9030a71cfbc7b24897,610364d5b25cdebc6342c20d,2021-07-29_22h33.38.000,Simcolourproject_2stim_asymm_v5,2020.2.10,Win32,60,61025ae37ef11b136ea224fe,,,,,,,,,2754,41.60003662,98.3999939,1,0,0,response1disk,,7,11.20001221,-10.3999939,1,0,0,rectangle,11.20001221,-10.3999939,1,0,0,11.20001221,-10.3999939,1,0,0,0,53,53,54,1,,,,,,,,
,,,,,,,,,,,,,FF,,,,,,,,1.1994,,,,,,,,,,,,,,,,,,,,,,61035b9030a71cfbc7b24897,610364d5b25cdebc6342c20d,2021-07-29_22h33.38.000,Simcolourproject_2stim_asymm_v5,2020.2.10,Win32,60,61025ae37ef11b136ea224fe,,,,,,,,,4294,34.40002441,-97.60003662,1,0,0,response3disk,,4,-4,-7.200012207,1,0,0,rectangle,-4,-7.200012207,1,0,0,-4,-7.200012207,1,0,0,0,54,54,23,1,,,,,,,,
,,,,,,,,,,,,,FF,,,,,,,,1.1643,,,,,,,,,,,,,,,,,,,,,,61035b9030a71cfbc7b24897,610364d5b25cdebc6342c20d,2021-07-29_22h33.38.000,Simcolourproject_2stim_asymm_v5,2020.2.10,Win32,60,61025ae37ef11b136ea224fe,,,,,,,,,1559,63.20001221,104.7999878,1,0,0,response1disk,,7,-12,-11.20001221,1,0,0,rectangle,-12,-11.20001221,1,0,0,-12,-11.20001221,1,0,0,0,55,55,115,1,,,,,,,,
,,,,,,,,,,,,,FF,,,,,,,,0.8166,,,,,,,,,,,,,,,,,,,,,,61035b9030a71cfbc7b24897,610364d5b25cdebc6342c20d,2021-07-29_22h33.38.000,Simcolourproject_2stim_asymm_v5,2020.2.10,Win32,60,61025ae37ef11b136ea224fe,,,,,,,,,375,116.7999878,48,1,0,0,response1disk,,6,7.200012207,0.799987793,1,0,0,rectangle,7.200012207,0.799987793,1,0,0,7.200012207,0.799987793,1,0,0,0,56,56,15,1,,,,,,,,
,,,,,,,,,,,,,FF,,,,,,,,0.7648,,,,,,,,,,,,,,,,,,,,,,61035b9030a71cfbc7b24897,610364d5b25cdebc6342c20d,2021-07-29_22h33.38.000,Simcolourproject_2stim_asymm_v5,2020.2.10,Win32,60,61025ae37ef11b136ea224fe,,,,,,,,,1826,49.60003662,-112,1,0,0,response3disk,,4,0.799987793,6.399993896,1,0,0,rectangle,0.799987793,6.399993896,1,0,0,0.799987793,6.399993896,1,0,0,0,57,57,49,1,,,,,,,,
,,,,,,,,,,,,,FF,,,,,,,,0.9665,,,,,,,,,,,,,,,,,,,,,,61035b9030a71cfbc7b24897,610364d5b25cdebc6342c20d,2021-07-29_22h33.38.000,Simcolourproject_2stim_asymm_v5,2020.2.10,Win32,60,61025ae37ef11b136ea224fe,,,,,,,,,195,109.6000366,52,1,0,0,response1disk,,6,-8.799987793,-3.200012207,1,0,0,rectangle,-8.799987793,-3.200012207,1,0,0,-8.799987793,-3.200012207,1,0,0,0,58,58,76,1,,,,,,,,
,,,,,,,,,,,,,FF,,,,,,,,0.8649,,,,,,,,,,,,,,,,,,,,,,61035b9030a71cfbc7b24897,610364d5b25cdebc6342c20d,2021-07-29_22h33.38.000,Simcolourproject_2stim_asymm_v5,2020.2.10,Win32,60,61025ae37ef11b136ea224fe,,,,,,,,,194,104,-41.6000061,1,0,0,response3disk,,5,11.20001221,-1.600006104,1,0,0,rectangle,11.20001221,-1.600006104,1,0,0,11.20001221,-1.600006104,1,0,0,0,59,59,72,1,,,,,,,,
,,,,,,,,,,,,,FF,,,,,,,,2.096,,,,,,,,,,,,,,,,,,,,,,61035b9030a71cfbc7b24897,610364d5b25cdebc6342c20d,2021-07-29_22h33.38.000,Simcolourproject_2stim_asymm_v5,2020.2.10,Win32,60,61025ae37ef11b136ea224fe,,,,,,,,,3238,110.4000244,48.79998779,1,0,0,response1disk,,6,15.20001221,-5.600006104,1,0,0,rectangle,15.20001221,-5.600006104,1,0,0,15.20001221,-5.600006104,1,0,0,0,60,60,14,1,,,,,,,,
,,,,,,,,,,,,,FF,,,,,,,,1.3994,,,,,,,,,,,,,,,,,,,,,,61035b9030a71cfbc7b24897,610364d5b25cdebc6342c20d,2021-07-29_22h33.38.000,Simcolourproject_2stim_asymm_v5,2020.2.10,Win32,60,61025ae37ef11b136ea224fe,,,,,,,,,1836,61.60003662,110.3999939,1,0,0,response1disk,,7,-4.799987793,-7.200012207,1,0,0,rectangle,-4.799987793,-7.200012207,1,0,0,-4.799987793,-7.200012207,1,0,0,0,61,61,126,1,,,,,,,,
,,,,,,,,,,,,,FF,,,,,,,,0.5816,,,,,,,,,,,,,,,,,,,,,,61035b9030a71cfbc7b24897,610364d5b25cdebc6342c20d,2021-07-29_22h33.38.000,Simcolourproject_2stim_asymm_v5,2020.2.10,Win32,60,61025ae37ef11b136ea224fe,,,,,,,,,2005,53.60003662,105.6000061,1,0,0,response1disk,,7,-0.799987793,-4.800018311,1,0,0,rectangle,-0.799987793,-4.800018311,1,0,0,-0.799987793,-4.800018311,1,0,0,0,62,62,137,1,,,,,,,,
,,,,,,,,,,,,,FF,,,,,,,,1.5673,,,,,,,,,,,,,,,,,,,,,,61035b9030a71cfbc7b24897,610364d5b25cdebc6342c20d,2021-07-29_22h33.38.000,Simcolourproject_2stim_asymm_v5,2020.2.10,Win32,60,61025ae37ef11b136ea224fe,,,,,,,,,3718,48,96,1,0,0,response1disk,,7,8,-4.800018311,1,0,0,rectangle,8,-4.800018311,1,0,0,8,-4.800018311,1,0,0,0,63,63,140,1,,,,,,,,
,,,,,,,,,,,,,FF,,,,,,,,0.9481,,,,,,,,,,,,,,,,,,,,,,61035b9030a71cfbc7b24897,610364d5b25cdebc6342c20d,2021-07-29_22h33.38.000,Simcolourproject_2stim_asymm_v5,2020.2.10,Win32,60,61025ae37ef11b136ea224fe,,,,,,,,,3951,52.79998779,106.3999939,1,0,0,response1disk,,7,3.200012207,-8,1,0,0,rectangle,3.200012207,-8,1,0,0,3.200012207,-8,1,0,0,0,64,64,24,1,,,,,,,,
,,,,,,,,,,,,,FF,,,,,,,,1.348,,,,,,,,,,,,,,,,,,,,,,61035b9030a71cfbc7b24897,610364d5b25cdebc6342c20d,2021-07-29_22h33.38.000,Simcolourproject_2stim_asymm_v5,2020.2.10,Win32,60,61025ae37ef11b136ea224fe,,,,,,,,,1206,56,103.1999817,1,0,0,response1disk,,7,2.400024414,6.399993896,1,0,0,rectangle,2.400024414,6.399993896,1,0,0,2.400024414,6.399993896,1,0,0,0,65,65,144,1,,,,,,,,
,,,,,,,,,,,,,FF,,,,,,,,1.4503,,,,,,,,,,,,,,,,,,,,,,61035b9030a71cfbc7b24897,610364d5b25cdebc6342c20d,2021-07-29_22h33.38.000,Simcolourproject_2stim_asymm_v5,2020.2.10,Win32,60,61025ae37ef11b136ea224fe,,,,,,,,,3810,-53.59997559,-114.4000244,1,0,0,response5disk,,3,8,0,1,0,0,rectangle,8,0,1,0,0,8,0,1,0,0,0,66,66,33,1,,,,,,,,
,,,,,,,,,,,,,FF,,,,,,,,1.0818,,,,,,,,,,,,,,,,,,,,,,61035b9030a71cfbc7b24897,610364d5b25cdebc6342c20d,2021-07-29_22h33.38.000,Simcolourproject_2stim_asymm_v5,2020.2.10,Win32,60,61025ae37ef11b136ea224fe,,,,,,,,,1201,92.79998779,57.6000061,1,0,0,response1disk,,6,12,4,1,0,0,rectangle,12,4,1,0,0,12,4,1,0,0,0,67,67,56,1,,,,,,,,
,,,,,,,,,,,,,FF,,,,,,,,0.6499,,,,,,,,,,,,,,,,,,,,,,61035b9030a71cfbc7b24897,610364d5b25cdebc6342c20d,2021-07-29_22h33.38.000,Simcolourproject_2stim_asymm_v5,2020.2.10,Win32,60,61025ae37ef11b136ea224fe,,,,,,,,,1644,38.40002441,108,1,0,0,response1disk,,7,5.600036621,-8,1,0,0,rectangle,5.600036621,-8,1,0,0,5.600036621,-8,1,0,0,0,68,68,18,1,,,,,,,,
,,,,,,,,,,,,,FF,,,,,,,,0.7837,,,,,,,,,,,,,,,,,,,,,,61035b9030a71cfbc7b24897,610364d5b25cdebc6342c20d,2021-07-29_22h33.38.000,Simcolourproject_2stim_asymm_v5,2020.2.10,Win32,60,61025ae37ef11b136ea224fe,,,,,,,,,166,110.4000244,48.79998779,1,0,0,response1disk,,6,6.400024414,5.600006104,1,0,0,rectangle,6.400024414,5.600006104,1,0,0,6.400024414,5.600006104,1,0,0,0,69,69,27,1,,,,,,,,
,,,,,,,,,,,,,FF,,,,,,,,0.6331,,,,,,,,,,,,,,,,,,,,,,61035b9030a71cfbc7b24897,610364d5b25cdebc6342c20d,2021-07-29_22h33.38.000,Simcolourproject_2stim_asymm_v5,2020.2.10,Win32,60,61025ae37ef11b136ea224fe,,,,,,,,,3465,44.79998779,101.6000061,1,0,0,response1disk,,7,-4.799987793,0.799987793,1,0,0,rectangle,-4.799987793,0.799987793,1,0,0,-4.799987793,0.799987793,1,0,0,0,70,70,150,1,,,,,,,,
,,,,,,,,,,,,,FF,,,,,,,,0.8304,,,,,,,,,,,,,,,,,,,,,,61035b9030a71cfbc7b24897,610364d5b25cdebc6342c20d,2021-07-29_22h33.38.000,Simcolourproject_2stim_asymm_v5,2020.2.10,Win32,60,61025ae37ef11b136ea224fe,,,,,,,,,3056,119.2000122,43.19998169,1,0,0,response1disk,,6,1.600036621,1.600006104,1,0,0,rectangle,1.600036621,1.600006104,1,0,0,1.600036621,1.600006104,1,0,0,0,71,71,92,1,,,,,,,,
,,,,,,,,,,,,,FF,,,,,,,,1.9648,,,,,,,,,,,,,,,,,,,,,,61035b9030a71cfbc7b24897,610364d5b25cdebc6342c20d,2021-07-29_22h33.38.000,Simcolourproject_2stim_asymm_v5,2020.2.10,Win32,60,61025ae37ef11b136ea224fe,,,,,,,,,277,53.60003662,-102.4000244,1,0,0,response3disk,,4,-0.799987793,-0.800018311,1,0,0,rectangle,-0.799987793,-0.800018311,1,0,0,-0.799987793,-0.800018311,1,0,0,0,72,72,1,1,,,,,,,,
,,,,,,,,,,,,,FF,,,,,,,,0.7505,,,,,,,,,,,,,,,,,,,,,,61035b9030a71cfbc7b24897,610364d5b25cdebc6342c20d,2021-07-29_22h33.38.000,Simcolourproject_2stim_asymm_v5,2020.2.10,Win32,60,61025ae37ef11b136ea224fe,,,,,,,,,1945,46.40002441,93.6000061,1,0,0,response1disk,,7,18.40002441,4,1,0,0,rectangle,18.40002441,4,1,0,0,18.40002441,4,1,0,0,0,73,73,38,1,,,,,,,,
,,,,,,,,,,,,,FF,,,,,,,,1.2641,,,,,,,,,,,,,,,,,,,,,,61035b9030a71cfbc7b24897,610364d5b25cdebc6342c20d,2021-07-29_22h33.38.000,Simcolourproject_2stim_asymm_v5,2020.2.10,Win32,60,61025ae37ef11b136ea224fe,,,,,,,,,4065,48,94.3999939,1,0,0,response1disk,,7,10.40002441,-7.200012207,1,0,0,rectangle,10.40002441,-7.200012207,1,0,0,10.40002441,-7.200012207,1,0,0,0,74,74,0,1,,,,,,,,
,,,,,,,,,,,,,FF,,,,,,,,0.6163,,,,,,,,,,,,,,,,,,,,,,61035b9030a71cfbc7b24897,610364d5b25cdebc6342c20d,2021-07-29_22h33.38.000,Simcolourproject_2stim_asymm_v5,2020.2.10,Win32,60,61025ae37ef11b136ea224fe,,,,,,,,,3725,35.20001221,92.79998779,1,0,0,response1disk,,7,13.60003662,-15.20001221,1,0,0,rectangle,-104.7999878,-53.6000061,1,0,0,-3.200012207,1.600006104,1,0,0,0,75,75,60,1,,response5disk_3,TRUE,2,2,"[202,298,130,26,289,235,165,254,109,108,89,11,76,95,108,204,260,152,291,235]",1.4498,rectangle
,,,,,,,,,,,,,FF,,,,,,,,1.2669,,,,,,,,,,,,,,,,,,,,,,61035b9030a71cfbc7b24897,610364d5b25cdebc6342c20d,2021-07-29_22h33.38.000,Simcolourproject_2stim_asymm_v5,2020.2.10,Win32,60,61025ae37ef11b136ea224fe,,,,,,,,,739,42.40002441,123.1999817,1,0,0,response1disk,,7,-16.79998779,4,1,0,0,rectangle,-16.79998779,4,1,0,0,-16.79998779,4,1,0,0,0,76,76,114,1,,,,,,,,
,,,,,,,,,,,,,FF,,,,,,,,6.3973,,,,,,,,,,,,,,,,,,,,,,61035b9030a71cfbc7b24897,610364d5b25cdebc6342c20d,2021-07-29_22h33.38.000,Simcolourproject_2stim_asymm_v5,2020.2.10,Win32,60,61025ae37ef11b136ea224fe,,,,,,,,,3745,110.4000244,60.79998779,1,0,0,response1disk,,6,3.200012207,11.19998169,1,0,0,rectangle,3.200012207,11.19998169,1,0,0,3.200012207,11.19998169,1,0,0,0,77,77,143,1,,,,,,,,
,,,,,,,,,,,,,FF,,,,,,,,1.5143,,,,,,,,,,,,,,,,,,,,,,61035b9030a71cfbc7b24897,610364d5b25cdebc6342c20d,2021-07-29_22h33.38.000,Simcolourproject_2stim_asymm_v5,2020.2.10,Win32,60,61025ae37ef11b136ea224fe,,,,,,,,,2303,110.4000244,-61.6000061,1,0,0,response3disk,,5,5.600036621,2.399993896,1,0,0,rectangle,5.600036621,2.399993896,1,0,0,5.600036621,2.399993896,1,0,0,0,78,78,88,1,,,,,,,,
,,,,,,,,,,,,,FF,,,,,,,,0.7669,,,,,,,,,,,,,,,,,,,,,,61035b9030a71cfbc7b24897,610364d5b25cdebc6342c20d,2021-07-29_22h33.38.000,Simcolourproject_2stim_asymm_v5,2020.2.10,Win32,60,61025ae37ef11b136ea224fe,,,,,,,,,170,55.20001221,-106.4000244,1,0,0,response3disk,,4,-11.20001221,5.600006104,1,0,0,rectangle,-11.20001221,5.600006104,1,0,0,-11.20001221,5.600006104,1,0,0,0,79,79,90,1,,,,,,,,
,,,,,,,,,,,,,FF,,,,,,,,0.5987,,,,,,,,,,,,,,,,,,,,,,61035b9030a71cfbc7b24897,610364d5b25cdebc6342c20d,2021-07-29_22h33.38.000,Simcolourproject_2stim_asymm_v5,2020.2.10,Win32,60,61025ae37ef11b136ea224fe,,,,,,,,,2897,50.40002441,92.79998779,1,0,0,response1disk,,7,-10.39996338,1.600006104,1,0,0,rectangle,-10.39996338,1.600006104,1,0,0,-10.39996338,1.600006104,1,0,0,0,80,80,7,1,,,,,,,,
,,,,,,,,,,,,,FF,,,,,,,,0.5512,,,,,,,,,,,,,,,,,,,,,,61035b9030a71cfbc7b24897,610364d5b25cdebc6342c20d,2021-07-29_22h33.38.000,Simcolourproject_2stim_asymm_v5,2020.2.10,Win32,60,61025ae37ef11b136ea224fe,,,,,,,,,1092,42.40002441,93.6000061,1,0,0,response1disk,,7,-5.599975586,4,1,0,0,rectangle,-5.599975586,4,1,0,0,-5.599975586,4,1,0,0,0,81,81,41,1,,,,,,,,
,,,,,,,,,,,,,FF,,,,,,,,0.6676,,,,,,,,,,,,,,,,,,,,,,61035b9030a71cfbc7b24897,610364d5b25cdebc6342c20d,2021-07-29_22h33.38.000,Simcolourproject_2stim_asymm_v5,2020.2.10,Win32,60,61025ae37ef11b136ea224fe,,,,,,,,,617,52.79998779,98.3999939,1,0,0,response1disk,,7,0.799987793,-12.80001831,1,0,0,rectangle,0.799987793,-12.80001831,1,0,0,0.799987793,-12.80001831,1,0,0,0,82,82,53,1,,,,,,,,
,,,,,,,,,,,,,FF,,,,,,,,0.8165,,,,,,,,,,,,,,,,,,,,,,61035b9030a71cfbc7b24897,610364d5b25cdebc6342c20d,2021-07-29_22h33.38.000,Simcolourproject_2stim_asymm_v5,2020.2.10,Win32,60,61025ae37ef11b136ea224fe,,,,,,,,,3187,120.7999878,56,1,0,0,response1disk,,6,16.79998779,3.199981689,1,0,0,rectangle,16.79998779,3.199981689,1,0,0,16.79998779,3.199981689,1,0,0,0,83,83,130,1,,,,,,,,
,,,,,,,,,,,,,FF,,,,,,,,0.6329,,,,,,,,,,,,,,,,,,,,,,61035b9030a71cfbc7b24897,610364d5b25cdebc6342c20d,2021-07-29_22h33.38.000,Simcolourproject_2stim_asymm_v5,2020.2.10,Win32,60,61025ae37ef11b136ea224fe,,,,,,,,,1988,56.79998779,112.7999878,1,0,0,response1disk,,7,4,5.600006104,1,0,0,rectangle,4,5.600006104,1,0,0,4,5.600006104,1,0,0,0,84,84,154,1,,,,,,,,
,,,,,,,,,,,,,FF,,,,,,,,0.6,,,,,,,,,,,,,,,,,,,,,,61035b9030a71cfbc7b24897,610364d5b25cdebc6342c20d,2021-07-29_22h33.38.000,Simcolourproject_2stim_asymm_v5,2020.2.10,Win32,60,61025ae37ef11b136ea224fe,,,,,,,,,2397,53.60003662,80,1,0,0,response1disk,,7,0,-11.20001221,1,0,0,rectangle,0,-11.20001221,1,0,0,0,-11.20001221,1,0,0,0,85,85,125,1,,,,,,,,
,,,,,,,,,,,,,FF,,,,,,,,0.6979,,,,,,,,,,,,,,,,,,,,,,61035b9030a71cfbc7b24897,610364d5b25cdebc6342c20d,2021-07-29_22h33.38.000,Simcolourproject_2stim_asymm_v5,2020.2.10,Win32,60,61025ae37ef11b136ea224fe,,,,,,,,,3865,52.79998779,77.6000061,1,0,0,response1disk,,7,4.799987793,-8.800018311,1,0,0,rectangle,4.799987793,-8.800018311,1,0,0,4.799987793,-8.800018311,1,0,0,0,86,86,17,1,,,,,,,,
,,,,,,,,,,,,,FF,,,,,,,,0.5309,,,,,,,,,,,,,,,,,,,,,,61035b9030a71cfbc7b24897,610364d5b25cdebc6342c20d,2021-07-29_22h33.38.000,Simcolourproject_2stim_asymm_v5,2020.2.10,Win32,60,61025ae37ef11b136ea224fe,,,,,,,,,92,56.79998779,92.79998779,1,0,0,response1disk,,7,8,-8,1,0,0,rectangle,8,-8,1,0,0,8,-8,1,0,0,0,87,87,22,1,,,,,,,,
,,,,,,,,,,,,,FF,,,,,,,,0.5839,,,,,,,,,,,,,,,,,,,,,,61035b9030a71cfbc7b24897,610364d5b25cdebc6342c20d,2021-07-29_22h33.38.000,Simcolourproject_2stim_asymm_v5,2020.2.10,Win32,60,61025ae37ef11b136ea224fe,,,,,,,,,2022,37.60003662,93.6000061,1,0,0,response1disk,,7,0.799987793,4.799987793,1,0,0,rectangle,113.6000366,56,1,0,0,-0.799987793,-15.20001221,1,0,0,0,88,88,111,1,,response1disk_3,TRUE,6,6,"[202,298,130,26,289,235,165,254,109,108,89,11,76,95,108,204,260,152,291,235]",1.5641,rectangle
,,,,,,,,,,,,,FF,,,,,,,,0.8495,,,,,,,,,,,,,,,,,,,,,,61035b9030a71cfbc7b24897,610364d5b25cdebc6342c20d,2021-07-29_22h33.38.000,Simcolourproject_2stim_asymm_v5,2020.2.10,Win32,60,61025ae37ef11b136ea224fe,,,,,,,,,1013,75.20001221,120,1,0,0,response1disk,,7,13.60003662,3.199981689,1,0,0,rectangle,13.60003662,3.199981689,1,0,0,13.60003662,3.199981689,1,0,0,0,89,89,97,1,,,,,,,,
,,,,,,,,,,,,,FF,,,,,,,,0.6666,,,,,,,,,,,,,,,,,,,,,,61035b9030a71cfbc7b24897,610364d5b25cdebc6342c20d,2021-07-29_22h33.38.000,Simcolourproject_2stim_asymm_v5,2020.2.10,Win32,60,61025ae37ef11b136ea224fe,,,,,,,,,3894,58.40002441,105.6000061,1,0,0,response1disk,,7,8,-5.600006104,1,0,0,rectangle,8,-5.600006104,1,0,0,8,-5.600006104,1,0,0,0,90,90,100,1,,,,,,,,
,,,,,,,,,,,,,FF,,,,,,,,0.5673,,,,,,,,,,,,,,,,,,,,,,61035b9030a71cfbc7b24897,610364d5b25cdebc6342c20d,2021-07-29_22h33.38.000,Simcolourproject_2stim_asymm_v5,2020.2.10,Win32,60,61025ae37ef11b136ea224fe,,,,,,,,,607,37.60003662,99.19998169,1,0,0,response1disk,,7,-4,-13.6000061,1,0,0,rectangle,-4,-13.6000061,1,0,0,-4,-13.6000061,1,0,0,0,91,91,31,1,,,,,,,,
,,,,,,,,,,,,,FF,,,,,,,,0.681,,,,,,,,,,,,,,,,,,,,,,61035b9030a71cfbc7b24897,610364d5b25cdebc6342c20d,2021-07-29_22h33.38.000,Simcolourproject_2stim_asymm_v5,2020.2.10,Win32,60,61025ae37ef11b136ea224fe,,,,,,,,,58,33.60003662,100,1,0,0,response1disk,,7,5.600036621,-6.399993896,1,0,0,rectangle,5.600036621,-6.399993896,1,0,0,5.600036621,-6.399993896,1,0,0,0,92,92,142,1,,,,,,,,
,,,,,,,,,,,,,FF,,,,,,,,1.0142,,,,,,,,,,,,,,,,,,,,,,61035b9030a71cfbc7b24897,610364d5b25cdebc6342c20d,2021-07-29_22h33.38.000,Simcolourproject_2stim_asymm_v5,2020.2.10,Win32,60,61025ae37ef11b136ea224fe,,,,,,,,,3481,116,33.6000061,1,0,0,response1disk,,6,-19.20001221,-4,1,0,0,rectangle,-19.20001221,-4,1,0,0,-19.20001221,-4,1,0,0,0,93,93,118,1,,,,,,,,
,,,,,,,,,,,,,FF,,,,,,,,0.5672,,,,,,,,,,,,,,,,,,,,,,61035b9030a71cfbc7b24897,610364d5b25cdebc6342c20d,2021-07-29_22h33.38.000,Simcolourproject_2stim_asymm_v5,2020.2.10,Win32,60,61025ae37ef11b136ea224fe,,,,,,,,,454,43.20001221,84.79998779,1,0,0,response1disk,,7,-17.59997559,2.399993896,1,0,0,rectangle,-100,50.3999939,1,0,0,17.60003662,-9.600006104,1,0,0,0,94,94,104,1,,response7disk_3,TRUE,1,1,"[202,298,130,26,289,235,165,254,109,108,89,11,76,95,108,204,260,152,291,235]",1.3017,rectangle
,,,,,,,,,,,,,FF,,,,,,,,1.4311,,,,,,,,,,,,,,,,,,,,,,61035b9030a71cfbc7b24897,610364d5b25cdebc6342c20d,2021-07-29_22h33.38.000,Simcolourproject_2stim_asymm_v5,2020.2.10,Win32,60,61025ae37ef11b136ea224fe,,,,,,,,,1701,54.40002441,104,1,0,0,response1disk,,7,2.400024414,-2.399993896,1,0,0,rectangle,2.400024414,-2.399993896,1,0,0,2.400024414,-2.399993896,1,0,0,0,95,95,147,1,,,,,,,,
,,,,,,,,,,,,,FF,,,,,,,,0.7812,,,,,,,,,,,,,,,,,,,,,,61035b9030a71cfbc7b24897,610364d5b25cdebc6342c20d,2021-07-29_22h33.38.000,Simcolourproject_2stim_asymm_v5,2020.2.10,Win32,60,61025ae37ef11b136ea224fe,,,,,,,,,3334,36.79998779,100,1,0,0,response1disk,,7,4,-8.800018311,1,0,0,rectangle,4,-8.800018311,1,0,0,4,-8.800018311,1,0,0,0,96,96,116,1,,,,,,,,
,,,,,,,,,,,,,FF,,,,,,,,0.6673,,,,,,,,,,,,,,,,,,,,,,61035b9030a71cfbc7b24897,610364d5b25cdebc6342c20d,2021-07-29_22h33.38.000,Simcolourproject_2stim_asymm_v5,2020.2.10,Win32,60,61025ae37ef11b136ea224fe,,,,,,,,,2740,60.79998779,96,1,0,0,response1disk,,7,-4.799987793,-4,1,0,0,rectangle,-4.799987793,-4,1,0,0,-4.799987793,-4,1,0,0,0,97,97,81,1,,,,,,,,
,,,,,,,,,,,,,FF,,,,,,,,0.6812,,,,,,,,,,,,,,,,,,,,,,61035b9030a71cfbc7b24897,610364d5b25cdebc6342c20d,2021-07-29_22h33.38.000,Simcolourproject_2stim_asymm_v5,2020.2.10,Win32,60,61025ae37ef11b136ea224fe,,,,,,,,,3963,42.40002441,93.6000061,1,0,0,response1disk,,7,-4.799987793,-1.600006104,1,0,0,rectangle,-4.799987793,-1.600006104,1,0,0,-4.799987793,-1.600006104,1,0,0,0,98,98,138,1,,,,,,,,
,,,,,,,,,,,,,FF,,,,,,,,0.8323,,,,,,,,,,,,,,,,,,,,,,61035b9030a71cfbc7b24897,610364d5b25cdebc6342c20d,2021-07-29_22h33.38.000,Simcolourproject_2stim_asymm_v5,2020.2.10,Win32,60,61025ae37ef11b136ea224fe,,,,,,,,,2613,105.6000366,48.79998779,1,0,0,response1disk,,6,-0.799987793,-1.600006104,1,0,0,rectangle,-0.799987793,-1.600006104,1,0,0,-0.799987793,-1.600006104,1,0,0,0,99,99,95,1,,,,,,,,
,,,,,,,,,,,,,FF,,,,,,,,0.6833,,,,,,,,,,,,,,,,,,,,,,61035b9030a71cfbc7b24897,610364d5b25cdebc6342c20d,2021-07-29_22h33.38.000,Simcolourproject_2stim_asymm_v5,2020.2.10,Win32,60,61025ae37ef11b136ea224fe,,,,,,,,,84,51.20001221,93.6000061,1,0,0,response1disk,,7,4.799987793,-15.20001221,1,0,0,rectangle,4.799987793,-15.20001221,1,0,0,4.799987793,-15.20001221,1,0,0,0,100,100,42,1,,,,,,,,
,,,,,,,,,,,,,FF,,,,,,,,0.6498,,,,,,,,,,,,,,,,,,,,,,61035b9030a71cfbc7b24897,610364d5b25cdebc6342c20d,2021-07-29_22h33.38.000,Simcolourproject_2stim_asymm_v5,2020.2.10,Win32,60,61025ae37ef11b136ea224fe,,,,,,,,,315,58.40002441,100.7999878,1,0,0,response1disk,,7,2.400024414,3.199981689,1,0,0,rectangle,2.400024414,3.199981689,1,0,0,2.400024414,3.199981689,1,0,0,0,101,101,3,1,,,,,,,,
,,,,,,,,,,,,,FF,,,,,,,,0.9338,,,,,,,,,,,,,,,,,,,,,,61035b9030a71cfbc7b24897,610364d5b25cdebc6342c20d,2021-07-29_22h33.38.000,Simcolourproject_2stim_asymm_v5,2020.2.10,Win32,60,61025ae37ef11b136ea224fe,,,,,,,,,3923,90.40002441,48,1,0,0,response1disk,,6,15.20001221,-2.399993896,1,0,0,rectangle,15.20001221,-2.399993896,1,0,0,15.20001221,-2.399993896,1,0,0,0,102,102,63,1,,,,,,,,
,,,,,,,,,,,,,FF,,,,,,,,0.6481,,,,,,,,,,,,,,,,,,,,,,61035b9030a71cfbc7b24897,610364d5b25cdebc6342c20d,2021-07-29_22h33.38.000,Simcolourproject_2stim_asymm_v5,2020.2.10,Win32,60,61025ae37ef11b136ea224fe,,,,,,,,,2413,54.40002441,77.6000061,1,0,0,response1disk,,7,-12.79998779,-4,1,0,0,rectangle,-12.79998779,-4,1,0,0,-12.79998779,-4,1,0,0,0,103,103,8,1,,,,,,,,
,,,,,,,,,,,,,FF,,,,,,,,0.7667,,,,,,,,,,,,,,,,,,,,,,61035b9030a71cfbc7b24897,610364d5b25cdebc6342c20d,2021-07-29_22h33.38.000,Simcolourproject_2stim_asymm_v5,2020.2.10,Win32,60,61025ae37ef11b136ea224fe,,,,,,,,,1227,112,37.6000061,1,0,0,response1disk,,6,8.799987793,-0.800018311,1,0,0,rectangle,8.799987793,-0.800018311,1,0,0,8.799987793,-0.800018311,1,0,0,0,104,104,131,1,,,,,,,,
,,,,,,,,,,,,,FF,,,,,,,,0.5647,,,,,,,,,,,,,,,,,,,,,,61035b9030a71cfbc7b24897,610364d5b25cdebc6342c20d,2021-07-29_22h33.38.000,Simcolourproject_2stim_asymm_v5,2020.2.10,Win32,60,61025ae37ef11b136ea224fe,,,,,,,,,2436,44,101.6000061,1,0,0,response1disk,,7,-8.799987793,-3.200012207,1,0,0,rectangle,-8.799987793,-3.200012207,1,0,0,-8.799987793,-3.200012207,1,0,0,0,105,105,47,1,,,,,,,,
,,,,,,,,,,,,,FF,,,,,,,,0.5338,,,,,,,,,,,,,,,,,,,,,,61035b9030a71cfbc7b24897,610364d5b25cdebc6342c20d,2021-07-29_22h33.38.000,Simcolourproject_2stim_asymm_v5,2020.2.10,Win32,60,61025ae37ef11b136ea224fe,,,,,,,,,3124,46.40002441,87.19998169,1,0,0,response1disk,,7,-28.79998779,-0.800018311,1,0,0,rectangle,-28.79998779,-0.800018311,1,0,0,-28.79998779,-0.800018311,1,0,0,0,106,106,145,1,,,,,,,,
,,,,,,,,,,,,,FF,,,,,,,,0.8173,,,,,,,,,,,,,,,,,,,,,,61035b9030a71cfbc7b24897,610364d5b25cdebc6342c20d,2021-07-29_22h33.38.000,Simcolourproject_2stim_asymm_v5,2020.2.10,Win32,60,61025ae37ef11b136ea224fe,,,,,,,,,3969,49.60003662,110.3999939,1,0,0,response1disk,,7,-12.79998779,-4,1,0,0,rectangle,97.60003662,46.3999939,1,0,0,-9.599975586,-4.800018311,1,0,0,0,107,107,50,1,,response1disk_3,TRUE,6,6,"[202,298,130,26,289,235,165,254,109,108,89,11,76,95,108,204,260,152,291,235]",1.4832,rectangle
,,,,,,,,,,,,,FF,,,,,,,,1.1495,,,,,,,,,,,,,,,,,,,,,,61035b9030a71cfbc7b24897,610364d5b25cdebc6342c20d,2021-07-29_22h33.38.000,Simcolourproject_2stim_asymm_v5,2020.2.10,Win32,60,61025ae37ef11b136ea224fe,,,,,,,,,808,52,-107.2000122,1,0,0,response3disk,,4,0.799987793,4,1,0,0,rectangle,-83.20001221,49.6000061,1,0,0,1.600036621,1.600006104,1,0,0,0,108,108,2,1,,response7disk_3,TRUE,1,1,"[202,298,130,26,289,235,165,254,109,108,89,11,76,95,108,204,260,152,291,235]",1.5187,rectangle
,,,,,,,,,,,,,FF,,,,,,,,0.6999,,,,,,,,,,,,,,,,,,,,,,61035b9030a71cfbc7b24897,610364d5b25cdebc6342c20d,2021-07-29_22h33.38.000,Simcolourproject_2stim_asymm_v5,2020.2.10,Win32,60,61025ae37ef11b136ea224fe,,,,,,,,,2438,41.60003662,92,1,0,0,response1disk,,7,14.40002441,2.399993896,1,0,0,rectangle,14.40002441,2.399993896,1,0,0,14.40002441,2.399993896,1,0,0,0,109,109,29,1,,,,,,,,
,,,,,,,,,,,,,FF,,,,,,,,0.6181,,,,,,,,,,,,,,,,,,,,,,61035b9030a71cfbc7b24897,610364d5b25cdebc6342c20d,2021-07-29_22h33.38.000,Simcolourproject_2stim_asymm_v5,2020.2.10,Win32,60,61025ae37ef11b136ea224fe,,,,,,,,,2927,37.60003662,78.3999939,1,0,0,response1disk,,7,28.79998779,-10.3999939,1,0,0,rectangle,28.79998779,-10.3999939,1,0,0,28.79998779,-10.3999939,1,0,0,0,110,110,136,1,,,,,,,,
,,,,,,,,,,,,,FF,,,,,,,,1.7662,,,,,,,,,,,,,,,,,,,,,,61035b9030a71cfbc7b24897,610364d5b25cdebc6342c20d,2021-07-29_22h33.38.000,Simcolourproject_2stim_asymm_v5,2020.2.10,Win32,60,61025ae37ef11b136ea224fe,,,,,,,,,3553,-58.39996338,-113.6000366,1,0,0,response5disk,,3,14.40002441,-0.800018311,1,0,0,rectangle,14.40002441,-0.800018311,1,0,0,14.40002441,-0.800018311,1,0,0,0,111,111,127,1,,,,,,,,
,,,,,,,,,,,,,FF,,,,,,,,0.9178,,,,,,,,,,,,,,,,,,,,,,61035b9030a71cfbc7b24897,610364d5b25cdebc6342c20d,2021-07-29_22h33.38.000,Simcolourproject_2stim_asymm_v5,2020.2.10,Win32,60,61025ae37ef11b136ea224fe,,,,,,,,,2823,60.79998779,-113.6000366,1,0,0,response3disk,,4,4.799987793,-1.600006104,1,0,0,rectangle,4.799987793,-1.600006104,1,0,0,4.799987793,-1.600006104,1,0,0,0,112,112,105,1,,,,,,,,
,,,,,,,,,,,,,FF,,,,,,,,1.8002,,,,,,,,,,,,,,,,,,,,,,61035b9030a71cfbc7b24897,610364d5b25cdebc6342c20d,2021-07-29_22h33.38.000,Simcolourproject_2stim_asymm_v5,2020.2.10,Win32,60,61025ae37ef11b136ea224fe,,,,,,,,,4111,59.20001221,91.19998169,1,0,0,response1disk,,7,10.40002441,13.6000061,1,0,0,rectangle,10.40002441,13.6000061,1,0,0,10.40002441,13.6000061,1,0,0,0,113,113,98,1,,,,,,,,
,,,,,,,,,,,,,FF,,,,,,,,0.6332,,,,,,,,,,,,,,,,,,,,,,61035b9030a71cfbc7b24897,610364d5b25cdebc6342c20d,2021-07-29_22h33.38.000,Simcolourproject_2stim_asymm_v5,2020.2.10,Win32,60,61025ae37ef11b136ea224fe,,,,,,,,,1862,29.60003662,90.3999939,1,0,0,response1disk,,7,7.200012207,0.799987793,1,0,0,rectangle,7.200012207,0.799987793,1,0,0,7.200012207,0.799987793,1,0,0,0,114,114,153,1,,,,,,,,
,,,,,,,,,,,,,FF,,,,,,,,1.0313,,,,,,,,,,,,,,,,,,,,,,61035b9030a71cfbc7b24897,610364d5b25cdebc6342c20d,2021-07-29_22h33.38.000,Simcolourproject_2stim_asymm_v5,2020.2.10,Win32,60,61025ae37ef11b136ea224fe,,,,,,,,,1965,-51.20001221,87.19998169,1,0,0,response7disk,,0,-4,3.199981689,1,0,0,rectangle,-4,3.199981689,1,0,0,-4,3.199981689,1,0,0,0,115,115,69,1,,,,,,,,
,,,,,,,,,,,,,FF,,,,,,,,0.6828,,,,,,,,,,,,,,,,,,,,,,61035b9030a71cfbc7b24897,610364d5b25cdebc6342c20d,2021-07-29_22h33.38.000,Simcolourproject_2stim_asymm_v5,2020.2.10,Win32,60,61025ae37ef11b136ea224fe,,,,,,,,,154,50.40002441,104,1,0,0,response1disk,,7,7.200012207,-9.600006104,1,0,0,rectangle,7.200012207,-9.600006104,1,0,0,7.200012207,-9.600006104,1,0,0,0,116,116,96,1,,,,,,,,
,,,,,,,,,,,,,FF,,,,,,,,1.2808,,,,,,,,,,,,,,,,,,,,,,61035b9030a71cfbc7b24897,610364d5b25cdebc6342c20d,2021-07-29_22h33.38.000,Simcolourproject_2stim_asymm_v5,2020.2.10,Win32,60,61025ae37ef11b136ea224fe,,,,,,,,,96,43.20001221,-104.7999878,1,0,0,response3disk,,4,0.799987793,2.399993896,1,0,0,rectangle,0.799987793,2.399993896,1,0,0,0.799987793,2.399993896,1,0,0,0,117,117,68,1,,,,,,,,
,,,,,,,,,,,,,FF,,,,,,,,0.9316,,,,,,,,,,,,,,,,,,,,,,61035b9030a71cfbc7b24897,610364d5b25cdebc6342c20d,2021-07-29_22h33.38.000,Simcolourproject_2stim_asymm_v5,2020.2.10,Win32,60,61025ae37ef11b136ea224fe,,,,,,,,,4104,114.4000244,-53.6000061,1,0,0,response3disk,,5,1.600036621,0,1,0,0,rectangle,1.600036621,0,1,0,0,1.600036621,0,1,0,0,0,118,118,16,1,,,,,,,,
,,,,,,,,,,,,,FF,,,,,,,,0.6175,,,,,,,,,,,,,,,,,,,,,,61035b9030a71cfbc7b24897,610364d5b25cdebc6342c20d,2021-07-29_22h33.38.000,Simcolourproject_2stim_asymm_v5,2020.2.10,Win32,60,61025ae37ef11b136ea224fe,,,,,,,,,2381,46.40002441,88.79998779,1,0,0,response1disk,,7,1.600036621,3.199981689,1,0,0,rectangle,1.600036621,3.199981689,1,0,0,1.600036621,3.199981689,1,0,0,0,119,119,36,1,,,,,,,,
,,,,,,,,,,,,,FF,,,,,,,,0.5643,,,,,,,,,,,,,,,,,,,,,,61035b9030a71cfbc7b24897,610364d5b25cdebc6342c20d,2021-07-29_22h33.38.000,Simcolourproject_2stim_asymm_v5,2020.2.10,Win32,60,61025ae37ef11b136ea224fe,,,,,,,,,3443,44.79998779,93.6000061,1,0,0,response1disk,,7,-7.200012207,-5.600006104,1,0,0,rectangle,-7.200012207,-5.600006104,1,0,0,-7.200012207,-5.600006104,1,0,0,0,120,120,71,1,,,,,,,,
,,,,,,,,,,,,,FF,,,,,,,,1.0008,,,,,,,,,,,,,,,,,,,,,,61035b9030a71cfbc7b24897,610364d5b25cdebc6342c20d,2021-07-29_22h33.38.000,Simcolourproject_2stim_asymm_v5,2020.2.10,Win32,60,61025ae37ef11b136ea224fe,,,,,,,,,4159,56,111.1999817,1,0,0,response1disk,,7,22.40002441,-0.800018311,1,0,0,rectangle,22.40002441,-0.800018311,1,0,0,22.40002441,-0.800018311,1,0,0,0,121,121,43,1,,,,,,,,
,,,,,,,,,,,,,FF,,,,,,,,0.6999,,,,,,,,,,,,,,,,,,,,,,61035b9030a71cfbc7b24897,610364d5b25cdebc6342c20d,2021-07-29_22h33.38.000,Simcolourproject_2stim_asymm_v5,2020.2.10,Win32,60,61025ae37ef11b136ea224fe,,,,,,,,,3679,48.79998779,100,1,0,0,response1disk,,7,1.600036621,-6.399993896,1,0,0,rectangle,1.600036621,-6.399993896,1,0,0,1.600036621,-6.399993896,1,0,0,0,122,122,35,1,,,,,,,,
,,,,,,,,,,,,,FF,,,,,,,,0.5338,,,,,,,,,,,,,,,,,,,,,,61035b9030a71cfbc7b24897,610364d5b25cdebc6342c20d,2021-07-29_22h33.38.000,Simcolourproject_2stim_asymm_v5,2020.2.10,Win32,60,61025ae37ef11b136ea224fe,,,,,,,,,3362,40.79998779,92.79998779,1,0,0,response1disk,,7,6.400024414,-0.800018311,1,0,0,rectangle,6.400024414,-0.800018311,1,0,0,6.400024414,-0.800018311,1,0,0,0,123,123,134,1,,,,,,,,
,,,,,,,,,,,,,FF,,,,,,,,0.6833,,,,,,,,,,,,,,,,,,,,,,61035b9030a71cfbc7b24897,610364d5b25cdebc6342c20d,2021-07-29_22h33.38.000,Simcolourproject_2stim_asymm_v5,2020.2.10,Win32,60,61025ae37ef11b136ea224fe,,,,,,,,,1570,44,108,1,0,0,response1disk,,7,5.600036621,3.199981689,1,0,0,rectangle,5.600036621,3.199981689,1,0,0,5.600036621,3.199981689,1,0,0,0,124,124,123,1,,,,,,,,
,,,,,,,,,,,,,FF,,,,,,,,1.5164,,,,,,,,,,,,,,,,,,,,,,61035b9030a71cfbc7b24897,610364d5b25cdebc6342c20d,2021-07-29_22h33.38.000,Simcolourproject_2stim_asymm_v5,2020.2.10,Win32,60,61025ae37ef11b136ea224fe,,,,,,,,,2602,108.7999878,37.6000061,1,0,0,response1disk,,6,5.600036621,-1.600006104,1,0,0,rectangle,5.600036621,-1.600006104,1,0,0,5.600036621,-1.600006104,1,0,0,0,125,125,67,1,,,,,,,,
,,,,,,,,,,,,,FF,,,,,,,,0.9984,,,,,,,,,,,,,,,,,,,,,,61035b9030a71cfbc7b24897,610364d5b25cdebc6342c20d,2021-07-29_22h33.38.000,Simcolourproject_2stim_asymm_v5,2020.2.10,Win32,60,61025ae37ef11b136ea224fe,,,,,,,,,86,46.40002441,92.79998779,1,0,0,response1disk,,7,0,-16,1,0,0,rectangle,0,-16,1,0,0,0,-16,1,0,0,0,126,126,79,1,,,,,,,,
,,,,,,,,,,,,,FF,,,,,,,,0.5812,,,,,,,,,,,,,,,,,,,,,,61035b9030a71cfbc7b24897,610364d5b25cdebc6342c20d,2021-07-29_22h33.38.000,Simcolourproject_2stim_asymm_v5,2020.2.10,Win32,60,61025ae37ef11b136ea224fe,,,,,,,,,344,51.20001221,90.3999939,1,0,0,response1disk,,7,17.60003662,0.799987793,1,0,0,rectangle,17.60003662,0.799987793,1,0,0,17.60003662,0.799987793,1,0,0,0,127,127,159,1,,,,,,,,
,,,,,,,,,,,,,FF,,,,,,,,0.7169,,,,,,,,,,,,,,,,,,,,,,61035b9030a71cfbc7b24897,610364d5b25cdebc6342c20d,2021-07-29_22h33.38.000,Simcolourproject_2stim_asymm_v5,2020.2.10,Win32,60,61025ae37ef11b136ea224fe,,,,,,,,,1521,-37.59997559,89.6000061,1,0,0,response7disk,,0,-6.399963379,-1.600006104,1,0,0,rectangle,-6.399963379,-1.600006104,1,0,0,-6.399963379,-1.600006104,1,0,0,0,128,128,128,1,,,,,,,,
,,,,,,,,,,,,,FF,,,,,,,,0.6493,,,,,,,,,,,,,,,,,,,,,,61035b9030a71cfbc7b24897,610364d5b25cdebc6342c20d,2021-07-29_22h33.38.000,Simcolourproject_2stim_asymm_v5,2020.2.10,Win32,60,61025ae37ef11b136ea224fe,,,,,,,,,4216,51.20001221,108.7999878,1,0,0,response1disk,,7,12,-8.800018311,1,0,0,rectangle,-116,-51.20001221,1,0,0,5.600036621,-0.800018311,1,0,0,0,129,129,73,1,,response5disk_3,TRUE,2,2,"[202,298,130,26,289,235,165,254,109,108,89,11,76,95,108,204,260,152,291,235]",1.5496,rectangle
,,,,,,,,,,,,,FF,,,,,,,,0.9163,,,,,,,,,,,,,,,,,,,,,,61035b9030a71cfbc7b24897,610364d5b25cdebc6342c20d,2021-07-29_22h33.38.000,Simcolourproject_2stim_asymm_v5,2020.2.10,Win32,60,61025ae37ef11b136ea224fe,,,,,,,,,2680,52.79998779,-110.4000244,1,0,0,response3disk,,4,18.40002441,4,1,0,0,rectangle,18.40002441,4,1,0,0,18.40002441,4,1,0,0,0,130,130,152,1,,,,,,,,
,,,,,,,,,,,,,FF,,,,,,,,0.8313,,,,,,,,,,,,,,,,,,,,,,61035b9030a71cfbc7b24897,610364d5b25cdebc6342c20d,2021-07-29_22h33.38.000,Simcolourproject_2stim_asymm_v5,2020.2.10,Win32,60,61025ae37ef11b136ea224fe,,,,,,,,,668,46.40002441,92,1,0,0,response1disk,,7,13.60003662,-5.600006104,1,0,0,rectangle,13.60003662,-5.600006104,1,0,0,13.60003662,-5.600006104,1,0,0,0,131,131,129,1,,,,,,,,
,,,,,,,,,,,,,FF,,,,,,,,0.8482,,,,,,,,,,,,,,,,,,,,,,61035b9030a71cfbc7b24897,610364d5b25cdebc6342c20d,2021-07-29_22h33.38.000,Simcolourproject_2stim_asymm_v5,2020.2.10,Win32,60,61025ae37ef11b136ea224fe,,,,,,,,,2046,100.7999878,41.6000061,1,0,0,response1disk,,6,-0.799987793,3.199981689,1,0,0,rectangle,-0.799987793,3.199981689,1,0,0,-0.799987793,3.199981689,1,0,0,0,132,132,86,1,,,,,,,,
,,,,,,,,,,,,,FF,,,,,,,,0.5478,,,,,,,,,,,,,,,,,,,,,,61035b9030a71cfbc7b24897,610364d5b25cdebc6342c20d,2021-07-29_22h33.38.000,Simcolourproject_2stim_asymm_v5,2020.2.10,Win32,60,61025ae37ef11b136ea224fe,,,,,,,,,4070,37.60003662,85.6000061,1,0,0,response1disk,,7,18.40002441,-14.3999939,1,0,0,rectangle,18.40002441,-14.3999939,1,0,0,18.40002441,-14.3999939,1,0,0,0,133,133,21,1,,,,,,,,
,,,,,,,,,,,,,FF,,,,,,,,0.7811,,,,,,,,,,,,,,,,,,,,,,61035b9030a71cfbc7b24897,610364d5b25cdebc6342c20d,2021-07-29_22h33.38.000,Simcolourproject_2stim_asymm_v5,2020.2.10,Win32,60,61025ae37ef11b136ea224fe,,,,,,,,,122,48.79998779,103.1999817,1,0,0,response1disk,,7,3.200012207,-7.200012207,1,0,0,rectangle,3.200012207,-7.200012207,1,0,0,3.200012207,-7.200012207,1,0,0,0,134,134,109,1,,,,,,,,
,,,,,,,,,,,,,FF,,,,,,,,0.567,,,,,,,,,,,,,,,,,,,,,,61035b9030a71cfbc7b24897,610364d5b25cdebc6342c20d,2021-07-29_22h33.38.000,Simcolourproject_2stim_asymm_v5,2020.2.10,Win32,60,61025ae37ef11b136ea224fe,,,,,,,,,2877,37.60003662,75.19998169,1,0,0,response1disk,,7,16,-11.20001221,1,0,0,rectangle,16,-11.20001221,1,0,0,16,-11.20001221,1,0,0,0,135,135,103,1,,,,,,,,
,,,,,,,,,,,,,FF,,,,,,,,0.5668,,,,,,,,,,,,,,,,,,,,,,61035b9030a71cfbc7b24897,610364d5b25cdebc6342c20d,2021-07-29_22h33.38.000,Simcolourproject_2stim_asymm_v5,2020.2.10,Win32,60,61025ae37ef11b136ea224fe,,,,,,,,,2399,51.20001221,76.79998779,1,0,0,response1disk,,7,-12.79998779,-2.399993896,1,0,0,rectangle,-12.79998779,-2.399993896,1,0,0,-12.79998779,-2.399993896,1,0,0,0,136,136,40,1,,,,,,,,
,,,,,,,,,,,,,FF,,,,,,,,1.9145,,,,,,,,,,,,,,,,,,,,,,61035b9030a71cfbc7b24897,610364d5b25cdebc6342c20d,2021-07-29_22h33.38.000,Simcolourproject_2stim_asymm_v5,2020.2.10,Win32,60,61025ae37ef11b136ea224fe,,,,,,,,,3290,-106.3999634,-61.6000061,1,0,0,response5disk,,2,15.20001221,-8.800018311,1,0,0,rectangle,15.20001221,-8.800018311,1,0,0,15.20001221,-8.800018311,1,0,0,0,137,137,9,1,,,,,,,,
,,,,,,,,,,,,,FF,,,,,,,,1.1646,,,,,,,,,,,,,,,,,,,,,,61035b9030a71cfbc7b24897,610364d5b25cdebc6342c20d,2021-07-29_22h33.38.000,Simcolourproject_2stim_asymm_v5,2020.2.10,Win32,60,61025ae37ef11b136ea224fe,,,,,,,,,4331,37.60003662,92.79998779,1,0,0,response1disk,,7,-12.79998779,-1.600006104,1,0,0,rectangle,-12.79998779,-1.600006104,1,0,0,-12.79998779,-1.600006104,1,0,0,0,138,138,64,1,,,,,,,,
,,,,,,,,,,,,,FF,,,,,,,,0.7821,,,,,,,,,,,,,,,,,,,,,,61035b9030a71cfbc7b24897,610364d5b25cdebc6342c20d,2021-07-29_22h33.38.000,Simcolourproject_2stim_asymm_v5,2020.2.10,Win32,60,61025ae37ef11b136ea224fe,,,,,,,,,49,45.60003662,92.79998779,1,0,0,response1disk,,7,2.400024414,-1.600006104,1,0,0,rectangle,2.400024414,-1.600006104,1,0,0,2.400024414,-1.600006104,1,0,0,0,139,139,58,1,,,,,,,,
,,,,,,,,,,,,,FF,,,,,,,,0.8811,,,,,,,,,,,,,,,,,,,,,,61035b9030a71cfbc7b24897,610364d5b25cdebc6342c20d,2021-07-29_22h33.38.000,Simcolourproject_2stim_asymm_v5,2020.2.10,Win32,60,61025ae37ef11b136ea224fe,,,,,,,,,594,50.40002441,81.6000061,1,0,0,response1disk,,7,0,14.3999939,1,0,0,rectangle,0,14.3999939,1,0,0,0,14.3999939,1,0,0,0,140,140,139,1,,,,,,,,
,,,,,,,,,,,,,FF,,,,,,,,0.767,,,,,,,,,,,,,,,,,,,,,,61035b9030a71cfbc7b24897,610364d5b25cdebc6342c20d,2021-07-29_22h33.38.000,Simcolourproject_2stim_asymm_v5,2020.2.10,Win32,60,61025ae37ef11b136ea224fe,,,,,,,,,4089,36,105.6000061,1,0,0,response1disk,,7,2.400024414,4,1,0,0,rectangle,2.400024414,4,1,0,0,2.400024414,4,1,0,0,0,141,141,13,1,,,,,,,,
,,,,,,,,,,,,,FF,,,,,,,,1.0665,,,,,,,,,,,,,,,,,,,,,,61035b9030a71cfbc7b24897,610364d5b25cdebc6342c20d,2021-07-29_22h33.38.000,Simcolourproject_2stim_asymm_v5,2020.2.10,Win32,60,61025ae37ef11b136ea224fe,,,,,,,,,3330,-57.59997559,-111.2000122,1,0,0,response5disk,,3,-3.200012207,2.399993896,1,0,0,rectangle,-3.200012207,2.399993896,1,0,0,-3.200012207,2.399993896,1,0,0,0,142,142,4,1,,,,,,,,
,,,,,,,,,,,,,FF,,,,,,,,1.1831,,,,,,,,,,,,,,,,,,,,,,61035b9030a71cfbc7b24897,610364d5b25cdebc6342c20d,2021-07-29_22h33.38.000,Simcolourproject_2stim_asymm_v5,2020.2.10,Win32,60,61025ae37ef11b136ea224fe,,,,,,,,,821,100.7999878,-45.6000061,1,0,0,response3disk,,5,5.600036621,-4.800018311,1,0,0,rectangle,5.600036621,-4.800018311,1,0,0,5.600036621,-4.800018311,1,0,0,0,143,143,46,1,,,,,,,,
,,,,,,,,,,,,,FF,,,,,,,,0.6808,,,,,,,,,,,,,,,,,,,,,,61035b9030a71cfbc7b24897,610364d5b25cdebc6342c20d,2021-07-29_22h33.38.000,Simcolourproject_2stim_asymm_v5,2020.2.10,Win32,60,61025ae37ef11b136ea224fe,,,,,,,,,672,44.79998779,94.3999939,1,0,0,response1disk,,7,7.200012207,-2.399993896,1,0,0,rectangle,7.200012207,-2.399993896,1,0,0,7.200012207,-2.399993896,1,0,0,0,144,144,87,1,,,,,,,,
,,,,,,,,,,,,,FF,,,,,,,,1.0502,,,,,,,,,,,,,,,,,,,,,,61035b9030a71cfbc7b24897,610364d5b25cdebc6342c20d,2021-07-29_22h33.38.000,Simcolourproject_2stim_asymm_v5,2020.2.10,Win32,60,61025ae37ef11b136ea224fe,,,,,,,,,2661,-52.79998779,-109.6000366,1,0,0,response5disk,,3,24.79998779,7.199981689,1,0,0,rectangle,24.79998779,7.199981689,1,0,0,24.79998779,7.199981689,1,0,0,0,145,145,62,1,,,,,,,,
,,,,,,,,,,,,,FF,,,,,,,,1.4813,,,,,,,,,,,,,,,,,,,,,,61035b9030a71cfbc7b24897,610364d5b25cdebc6342c20d,2021-07-29_22h33.38.000,Simcolourproject_2stim_asymm_v5,2020.2.10,Win32,60,61025ae37ef11b136ea224fe,,,,,,,,,887,-97.59997559,-66.3999939,1,0,0,response5disk,,2,6.400024414,3.199981689,1,0,0,rectangle,6.400024414,3.199981689,1,0,0,6.400024414,3.199981689,1,0,0,0,146,146,5,1,,,,,,,,
,,,,,,,,,,,,,FF,,,,,,,,0.6162,,,,,,,,,,,,,,,,,,,,,,61035b9030a71cfbc7b24897,610364d5b25cdebc6342c20d,2021-07-29_22h33.38.000,Simcolourproject_2stim_asymm_v5,2020.2.10,Win32,60,61025ae37ef11b136ea224fe,,,,,,,,,1359,36,93.6000061,1,0,0,response1disk,,7,8,0.799987793,1,0,0,rectangle,8,0.799987793,1,0,0,8,0.799987793,1,0,0,0,147,147,124,1,,,,,,,,
,,,,,,,,,,,,,FF,,,,,,,,0.5979,,,,,,,,,,,,,,,,,,,,,,61035b9030a71cfbc7b24897,610364d5b25cdebc6342c20d,2021-07-29_22h33.38.000,Simcolourproject_2stim_asymm_v5,2020.2.10,Win32,60,61025ae37ef11b136ea224fe,,,,,,,,,41,33.60003662,82.3999939,1,0,0,response1disk,,7,13.60003662,-8.800018311,1,0,0,rectangle,13.60003662,-8.800018311,1,0,0,13.60003662,-8.800018311,1,0,0,0,148,148,158,1,,,,,,,,
,,,,,,,,,,,,,FF,,,,,,,,0.6643,,,,,,,,,,,,,,,,,,,,,,61035b9030a71cfbc7b24897,610364d5b25cdebc6342c20d,2021-07-29_22h33.38.000,Simcolourproject_2stim_asymm_v5,2020.2.10,Win32,60,61025ae37ef11b136ea224fe,,,,,,,,,1582,52.79998779,84,1,0,0,response1disk,,7,-16,4,1,0,0,rectangle,-16,4,1,0,0,-16,4,1,0,0,0,149,149,74,1,,,,,,,,
,,,,,,,,,,,,,FF,,,,,,,,0.6502,,,,,,,,,,,,,,,,,,,,,,61035b9030a71cfbc7b24897,610364d5b25cdebc6342c20d,2021-07-29_22h33.38.000,Simcolourproject_2stim_asymm_v5,2020.2.10,Win32,60,61025ae37ef11b136ea224fe,,,,,,,,,3220,52,90.3999939,1,0,0,response1disk,,7,0,3.199981689,1,0,0,rectangle,0,3.199981689,1,0,0,0,3.199981689,1,0,0,0,150,150,57,1,,,,,,,,
,,,,,,,,,,,,,FF,,,,,,,,0.6665,,,,,,,,,,,,,,,,,,,,,,61035b9030a71cfbc7b24897,610364d5b25cdebc6342c20d,2021-07-29_22h33.38.000,Simcolourproject_2stim_asymm_v5,2020.2.10,Win32,60,61025ae37ef11b136ea224fe,,,,,,,,,1849,51.20001221,101.6000061,1,0,0,response1disk,,7,-7.200012207,13.6000061,1,0,0,rectangle,45.60003662,104,1,0,0,-5.599975586,-4.800018311,1,0,0,0,151,151,113,1,,response1disk_3,TRUE,7,7,"[202,298,130,26,289,235,165,254,109,108,89,11,76,95,108,204,260,152,291,235]",1.3328,rectangle
,,,,,,,,,,,,,FF,,,,,,,,0.7505,,,,,,,,,,,,,,,,,,,,,,61035b9030a71cfbc7b24897,610364d5b25cdebc6342c20d,2021-07-29_22h33.38.000,Simcolourproject_2stim_asymm_v5,2020.2.10,Win32,60,61025ae37ef11b136ea224fe,,,,,,,,,2286,47.20001221,88.79998779,1,0,0,response1disk,,7,5.600036621,0.799987793,1,0,0,rectangle,5.600036621,0.799987793,1,0,0,5.600036621,0.799987793,1,0,0,0,152,152,133,1,,,,,,,,
,,,,,,,,,,,,,FF,,,,,,,,1.0142,,,,,,,,,,,,,,,,,,,,,,61035b9030a71cfbc7b24897,610364d5b25cdebc6342c20d,2021-07-29_22h33.38.000,Simcolourproject_2stim_asymm_v5,2020.2.10,Win32,60,61025ae37ef11b136ea224fe,,,,,,,,,2026,-57.59997559,-112,1,0,0,response5disk,,3,10.40002441,5.600006104,1,0,0,rectangle,10.40002441,5.600006104,1,0,0,10.40002441,5.600006104,1,0,0,0,153,153,84,1,,,,,,,,
,,,,,,,,,,,,,FF,,,,,,,,0.9651,,,,,,,,,,,,,,,,,,,,,,61035b9030a71cfbc7b24897,610364d5b25cdebc6342c20d,2021-07-29_22h33.38.000,Simcolourproject_2stim_asymm_v5,2020.2.10,Win32,60,61025ae37ef11b136ea224fe,,,,,,,,,3047,-107.2000122,-60,1,0,0,response5disk,,2,8,2.399993896,1,0,0,rectangle,8,2.399993896,1,0,0,8,2.399993896,1,0,0,0,154,154,32,1,,,,,,,,
,,,,,,,,,,,,,FF,,,,,,,,0.5987,,,,,,,,,,,,,,,,,,,,,,61035b9030a71cfbc7b24897,610364d5b25cdebc6342c20d,2021-07-29_22h33.38.000,Simcolourproject_2stim_asymm_v5,2020.2.10,Win32,60,61025ae37ef11b136ea224fe,,,,,,,,,1924,39.20001221,80.79998779,1,0,0,response1disk,,7,1.600036621,-7.200012207,1,0,0,rectangle,1.600036621,-7.200012207,1,0,0,1.600036621,-7.200012207,1,0,0,0,155,155,89,1,,,,,,,,
,,,,,,,,,,,,,FF,,,,,,,,0.751,,,,,,,,,,,,,,,,,,,,,,61035b9030a71cfbc7b24897,610364d5b25cdebc6342c20d,2021-07-29_22h33.38.000,Simcolourproject_2stim_asymm_v5,2020.2.10,Win32,60,61025ae37ef11b136ea224fe,,,,,,,,,992,35.20001221,94.3999939,1,0,0,response1disk,,7,4,-6.399993896,1,0,0,rectangle,4,-6.399993896,1,0,0,4,-6.399993896,1,0,0,0,156,156,78,1,,,,,,,,
,,,,,,,,,,,,,FF,,,,,,,,0.7331,,,,,,,,,,,,,,,,,,,,,,61035b9030a71cfbc7b24897,610364d5b25cdebc6342c20d,2021-07-29_22h33.38.000,Simcolourproject_2stim_asymm_v5,2020.2.10,Win32,60,61025ae37ef11b136ea224fe,,,,,,,,,3107,110.4000244,42.3999939,1,0,0,response1disk,,6,8,-0.800018311,1,0,0,rectangle,8,-0.800018311,1,0,0,8,-0.800018311,1,0,0,0,157,157,44,1,,,,,,,,
,,,,,,,,,,,,,FF,,,,,,,,0.6164,,,,,,,,,,,,,,,,,,,,,,61035b9030a71cfbc7b24897,610364d5b25cdebc6342c20d,2021-07-29_22h33.38.000,Simcolourproject_2stim_asymm_v5,2020.2.10,Win32,60,61025ae37ef11b136ea224fe,,,,,,,,,1352,41.60003662,95.19998169,1,0,0,response1disk,,7,5.600036621,-1.600006104,1,0,0,rectangle,5.600036621,-1.600006104,1,0,0,5.600036621,-1.600006104,1,0,0,0,158,158,26,1,,,,,,,,
,,,,,,,,,,,,,FF,,,,,,,,0.95,,,,,,,,,,,,,,,,,,,,,,61035b9030a71cfbc7b24897,610364d5b25cdebc6342c20d,2021-07-29_22h33.38.000,Simcolourproject_2stim_asymm_v5,2020.2.10,Win32,60,61025ae37ef11b136ea224fe,,,,,,,,,4115,48.79998779,114.3999939,1,0,0,response1disk,,7,10.40002441,-8,1,0,0,rectangle,10.40002441,-8,1,0,0,10.40002441,-8,1,0,0,0,159,159,28,1,,,,,,,,
,,,,,,,,,,,,,FF,,,,,,,,5.7645,,,,,,,,,,,,,,,,,,,,,,61035b9030a71cfbc7b24897,610364d5b25cdebc6342c20d,2021-07-29_22h33.38.000,Simcolourproject_2stim_asymm_v5,2020.2.10,Win32,60,61025ae37ef11b136ea224fe,,,,,,,,,3195,93.60003662,60.79998779,1,0,0,response1disk,,6,4.799987793,-1.600006104,1,0,0,rectangle,4.799987793,-1.600006104,1,0,0,4.799987793,-1.600006104,1,0,0,1,0,160,49,1,,,,,,,,
,,,,,,,,,,,,,FF,,,,,,,,0.6483,,,,,,,,,,,,,,,,,,,,,,61035b9030a71cfbc7b24897,610364d5b25cdebc6342c20d,2021-07-29_22h33.38.000,Simcolourproject_2stim_asymm_v5,2020.2.10,Win32,60,61025ae37ef11b136ea224fe,,,,,,,,,1117,70.40002441,96.79998779,1,0,0,response1disk,,7,0,4,1,0,0,rectangle,0,4,1,0,0,0,4,1,0,0,1,1,161,103,1,,,,,,,,
,,,,,,,,,,,,,FF,,,,,,,,0.8646,,,,,,,,,,,,,,,,,,,,,,61035b9030a71cfbc7b24897,610364d5b25cdebc6342c20d,2021-07-29_22h33.38.000,Simcolourproject_2stim_asymm_v5,2020.2.10,Win32,60,61025ae37ef11b136ea224fe,,,,,,,,,3515,-40.79998779,-116.7999878,1,0,0,response5disk,,3,6.400024414,0,1,0,0,rectangle,6.400024414,0,1,0,0,6.400024414,0,1,0,0,1,2,162,7,1,,,,,,,,
,,,,,,,,,,,,,FF,,,,,,,,0.765,,,,,,,,,,,,,,,,,,,,,,61035b9030a71cfbc7b24897,610364d5b25cdebc6342c20d,2021-07-29_22h33.38.000,Simcolourproject_2stim_asymm_v5,2020.2.10,Win32,60,61025ae37ef11b136ea224fe,,,,,,,,,2899,45.60003662,-98.40002441,1,0,0,response3disk,,4,-0.799987793,-0.800018311,1,0,0,rectangle,-0.799987793,-0.800018311,1,0,0,-0.799987793,-0.800018311,1,0,0,1,3,163,50,1,,,,,,,,
,,,,,,,,,,,,,FF,,,,,,,,0.6649,,,,,,,,,,,,,,,,,,,,,,61035b9030a71cfbc7b24897,610364d5b25cdebc6342c20d,2021-07-29_22h33.38.000,Simcolourproject_2stim_asymm_v5,2020.2.10,Win32,60,61025ae37ef11b136ea224fe,,,,,,,,,1973,114.4000244,-60.80001831,1,0,0,response3disk,,5,-5.599975586,11.19998169,1,0,0,rectangle,60,96,1,0,0,-4.799987793,3.199981689,1,0,0,1,4,164,115,1,,response1disk_3,TRUE,7,7,"[202,298,130,26,289,235,165,254,109,108,89,11,76,95,108,204,260,152,291,235]",1.4495,rectangle
,,,,,,,,,,,,,FF,,,,,,,,0.6812,,,,,,,,,,,,,,,,,,,,,,61035b9030a71cfbc7b24897,610364d5b25cdebc6342c20d,2021-07-29_22h33.38.000,Simcolourproject_2stim_asymm_v5,2020.2.10,Win32,60,61025ae37ef11b136ea224fe,,,,,,,,,2201,52,92,1,0,0,response1disk,,7,-7.200012207,0.799987793,1,0,0,rectangle,-7.200012207,0.799987793,1,0,0,-7.200012207,0.799987793,1,0,0,1,5,165,63,1,,,,,,,,
,,,,,,,,,,,,,FF,,,,,,,,0.7319,,,,,,,,,,,,,,,,,,,,,,61035b9030a71cfbc7b24897,610364d5b25cdebc6342c20d,2021-07-29_22h33.38.000,Simcolourproject_2stim_asymm_v5,2020.2.10,Win32,60,61025ae37ef11b136ea224fe,,,,,,,,,4174,58.40002441,86.3999939,1,0,0,response1disk,,7,-2.399963379,-9.600006104,1,0,0,rectangle,-2.399963379,-9.600006104,1,0,0,-2.399963379,-9.600006104,1,0,0,1,6,166,157,1,,,,,,,,
,,,,,,,,,,,,,FF,,,,,,,,0.999,,,,,,,,,,,,,,,,,,,,,,61035b9030a71cfbc7b24897,610364d5b25cdebc6342c20d,2021-07-29_22h33.38.000,Simcolourproject_2stim_asymm_v5,2020.2.10,Win32,60,61025ae37ef11b136ea224fe,,,,,,,,,2033,49.60003662,-103.2000122,1,0,0,response3disk,,4,2.400024414,0,1,0,0,rectangle,2.400024414,0,1,0,0,2.400024414,0,1,0,0,1,7,167,38,1,,,,,,,,
,,,,,,,,,,,,,FF,,,,,,,,0.6481,,,,,,,,,,,,,,,,,,,,,,61035b9030a71cfbc7b24897,610364d5b25cdebc6342c20d,2021-07-29_22h33.38.000,Simcolourproject_2stim_asymm_v5,2020.2.10,Win32,60,61025ae37ef11b136ea224fe,,,,,,,,,3603,59.20001221,95.19998169,1,0,0,response1disk,,7,-4.799987793,0.799987793,1,0,0,rectangle,-4.799987793,0.799987793,1,0,0,-4.799987793,0.799987793,1,0,0,1,8,168,155,1,,,,,,,,
,,,,,,,,,,,,,FF,,,,,,,,0.7337,,,,,,,,,,,,,,,,,,,,,,61035b9030a71cfbc7b24897,610364d5b25cdebc6342c20d,2021-07-29_22h33.38.000,Simcolourproject_2stim_asymm_v5,2020.2.10,Win32,60,61025ae37ef11b136ea224fe,,,,,,,,,3422,47.20001221,124,1,0,0,response1disk,,7,12,4,1,0,0,rectangle,12,4,1,0,0,12,4,1,0,0,1,9,169,86,1,,,,,,,,
,,,,,,,,,,,,,FF,,,,,,,,0.7148,,,,,,,,,,,,,,,,,,,,,,61035b9030a71cfbc7b24897,610364d5b25cdebc6342c20d,2021-07-29_22h33.38.000,Simcolourproject_2stim_asymm_v5,2020.2.10,Win32,60,61025ae37ef11b136ea224fe,,,,,,,,,862,32.79998779,102.3999939,1,0,0,response1disk,,7,-4.799987793,-10.3999939,1,0,0,rectangle,-4.799987793,-10.3999939,1,0,0,-4.799987793,-10.3999939,1,0,0,1,10,170,119,1,,,,,,,,
,,,,,,,,,,,,,FF,,,,,,,,0.7831,,,,,,,,,,,,,,,,,,,,,,61035b9030a71cfbc7b24897,610364d5b25cdebc6342c20d,2021-07-29_22h33.38.000,Simcolourproject_2stim_asymm_v5,2020.2.10,Win32,60,61025ae37ef11b136ea224fe,,,,,,,,,285,38.40002441,124.7999878,1,0,0,response1disk,,7,18.40002441,-1.600006104,1,0,0,rectangle,18.40002441,-1.600006104,1,0,0,18.40002441,-1.600006104,1,0,0,1,11,171,122,1,,,,,,,,
,,,,,,,,,,,,,FF,,,,,,,,0.7643,,,,,,,,,,,,,,,,,,,,,,61035b9030a71cfbc7b24897,610364d5b25cdebc6342c20d,2021-07-29_22h33.38.000,Simcolourproject_2stim_asymm_v5,2020.2.10,Win32,60,61025ae37ef11b136ea224fe,,,,,,,,,3336,-44,114.3999939,1,0,0,response7disk,,0,-4.799987793,2.399993896,1,0,0,rectangle,-4.799987793,2.399993896,1,0,0,-4.799987793,2.399993896,1,0,0,1,12,172,159,1,,,,,,,,
,,,,,,,,,,,,,FF,,,,,,,,0.6487,,,,,,,,,,,,,,,,,,,,,,61035b9030a71cfbc7b24897,610364d5b25cdebc6342c20d,2021-07-29_22h33.38.000,Simcolourproject_2stim_asymm_v5,2020.2.10,Win32,60,61025ae37ef11b136ea224fe,,,,,,,,,1024,62.40002441,110.3999939,1,0,0,response1disk,,7,15.20001221,-10.3999939,1,0,0,rectangle,15.20001221,-10.3999939,1,0,0,15.20001221,-10.3999939,1,0,0,1,13,173,80,1,,,,,,,,
,,,,,,,,,,,,,FF,,,,,,,,0.6835,,,,,,,,,,,,,,,,,,,,,,61035b9030a71cfbc7b24897,610364d5b25cdebc6342c20d,2021-07-29_22h33.38.000,Simcolourproject_2stim_asymm_v5,2020.2.10,Win32,60,61025ae37ef11b136ea224fe,,,,,,,,,828,109.6000366,55.19998169,1,0,0,response1disk,,6,17.60003662,2.399993896,1,0,0,rectangle,17.60003662,2.399993896,1,0,0,17.60003662,2.399993896,1,0,0,1,14,174,72,1,,,,,,,,
,,,,,,,,,,,,,FF,,,,,,,,0.6836,,,,,,,,,,,,,,,,,,,,,,61035b9030a71cfbc7b24897,610364d5b25cdebc6342c20d,2021-07-29_22h33.38.000,Simcolourproject_2stim_asymm_v5,2020.2.10,Win32,60,61025ae37ef11b136ea224fe,,,,,,,,,923,41.60003662,111.1999817,1,0,0,response1disk,,7,16.79998779,-1.600006104,1,0,0,rectangle,16.79998779,-1.600006104,1,0,0,16.79998779,-1.600006104,1,0,0,1,15,175,2,1,,,,,,,,
,,,,,,,,,,,,,FF,,,,,,,,0.7146,,,,,,,,,,,,,,,,,,,,,,61035b9030a71cfbc7b24897,610364d5b25cdebc6342c20d,2021-07-29_22h33.38.000,Simcolourproject_2stim_asymm_v5,2020.2.10,Win32,60,61025ae37ef11b136ea224fe,,,,,,,,,2872,51.20001221,104.7999878,1,0,0,response1disk,,7,3.200012207,12.79998779,1,0,0,rectangle,3.200012207,12.79998779,1,0,0,3.200012207,12.79998779,1,0,0,1,16,176,121,1,,,,,,,,
,,,,,,,,,,,,,FF,,,,,,,,1.0646,,,,,,,,,,,,,,,,,,,,,,61035b9030a71cfbc7b24897,610364d5b25cdebc6342c20d,2021-07-29_22h33.38.000,Simcolourproject_2stim_asymm_v5,2020.2.10,Win32,60,61025ae37ef11b136ea224fe,,,,,,,,,2790,109.6000366,40,1,0,0,response1disk,,6,15.20001221,1.600006104,1,0,0,rectangle,15.20001221,1.600006104,1,0,0,15.20001221,1.600006104,1,0,0,1,17,177,48,1,,,,,,,,
,,,,,,,,,,,,,FF,,,,,,,,0.7481,,,,,,,,,,,,,,,,,,,,,,61035b9030a71cfbc7b24897,610364d5b25cdebc6342c20d,2021-07-29_22h33.38.000,Simcolourproject_2stim_asymm_v5,2020.2.10,Win32,60,61025ae37ef11b136ea224fe,,,,,,,,,1801,48,92,1,0,0,response1disk,,7,13.60003662,-4.800018311,1,0,0,rectangle,13.60003662,-4.800018311,1,0,0,13.60003662,-4.800018311,1,0,0,1,18,178,152,1,,,,,,,,
,,,,,,,,,,,,,FF,,,,,,,,1.2495,,,,,,,,,,,,,,,,,,,,,,61035b9030a71cfbc7b24897,610364d5b25cdebc6342c20d,2021-07-29_22h33.38.000,Simcolourproject_2stim_asymm_v5,2020.2.10,Win32,60,61025ae37ef11b136ea224fe,,,,,,,,,1705,111.2000122,40,1,0,0,response1disk,,6,1.600036621,0.799987793,1,0,0,rectangle,1.600036621,0.799987793,1,0,0,1.600036621,0.799987793,1,0,0,1,19,179,142,1,,,,,,,,
,,,,,,,,,,,,,FF,,,,,,,,0.598,,,,,,,,,,,,,,,,,,,,,,61035b9030a71cfbc7b24897,610364d5b25cdebc6342c20d,2021-07-29_22h33.38.000,Simcolourproject_2stim_asymm_v5,2020.2.10,Win32,60,61025ae37ef11b136ea224fe,,,,,,,,,3796,44.79998779,116,1,0,0,response1disk,,7,-4.799987793,-0.800018311,1,0,0,rectangle,-4.799987793,-0.800018311,1,0,0,-4.799987793,-0.800018311,1,0,0,1,20,180,141,1,,,,,,,,
,,,,,,,,,,,,,FF,,,,,,,,0.5829,,,,,,,,,,,,,,,,,,,,,,61035b9030a71cfbc7b24897,610364d5b25cdebc6342c20d,2021-07-29_22h33.38.000,Simcolourproject_2stim_asymm_v5,2020.2.10,Win32,60,61025ae37ef11b136ea224fe,,,,,,,,,1867,38.40002441,96,1,0,0,response1disk,,7,11.20001221,-6.399993896,1,0,0,rectangle,11.20001221,-6.399993896,1,0,0,11.20001221,-6.399993896,1,0,0,1,21,181,158,1,,,,,,,,
,,,,,,,,,,,,,FF,,,,,,,,0.6003,,,,,,,,,,,,,,,,,,,,,,61035b9030a71cfbc7b24897,610364d5b25cdebc6342c20d,2021-07-29_22h33.38.000,Simcolourproject_2stim_asymm_v5,2020.2.10,Win32,60,61025ae37ef11b136ea224fe,,,,,,,,,1660,27.20001221,96,1,0,0,response1disk,,7,-1.599975586,-14.3999939,1,0,0,rectangle,-1.599975586,-14.3999939,1,0,0,-1.599975586,-14.3999939,1,0,0,1,22,182,53,1,,,,,,,,
,,,,,,,,,,,,,FF,,,,,,,,0.9486,,,,,,,,,,,,,,,,,,,,,,61035b9030a71cfbc7b24897,610364d5b25cdebc6342c20d,2021-07-29_22h33.38.000,Simcolourproject_2stim_asymm_v5,2020.2.10,Win32,60,61025ae37ef11b136ea224fe,,,,,,,,,1285,54.40002441,111.1999817,1,0,0,response1disk,,7,6.400024414,-11.20001221,1,0,0,rectangle,6.400024414,-11.20001221,1,0,0,6.400024414,-11.20001221,1,0,0,1,23,183,31,1,,,,,,,,
,,,,,,,,,,,,,FF,,,,,,,,0.6667,,,,,,,,,,,,,,,,,,,,,,61035b9030a71cfbc7b24897,610364d5b25cdebc6342c20d,2021-07-29_22h33.38.000,Simcolourproject_2stim_asymm_v5,2020.2.10,Win32,60,61025ae37ef11b136ea224fe,,,,,,,,,3137,44.79998779,88,1,0,0,response1disk,,7,3.200012207,-8.800018311,1,0,0,rectangle,3.200012207,-8.800018311,1,0,0,3.200012207,-8.800018311,1,0,0,1,24,184,131,1,,,,,,,,
,,,,,,,,,,,,,FF,,,,,,,,1.1146,,,,,,,,,,,,,,,,,,,,,,61035b9030a71cfbc7b24897,610364d5b25cdebc6342c20d,2021-07-29_22h33.38.000,Simcolourproject_2stim_asymm_v5,2020.2.10,Win32,60,61025ae37ef11b136ea224fe,,,,,,,,,644,110.4000244,62.3999939,1,0,0,response1disk,,6,16,-0.800018311,1,0,0,rectangle,16,-0.800018311,1,0,0,16,-0.800018311,1,0,0,1,25,185,4,1,,,,,,,,
,,,,,,,,,,,,,FF,,,,,,,,0.6499,,,,,,,,,,,,,,,,,,,,,,61035b9030a71cfbc7b24897,610364d5b25cdebc6342c20d,2021-07-29_22h33.38.000,Simcolourproject_2stim_asymm_v5,2020.2.10,Win32,60,61025ae37ef11b136ea224fe,,,,,,,,,306,38.40002441,87.19998169,1,0,0,response1disk,,7,6.400024414,4,1,0,0,rectangle,6.400024414,4,1,0,0,6.400024414,4,1,0,0,1,26,186,89,1,,,,,,,,
,,,,,,,,,,,,,FF,,,,,,,,0.7339,,,,,,,,,,,,,,,,,,,,,,61035b9030a71cfbc7b24897,610364d5b25cdebc6342c20d,2021-07-29_22h33.38.000,Simcolourproject_2stim_asymm_v5,2020.2.10,Win32,60,61025ae37ef11b136ea224fe,,,,,,,,,4080,47.20001221,89.6000061,1,0,0,response1disk,,7,-1.599975586,0.799987793,1,0,0,rectangle,-1.599975586,0.799987793,1,0,0,-1.599975586,0.799987793,1,0,0,1,27,187,47,1,,,,,,,,
,,,,,,,,,,,,,FF,,,,,,,,0.6007,,,,,,,,,,,,,,,,,,,,,,61035b9030a71cfbc7b24897,610364d5b25cdebc6342c20d,2021-07-29_22h33.38.000,Simcolourproject_2stim_asymm_v5,2020.2.10,Win32,60,61025ae37ef11b136ea224fe,,,,,,,,,2749,46.40002441,90.3999939,1,0,0,response1disk,,7,3.200012207,-10.3999939,1,0,0,rectangle,3.200012207,-10.3999939,1,0,0,3.200012207,-10.3999939,1,0,0,1,28,188,46,1,,,,,,,,
,,,,,,,,,,,,,FF,,,,,,,,1.065,,,,,,,,,,,,,,,,,,,,,,61035b9030a71cfbc7b24897,610364d5b25cdebc6342c20d,2021-07-29_22h33.38.000,Simcolourproject_2stim_asymm_v5,2020.2.10,Win32,60,61025ae37ef11b136ea224fe,,,,,,,,,1293,109.6000366,-70.3999939,1,0,0,response3disk,,5,0.799987793,0,1,0,0,rectangle,0.799987793,0,1,0,0,0.799987793,0,1,0,0,1,29,189,146,1,,,,,,,,
,,,,,,,,,,,,,FF,,,,,,,,0.7169,,,,,,,,,,,,,,,,,,,,,,61035b9030a71cfbc7b24897,610364d5b25cdebc6342c20d,2021-07-29_22h33.38.000,Simcolourproject_2stim_asymm_v5,2020.2.10,Win32,60,61025ae37ef11b136ea224fe,,,,,,,,,2501,52.79998779,106.3999939,1,0,0,response1disk,,7,15.20001221,-6.399993896,1,0,0,rectangle,15.20001221,-6.399993896,1,0,0,15.20001221,-6.399993896,1,0,0,1,30,190,132,1,,,,,,,,
,,,,,,,,,,,,,FF,,,,,,,,1.4981,,,,,,,,,,,,,,,,,,,,,,61035b9030a71cfbc7b24897,610364d5b25cdebc6342c20d,2021-07-29_22h33.38.000,Simcolourproject_2stim_asymm_v5,2020.2.10,Win32,60,61025ae37ef11b136ea224fe,,,,,,,,,3139,112,-61.6000061,1,0,0,response3disk,,5,0.799987793,10.3999939,1,0,0,rectangle,0.799987793,10.3999939,1,0,0,0.799987793,10.3999939,1,0,0,1,31,191,123,1,,,,,,,,
,,,,,,,,,,,,,FF,,,,,,,,0.8151,,,,,,,,,,,,,,,,,,,,,,61035b9030a71cfbc7b24897,610364d5b25cdebc6342c20d,2021-07-29_22h33.38.000,Simcolourproject_2stim_asymm_v5,2020.2.10,Win32,60,61025ae37ef11b136ea224fe,,,,,,,,,4036,92.79998779,42.3999939,1,0,0,response1disk,,6,9.600036621,-4.800018311,1,0,0,rectangle,9.600036621,-4.800018311,1,0,0,9.600036621,-4.800018311,1,0,0,1,32,192,153,1,,,,,,,,
,,,,,,,,,,,,,FF,,,,,,,,0.7999,,,,,,,,,,,,,,,,,,,,,,61035b9030a71cfbc7b24897,610364d5b25cdebc6342c20d,2021-07-29_22h33.38.000,Simcolourproject_2stim_asymm_v5,2020.2.10,Win32,60,61025ae37ef11b136ea224fe,,,,,,,,,1613,84.79998779,39.19998169,1,0,0,response1disk,,6,14.40002441,4,1,0,0,rectangle,14.40002441,4,1,0,0,14.40002441,4,1,0,0,1,33,193,0,1,,,,,,,,
,,,,,,,,,,,,,FF,,,,,,,,0.7838,,,,,,,,,,,,,,,,,,,,,,61035b9030a71cfbc7b24897,610364d5b25cdebc6342c20d,2021-07-29_22h33.38.000,Simcolourproject_2stim_asymm_v5,2020.2.10,Win32,60,61025ae37ef11b136ea224fe,,,,,,,,,1562,56.79998779,100,1,0,0,response1disk,,7,4,-1.600006104,1,0,0,rectangle,4,-1.600006104,1,0,0,4,-1.600006104,1,0,0,1,34,194,149,1,,,,,,,,
,,,,,,,,,,,,,FF,,,,,,,,0.5502,,,,,,,,,,,,,,,,,,,,,,61035b9030a71cfbc7b24897,610364d5b25cdebc6342c20d,2021-07-29_22h33.38.000,Simcolourproject_2stim_asymm_v5,2020.2.10,Win32,60,61025ae37ef11b136ea224fe,,,,,,,,,4075,52,84.79998779,1,0,0,response1disk,,7,3.200012207,-9.600006104,1,0,0,rectangle,3.200012207,-9.600006104,1,0,0,3.200012207,-9.600006104,1,0,0,1,35,195,67,1,,,,,,,,
,,,,,,,,,,,,,FF,,,,,,,,0.5827,,,,,,,,,,,,,,,,,,,,,,61035b9030a71cfbc7b24897,610364d5b25cdebc6342c20d,2021-07-29_22h33.38.000,Simcolourproject_2stim_asymm_v5,2020.2.10,Win32,60,61025ae37ef11b136ea224fe,,,,,,,,,750,43.20001221,76,1,0,0,response1disk,,7,14.40002441,7.199981689,1,0,0,rectangle,14.40002441,7.199981689,1,0,0,14.40002441,7.199981689,1,0,0,1,36,196,62,1,,,,,,,,
,,,,,,,,,,,,,FF,,,,,,,,0.9333,,,,,,,,,,,,,,,,,,,,,,61035b9030a71cfbc7b24897,610364d5b25cdebc6342c20d,2021-07-29_22h33.38.000,Simcolourproject_2stim_asymm_v5,2020.2.10,Win32,60,61025ae37ef11b136ea224fe,,,,,,,,,2173,96,-48.80001831,1,0,0,response3disk,,5,16.79998779,1.600006104,1,0,0,rectangle,16.79998779,1.600006104,1,0,0,16.79998779,1.600006104,1,0,0,1,37,197,101,1,,,,,,,,
,,,,,,,,,,,,,FF,,,,,,,,0.7165,,,,,,,,,,,,,,,,,,,,,,61035b9030a71cfbc7b24897,610364d5b25cdebc6342c20d,2021-07-29_22h33.38.000,Simcolourproject_2stim_asymm_v5,2020.2.10,Win32,60,61025ae37ef11b136ea224fe,,,,,,,,,3608,32.79998779,78.3999939,1,0,0,response1disk,,7,7.200012207,-2.399993896,1,0,0,rectangle,7.200012207,-2.399993896,1,0,0,7.200012207,-2.399993896,1,0,0,1,38,198,107,1,,,,,,,,
,,,,,,,,,,,,,FF,,,,,,,,0.5644,,,,,,,,,,,,,,,,,,,,,,61035b9030a71cfbc7b24897,610364d5b25cdebc6342c20d,2021-07-29_22h33.38.000,Simcolourproject_2stim_asymm_v5,2020.2.10,Win32,60,61025ae37ef11b136ea224fe,,,,,,,,,3018,48,95.19998169,1,0,0,response1disk,,7,-4.799987793,-5.600006104,1,0,0,rectangle,-4.799987793,-5.600006104,1,0,0,-4.799987793,-5.600006104,1,0,0,1,39,199,102,1,,,,,,,,
,,,,,,,,,,,,,FF,,,,,,,,1.7646,,,,,,,,,,,,,,,,,,,,,,61035b9030a71cfbc7b24897,610364d5b25cdebc6342c20d,2021-07-29_22h33.38.000,Simcolourproject_2stim_asymm_v5,2020.2.10,Win32,60,61025ae37ef11b136ea224fe,,,,,,,,,2097,100,-52.80001831,1,0,0,response3disk,,5,12.79998779,0.799987793,1,0,0,rectangle,12.79998779,0.799987793,1,0,0,12.79998779,0.799987793,1,0,0,1,40,200,29,1,,,,,,,,
,,,,,,,,,,,,,FF,,,,,,,,1.1148,,,,,,,,,,,,,,,,,,,,,,61035b9030a71cfbc7b24897,610364d5b25cdebc6342c20d,2021-07-29_22h33.38.000,Simcolourproject_2stim_asymm_v5,2020.2.10,Win32,60,61025ae37ef11b136ea224fe,,,,,,,,,3702,96,47.19998169,1,0,0,response1disk,,6,12,-0.800018311,1,0,0,rectangle,64.79998779,-104.7999878,1,0,0,-0.799987793,5.600006104,1,0,0,1,41,201,70,1,,response3disk_3,TRUE,4,4,"[202,298,130,26,289,235,165,254,109,108,89,11,76,95,108,204,260,152,291,235]",1.283,rectangle
,,,,,,,,,,,,,FF,,,,,,,,0.767,,,,,,,,,,,,,,,,,,,,,,61035b9030a71cfbc7b24897,610364d5b25cdebc6342c20d,2021-07-29_22h33.38.000,Simcolourproject_2stim_asymm_v5,2020.2.10,Win32,60,61025ae37ef11b136ea224fe,,,,,,,,,1930,36.79998779,92.79998779,1,0,0,response1disk,,7,8,-5.600006104,1,0,0,rectangle,8,-5.600006104,1,0,0,8,-5.600006104,1,0,0,1,42,202,21,1,,,,,,,,
,,,,,,,,,,,,,FF,,,,,,,,1.6667,,,,,,,,,,,,,,,,,,,,,,61035b9030a71cfbc7b24897,610364d5b25cdebc6342c20d,2021-07-29_22h33.38.000,Simcolourproject_2stim_asymm_v5,2020.2.10,Win32,60,61025ae37ef11b136ea224fe,,,,,,,,,1056,-66.39996338,-103.2000122,1,0,0,response5disk,,3,6.400024414,4,1,0,0,rectangle,-87.20001221,51.19998169,1,0,0,5.600036621,8.799987793,1,0,0,1,43,203,12,1,,response7disk_3,TRUE,1,1,"[202,298,130,26,289,235,165,254,109,108,89,11,76,95,108,204,260,152,291,235]",1.2168,rectangle
,,,,,,,,,,,,,FF,,,,,,,,1.0503,,,,,,,,,,,,,,,,,,,,,,61035b9030a71cfbc7b24897,610364d5b25cdebc6342c20d,2021-07-29_22h33.38.000,Simcolourproject_2stim_asymm_v5,2020.2.10,Win32,60,61025ae37ef11b136ea224fe,,,,,,,,,1995,29.60003662,90.3999939,1,0,0,response1disk,,7,0.799987793,1.600006104,1,0,0,rectangle,0.799987793,1.600006104,1,0,0,0.799987793,1.600006104,1,0,0,1,44,204,74,1,,,,,,,,
,,,,,,,,,,,,,FF,,,,,,,,0.9486,,,,,,,,,,,,,,,,,,,,,,61035b9030a71cfbc7b24897,610364d5b25cdebc6342c20d,2021-07-29_22h33.38.000,Simcolourproject_2stim_asymm_v5,2020.2.10,Win32,60,61025ae37ef11b136ea224fe,,,,,,,,,1259,48,95.19998169,1,0,0,response1disk,,7,2.400024414,2.399993896,1,0,0,rectangle,2.400024414,2.399993896,1,0,0,2.400024414,2.399993896,1,0,0,1,45,205,134,1,,,,,,,,
,,,,,,,,,,,,,FF,,,,,,,,0.6478,,,,,,,,,,,,,,,,,,,,,,61035b9030a71cfbc7b24897,610364d5b25cdebc6342c20d,2021-07-29_22h33.38.000,Simcolourproject_2stim_asymm_v5,2020.2.10,Win32,60,61025ae37ef11b136ea224fe,,,,,,,,,4213,52,84,1,0,0,response1disk,,7,6.400024414,-4,1,0,0,rectangle,6.400024414,-4,1,0,0,6.400024414,-4,1,0,0,1,46,206,91,1,,,,,,,,
,,,,,,,,,,,,,FF,,,,,,,,0.9816,,,,,,,,,,,,,,,,,,,,,,61035b9030a71cfbc7b24897,610364d5b25cdebc6342c20d,2021-07-29_22h33.38.000,Simcolourproject_2stim_asymm_v5,2020.2.10,Win32,60,61025ae37ef11b136ea224fe,,,,,,,,,3699,44.79998779,94.3999939,1,0,0,response1disk,,7,-1.599975586,-5.600006104,1,0,0,rectangle,-1.599975586,-5.600006104,1,0,0,-1.599975586,-5.600006104,1,0,0,1,47,207,83,1,,,,,,,,
,,,,,,,,,,,,,FF,,,,,,,,0.6648,,,,,,,,,,,,,,,,,,,,,,61035b9030a71cfbc7b24897,610364d5b25cdebc6342c20d,2021-07-29_22h33.38.000,Simcolourproject_2stim_asymm_v5,2020.2.10,Win32,60,61025ae37ef11b136ea224fe,,,,,,,,,2747,54.40002441,108.7999878,1,0,0,response1disk,,7,9.600036621,11.19998169,1,0,0,rectangle,9.600036621,11.19998169,1,0,0,9.600036621,11.19998169,1,0,0,1,48,208,55,1,,,,,,,,
,,,,,,,,,,,,,FF,,,,,,,,0.767,,,,,,,,,,,,,,,,,,,,,,61035b9030a71cfbc7b24897,610364d5b25cdebc6342c20d,2021-07-29_22h33.38.000,Simcolourproject_2stim_asymm_v5,2020.2.10,Win32,60,61025ae37ef11b136ea224fe,,,,,,,,,2118,104.7999878,40.79998779,1,0,0,response1disk,,6,0,-2.399993896,1,0,0,rectangle,0,-2.399993896,1,0,0,0,-2.399993896,1,0,0,1,49,209,79,1,,,,,,,,
,,,,,,,,,,,,,FF,,,,,,,,0.5007,,,,,,,,,,,,,,,,,,,,,,61035b9030a71cfbc7b24897,610364d5b25cdebc6342c20d,2021-07-29_22h33.38.000,Simcolourproject_2stim_asymm_v5,2020.2.10,Win32,60,61025ae37ef11b136ea224fe,,,,,,,,,3645,51.20001221,102.3999939,1,0,0,response1disk,,7,-2.399963379,0,1,0,0,rectangle,-2.399963379,0,1,0,0,-2.399963379,0,1,0,0,1,50,210,97,1,,,,,,,,
,,,,,,,,,,,,,FF,,,,,,,,0.9343,,,,,,,,,,,,,,,,,,,,,,61035b9030a71cfbc7b24897,610364d5b25cdebc6342c20d,2021-07-29_22h33.38.000,Simcolourproject_2stim_asymm_v5,2020.2.10,Win32,60,61025ae37ef11b136ea224fe,,,,,,,,,3546,112.7999878,-60.80001831,1,0,0,response3disk,,5,-4,-0.800018311,1,0,0,rectangle,-4,-0.800018311,1,0,0,-4,-0.800018311,1,0,0,1,51,211,14,1,,,,,,,,
,,,,,,,,,,,,,FF,,,,,,,,0.8337,,,,,,,,,,,,,,,,,,,,,,61035b9030a71cfbc7b24897,610364d5b25cdebc6342c20d,2021-07-29_22h33.38.000,Simcolourproject_2stim_asymm_v5,2020.2.10,Win32,60,61025ae37ef11b136ea224fe,,,,,,,,,3709,42.40002441,-121.6000366,1,0,0,response3disk,,4,1.600036621,16.79998779,1,0,0,rectangle,1.600036621,16.79998779,1,0,0,1.600036621,16.79998779,1,0,0,1,52,212,145,1,,,,,,,,
,,,,,,,,,,,,,FF,,,,,,,,0.648,,,,,,,,,,,,,,,,,,,,,,61035b9030a71cfbc7b24897,610364d5b25cdebc6342c20d,2021-07-29_22h33.38.000,Simcolourproject_2stim_asymm_v5,2020.2.10,Win32,60,61025ae37ef11b136ea224fe,,,,,,,,,2754,52.79998779,105.6000061,1,0,0,response1disk,,7,7.200012207,-2.399993896,1,0,0,rectangle,7.200012207,-2.399993896,1,0,0,7.200012207,-2.399993896,1,0,0,1,53,213,87,1,,,,,,,,
,,,,,,,,,,,,,FF,,,,,,,,1.7494,,,,,,,,,,,,,,,,,,,,,,61035b9030a71cfbc7b24897,610364d5b25cdebc6342c20d,2021-07-29_22h33.38.000,Simcolourproject_2stim_asymm_v5,2020.2.10,Win32,60,61025ae37ef11b136ea224fe,,,,,,,,,4294,-36.79998779,-100.7999878,1,0,0,response5disk,,3,1.600036621,4,1,0,0,rectangle,1.600036621,4,1,0,0,1.600036621,4,1,0,0,1,54,214,59,1,,,,,,,,
,,,,,,,,,,,,,FF,,,,,,,,0.6003,,,,,,,,,,,,,,,,,,,,,,61035b9030a71cfbc7b24897,610364d5b25cdebc6342c20d,2021-07-29_22h33.38.000,Simcolourproject_2stim_asymm_v5,2020.2.10,Win32,60,61025ae37ef11b136ea224fe,,,,,,,,,1559,51.20001221,96.79998779,1,0,0,response1disk,,7,2.400024414,-13.6000061,1,0,0,rectangle,2.400024414,-13.6000061,1,0,0,2.400024414,-13.6000061,1,0,0,1,55,215,3,1,,,,,,,,
,,,,,,,,,,,,,FF,,,,,,,,0.7975,,,,,,,,,,,,,,,,,,,,,,61035b9030a71cfbc7b24897,610364d5b25cdebc6342c20d,2021-07-29_22h33.38.000,Simcolourproject_2stim_asymm_v5,2020.2.10,Win32,60,61025ae37ef11b136ea224fe,,,,,,,,,375,92.79998779,38.3999939,1,0,0,response1disk,,6,-7.200012207,-5.600006104,1,0,0,rectangle,-7.200012207,-5.600006104,1,0,0,-7.200012207,-5.600006104,1,0,0,1,56,216,95,1,,,,,,,,
,,,,,,,,,,,,,FF,,,,,,,,0.8007,,,,,,,,,,,,,,,,,,,,,,61035b9030a71cfbc7b24897,610364d5b25cdebc6342c20d,2021-07-29_22h33.38.000,Simcolourproject_2stim_asymm_v5,2020.2.10,Win32,60,61025ae37ef11b136ea224fe,,,,,,,,,1826,100.7999878,-53.6000061,1,0,0,response3disk,,5,12,0.799987793,1,0,0,rectangle,12,0.799987793,1,0,0,12,0.799987793,1,0,0,1,57,217,151,1,,,,,,,,
,,,,,,,,,,,,,FF,,,,,,,,0.7329,,,,,,,,,,,,,,,,,,,,,,61035b9030a71cfbc7b24897,610364d5b25cdebc6342c20d,2021-07-29_22h33.38.000,Simcolourproject_2stim_asymm_v5,2020.2.10,Win32,60,61025ae37ef11b136ea224fe,,,,,,,,,195,103.2000122,72.79998779,1,0,0,response1disk,,6,20.79998779,6.399993896,1,0,0,rectangle,20.79998779,6.399993896,1,0,0,20.79998779,6.399993896,1,0,0,1,58,218,68,1,,,,,,,,
,,,,,,,,,,,,,FF,,,,,,,,0.6671,,,,,,,,,,,,,,,,,,,,,,61035b9030a71cfbc7b24897,610364d5b25cdebc6342c20d,2021-07-29_22h33.38.000,Simcolourproject_2stim_asymm_v5,2020.2.10,Win32,60,61025ae37ef11b136ea224fe,,,,,,,,,194,100,48.79998779,1,0,0,response1disk,,6,16.79998779,-3.200012207,1,0,0,rectangle,16.79998779,-3.200012207,1,0,0,16.79998779,-3.200012207,1,0,0,1,59,219,85,1,,,,,,,,
,,,,,,,,,,,,,FF,,,,,,,,0.8165,,,,,,,,,,,,,,,,,,,,,,61035b9030a71cfbc7b24897,610364d5b25cdebc6342c20d,2021-07-29_22h33.38.000,Simcolourproject_2stim_asymm_v5,2020.2.10,Win32,60,61025ae37ef11b136ea224fe,,,,,,,,,3238,101.6000366,46.3999939,1,0,0,response1disk,,6,8.799987793,-4,1,0,0,rectangle,8.799987793,-4,1,0,0,8.799987793,-4,1,0,0,1,60,220,94,1,,,,,,,,
,,,,,,,,,,,,,FF,,,,,,,,0.6313,,,,,,,,,,,,,,,,,,,,,,61035b9030a71cfbc7b24897,610364d5b25cdebc6342c20d,2021-07-29_22h33.38.000,Simcolourproject_2stim_asymm_v5,2020.2.10,Win32,60,61025ae37ef11b136ea224fe,,,,,,,,,1836,56,106.3999939,1,0,0,response1disk,,7,2.400024414,1.600006104,1,0,0,rectangle,2.400024414,1.600006104,1,0,0,2.400024414,1.600006104,1,0,0,1,61,221,138,1,,,,,,,,
,,,,,,,,,,,,,FF,,,,,,,,0.5981,,,,,,,,,,,,,,,,,,,,,,61035b9030a71cfbc7b24897,610364d5b25cdebc6342c20d,2021-07-29_22h33.38.000,Simcolourproject_2stim_asymm_v5,2020.2.10,Win32,60,61025ae37ef11b136ea224fe,,,,,,,,,2005,65.60003662,109.6000061,1,0,0,response1disk,,7,0.799987793,-2.399993896,1,0,0,rectangle,0.799987793,-2.399993896,1,0,0,0.799987793,-2.399993896,1,0,0,1,62,222,1,1,,,,,,,,
,,,,,,,,,,,,,FF,,,,,,,,0.8004,,,,,,,,,,,,,,,,,,,,,,61035b9030a71cfbc7b24897,610364d5b25cdebc6342c20d,2021-07-29_22h33.38.000,Simcolourproject_2stim_asymm_v5,2020.2.10,Win32,60,61025ae37ef11b136ea224fe,,,,,,,,,3718,61.60003662,85.6000061,1,0,0,response1disk,,7,19.20001221,-1.600006104,1,0,0,rectangle,19.20001221,-1.600006104,1,0,0,19.20001221,-1.600006104,1,0,0,1,63,223,88,1,,,,,,,,
,,,,,,,,,,,,,FF,,,,,,,,0.6813,,,,,,,,,,,,,,,,,,,,,,61035b9030a71cfbc7b24897,610364d5b25cdebc6342c20d,2021-07-29_22h33.38.000,Simcolourproject_2stim_asymm_v5,2020.2.10,Win32,60,61025ae37ef11b136ea224fe,,,,,,,,,3951,68.79998779,104.7999878,1,0,0,response1disk,,7,3.200012207,3.199981689,1,0,0,rectangle,3.200012207,3.199981689,1,0,0,3.200012207,3.199981689,1,0,0,1,64,224,11,1,,,,,,,,
,,,,,,,,,,,,,FF,,,,,,,,0.6009,,,,,,,,,,,,,,,,,,,,,,61035b9030a71cfbc7b24897,610364d5b25cdebc6342c20d,2021-07-29_22h33.38.000,Simcolourproject_2stim_asymm_v5,2020.2.10,Win32,60,61025ae37ef11b136ea224fe,,,,,,,,,1206,104.7999878,53.6000061,1,0,0,response1disk,,6,4,2.399993896,1,0,0,rectangle,4,2.399993896,1,0,0,4,2.399993896,1,0,0,1,65,225,148,1,,,,,,,,
,,,,,,,,,,,,,FF,,,,,,,,1.5481,,,,,,,,,,,,,,,,,,,,,,61035b9030a71cfbc7b24897,610364d5b25cdebc6342c20d,2021-07-29_22h33.38.000,Simcolourproject_2stim_asymm_v5,2020.2.10,Win32,60,61025ae37ef11b136ea224fe,,,,,,,,,3810,-86.39996338,-51.20001221,1,0,0,response5disk,,2,14.40002441,0.799987793,1,0,0,rectangle,14.40002441,0.799987793,1,0,0,14.40002441,0.799987793,1,0,0,1,66,226,113,1,,,,,,,,
,,,,,,,,,,,,,FF,,,,,,,,1.3827,,,,,,,,,,,,,,,,,,,,,,61035b9030a71cfbc7b24897,610364d5b25cdebc6342c20d,2021-07-29_22h33.38.000,Simcolourproject_2stim_asymm_v5,2020.2.10,Win32,60,61025ae37ef11b136ea224fe,,,,,,,,,1201,96,-35.20001221,1,0,0,response3disk,,5,16,4,1,0,0,rectangle,16,4,1,0,0,16,4,1,0,0,1,67,227,105,1,,,,,,,,
,,,,,,,,,,,,,FF,,,,,,,,0.5812,,,,,,,,,,,,,,,,,,,,,,61035b9030a71cfbc7b24897,610364d5b25cdebc6342c20d,2021-07-29_22h33.38.000,Simcolourproject_2stim_asymm_v5,2020.2.10,Win32,60,61025ae37ef11b136ea224fe,,,,,,,,,1644,50.40002441,103.1999817,1,0,0,response1disk,,7,8,-7.200012207,1,0,0,rectangle,8,-7.200012207,1,0,0,8,-7.200012207,1,0,0,1,68,228,135,1,,,,,,,,
,,,,,,,,,,,,,FF,,,,,,,,0.6832,,,,,,,,,,,,,,,,,,,,,,61035b9030a71cfbc7b24897,610364d5b25cdebc6342c20d,2021-07-29_22h33.38.000,Simcolourproject_2stim_asymm_v5,2020.2.10,Win32,60,61025ae37ef11b136ea224fe,,,,,,,,,166,115.2000122,26.3999939,1,0,0,response1disk,,6,0.799987793,-4,1,0,0,rectangle,0.799987793,-4,1,0,0,0.799987793,-4,1,0,0,1,69,229,17,1,,,,,,,,
,,,,,,,,,,,,,FF,,,,,,,,0.698,,,,,,,,,,,,,,,,,,,,,,61035b9030a71cfbc7b24897,610364d5b25cdebc6342c20d,2021-07-29_22h33.38.000,Simcolourproject_2stim_asymm_v5,2020.2.10,Win32,60,61025ae37ef11b136ea224fe,,,,,,,,,3465,109.6000366,-88,1,0,0,response3disk,,5,-1.599975586,8.799987793,1,0,0,rectangle,-1.599975586,8.799987793,1,0,0,-1.599975586,8.799987793,1,0,0,1,70,230,39,1,,,,,,,,
,,,,,,,,,,,,,FF,,,,,,,,0.6666,,,,,,,,,,,,,,,,,,,,,,61035b9030a71cfbc7b24897,610364d5b25cdebc6342c20d,2021-07-29_22h33.38.000,Simcolourproject_2stim_asymm_v5,2020.2.10,Win32,60,61025ae37ef11b136ea224fe,,,,,,,,,3056,91.20001221,40,1,0,0,response1disk,,6,17.60003662,3.199981689,1,0,0,rectangle,17.60003662,3.199981689,1,0,0,17.60003662,3.199981689,1,0,0,1,71,231,109,1,,,,,,,,
,,,,,,,,,,,,,FF,,,,,,,,0.9,,,,,,,,,,,,,,,,,,,,,,61035b9030a71cfbc7b24897,610364d5b25cdebc6342c20d,2021-07-29_22h33.38.000,Simcolourproject_2stim_asymm_v5,2020.2.10,Win32,60,61025ae37ef11b136ea224fe,,,,,,,,,277,-43.20001221,-108,1,0,0,response5disk,,3,20,3.199981689,1,0,0,rectangle,20,3.199981689,1,0,0,20,3.199981689,1,0,0,1,72,232,6,1,,,,,,,,
,,,,,,,,,,,,,FF,,,,,,,,0.6147,,,,,,,,,,,,,,,,,,,,,,61035b9030a71cfbc7b24897,610364d5b25cdebc6342c20d,2021-07-29_22h33.38.000,Simcolourproject_2stim_asymm_v5,2020.2.10,Win32,60,61025ae37ef11b136ea224fe,,,,,,,,,1945,58.40002441,99.19998169,1,0,0,response1disk,,7,10.40002441,-8,1,0,0,rectangle,10.40002441,-8,1,0,0,10.40002441,-8,1,0,0,1,73,233,37,1,,,,,,,,
,,,,,,,,,,,,,FF,,,,,,,,0.5836,,,,,,,,,,,,,,,,,,,,,,61035b9030a71cfbc7b24897,610364d5b25cdebc6342c20d,2021-07-29_22h33.38.000,Simcolourproject_2stim_asymm_v5,2020.2.10,Win32,60,61025ae37ef11b136ea224fe,,,,,,,,,4065,49.60003662,91.19998169,1,0,0,response1disk,,7,-4.799987793,-5.600006104,1,0,0,rectangle,-81.59997559,42.3999939,1,0,0,-7.200012207,0,1,0,0,1,74,234,26,1,,response7disk_3,TRUE,1,1,"[202,298,130,26,289,235,165,254,109,108,89,11,76,95,108,204,260,152,291,235]",1.2152,rectangle
,,,,,,,,,,,,,FF,,,,,,,,0.8683,,,,,,,,,,,,,,,,,,,,,,61035b9030a71cfbc7b24897,610364d5b25cdebc6342c20d,2021-07-29_22h33.38.000,Simcolourproject_2stim_asymm_v5,2020.2.10,Win32,60,61025ae37ef11b136ea224fe,,,,,,,,,3725,112,56,1,0,0,response1disk,,6,0,-15.20001221,1,0,0,rectangle,0,-15.20001221,1,0,0,0,-15.20001221,1,0,0,1,75,235,54,1,,,,,,,,
,,,,,,,,,,,,,FF,,,,,,,,0.7832,,,,,,,,,,,,,,,,,,,,,,61035b9030a71cfbc7b24897,610364d5b25cdebc6342c20d,2021-07-29_22h33.38.000,Simcolourproject_2stim_asymm_v5,2020.2.10,Win32,60,61025ae37ef11b136ea224fe,,,,,,,,,739,84.79998779,-56,1,0,0,response3disk,,5,15.20001221,-2.399993896,1,0,0,rectangle,15.20001221,-2.399993896,1,0,0,15.20001221,-2.399993896,1,0,0,1,76,236,130,1,,,,,,,,
,,,,,,,,,,,,,FF,,,,,,,,0.8815,,,,,,,,,,,,,,,,,,,,,,61035b9030a71cfbc7b24897,610364d5b25cdebc6342c20d,2021-07-29_22h33.38.000,Simcolourproject_2stim_asymm_v5,2020.2.10,Win32,60,61025ae37ef11b136ea224fe,,,,,,,,,3745,55.20001221,91.19998169,1,0,0,response1disk,,7,4.799987793,5.600006104,1,0,0,rectangle,4.799987793,5.600006104,1,0,0,4.799987793,5.600006104,1,0,0,1,77,237,13,1,,,,,,,,
,,,,,,,,,,,,,FF,,,,,,,,0.5003,,,,,,,,,,,,,,,,,,,,,,61035b9030a71cfbc7b24897,610364d5b25cdebc6342c20d,2021-07-29_22h33.38.000,Simcolourproject_2stim_asymm_v5,2020.2.10,Win32,60,61025ae37ef11b136ea224fe,,,,,,,,,2303,51.20001221,88,1,0,0,response1disk,,7,5.600036621,-4,1,0,0,rectangle,5.600036621,-4,1,0,0,5.600036621,-4,1,0,0,1,78,238,41,1,,,,,,,,
,,,,,,,,,,,,,FF,,,,,,,,0.8836,,,,,,,,,,,,,,,,,,,,,,61035b9030a71cfbc7b24897,610364d5b25cdebc6342c20d,2021-07-29_22h33.38.000,Simcolourproject_2stim_asymm_v5,2020.2.10,Win32,60,61025ae37ef11b136ea224fe,,,,,,,,,170,52,-101.6000366,1,0,0,response3disk,,4,3.200012207,-0.800018311,1,0,0,rectangle,3.200012207,-0.800018311,1,0,0,3.200012207,-0.800018311,1,0,0,1,79,239,116,1,,,,,,,,
,,,,,,,,,,,,,FF,,,,,,,,0.7475,,,,,,,,,,,,,,,,,,,,,,61035b9030a71cfbc7b24897,610364d5b25cdebc6342c20d,2021-07-29_22h33.38.000,Simcolourproject_2stim_asymm_v5,2020.2.10,Win32,60,61025ae37ef11b136ea224fe,,,,,,,,,2897,104.7999878,-50.3999939,1,0,0,response3disk,,5,4.799987793,-3.200012207,1,0,0,rectangle,4.799987793,-3.200012207,1,0,0,4.799987793,-3.200012207,1,0,0,1,80,240,61,1,,,,,,,,
,,,,,,,,,,,,,FF,,,,,,,,0.6001,,,,,,,,,,,,,,,,,,,,,,61035b9030a71cfbc7b24897,610364d5b25cdebc6342c20d,2021-07-29_22h33.38.000,Simcolourproject_2stim_asymm_v5,2020.2.10,Win32,60,61025ae37ef11b136ea224fe,,,,,,,,,1092,96.79998779,52,1,0,0,response1disk,,6,5.600036621,-7.200012207,1,0,0,rectangle,5.600036621,-7.200012207,1,0,0,5.600036621,-7.200012207,1,0,0,1,81,241,126,1,,,,,,,,
,,,,,,,,,,,,,FF,,,,,,,,0.6167,,,,,,,,,,,,,,,,,,,,,,61035b9030a71cfbc7b24897,610364d5b25cdebc6342c20d,2021-07-29_22h33.38.000,Simcolourproject_2stim_asymm_v5,2020.2.10,Win32,60,61025ae37ef11b136ea224fe,,,,,,,,,617,47.20001221,95.19998169,1,0,0,response1disk,,7,16,-2.399993896,1,0,0,rectangle,16,-2.399993896,1,0,0,16,-2.399993896,1,0,0,1,82,242,60,1,,,,,,,,
,,,,,,,,,,,,,FF,,,,,,,,1.0817,,,,,,,,,,,,,,,,,,,,,,61035b9030a71cfbc7b24897,610364d5b25cdebc6342c20d,2021-07-29_22h33.38.000,Simcolourproject_2stim_asymm_v5,2020.2.10,Win32,60,61025ae37ef11b136ea224fe,,,,,,,,,3187,96.79998779,-52.80001831,1,0,0,response3disk,,5,10.40002441,-7.200012207,1,0,0,rectangle,10.40002441,-7.200012207,1,0,0,10.40002441,-7.200012207,1,0,0,1,83,243,124,1,,,,,,,,
,,,,,,,,,,,,,FF,,,,,,,,0.5973,,,,,,,,,,,,,,,,,,,,,,61035b9030a71cfbc7b24897,610364d5b25cdebc6342c20d,2021-07-29_22h33.38.000,Simcolourproject_2stim_asymm_v5,2020.2.10,Win32,60,61025ae37ef11b136ea224fe,,,,,,,,,1988,48.79998779,91.19998169,1,0,0,response1disk,,7,10.40002441,-10.3999939,1,0,0,rectangle,10.40002441,-10.3999939,1,0,0,10.40002441,-10.3999939,1,0,0,1,84,244,18,1,,,,,,,,
,,,,,,,,,,,,,FF,,,,,,,,0.7141,,,,,,,,,,,,,,,,,,,,,,61035b9030a71cfbc7b24897,610364d5b25cdebc6342c20d,2021-07-29_22h33.38.000,Simcolourproject_2stim_asymm_v5,2020.2.10,Win32,60,61025ae37ef11b136ea224fe,,,,,,,,,2397,52,93.6000061,1,0,0,response1disk,,7,17.60003662,-5.600006104,1,0,0,rectangle,17.60003662,-5.600006104,1,0,0,17.60003662,-5.600006104,1,0,0,1,85,245,92,1,,,,,,,,
,,,,,,,,,,,,,FF,,,,,,,,0.8819,,,,,,,,,,,,,,,,,,,,,,61035b9030a71cfbc7b24897,610364d5b25cdebc6342c20d,2021-07-29_22h33.38.000,Simcolourproject_2stim_asymm_v5,2020.2.10,Win32,60,61025ae37ef11b136ea224fe,,,,,,,,,3865,38.40002441,90.3999939,1,0,0,response1disk,,7,16,7.199981689,1,0,0,rectangle,16,7.199981689,1,0,0,16,7.199981689,1,0,0,1,86,246,75,1,,,,,,,,
,,,,,,,,,,,,,FF,,,,,,,,0.6648,,,,,,,,,,,,,,,,,,,,,,61035b9030a71cfbc7b24897,610364d5b25cdebc6342c20d,2021-07-29_22h33.38.000,Simcolourproject_2stim_asymm_v5,2020.2.10,Win32,60,61025ae37ef11b136ea224fe,,,,,,,,,92,54.40002441,112.7999878,1,0,0,response1disk,,7,10.40002441,-7.200012207,1,0,0,rectangle,10.40002441,-7.200012207,1,0,0,10.40002441,-7.200012207,1,0,0,1,87,247,65,1,,,,,,,,
,,,,,,,,,,,,,FF,,,,,,,,0.5663,,,,,,,,,,,,,,,,,,,,,,61035b9030a71cfbc7b24897,610364d5b25cdebc6342c20d,2021-07-29_22h33.38.000,Simcolourproject_2stim_asymm_v5,2020.2.10,Win32,60,61025ae37ef11b136ea224fe,,,,,,,,,2022,56,106.3999939,1,0,0,response1disk,,7,1.600036621,-0.800018311,1,0,0,rectangle,1.600036621,-0.800018311,1,0,0,1.600036621,-0.800018311,1,0,0,1,88,248,24,1,,,,,,,,
,,,,,,,,,,,,,FF,,,,,,,,0.6337,,,,,,,,,,,,,,,,,,,,,,61035b9030a71cfbc7b24897,610364d5b25cdebc6342c20d,2021-07-29_22h33.38.000,Simcolourproject_2stim_asymm_v5,2020.2.10,Win32,60,61025ae37ef11b136ea224fe,,,,,,,,,1013,64.79998779,101.6000061,1,0,0,response1disk,,7,9.600036621,-12,1,0,0,rectangle,9.600036621,-12,1,0,0,9.600036621,-12,1,0,0,1,89,249,52,1,,,,,,,,
,,,,,,,,,,,,,FF,,,,,,,,0.6476,,,,,,,,,,,,,,,,,,,,,,61035b9030a71cfbc7b24897,610364d5b25cdebc6342c20d,2021-07-29_22h33.38.000,Simcolourproject_2stim_asymm_v5,2020.2.10,Win32,60,61025ae37ef11b136ea224fe,,,,,,,,,3894,50.40002441,105.6000061,1,0,0,response1disk,,7,7.200012207,-4.800018311,1,0,0,rectangle,7.200012207,-4.800018311,1,0,0,7.200012207,-4.800018311,1,0,0,1,90,250,144,1,,,,,,,,
,,,,,,,,,,,,,FF,,,,,,,,0.7503,,,,,,,,,,,,,,,,,,,,,,61035b9030a71cfbc7b24897,610364d5b25cdebc6342c20d,2021-07-29_22h33.38.000,Simcolourproject_2stim_asymm_v5,2020.2.10,Win32,60,61025ae37ef11b136ea224fe,,,,,,,,,607,108,53.6000061,1,0,0,response1disk,,6,12.79998779,0.799987793,1,0,0,rectangle,12.79998779,0.799987793,1,0,0,12.79998779,0.799987793,1,0,0,1,91,251,42,1,,,,,,,,
,,,,,,,,,,,,,FF,,,,,,,,0.8502,,,,,,,,,,,,,,,,,,,,,,61035b9030a71cfbc7b24897,610364d5b25cdebc6342c20d,2021-07-29_22h33.38.000,Simcolourproject_2stim_asymm_v5,2020.2.10,Win32,60,61025ae37ef11b136ea224fe,,,,,,,,,58,45.60003662,106.3999939,1,0,0,response1disk,,7,12,9.600006104,1,0,0,rectangle,12,9.600006104,1,0,0,12,9.600006104,1,0,0,1,92,252,110,1,,,,,,,,
,,,,,,,,,,,,,FF,,,,,,,,0.7502,,,,,,,,,,,,,,,,,,,,,,61035b9030a71cfbc7b24897,610364d5b25cdebc6342c20d,2021-07-29_22h33.38.000,Simcolourproject_2stim_asymm_v5,2020.2.10,Win32,60,61025ae37ef11b136ea224fe,,,,,,,,,3481,44,92.79998779,1,0,0,response1disk,,7,4.799987793,-4,1,0,0,rectangle,64,113.6000061,1,0,0,8.799987793,0,1,0,0,1,93,253,104,1,,response1disk_3,TRUE,7,7,"[202,298,130,26,289,235,165,254,109,108,89,11,76,95,108,204,260,152,291,235]",1.5349,rectangle
