key_resp.keys,key_resp.rt,key_resp_14.keys,key_resp_14.rt,key_resp_15.keys,key_resp_15.rt,key_resp_17.keys,key_resp_17.rt,key_resp_9.keys,key_resp_9.rt,key_resp_10.keys,key_resp_10.rt,practice_comparison,Ecc,mouse_5.x,mouse_5.y,mouse_5.leftButton,mouse_5.midButton,mouse_5.rightButton,mouse_5.clicked_name,pracsimilarity,response_time,mouse_10.x,mouse_10.y,mouse_10.leftButton,mouse_10.midButton,mouse_10.rightButton,mouse_10.clicked_name,mouse_7.x,mouse_7.y,mouse_7.leftButton,mouse_7.midButton,mouse_7.rightButton,mouse_6.x,mouse_6.y,mouse_6.leftButton,mouse_6.midButton,mouse_6.rightButton,duringprac.thisRepN,duringprac.thisTrialN,duringprac.thisN,duringprac.thisIndex,duringprac.ran,participant,session,date,expName,psychopyVersion,OS,frameRate,study_id,mouse_7.clicked_name,catchpracsimilarity,catch_response_time,catchnumberprac,catchtrialorderprac,mouse_6.clicked_name,key_resp_22.keys,key_resp_22.rt,realcomparison,mouse.x,mouse.y,mouse.leftButton,mouse.midButton,mouse.rightButton,mouse.clicked_name,Colour2,similarity,mouse_2.x,mouse_2.y,mouse_2.leftButton,mouse_2.midButton,mouse_2.rightButton,mouse_2.clicked_name,mouse_3.x,mouse_3.y,mouse_3.leftButton,mouse_3.midButton,mouse_3.rightButton,mouse_11.x,mouse_11.y,mouse_11.leftButton,mouse_11.midButton,mouse_11.rightButton,trials_2.thisRepN,trials_2.thisTrialN,trials_2.thisN,trials_2.thisIndex,trials_2.ran,Colour1,mouse_3.clicked_name,catchornah,catchsimilarity,catchnumber,catchtrialorder,catchRT,mouse_11.clicked_name
space,29.137,space,7.564,space,28.946,space,7.136,space,0.929,space,3.429,27,FF,53,75,1,0,0,response1disk_5,7,9.033,16,3,1,0,0,rectangle_8,16,3,1,0,0,16,3,1,0,0,0,0,0,0,1,610350fa3d929461b8ca9103,61036995e72b80b143b0e82b,2021-07-29_22h54.37.983,Simcolourproject_2stim_asymm_v5,2020.2.10,MacIntel,60,61025ae37ef11b136ea224fe,,,,,,,,,,,,,,,,,,,,,,,,,,,,,,,,,,,,,,,,,,,,,,
,,,,,,,,,,,,59,PF,34,-67,1,0,0,response3disk_5,4,3.799,-4,-3,1,0,0,rectangle_8,-38,-73,1,0,0,-9,-12,1,0,0,0,1,1,1,1,610350fa3d929461b8ca9103,61036995e72b80b143b0e82b,2021-07-29_22h54.37.983,Simcolourproject_2stim_asymm_v5,2020.2.10,MacIntel,60,61025ae37ef11b136ea224fe,response5disk_7,3,3.483,3,"[2,5]",rectangle_4,,,,,,,,,,,,,,,,,,,,,,,,,,,,,,,,,,,,,,,,
,,,,,,,,,,,,144,PF,54,36,1,0,0,response1disk_5,6,7.583,6,-2,1,0,0,rectangle_8,6,-2,1,0,0,6,-2,1,0,0,0,2,2,6,1,610350fa3d929461b8ca9103,61036995e72b80b143b0e82b,2021-07-29_22h54.37.983,Simcolourproject_2stim_asymm_v5,2020.2.10,MacIntel,60,61025ae37ef11b136ea224fe,,,,,,,,,,,,,,,,,,,,,,,,,,,,,,,,,,,,,,,,,,,,,,
,,,,,,,,,,,,56,PF,-77,43,1,0,0,response7disk_5,1,6.517,-5,0,1,0,0,rectangle_8,-5,0,1,0,0,-5,0,1,0,0,0,3,3,4,1,610350fa3d929461b8ca9103,61036995e72b80b143b0e82b,2021-07-29_22h54.37.983,Simcolourproject_2stim_asymm_v5,2020.2.10,MacIntel,60,61025ae37ef11b136ea224fe,,,,,,,,,,,,,,,,,,,,,,,,,,,,,,,,,,,,,,,,,,,,,,
,,,,,,,,,,,,102,FF,23,-67,1,0,0,response3disk_5,4,3.249,-4,-1,1,0,0,rectangle_8,-31,-57,1,0,0,-3,7,1,0,0,0,4,4,5,1,610350fa3d929461b8ca9103,61036995e72b80b143b0e82b,2021-07-29_22h54.37.983,Simcolourproject_2stim_asymm_v5,2020.2.10,MacIntel,60,61025ae37ef11b136ea224fe,response5disk_7,3,2.233,3,"[2,5]",rectangle_4,,,,,,,,,,,,,,,,,,,,,,,,,,,,,,,,,,,,,,,,
,,,,,,,,,,,,11,PF,62,-39,1,0,0,response3disk_5,5,2.749,7,2,1,0,0,rectangle_8,7,2,1,0,0,7,2,1,0,0,0,5,5,2,1,610350fa3d929461b8ca9103,61036995e72b80b143b0e82b,2021-07-29_22h54.37.983,Simcolourproject_2stim_asymm_v5,2020.2.10,MacIntel,60,61025ae37ef11b136ea224fe,,,,,,,,,,,,,,,,,,,,,,,,,,,,,,,,,,,,,,,,,,,,,,
,,,,,,,,,,,,74,FF,-44,-70,1,0,0,response5disk_5,3,2.318,-6,3,1,0,0,rectangle_8,-6,3,1,0,0,-6,3,1,0,0,0,6,6,3,1,610350fa3d929461b8ca9103,61036995e72b80b143b0e82b,2021-07-29_22h54.37.983,Simcolourproject_2stim_asymm_v5,2020.2.10,MacIntel,60,61025ae37ef11b136ea224fe,,,,,,,,,,,,,,,,,,,,,,,,,,,,,,,,,,,,,,,,,,,,,,
,,,,,,,,,,,,,FF,,,,,,,,8.5,,,,,,,,,,,,,,,,,,,,,,610350fa3d929461b8ca9103,61036995e72b80b143b0e82b,2021-07-29_22h54.37.983,Simcolourproject_2stim_asymm_v5,2020.2.10,MacIntel,60,61025ae37ef11b136ea224fe,,,,,,,space,2.751,3261,49,80,1,0,0,response1disk,,7,-7,4,1,0,0,rectangle,-7,4,1,0,0,-7,4,1,0,0,0,0,0,30,1,,,,,,,,
,,,,,,,,,,,,,FF,,,,,,,,2.8,,,,,,,,,,,,,,,,,,,,,,610350fa3d929461b8ca9103,61036995e72b80b143b0e82b,2021-07-29_22h54.37.983,Simcolourproject_2stim_asymm_v5,2020.2.10,MacIntel,60,61025ae37ef11b136ea224fe,,,,,,,,,2758,85,51,1,0,0,response1disk,,6,-8,0,1,0,0,rectangle,-8,0,1,0,0,-8,0,1,0,0,0,1,1,101,1,,,,,,,,
,,,,,,,,,,,,,FF,,,,,,,,2.566,,,,,,,,,,,,,,,,,,,,,,610350fa3d929461b8ca9103,61036995e72b80b143b0e82b,2021-07-29_22h54.37.983,Simcolourproject_2stim_asymm_v5,2020.2.10,MacIntel,60,61025ae37ef11b136ea224fe,,,,,,,,,881,26,-59,1,0,0,response3disk,,4,1,7,1,0,0,rectangle,1,7,1,0,0,1,7,1,0,0,0,2,2,156,1,,,,,,,,
,,,,,,,,,,,,,FF,,,,,,,,2.999,,,,,,,,,,,,,,,,,,,,,,610350fa3d929461b8ca9103,61036995e72b80b143b0e82b,2021-07-29_22h54.37.983,Simcolourproject_2stim_asymm_v5,2020.2.10,MacIntel,60,61025ae37ef11b136ea224fe,,,,,,,,,535,77,-41,1,0,0,response3disk,,5,20,-4,1,0,0,rectangle,20,-4,1,0,0,20,-4,1,0,0,0,3,3,13,1,,,,,,,,
,,,,,,,,,,,,,FF,,,,,,,,2.034,,,,,,,,,,,,,,,,,,,,,,610350fa3d929461b8ca9103,61036995e72b80b143b0e82b,2021-07-29_22h54.37.983,Simcolourproject_2stim_asymm_v5,2020.2.10,MacIntel,60,61025ae37ef11b136ea224fe,,,,,,,,,3860,-48,-49,1,0,0,response5disk,,3,9,-3,1,0,0,rectangle,9,-3,1,0,0,9,-3,1,0,0,0,4,4,145,1,,,,,,,,
,,,,,,,,,,,,,FF,,,,,,,,8.068,,,,,,,,,,,,,,,,,,,,,,610350fa3d929461b8ca9103,61036995e72b80b143b0e82b,2021-07-29_22h54.37.983,Simcolourproject_2stim_asymm_v5,2020.2.10,MacIntel,60,61025ae37ef11b136ea224fe,,,,,,,,,3255,13,-28,1,0,0,response3disk,,4,-2,7,1,0,0,rectangle,-2,7,1,0,0,-2,7,1,0,0,0,5,5,60,1,,,,,,,,
,,,,,,,,,,,,,FF,,,,,,,,1,,,,,,,,,,,,,,,,,,,,,,610350fa3d929461b8ca9103,61036995e72b80b143b0e82b,2021-07-29_22h54.37.983,Simcolourproject_2stim_asymm_v5,2020.2.10,MacIntel,60,61025ae37ef11b136ea224fe,,,,,,,,,3468,-42,82,1,0,0,response7disk,,0,-8,-1,1,0,0,rectangle,37,88,1,0,0,11,5,1,0,0,0,6,6,67,1,,response1disk_3,TRUE,7,7,"[125,194,242,287,7,111,305,202,146,199,97,27,299,23,179,203,47,99,170,221]",2.033,rectangle
,,,,,,,,,,,,,FF,,,,,,,,1.3,,,,,,,,,,,,,,,,,,,,,,610350fa3d929461b8ca9103,61036995e72b80b143b0e82b,2021-07-29_22h54.37.983,Simcolourproject_2stim_asymm_v5,2020.2.10,MacIntel,60,61025ae37ef11b136ea224fe,,,,,,,,,2282,46,77,1,0,0,response1disk,,7,9,5,1,0,0,rectangle,9,5,1,0,0,9,5,1,0,0,0,7,7,49,1,,,,,,,,
,,,,,,,,,,,,,FF,,,,,,,,1.634,,,,,,,,,,,,,,,,,,,,,,610350fa3d929461b8ca9103,61036995e72b80b143b0e82b,2021-07-29_22h54.37.983,Simcolourproject_2stim_asymm_v5,2020.2.10,MacIntel,60,61025ae37ef11b136ea224fe,,,,,,,,,203,33,-51,1,0,0,response3disk,,4,-13,6,1,0,0,rectangle,-13,6,1,0,0,-13,6,1,0,0,0,8,8,55,1,,,,,,,,
,,,,,,,,,,,,,FF,,,,,,,,1.634,,,,,,,,,,,,,,,,,,,,,,610350fa3d929461b8ca9103,61036995e72b80b143b0e82b,2021-07-29_22h54.37.983,Simcolourproject_2stim_asymm_v5,2020.2.10,MacIntel,60,61025ae37ef11b136ea224fe,,,,,,,,,4104,-85,33,1,0,0,response7disk,,1,1,-1,1,0,0,rectangle,1,-1,1,0,0,1,-1,1,0,0,0,9,9,3,1,,,,,,,,
,,,,,,,,,,,,,FF,,,,,,,,1.666,,,,,,,,,,,,,,,,,,,,,,610350fa3d929461b8ca9103,61036995e72b80b143b0e82b,2021-07-29_22h54.37.983,Simcolourproject_2stim_asymm_v5,2020.2.10,MacIntel,60,61025ae37ef11b136ea224fe,,,,,,,,,1100,55,42,1,0,0,response1disk,,6,-3,2,1,0,0,rectangle,-3,2,1,0,0,-3,2,1,0,0,0,10,10,19,1,,,,,,,,
,,,,,,,,,,,,,FF,,,,,,,,1.582,,,,,,,,,,,,,,,,,,,,,,610350fa3d929461b8ca9103,61036995e72b80b143b0e82b,2021-07-29_22h54.37.983,Simcolourproject_2stim_asymm_v5,2020.2.10,MacIntel,60,61025ae37ef11b136ea224fe,,,,,,,,,692,64,-29,1,0,0,response3disk,,5,9,1,1,0,0,rectangle,9,1,1,0,0,9,1,1,0,0,0,11,11,107,1,,,,,,,,
,,,,,,,,,,,,,FF,,,,,,,,1.534,,,,,,,,,,,,,,,,,,,,,,610350fa3d929461b8ca9103,61036995e72b80b143b0e82b,2021-07-29_22h54.37.983,Simcolourproject_2stim_asymm_v5,2020.2.10,MacIntel,60,61025ae37ef11b136ea224fe,,,,,,,,,4150,23,-51,1,0,0,response3disk,,4,5,8,1,0,0,rectangle,5,8,1,0,0,5,8,1,0,0,0,12,12,84,1,,,,,,,,
,,,,,,,,,,,,,FF,,,,,,,,2.265,,,,,,,,,,,,,,,,,,,,,,610350fa3d929461b8ca9103,61036995e72b80b143b0e82b,2021-07-29_22h54.37.983,Simcolourproject_2stim_asymm_v5,2020.2.10,MacIntel,60,61025ae37ef11b136ea224fe,,,,,,,,,1884,-47,-62,1,0,0,response5disk,,3,7,0,1,0,0,rectangle,7,0,1,0,0,7,0,1,0,0,0,13,13,144,1,,,,,,,,
,,,,,,,,,,,,,FF,,,,,,,,5.217,,,,,,,,,,,,,,,,,,,,,,610350fa3d929461b8ca9103,61036995e72b80b143b0e82b,2021-07-29_22h54.37.983,Simcolourproject_2stim_asymm_v5,2020.2.10,MacIntel,60,61025ae37ef11b136ea224fe,,,,,,,,,843,88,22,1,0,0,response1disk,,6,15,-7,1,0,0,rectangle,15,-7,1,0,0,15,-7,1,0,0,0,14,14,117,1,,,,,,,,
,,,,,,,,,,,,,FF,,,,,,,,1.384,,,,,,,,,,,,,,,,,,,,,,610350fa3d929461b8ca9103,61036995e72b80b143b0e82b,2021-07-29_22h54.37.983,Simcolourproject_2stim_asymm_v5,2020.2.10,MacIntel,60,61025ae37ef11b136ea224fe,,,,,,,,,3778,-50,-30,1,0,0,response5disk,,2,-18,11,1,0,0,rectangle,-18,11,1,0,0,-18,11,1,0,0,0,15,15,65,1,,,,,,,,
,,,,,,,,,,,,,FF,,,,,,,,2.515,,,,,,,,,,,,,,,,,,,,,,610350fa3d929461b8ca9103,61036995e72b80b143b0e82b,2021-07-29_22h54.37.983,Simcolourproject_2stim_asymm_v5,2020.2.10,MacIntel,60,61025ae37ef11b136ea224fe,,,,,,,,,2611,-53,-26,1,0,0,response5disk,,2,5,11,1,0,0,rectangle,5,11,1,0,0,5,11,1,0,0,0,16,16,52,1,,,,,,,,
,,,,,,,,,,,,,FF,,,,,,,,1.066,,,,,,,,,,,,,,,,,,,,,,610350fa3d929461b8ca9103,61036995e72b80b143b0e82b,2021-07-29_22h54.37.983,Simcolourproject_2stim_asymm_v5,2020.2.10,MacIntel,60,61025ae37ef11b136ea224fe,,,,,,,,,280,-31,-43,1,0,0,response5disk,,3,-21,-6,1,0,0,rectangle,-21,-6,1,0,0,-21,-6,1,0,0,0,17,17,135,1,,,,,,,,
,,,,,,,,,,,,,FF,,,,,,,,2.85,,,,,,,,,,,,,,,,,,,,,,610350fa3d929461b8ca9103,61036995e72b80b143b0e82b,2021-07-29_22h54.37.983,Simcolourproject_2stim_asymm_v5,2020.2.10,MacIntel,60,61025ae37ef11b136ea224fe,,,,,,,,,3036,31,-58,1,0,0,response3disk,,4,1,-1,1,0,0,rectangle,1,-1,1,0,0,1,-1,1,0,0,0,18,18,123,1,,,,,,,,
,,,,,,,,,,,,,FF,,,,,,,,3.499,,,,,,,,,,,,,,,,,,,,,,610350fa3d929461b8ca9103,61036995e72b80b143b0e82b,2021-07-29_22h54.37.983,Simcolourproject_2stim_asymm_v5,2020.2.10,MacIntel,60,61025ae37ef11b136ea224fe,,,,,,,,,4291,57,28,1,0,0,response1disk,,6,9,-4,1,0,0,rectangle,9,-4,1,0,0,9,-4,1,0,0,0,19,19,93,1,,,,,,,,
,,,,,,,,,,,,,FF,,,,,,,,1.55,,,,,,,,,,,,,,,,,,,,,,610350fa3d929461b8ca9103,61036995e72b80b143b0e82b,2021-07-29_22h54.37.983,Simcolourproject_2stim_asymm_v5,2020.2.10,MacIntel,60,61025ae37ef11b136ea224fe,,,,,,,,,1461,-65,-35,1,0,0,response5disk,,2,-3,-13,1,0,0,rectangle,-3,-13,1,0,0,-3,-13,1,0,0,0,20,20,48,1,,,,,,,,
,,,,,,,,,,,,,FF,,,,,,,,2.851,,,,,,,,,,,,,,,,,,,,,,610350fa3d929461b8ca9103,61036995e72b80b143b0e82b,2021-07-29_22h54.37.983,Simcolourproject_2stim_asymm_v5,2020.2.10,MacIntel,60,61025ae37ef11b136ea224fe,,,,,,,,,2695,15,-51,1,0,0,response3disk,,4,6,0,1,0,0,rectangle,6,0,1,0,0,6,0,1,0,0,0,21,21,137,1,,,,,,,,
,,,,,,,,,,,,,FF,,,,,,,,1.05,,,,,,,,,,,,,,,,,,,,,,610350fa3d929461b8ca9103,61036995e72b80b143b0e82b,2021-07-29_22h54.37.983,Simcolourproject_2stim_asymm_v5,2020.2.10,MacIntel,60,61025ae37ef11b136ea224fe,,,,,,,,,3992,-66,-32,1,0,0,response5disk,,2,10,-7,1,0,0,rectangle,36,75,1,0,0,7,5,1,0,0,0,22,22,113,1,,response1disk_3,TRUE,7,7,"[125,194,242,287,7,111,305,202,146,199,97,27,299,23,179,203,47,99,170,221]",1.866,rectangle
,,,,,,,,,,,,,FF,,,,,,,,1.4,,,,,,,,,,,,,,,,,,,,,,610350fa3d929461b8ca9103,61036995e72b80b143b0e82b,2021-07-29_22h54.37.983,Simcolourproject_2stim_asymm_v5,2020.2.10,MacIntel,60,61025ae37ef11b136ea224fe,,,,,,,,,1446,-65,-22,1,0,0,response5disk,,2,-1,-1,1,0,0,rectangle,-1,-1,1,0,0,-1,-1,1,0,0,0,23,23,152,1,,,,,,,,
,,,,,,,,,,,,,FF,,,,,,,,1.349,,,,,,,,,,,,,,,,,,,,,,610350fa3d929461b8ca9103,61036995e72b80b143b0e82b,2021-07-29_22h54.37.983,Simcolourproject_2stim_asymm_v5,2020.2.10,MacIntel,60,61025ae37ef11b136ea224fe,,,,,,,,,2819,61,-32,1,0,0,response3disk,,5,3,8,1,0,0,rectangle,3,8,1,0,0,3,8,1,0,0,0,24,24,104,1,,,,,,,,
,,,,,,,,,,,,,FF,,,,,,,,1.732,,,,,,,,,,,,,,,,,,,,,,610350fa3d929461b8ca9103,61036995e72b80b143b0e82b,2021-07-29_22h54.37.983,Simcolourproject_2stim_asymm_v5,2020.2.10,MacIntel,60,61025ae37ef11b136ea224fe,,,,,,,,,1672,-33,-51,1,0,0,response5disk,,3,-18,-4,1,0,0,rectangle,-18,-4,1,0,0,-18,-4,1,0,0,0,25,25,2,1,,,,,,,,
,,,,,,,,,,,,,FF,,,,,,,,2.367,,,,,,,,,,,,,,,,,,,,,,610350fa3d929461b8ca9103,61036995e72b80b143b0e82b,2021-07-29_22h54.37.983,Simcolourproject_2stim_asymm_v5,2020.2.10,MacIntel,60,61025ae37ef11b136ea224fe,,,,,,,,,2225,23,-58,1,0,0,response3disk,,4,-3,4,1,0,0,rectangle,36,71,1,0,0,14,5,1,0,0,0,26,26,80,1,,response1disk_3,TRUE,7,7,"[125,194,242,287,7,111,305,202,146,199,97,27,299,23,179,203,47,99,170,221]",1.399,rectangle
,,,,,,,,,,,,,FF,,,,,,,,2.116,,,,,,,,,,,,,,,,,,,,,,610350fa3d929461b8ca9103,61036995e72b80b143b0e82b,2021-07-29_22h54.37.983,Simcolourproject_2stim_asymm_v5,2020.2.10,MacIntel,60,61025ae37ef11b136ea224fe,,,,,,,,,2714,-30,-69,1,0,0,response5disk,,3,-15,-2,1,0,0,rectangle,-15,-2,1,0,0,-15,-2,1,0,0,0,27,27,116,1,,,,,,,,
,,,,,,,,,,,,,FF,,,,,,,,3.166,,,,,,,,,,,,,,,,,,,,,,610350fa3d929461b8ca9103,61036995e72b80b143b0e82b,2021-07-29_22h54.37.983,Simcolourproject_2stim_asymm_v5,2020.2.10,MacIntel,60,61025ae37ef11b136ea224fe,,,,,,,,,1742,50,-37,1,0,0,response3disk,,5,5,-1,1,0,0,rectangle,5,-1,1,0,0,5,-1,1,0,0,0,28,28,147,1,,,,,,,,
,,,,,,,,,,,,,FF,,,,,,,,2.067,,,,,,,,,,,,,,,,,,,,,,610350fa3d929461b8ca9103,61036995e72b80b143b0e82b,2021-07-29_22h54.37.983,Simcolourproject_2stim_asymm_v5,2020.2.10,MacIntel,60,61025ae37ef11b136ea224fe,,,,,,,,,2555,-26,-61,1,0,0,response5disk,,3,-24,2,1,0,0,rectangle,-24,2,1,0,0,-24,2,1,0,0,0,29,29,34,1,,,,,,,,
,,,,,,,,,,,,,FF,,,,,,,,1.501,,,,,,,,,,,,,,,,,,,,,,610350fa3d929461b8ca9103,61036995e72b80b143b0e82b,2021-07-29_22h54.37.983,Simcolourproject_2stim_asymm_v5,2020.2.10,MacIntel,60,61025ae37ef11b136ea224fe,,,,,,,,,3994,-44,-53,1,0,0,response5disk,,3,-24,5,1,0,0,rectangle,-24,5,1,0,0,-24,5,1,0,0,0,30,30,50,1,,,,,,,,
,,,,,,,,,,,,,FF,,,,,,,,1.45,,,,,,,,,,,,,,,,,,,,,,610350fa3d929461b8ca9103,61036995e72b80b143b0e82b,2021-07-29_22h54.37.983,Simcolourproject_2stim_asymm_v5,2020.2.10,MacIntel,60,61025ae37ef11b136ea224fe,,,,,,,,,3826,62,-24,1,0,0,response3disk,,5,19,0,1,0,0,rectangle,19,0,1,0,0,19,0,1,0,0,0,31,31,95,1,,,,,,,,
,,,,,,,,,,,,,FF,,,,,,,,0.95,,,,,,,,,,,,,,,,,,,,,,610350fa3d929461b8ca9103,61036995e72b80b143b0e82b,2021-07-29_22h54.37.983,Simcolourproject_2stim_asymm_v5,2020.2.10,MacIntel,60,61025ae37ef11b136ea224fe,,,,,,,,,3051,-24,-51,1,0,0,response5disk,,3,-8,8,1,0,0,rectangle,-8,8,1,0,0,-8,8,1,0,0,0,32,32,24,1,,,,,,,,
,,,,,,,,,,,,,FF,,,,,,,,2.05,,,,,,,,,,,,,,,,,,,,,,610350fa3d929461b8ca9103,61036995e72b80b143b0e82b,2021-07-29_22h54.37.983,Simcolourproject_2stim_asymm_v5,2020.2.10,MacIntel,60,61025ae37ef11b136ea224fe,,,,,,,,,3004,26,-56,1,0,0,response3disk,,4,25,11,1,0,0,rectangle,25,11,1,0,0,25,11,1,0,0,0,33,33,29,1,,,,,,,,
,,,,,,,,,,,,,FF,,,,,,,,1.583,,,,,,,,,,,,,,,,,,,,,,610350fa3d929461b8ca9103,61036995e72b80b143b0e82b,2021-07-29_22h54.37.983,Simcolourproject_2stim_asymm_v5,2020.2.10,MacIntel,60,61025ae37ef11b136ea224fe,,,,,,,,,2624,21,75,1,0,0,response1disk,,7,16,-1,1,0,0,rectangle,16,-1,1,0,0,16,-1,1,0,0,0,34,34,83,1,,,,,,,,
,,,,,,,,,,,,,FF,,,,,,,,3,,,,,,,,,,,,,,,,,,,,,,610350fa3d929461b8ca9103,61036995e72b80b143b0e82b,2021-07-29_22h54.37.983,Simcolourproject_2stim_asymm_v5,2020.2.10,MacIntel,60,61025ae37ef11b136ea224fe,,,,,,,,,3833,55,-43,1,0,0,response3disk,,5,15,3,1,0,0,rectangle,15,3,1,0,0,15,3,1,0,0,0,35,35,39,1,,,,,,,,
,,,,,,,,,,,,,FF,,,,,,,,4.533,,,,,,,,,,,,,,,,,,,,,,610350fa3d929461b8ca9103,61036995e72b80b143b0e82b,2021-07-29_22h54.37.983,Simcolourproject_2stim_asymm_v5,2020.2.10,MacIntel,60,61025ae37ef11b136ea224fe,,,,,,,,,3079,78,18,1,0,0,response1disk,,6,-13,3,1,0,0,rectangle,-13,3,1,0,0,-13,3,1,0,0,0,36,36,159,1,,,,,,,,
,,,,,,,,,,,,,FF,,,,,,,,1.867,,,,,,,,,,,,,,,,,,,,,,610350fa3d929461b8ca9103,61036995e72b80b143b0e82b,2021-07-29_22h54.37.983,Simcolourproject_2stim_asymm_v5,2020.2.10,MacIntel,60,61025ae37ef11b136ea224fe,,,,,,,,,4136,55,-39,1,0,0,response3disk,,5,-16,-7,1,0,0,rectangle,-16,-7,1,0,0,-16,-7,1,0,0,0,37,37,23,1,,,,,,,,
,,,,,,,,,,,,,FF,,,,,,,,1.334,,,,,,,,,,,,,,,,,,,,,,610350fa3d929461b8ca9103,61036995e72b80b143b0e82b,2021-07-29_22h54.37.983,Simcolourproject_2stim_asymm_v5,2020.2.10,MacIntel,60,61025ae37ef11b136ea224fe,,,,,,,,,3023,31,60,1,0,0,response1disk,,7,18,4,1,0,0,rectangle,18,4,1,0,0,18,4,1,0,0,0,38,38,12,1,,,,,,,,
,,,,,,,,,,,,,FF,,,,,,,,1.318,,,,,,,,,,,,,,,,,,,,,,610350fa3d929461b8ca9103,61036995e72b80b143b0e82b,2021-07-29_22h54.37.983,Simcolourproject_2stim_asymm_v5,2020.2.10,MacIntel,60,61025ae37ef11b136ea224fe,,,,,,,,,2223,-26,-51,1,0,0,response5disk,,3,4,7,1,0,0,rectangle,4,7,1,0,0,4,7,1,0,0,0,39,39,109,1,,,,,,,,
,,,,,,,,,,,,,FF,,,,,,,,1.484,,,,,,,,,,,,,,,,,,,,,,610350fa3d929461b8ca9103,61036995e72b80b143b0e82b,2021-07-29_22h54.37.983,Simcolourproject_2stim_asymm_v5,2020.2.10,MacIntel,60,61025ae37ef11b136ea224fe,,,,,,,,,3476,-57,-30,1,0,0,response5disk,,2,-10,12,1,0,0,rectangle,-10,12,1,0,0,-10,12,1,0,0,0,40,40,157,1,,,,,,,,
,,,,,,,,,,,,,FF,,,,,,,,5.65,,,,,,,,,,,,,,,,,,,,,,610350fa3d929461b8ca9103,61036995e72b80b143b0e82b,2021-07-29_22h54.37.983,Simcolourproject_2stim_asymm_v5,2020.2.10,MacIntel,60,61025ae37ef11b136ea224fe,,,,,,,,,2319,-30,-60,1,0,0,response5disk,,3,-15,2,1,0,0,rectangle,-15,2,1,0,0,-15,2,1,0,0,0,41,41,108,1,,,,,,,,
,,,,,,,,,,,,,FF,,,,,,,,1.916,,,,,,,,,,,,,,,,,,,,,,610350fa3d929461b8ca9103,61036995e72b80b143b0e82b,2021-07-29_22h54.37.983,Simcolourproject_2stim_asymm_v5,2020.2.10,MacIntel,60,61025ae37ef11b136ea224fe,,,,,,,,,3634,-38,-44,1,0,0,response5disk,,3,-11,5,1,0,0,rectangle,-11,5,1,0,0,-11,5,1,0,0,0,42,42,133,1,,,,,,,,
,,,,,,,,,,,,,FF,,,,,,,,1.182,,,,,,,,,,,,,,,,,,,,,,610350fa3d929461b8ca9103,61036995e72b80b143b0e82b,2021-07-29_22h54.37.983,Simcolourproject_2stim_asymm_v5,2020.2.10,MacIntel,60,61025ae37ef11b136ea224fe,,,,,,,,,3685,-30,-64,1,0,0,response5disk,,3,-4,3,1,0,0,rectangle,-4,3,1,0,0,-4,3,1,0,0,0,43,43,125,1,,,,,,,,
,,,,,,,,,,,,,FF,,,,,,,,2.533,,,,,,,,,,,,,,,,,,,,,,610350fa3d929461b8ca9103,61036995e72b80b143b0e82b,2021-07-29_22h54.37.983,Simcolourproject_2stim_asymm_v5,2020.2.10,MacIntel,60,61025ae37ef11b136ea224fe,,,,,,,,,341,-73,-24,1,0,0,response5disk,,2,14,-12,1,0,0,rectangle,14,-12,1,0,0,14,-12,1,0,0,0,44,44,131,1,,,,,,,,
,,,,,,,,,,,,,FF,,,,,,,,1.451,,,,,,,,,,,,,,,,,,,,,,610350fa3d929461b8ca9103,61036995e72b80b143b0e82b,2021-07-29_22h54.37.983,Simcolourproject_2stim_asymm_v5,2020.2.10,MacIntel,60,61025ae37ef11b136ea224fe,,,,,,,,,1805,77,-36,1,0,0,response3disk,,5,12,-6,1,0,0,rectangle,12,-6,1,0,0,12,-6,1,0,0,0,45,45,68,1,,,,,,,,
,,,,,,,,,,,,,FF,,,,,,,,1.033,,,,,,,,,,,,,,,,,,,,,,610350fa3d929461b8ca9103,61036995e72b80b143b0e82b,2021-07-29_22h54.37.983,Simcolourproject_2stim_asymm_v5,2020.2.10,MacIntel,60,61025ae37ef11b136ea224fe,,,,,,,,,131,-35,-54,1,0,0,response5disk,,3,-5,12,1,0,0,rectangle,-67,-37,1,0,0,1,4,1,0,0,0,46,46,92,1,,response5disk_3,TRUE,2,2,"[125,194,242,287,7,111,305,202,146,199,97,27,299,23,179,203,47,99,170,221]",2.15,rectangle
,,,,,,,,,,,,,FF,,,,,,,,1.917,,,,,,,,,,,,,,,,,,,,,,610350fa3d929461b8ca9103,61036995e72b80b143b0e82b,2021-07-29_22h54.37.983,Simcolourproject_2stim_asymm_v5,2020.2.10,MacIntel,60,61025ae37ef11b136ea224fe,,,,,,,,,3029,56,-27,1,0,0,response3disk,,5,14,4,1,0,0,rectangle,14,4,1,0,0,14,4,1,0,0,0,47,47,22,1,,,,,,,,
,,,,,,,,,,,,,FF,,,,,,,,1.033,,,,,,,,,,,,,,,,,,,,,,610350fa3d929461b8ca9103,61036995e72b80b143b0e82b,2021-07-29_22h54.37.983,Simcolourproject_2stim_asymm_v5,2020.2.10,MacIntel,60,61025ae37ef11b136ea224fe,,,,,,,,,2066,25,-52,1,0,0,response3disk,,4,0,5,1,0,0,rectangle,0,5,1,0,0,0,5,1,0,0,0,48,48,69,1,,,,,,,,
,,,,,,,,,,,,,FF,,,,,,,,1.251,,,,,,,,,,,,,,,,,,,,,,610350fa3d929461b8ca9103,61036995e72b80b143b0e82b,2021-07-29_22h54.37.983,Simcolourproject_2stim_asymm_v5,2020.2.10,MacIntel,60,61025ae37ef11b136ea224fe,,,,,,,,,519,-35,-72,1,0,0,response5disk,,3,7,-1,1,0,0,rectangle,7,-1,1,0,0,7,-1,1,0,0,0,49,49,150,1,,,,,,,,
,,,,,,,,,,,,,FF,,,,,,,,1.1,,,,,,,,,,,,,,,,,,,,,,610350fa3d929461b8ca9103,61036995e72b80b143b0e82b,2021-07-29_22h54.37.983,Simcolourproject_2stim_asymm_v5,2020.2.10,MacIntel,60,61025ae37ef11b136ea224fe,,,,,,,,,670,34,67,1,0,0,response1disk,,7,11,-14,1,0,0,rectangle,11,-14,1,0,0,11,-14,1,0,0,0,50,50,97,1,,,,,,,,
,,,,,,,,,,,,,FF,,,,,,,,2.132,,,,,,,,,,,,,,,,,,,,,,610350fa3d929461b8ca9103,61036995e72b80b143b0e82b,2021-07-29_22h54.37.983,Simcolourproject_2stim_asymm_v5,2020.2.10,MacIntel,60,61025ae37ef11b136ea224fe,,,,,,,,,1881,33,-71,1,0,0,response3disk,,4,17,-3,1,0,0,rectangle,17,-3,1,0,0,17,-3,1,0,0,0,51,51,40,1,,,,,,,,
,,,,,,,,,,,,,FF,,,,,,,,1.166,,,,,,,,,,,,,,,,,,,,,,610350fa3d929461b8ca9103,61036995e72b80b143b0e82b,2021-07-29_22h54.37.983,Simcolourproject_2stim_asymm_v5,2020.2.10,MacIntel,60,61025ae37ef11b136ea224fe,,,,,,,,,1509,-28,-60,1,0,0,response5disk,,3,-19,-2,1,0,0,rectangle,-19,-2,1,0,0,-19,-2,1,0,0,0,52,52,127,1,,,,,,,,
,,,,,,,,,,,,,FF,,,,,,,,6.617,,,,,,,,,,,,,,,,,,,,,,610350fa3d929461b8ca9103,61036995e72b80b143b0e82b,2021-07-29_22h54.37.983,Simcolourproject_2stim_asymm_v5,2020.2.10,MacIntel,60,61025ae37ef11b136ea224fe,,,,,,,,,2908,-27,-64,1,0,0,response5disk,,3,-15,6,1,0,0,rectangle,-15,6,1,0,0,-15,6,1,0,0,0,53,53,7,1,,,,,,,,
,,,,,,,,,,,,,FF,,,,,,,,1.417,,,,,,,,,,,,,,,,,,,,,,610350fa3d929461b8ca9103,61036995e72b80b143b0e82b,2021-07-29_22h54.37.983,Simcolourproject_2stim_asymm_v5,2020.2.10,MacIntel,60,61025ae37ef11b136ea224fe,,,,,,,,,3536,52,-40,1,0,0,response3disk,,5,-1,-6,1,0,0,rectangle,-1,-6,1,0,0,-1,-6,1,0,0,0,54,54,96,1,,,,,,,,
,,,,,,,,,,,,,FF,,,,,,,,2.666,,,,,,,,,,,,,,,,,,,,,,610350fa3d929461b8ca9103,61036995e72b80b143b0e82b,2021-07-29_22h54.37.983,Simcolourproject_2stim_asymm_v5,2020.2.10,MacIntel,60,61025ae37ef11b136ea224fe,,,,,,,,,3539,54,-27,1,0,0,response3disk,,5,15,-4,1,0,0,rectangle,15,-4,1,0,0,15,-4,1,0,0,0,55,55,41,1,,,,,,,,
,,,,,,,,,,,,,FF,,,,,,,,1.65,,,,,,,,,,,,,,,,,,,,,,610350fa3d929461b8ca9103,61036995e72b80b143b0e82b,2021-07-29_22h54.37.983,Simcolourproject_2stim_asymm_v5,2020.2.10,MacIntel,60,61025ae37ef11b136ea224fe,,,,,,,,,2233,-67,39,1,0,0,response7disk,,1,-16,2,1,0,0,rectangle,-16,2,1,0,0,-16,2,1,0,0,0,56,56,11,1,,,,,,,,
,,,,,,,,,,,,,FF,,,,,,,,1.4,,,,,,,,,,,,,,,,,,,,,,610350fa3d929461b8ca9103,61036995e72b80b143b0e82b,2021-07-29_22h54.37.983,Simcolourproject_2stim_asymm_v5,2020.2.10,MacIntel,60,61025ae37ef11b136ea224fe,,,,,,,,,1836,-61,-17,1,0,0,response5disk,,2,-16,-7,1,0,0,rectangle,-16,-7,1,0,0,-16,-7,1,0,0,0,57,57,76,1,,,,,,,,
,,,,,,,,,,,,,FF,,,,,,,,1.5,,,,,,,,,,,,,,,,,,,,,,610350fa3d929461b8ca9103,61036995e72b80b143b0e82b,2021-07-29_22h54.37.983,Simcolourproject_2stim_asymm_v5,2020.2.10,MacIntel,60,61025ae37ef11b136ea224fe,,,,,,,,,1870,57,-40,1,0,0,response3disk,,5,7,-2,1,0,0,rectangle,7,-2,1,0,0,7,-2,1,0,0,0,58,58,5,1,,,,,,,,
,,,,,,,,,,,,,FF,,,,,,,,1.15,,,,,,,,,,,,,,,,,,,,,,610350fa3d929461b8ca9103,61036995e72b80b143b0e82b,2021-07-29_22h54.37.983,Simcolourproject_2stim_asymm_v5,2020.2.10,MacIntel,60,61025ae37ef11b136ea224fe,,,,,,,,,2472,-37,-57,1,0,0,response5disk,,3,-16,-1,1,0,0,rectangle,-16,-1,1,0,0,-16,-1,1,0,0,0,59,59,33,1,,,,,,,,
,,,,,,,,,,,,,FF,,,,,,,,1.034,,,,,,,,,,,,,,,,,,,,,,610350fa3d929461b8ca9103,61036995e72b80b143b0e82b,2021-07-29_22h54.37.983,Simcolourproject_2stim_asymm_v5,2020.2.10,MacIntel,60,61025ae37ef11b136ea224fe,,,,,,,,,3796,-59,-22,1,0,0,response5disk,,2,-14,2,1,0,0,rectangle,-14,2,1,0,0,-14,2,1,0,0,0,60,60,105,1,,,,,,,,
,,,,,,,,,,,,,FF,,,,,,,,1.666,,,,,,,,,,,,,,,,,,,,,,610350fa3d929461b8ca9103,61036995e72b80b143b0e82b,2021-07-29_22h54.37.983,Simcolourproject_2stim_asymm_v5,2020.2.10,MacIntel,60,61025ae37ef11b136ea224fe,,,,,,,,,560,58,-32,1,0,0,response3disk,,5,17,-7,1,0,0,rectangle,17,-7,1,0,0,17,-7,1,0,0,0,61,61,42,1,,,,,,,,
,,,,,,,,,,,,,FF,,,,,,,,2.416,,,,,,,,,,,,,,,,,,,,,,610350fa3d929461b8ca9103,61036995e72b80b143b0e82b,2021-07-29_22h54.37.983,Simcolourproject_2stim_asymm_v5,2020.2.10,MacIntel,60,61025ae37ef11b136ea224fe,,,,,,,,,2280,56,-17,1,0,0,response3disk,,5,20,-1,1,0,0,rectangle,20,-1,1,0,0,20,-1,1,0,0,0,62,62,111,1,,,,,,,,
,,,,,,,,,,,,,FF,,,,,,,,2.383,,,,,,,,,,,,,,,,,,,,,,610350fa3d929461b8ca9103,61036995e72b80b143b0e82b,2021-07-29_22h54.37.983,Simcolourproject_2stim_asymm_v5,2020.2.10,MacIntel,60,61025ae37ef11b136ea224fe,,,,,,,,,1974,-33,-68,1,0,0,response5disk,,3,10,2,1,0,0,rectangle,10,2,1,0,0,10,2,1,0,0,0,63,63,118,1,,,,,,,,
,,,,,,,,,,,,,FF,,,,,,,,2.417,,,,,,,,,,,,,,,,,,,,,,610350fa3d929461b8ca9103,61036995e72b80b143b0e82b,2021-07-29_22h54.37.983,Simcolourproject_2stim_asymm_v5,2020.2.10,MacIntel,60,61025ae37ef11b136ea224fe,,,,,,,,,4090,28,-69,1,0,0,response3disk,,4,10,-7,1,0,0,rectangle,10,-7,1,0,0,10,-7,1,0,0,0,64,64,140,1,,,,,,,,
,,,,,,,,,,,,,FF,,,,,,,,1.983,,,,,,,,,,,,,,,,,,,,,,610350fa3d929461b8ca9103,61036995e72b80b143b0e82b,2021-07-29_22h54.37.983,Simcolourproject_2stim_asymm_v5,2020.2.10,MacIntel,60,61025ae37ef11b136ea224fe,,,,,,,,,2011,61,38,1,0,0,response1disk,,6,6,-1,1,0,0,rectangle,6,-1,1,0,0,6,-1,1,0,0,0,65,65,58,1,,,,,,,,
,,,,,,,,,,,,,FF,,,,,,,,2.099,,,,,,,,,,,,,,,,,,,,,,610350fa3d929461b8ca9103,61036995e72b80b143b0e82b,2021-07-29_22h54.37.983,Simcolourproject_2stim_asymm_v5,2020.2.10,MacIntel,60,61025ae37ef11b136ea224fe,,,,,,,,,1991,-55,-30,1,0,0,response5disk,,2,-11,0,1,0,0,rectangle,-11,0,1,0,0,-11,0,1,0,0,0,66,66,124,1,,,,,,,,
,,,,,,,,,,,,,FF,,,,,,,,0.868,,,,,,,,,,,,,,,,,,,,,,610350fa3d929461b8ca9103,61036995e72b80b143b0e82b,2021-07-29_22h54.37.983,Simcolourproject_2stim_asymm_v5,2020.2.10,MacIntel,60,61025ae37ef11b136ea224fe,,,,,,,,,2683,-54,-27,1,0,0,response5disk,,2,-3,-6,1,0,0,rectangle,-3,-6,1,0,0,-3,-6,1,0,0,0,67,67,88,1,,,,,,,,
,,,,,,,,,,,,,FF,,,,,,,,1.333,,,,,,,,,,,,,,,,,,,,,,610350fa3d929461b8ca9103,61036995e72b80b143b0e82b,2021-07-29_22h54.37.983,Simcolourproject_2stim_asymm_v5,2020.2.10,MacIntel,60,61025ae37ef11b136ea224fe,,,,,,,,,327,70,40,1,0,0,response1disk,,6,10,-2,1,0,0,rectangle,10,-2,1,0,0,10,-2,1,0,0,0,68,68,1,1,,,,,,,,
,,,,,,,,,,,,,FF,,,,,,,,1.432,,,,,,,,,,,,,,,,,,,,,,610350fa3d929461b8ca9103,61036995e72b80b143b0e82b,2021-07-29_22h54.37.983,Simcolourproject_2stim_asymm_v5,2020.2.10,MacIntel,60,61025ae37ef11b136ea224fe,,,,,,,,,329,50,92,1,0,0,response1disk,,7,21,10,1,0,0,rectangle,21,10,1,0,0,21,10,1,0,0,0,69,69,89,1,,,,,,,,
,,,,,,,,,,,,,FF,,,,,,,,1.916,,,,,,,,,,,,,,,,,,,,,,610350fa3d929461b8ca9103,61036995e72b80b143b0e82b,2021-07-29_22h54.37.983,Simcolourproject_2stim_asymm_v5,2020.2.10,MacIntel,60,61025ae37ef11b136ea224fe,,,,,,,,,3919,18,-73,1,0,0,response3disk,,4,10,-7,1,0,0,rectangle,10,-7,1,0,0,10,-7,1,0,0,0,70,70,6,1,,,,,,,,
,,,,,,,,,,,,,FF,,,,,,,,2.817,,,,,,,,,,,,,,,,,,,,,,610350fa3d929461b8ca9103,61036995e72b80b143b0e82b,2021-07-29_22h54.37.983,Simcolourproject_2stim_asymm_v5,2020.2.10,MacIntel,60,61025ae37ef11b136ea224fe,,,,,,,,,212,-25,-56,1,0,0,response5disk,,3,15,-3,1,0,0,rectangle,15,-3,1,0,0,15,-3,1,0,0,0,71,71,38,1,,,,,,,,
,,,,,,,,,,,,,FF,,,,,,,,2.116,,,,,,,,,,,,,,,,,,,,,,610350fa3d929461b8ca9103,61036995e72b80b143b0e82b,2021-07-29_22h54.37.983,Simcolourproject_2stim_asymm_v5,2020.2.10,MacIntel,60,61025ae37ef11b136ea224fe,,,,,,,,,107,-58,-20,1,0,0,response5disk,,2,-15,-7,1,0,0,rectangle,-15,-7,1,0,0,-15,-7,1,0,0,0,72,72,139,1,,,,,,,,
,,,,,,,,,,,,,FF,,,,,,,,1.351,,,,,,,,,,,,,,,,,,,,,,610350fa3d929461b8ca9103,61036995e72b80b143b0e82b,2021-07-29_22h54.37.983,Simcolourproject_2stim_asymm_v5,2020.2.10,MacIntel,60,61025ae37ef11b136ea224fe,,,,,,,,,1488,28,-55,1,0,0,response3disk,,4,15,-5,1,0,0,rectangle,15,-5,1,0,0,15,-5,1,0,0,0,73,73,103,1,,,,,,,,
,,,,,,,,,,,,,FF,,,,,,,,2.483,,,,,,,,,,,,,,,,,,,,,,610350fa3d929461b8ca9103,61036995e72b80b143b0e82b,2021-07-29_22h54.37.983,Simcolourproject_2stim_asymm_v5,2020.2.10,MacIntel,60,61025ae37ef11b136ea224fe,,,,,,,,,3429,-71,-21,1,0,0,response5disk,,2,-16,-4,1,0,0,rectangle,-16,-4,1,0,0,-16,-4,1,0,0,0,74,74,44,1,,,,,,,,
,,,,,,,,,,,,,FF,,,,,,,,5.468,,,,,,,,,,,,,,,,,,,,,,610350fa3d929461b8ca9103,61036995e72b80b143b0e82b,2021-07-29_22h54.37.983,Simcolourproject_2stim_asymm_v5,2020.2.10,MacIntel,60,61025ae37ef11b136ea224fe,,,,,,,,,2587,35,-76,1,0,0,response3disk,,4,14,-8,1,0,0,rectangle,14,-8,1,0,0,14,-8,1,0,0,0,75,75,71,1,,,,,,,,
,,,,,,,,,,,,,FF,,,,,,,,2.901,,,,,,,,,,,,,,,,,,,,,,610350fa3d929461b8ca9103,61036995e72b80b143b0e82b,2021-07-29_22h54.37.983,Simcolourproject_2stim_asymm_v5,2020.2.10,MacIntel,60,61025ae37ef11b136ea224fe,,,,,,,,,4130,-55,-38,1,0,0,response5disk,,2,9,-6,1,0,0,rectangle,9,-6,1,0,0,9,-6,1,0,0,0,76,76,91,1,,,,,,,,
,,,,,,,,,,,,,FF,,,,,,,,1.6,,,,,,,,,,,,,,,,,,,,,,610350fa3d929461b8ca9103,61036995e72b80b143b0e82b,2021-07-29_22h54.37.983,Simcolourproject_2stim_asymm_v5,2020.2.10,MacIntel,60,61025ae37ef11b136ea224fe,,,,,,,,,2135,58,-38,1,0,0,response3disk,,5,18,-8,1,0,0,rectangle,18,-8,1,0,0,18,-8,1,0,0,0,77,77,9,1,,,,,,,,
,,,,,,,,,,,,,FF,,,,,,,,3.016,,,,,,,,,,,,,,,,,,,,,,610350fa3d929461b8ca9103,61036995e72b80b143b0e82b,2021-07-29_22h54.37.983,Simcolourproject_2stim_asymm_v5,2020.2.10,MacIntel,60,61025ae37ef11b136ea224fe,,,,,,,,,1723,44,69,1,0,0,response1disk,,7,17,1,1,0,0,rectangle,17,1,1,0,0,17,1,1,0,0,0,78,78,90,1,,,,,,,,
,,,,,,,,,,,,,FF,,,,,,,,2.483,,,,,,,,,,,,,,,,,,,,,,610350fa3d929461b8ca9103,61036995e72b80b143b0e82b,2021-07-29_22h54.37.983,Simcolourproject_2stim_asymm_v5,2020.2.10,MacIntel,60,61025ae37ef11b136ea224fe,,,,,,,,,2943,-70,-23,1,0,0,response5disk,,2,-6,1,1,0,0,rectangle,-6,1,1,0,0,-6,1,1,0,0,0,79,79,126,1,,,,,,,,
,,,,,,,,,,,,,FF,,,,,,,,1.967,,,,,,,,,,,,,,,,,,,,,,610350fa3d929461b8ca9103,61036995e72b80b143b0e82b,2021-07-29_22h54.37.983,Simcolourproject_2stim_asymm_v5,2020.2.10,MacIntel,60,61025ae37ef11b136ea224fe,,,,,,,,,2946,-36,70,1,0,0,response7disk,,0,-14,9,1,0,0,rectangle,-14,9,1,0,0,-14,9,1,0,0,0,80,80,8,1,,,,,,,,
,,,,,,,,,,,,,FF,,,,,,,,9.566,,,,,,,,,,,,,,,,,,,,,,610350fa3d929461b8ca9103,61036995e72b80b143b0e82b,2021-07-29_22h54.37.983,Simcolourproject_2stim_asymm_v5,2020.2.10,MacIntel,60,61025ae37ef11b136ea224fe,,,,,,,,,1185,30,61,1,0,0,response1disk,,7,23,1,1,0,0,rectangle,23,1,1,0,0,23,1,1,0,0,0,81,81,31,1,,,,,,,,
,,,,,,,,,,,,,FF,,,,,,,,1.667,,,,,,,,,,,,,,,,,,,,,,610350fa3d929461b8ca9103,61036995e72b80b143b0e82b,2021-07-29_22h54.37.983,Simcolourproject_2stim_asymm_v5,2020.2.10,MacIntel,60,61025ae37ef11b136ea224fe,,,,,,,,,3445,60,-44,1,0,0,response3disk,,5,1,-6,1,0,0,rectangle,1,-6,1,0,0,1,-6,1,0,0,0,82,82,20,1,,,,,,,,
,,,,,,,,,,,,,FF,,,,,,,,0.8,,,,,,,,,,,,,,,,,,,,,,610350fa3d929461b8ca9103,61036995e72b80b143b0e82b,2021-07-29_22h54.37.983,Simcolourproject_2stim_asymm_v5,2020.2.10,MacIntel,60,61025ae37ef11b136ea224fe,,,,,,,,,3244,-56,-30,1,0,0,response5disk,,2,-9,12,1,0,0,rectangle,-9,12,1,0,0,-9,12,1,0,0,0,83,83,102,1,,,,,,,,
,,,,,,,,,,,,,FF,,,,,,,,2.433,,,,,,,,,,,,,,,,,,,,,,610350fa3d929461b8ca9103,61036995e72b80b143b0e82b,2021-07-29_22h54.37.983,Simcolourproject_2stim_asymm_v5,2020.2.10,MacIntel,60,61025ae37ef11b136ea224fe,,,,,,,,,3018,30,64,1,0,0,response1disk,,7,12,10,1,0,0,rectangle,12,10,1,0,0,12,10,1,0,0,0,84,84,64,1,,,,,,,,
,,,,,,,,,,,,,FF,,,,,,,,1.317,,,,,,,,,,,,,,,,,,,,,,610350fa3d929461b8ca9103,61036995e72b80b143b0e82b,2021-07-29_22h54.37.983,Simcolourproject_2stim_asymm_v5,2020.2.10,MacIntel,60,61025ae37ef11b136ea224fe,,,,,,,,,2038,-66,-33,1,0,0,response5disk,,2,-8,-4,1,0,0,rectangle,-8,-4,1,0,0,-8,-4,1,0,0,0,85,85,26,1,,,,,,,,
,,,,,,,,,,,,,FF,,,,,,,,1.134,,,,,,,,,,,,,,,,,,,,,,610350fa3d929461b8ca9103,61036995e72b80b143b0e82b,2021-07-29_22h54.37.983,Simcolourproject_2stim_asymm_v5,2020.2.10,MacIntel,60,61025ae37ef11b136ea224fe,,,,,,,,,3418,-35,-40,1,0,0,response5disk,,3,5,3,1,0,0,rectangle,5,3,1,0,0,5,3,1,0,0,0,86,86,17,1,,,,,,,,
,,,,,,,,,,,,,FF,,,,,,,,1.8,,,,,,,,,,,,,,,,,,,,,,610350fa3d929461b8ca9103,61036995e72b80b143b0e82b,2021-07-29_22h54.37.983,Simcolourproject_2stim_asymm_v5,2020.2.10,MacIntel,60,61025ae37ef11b136ea224fe,,,,,,,,,3996,-58,-33,1,0,0,response5disk,,2,-11,-13,1,0,0,rectangle,-11,-13,1,0,0,-11,-13,1,0,0,0,87,87,46,1,,,,,,,,
,,,,,,,,,,,,,FF,,,,,,,,1.934,,,,,,,,,,,,,,,,,,,,,,610350fa3d929461b8ca9103,61036995e72b80b143b0e82b,2021-07-29_22h54.37.983,Simcolourproject_2stim_asymm_v5,2020.2.10,MacIntel,60,61025ae37ef11b136ea224fe,,,,,,,,,2174,-49,59,1,0,0,response7disk,,0,-32,12,1,0,0,rectangle,-32,12,1,0,0,-32,12,1,0,0,0,88,88,51,1,,,,,,,,
,,,,,,,,,,,,,FF,,,,,,,,2.416,,,,,,,,,,,,,,,,,,,,,,610350fa3d929461b8ca9103,61036995e72b80b143b0e82b,2021-07-29_22h54.37.983,Simcolourproject_2stim_asymm_v5,2020.2.10,MacIntel,60,61025ae37ef11b136ea224fe,,,,,,,,,1505,64,-41,1,0,0,response3disk,,5,7,-7,1,0,0,rectangle,7,-7,1,0,0,7,-7,1,0,0,0,89,89,56,1,,,,,,,,
,,,,,,,,,,,,,FF,,,,,,,,1.868,,,,,,,,,,,,,,,,,,,,,,610350fa3d929461b8ca9103,61036995e72b80b143b0e82b,2021-07-29_22h54.37.983,Simcolourproject_2stim_asymm_v5,2020.2.10,MacIntel,60,61025ae37ef11b136ea224fe,,,,,,,,,2396,65,17,1,0,0,response1disk,,6,9,9,1,0,0,rectangle,9,9,1,0,0,9,9,1,0,0,0,90,90,66,1,,,,,,,,
,,,,,,,,,,,,,FF,,,,,,,,1.453,,,,,,,,,,,,,,,,,,,,,,610350fa3d929461b8ca9103,61036995e72b80b143b0e82b,2021-07-29_22h54.37.983,Simcolourproject_2stim_asymm_v5,2020.2.10,MacIntel,60,61025ae37ef11b136ea224fe,,,,,,,,,3775,-77,-33,1,0,0,response5disk,,2,-17,-8,1,0,0,rectangle,-17,-8,1,0,0,-17,-8,1,0,0,0,91,91,120,1,,,,,,,,
,,,,,,,,,,,,,FF,,,,,,,,2.267,,,,,,,,,,,,,,,,,,,,,,610350fa3d929461b8ca9103,61036995e72b80b143b0e82b,2021-07-29_22h54.37.983,Simcolourproject_2stim_asymm_v5,2020.2.10,MacIntel,60,61025ae37ef11b136ea224fe,,,,,,,,,1725,-28,-57,1,0,0,response5disk,,3,-8,-10,1,0,0,rectangle,-8,-10,1,0,0,-8,-10,1,0,0,0,92,92,81,1,,,,,,,,
,,,,,,,,,,,,,FF,,,,,,,,1.517,,,,,,,,,,,,,,,,,,,,,,610350fa3d929461b8ca9103,61036995e72b80b143b0e82b,2021-07-29_22h54.37.983,Simcolourproject_2stim_asymm_v5,2020.2.10,MacIntel,60,61025ae37ef11b136ea224fe,,,,,,,,,529,-71,-17,1,0,0,response5disk,,2,-33,2,1,0,0,rectangle,-33,2,1,0,0,-33,2,1,0,0,0,93,93,79,1,,,,,,,,
,,,,,,,,,,,,,FF,,,,,,,,0.818,,,,,,,,,,,,,,,,,,,,,,610350fa3d929461b8ca9103,61036995e72b80b143b0e82b,2021-07-29_22h54.37.983,Simcolourproject_2stim_asymm_v5,2020.2.10,MacIntel,60,61025ae37ef11b136ea224fe,,,,,,,,,1968,-57,-25,1,0,0,response5disk,,2,16,3,1,0,0,rectangle,16,3,1,0,0,16,3,1,0,0,0,94,94,121,1,,,,,,,,
,,,,,,,,,,,,,FF,,,,,,,,1.033,,,,,,,,,,,,,,,,,,,,,,610350fa3d929461b8ca9103,61036995e72b80b143b0e82b,2021-07-29_22h54.37.983,Simcolourproject_2stim_asymm_v5,2020.2.10,MacIntel,60,61025ae37ef11b136ea224fe,,,,,,,,,1227,-45,23,1,0,0,response7disk,,1,-1,4,1,0,0,rectangle,-1,4,1,0,0,-1,4,1,0,0,0,95,95,143,1,,,,,,,,
,,,,,,,,,,,,,FF,,,,,,,,4.499,,,,,,,,,,,,,,,,,,,,,,610350fa3d929461b8ca9103,61036995e72b80b143b0e82b,2021-07-29_22h54.37.983,Simcolourproject_2stim_asymm_v5,2020.2.10,MacIntel,60,61025ae37ef11b136ea224fe,,,,,,,,,2688,27,-55,1,0,0,response3disk,,4,4,4,1,0,0,rectangle,89,46,1,0,0,22,13,1,0,0,0,96,96,0,1,,response1disk_3,TRUE,6,6,"[125,194,242,287,7,111,305,202,146,199,97,27,299,23,179,203,47,99,170,221]",1.432,rectangle
,,,,,,,,,,,,,FF,,,,,,,,1.833,,,,,,,,,,,,,,,,,,,,,,610350fa3d929461b8ca9103,61036995e72b80b143b0e82b,2021-07-29_22h54.37.983,Simcolourproject_2stim_asymm_v5,2020.2.10,MacIntel,60,61025ae37ef11b136ea224fe,,,,,,,,,2507,61,29,1,0,0,response1disk,,6,13,15,1,0,0,rectangle,13,15,1,0,0,13,15,1,0,0,0,97,97,100,1,,,,,,,,
,,,,,,,,,,,,,FF,,,,,,,,2.265,,,,,,,,,,,,,,,,,,,,,,610350fa3d929461b8ca9103,61036995e72b80b143b0e82b,2021-07-29_22h54.37.983,Simcolourproject_2stim_asymm_v5,2020.2.10,MacIntel,60,61025ae37ef11b136ea224fe,,,,,,,,,4348,-37,-73,1,0,0,response5disk,,3,-17,-3,1,0,0,rectangle,21,73,1,0,0,7,5,1,0,0,0,98,98,36,1,,response1disk_3,TRUE,7,7,"[125,194,242,287,7,111,305,202,146,199,97,27,299,23,179,203,47,99,170,221]",2.266,rectangle
,,,,,,,,,,,,,FF,,,,,,,,2.418,,,,,,,,,,,,,,,,,,,,,,610350fa3d929461b8ca9103,61036995e72b80b143b0e82b,2021-07-29_22h54.37.983,Simcolourproject_2stim_asymm_v5,2020.2.10,MacIntel,60,61025ae37ef11b136ea224fe,,,,,,,,,4226,-67,-22,1,0,0,response5disk,,2,-8,11,1,0,0,rectangle,-8,11,1,0,0,-8,11,1,0,0,0,99,99,43,1,,,,,,,,
,,,,,,,,,,,,,FF,,,,,,,,2.917,,,,,,,,,,,,,,,,,,,,,,610350fa3d929461b8ca9103,61036995e72b80b143b0e82b,2021-07-29_22h54.37.983,Simcolourproject_2stim_asymm_v5,2020.2.10,MacIntel,60,61025ae37ef11b136ea224fe,,,,,,,,,3010,33,-55,1,0,0,response3disk,,4,6,8,1,0,0,rectangle,6,8,1,0,0,6,8,1,0,0,0,100,100,32,1,,,,,,,,
,,,,,,,,,,,,,FF,,,,,,,,2.117,,,,,,,,,,,,,,,,,,,,,,610350fa3d929461b8ca9103,61036995e72b80b143b0e82b,2021-07-29_22h54.37.983,Simcolourproject_2stim_asymm_v5,2020.2.10,MacIntel,60,61025ae37ef11b136ea224fe,,,,,,,,,1418,-37,-58,1,0,0,response5disk,,3,-14,1,1,0,0,rectangle,-14,1,1,0,0,-14,1,1,0,0,0,101,101,112,1,,,,,,,,
,,,,,,,,,,,,,FF,,,,,,,,1.3,,,,,,,,,,,,,,,,,,,,,,610350fa3d929461b8ca9103,61036995e72b80b143b0e82b,2021-07-29_22h54.37.983,Simcolourproject_2stim_asymm_v5,2020.2.10,MacIntel,60,61025ae37ef11b136ea224fe,,,,,,,,,2130,21,77,1,0,0,response1disk,,7,15,-9,1,0,0,rectangle,15,-9,1,0,0,15,-9,1,0,0,0,102,102,106,1,,,,,,,,
,,,,,,,,,,,,,FF,,,,,,,,2.266,,,,,,,,,,,,,,,,,,,,,,610350fa3d929461b8ca9103,61036995e72b80b143b0e82b,2021-07-29_22h54.37.983,Simcolourproject_2stim_asymm_v5,2020.2.10,MacIntel,60,61025ae37ef11b136ea224fe,,,,,,,,,873,-65,-23,1,0,0,response5disk,,2,-17,-9,1,0,0,rectangle,-17,-9,1,0,0,-17,-9,1,0,0,0,103,103,63,1,,,,,,,,
,,,,,,,,,,,,,FF,,,,,,,,1.249,,,,,,,,,,,,,,,,,,,,,,610350fa3d929461b8ca9103,61036995e72b80b143b0e82b,2021-07-29_22h54.37.983,Simcolourproject_2stim_asymm_v5,2020.2.10,MacIntel,60,61025ae37ef11b136ea224fe,,,,,,,,,909,-25,-48,1,0,0,response5disk,,3,6,-2,1,0,0,rectangle,6,-2,1,0,0,6,-2,1,0,0,0,104,104,10,1,,,,,,,,
,,,,,,,,,,,,,FF,,,,,,,,1.216,,,,,,,,,,,,,,,,,,,,,,610350fa3d929461b8ca9103,61036995e72b80b143b0e82b,2021-07-29_22h54.37.983,Simcolourproject_2stim_asymm_v5,2020.2.10,MacIntel,60,61025ae37ef11b136ea224fe,,,,,,,,,54,-23,-63,1,0,0,response5disk,,3,-7,-11,1,0,0,rectangle,-7,-11,1,0,0,-7,-11,1,0,0,0,105,105,45,1,,,,,,,,
,,,,,,,,,,,,,FF,,,,,,,,2.8,,,,,,,,,,,,,,,,,,,,,,610350fa3d929461b8ca9103,61036995e72b80b143b0e82b,2021-07-29_22h54.37.983,Simcolourproject_2stim_asymm_v5,2020.2.10,MacIntel,60,61025ae37ef11b136ea224fe,,,,,,,,,3721,-61,-29,1,0,0,response5disk,,2,-10,-4,1,0,0,rectangle,-10,-4,1,0,0,-10,-4,1,0,0,0,106,106,155,1,,,,,,,,
,,,,,,,,,,,,,FF,,,,,,,,2.3,,,,,,,,,,,,,,,,,,,,,,610350fa3d929461b8ca9103,61036995e72b80b143b0e82b,2021-07-29_22h54.37.983,Simcolourproject_2stim_asymm_v5,2020.2.10,MacIntel,60,61025ae37ef11b136ea224fe,,,,,,,,,3640,38,65,1,0,0,response1disk,,7,28,3,1,0,0,rectangle,28,3,1,0,0,28,3,1,0,0,0,107,107,72,1,,,,,,,,
,,,,,,,,,,,,,FF,,,,,,,,2.517,,,,,,,,,,,,,,,,,,,,,,610350fa3d929461b8ca9103,61036995e72b80b143b0e82b,2021-07-29_22h54.37.983,Simcolourproject_2stim_asymm_v5,2020.2.10,MacIntel,60,61025ae37ef11b136ea224fe,,,,,,,,,1086,38,71,1,0,0,response1disk,,7,25,-16,1,0,0,rectangle,25,-16,1,0,0,25,-16,1,0,0,0,108,108,158,1,,,,,,,,
,,,,,,,,,,,,,FF,,,,,,,,2.95,,,,,,,,,,,,,,,,,,,,,,610350fa3d929461b8ca9103,61036995e72b80b143b0e82b,2021-07-29_22h54.37.983,Simcolourproject_2stim_asymm_v5,2020.2.10,MacIntel,60,61025ae37ef11b136ea224fe,,,,,,,,,3214,74,39,1,0,0,response1disk,,6,28,4,1,0,0,rectangle,28,4,1,0,0,28,4,1,0,0,0,109,109,128,1,,,,,,,,
,,,,,,,,,,,,,FF,,,,,,,,0.95,,,,,,,,,,,,,,,,,,,,,,610350fa3d929461b8ca9103,61036995e72b80b143b0e82b,2021-07-29_22h54.37.983,Simcolourproject_2stim_asymm_v5,2020.2.10,MacIntel,60,61025ae37ef11b136ea224fe,,,,,,,,,1963,-44,58,1,0,0,response7disk,,0,-25,7,1,0,0,rectangle,-77,-37,1,0,0,-20,-10,1,0,0,0,110,110,62,1,,response5disk_3,TRUE,2,2,"[125,194,242,287,7,111,305,202,146,199,97,27,299,23,179,203,47,99,170,221]",1.699,rectangle
,,,,,,,,,,,,,FF,,,,,,,,1.384,,,,,,,,,,,,,,,,,,,,,,610350fa3d929461b8ca9103,61036995e72b80b143b0e82b,2021-07-29_22h54.37.983,Simcolourproject_2stim_asymm_v5,2020.2.10,MacIntel,60,61025ae37ef11b136ea224fe,,,,,,,,,1970,-59,-23,1,0,0,response5disk,,2,10,3,1,0,0,rectangle,10,3,1,0,0,10,3,1,0,0,0,111,111,25,1,,,,,,,,
,,,,,,,,,,,,,FF,,,,,,,,1.067,,,,,,,,,,,,,,,,,,,,,,610350fa3d929461b8ca9103,61036995e72b80b143b0e82b,2021-07-29_22h54.37.983,Simcolourproject_2stim_asymm_v5,2020.2.10,MacIntel,60,61025ae37ef11b136ea224fe,,,,,,,,,962,36,53,1,0,0,response1disk,,7,26,9,1,0,0,rectangle,26,9,1,0,0,26,9,1,0,0,0,112,112,47,1,,,,,,,,
,,,,,,,,,,,,,FF,,,,,,,,2.133,,,,,,,,,,,,,,,,,,,,,,610350fa3d929461b8ca9103,61036995e72b80b143b0e82b,2021-07-29_22h54.37.983,Simcolourproject_2stim_asymm_v5,2020.2.10,MacIntel,60,61025ae37ef11b136ea224fe,,,,,,,,,1982,68,-33,1,0,0,response3disk,,5,13,-4,1,0,0,rectangle,13,-4,1,0,0,13,-4,1,0,0,0,113,113,27,1,,,,,,,,
,,,,,,,,,,,,,FF,,,,,,,,4.333,,,,,,,,,,,,,,,,,,,,,,610350fa3d929461b8ca9103,61036995e72b80b143b0e82b,2021-07-29_22h54.37.983,Simcolourproject_2stim_asymm_v5,2020.2.10,MacIntel,60,61025ae37ef11b136ea224fe,,,,,,,,,3799,16,-65,1,0,0,response3disk,,4,-3,-8,1,0,0,rectangle,-3,-8,1,0,0,-3,-8,1,0,0,0,114,114,85,1,,,,,,,,
,,,,,,,,,,,,,FF,,,,,,,,2.883,,,,,,,,,,,,,,,,,,,,,,610350fa3d929461b8ca9103,61036995e72b80b143b0e82b,2021-07-29_22h54.37.983,Simcolourproject_2stim_asymm_v5,2020.2.10,MacIntel,60,61025ae37ef11b136ea224fe,,,,,,,,,2595,23,-69,1,0,0,response3disk,,4,-10,3,1,0,0,rectangle,-10,3,1,0,0,-10,3,1,0,0,0,115,115,59,1,,,,,,,,
,,,,,,,,,,,,,FF,,,,,,,,1.282,,,,,,,,,,,,,,,,,,,,,,610350fa3d929461b8ca9103,61036995e72b80b143b0e82b,2021-07-29_22h54.37.983,Simcolourproject_2stim_asymm_v5,2020.2.10,MacIntel,60,61025ae37ef11b136ea224fe,,,,,,,,,1472,33,42,1,0,0,response1disk,,7,20,-3,1,0,0,rectangle,20,-3,1,0,0,20,-3,1,0,0,0,116,116,18,1,,,,,,,,
,,,,,,,,,,,,,FF,,,,,,,,2.467,,,,,,,,,,,,,,,,,,,,,,610350fa3d929461b8ca9103,61036995e72b80b143b0e82b,2021-07-29_22h54.37.983,Simcolourproject_2stim_asymm_v5,2020.2.10,MacIntel,60,61025ae37ef11b136ea224fe,,,,,,,,,2713,-24,-59,1,0,0,response5disk,,3,-3,-5,1,0,0,rectangle,-3,-5,1,0,0,-3,-5,1,0,0,0,117,117,119,1,,,,,,,,
,,,,,,,,,,,,,FF,,,,,,,,1.666,,,,,,,,,,,,,,,,,,,,,,610350fa3d929461b8ca9103,61036995e72b80b143b0e82b,2021-07-29_22h54.37.983,Simcolourproject_2stim_asymm_v5,2020.2.10,MacIntel,60,61025ae37ef11b136ea224fe,,,,,,,,,910,59,-23,1,0,0,response3disk,,5,14,-2,1,0,0,rectangle,14,-2,1,0,0,14,-2,1,0,0,0,118,118,77,1,,,,,,,,
,,,,,,,,,,,,,FF,,,,,,,,2.233,,,,,,,,,,,,,,,,,,,,,,610350fa3d929461b8ca9103,61036995e72b80b143b0e82b,2021-07-29_22h54.37.983,Simcolourproject_2stim_asymm_v5,2020.2.10,MacIntel,60,61025ae37ef11b136ea224fe,,,,,,,,,3014,-66,-24,1,0,0,response5disk,,2,-11,2,1,0,0,rectangle,-11,2,1,0,0,-11,2,1,0,0,0,119,119,57,1,,,,,,,,
,,,,,,,,,,,,,FF,,,,,,,,2.267,,,,,,,,,,,,,,,,,,,,,,610350fa3d929461b8ca9103,61036995e72b80b143b0e82b,2021-07-29_22h54.37.983,Simcolourproject_2stim_asymm_v5,2020.2.10,MacIntel,60,61025ae37ef11b136ea224fe,,,,,,,,,1775,24,-53,1,0,0,response3disk,,4,7,-6,1,0,0,rectangle,7,-6,1,0,0,7,-6,1,0,0,0,120,120,148,1,,,,,,,,
,,,,,,,,,,,,,FF,,,,,,,,0.9,,,,,,,,,,,,,,,,,,,,,,610350fa3d929461b8ca9103,61036995e72b80b143b0e82b,2021-07-29_22h54.37.983,Simcolourproject_2stim_asymm_v5,2020.2.10,MacIntel,60,61025ae37ef11b136ea224fe,,,,,,,,,267,39,70,1,0,0,response1disk,,7,7,-13,1,0,0,rectangle,7,-13,1,0,0,7,-13,1,0,0,0,121,121,141,1,,,,,,,,
,,,,,,,,,,,,,FF,,,,,,,,3.633,,,,,,,,,,,,,,,,,,,,,,610350fa3d929461b8ca9103,61036995e72b80b143b0e82b,2021-07-29_22h54.37.983,Simcolourproject_2stim_asymm_v5,2020.2.10,MacIntel,60,61025ae37ef11b136ea224fe,,,,,,,,,3088,46,-28,1,0,0,response3disk,,5,13,-13,1,0,0,rectangle,13,-13,1,0,0,13,-13,1,0,0,0,122,122,149,1,,,,,,,,
,,,,,,,,,,,,,FF,,,,,,,,2.733,,,,,,,,,,,,,,,,,,,,,,610350fa3d929461b8ca9103,61036995e72b80b143b0e82b,2021-07-29_22h54.37.983,Simcolourproject_2stim_asymm_v5,2020.2.10,MacIntel,60,61025ae37ef11b136ea224fe,,,,,,,,,2717,-33,-46,1,0,0,response5disk,,3,-3,-14,1,0,0,rectangle,-3,-14,1,0,0,-3,-14,1,0,0,0,123,123,129,1,,,,,,,,
,,,,,,,,,,,,,FF,,,,,,,,1.267,,,,,,,,,,,,,,,,,,,,,,610350fa3d929461b8ca9103,61036995e72b80b143b0e82b,2021-07-29_22h54.37.983,Simcolourproject_2stim_asymm_v5,2020.2.10,MacIntel,60,61025ae37ef11b136ea224fe,,,,,,,,,771,48,-22,1,0,0,response3disk,,5,27,-1,1,0,0,rectangle,-37,70,1,0,0,-15,6,1,0,0,0,124,124,28,1,,response7disk_3,TRUE,0,0,"[125,194,242,287,7,111,305,202,146,199,97,27,299,23,179,203,47,99,170,221]",1.451,rectangle
,,,,,,,,,,,,,FF,,,,,,,,4.449,,,,,,,,,,,,,,,,,,,,,,610350fa3d929461b8ca9103,61036995e72b80b143b0e82b,2021-07-29_22h54.37.983,Simcolourproject_2stim_asymm_v5,2020.2.10,MacIntel,60,61025ae37ef11b136ea224fe,,,,,,,,,1577,-27,-48,1,0,0,response5disk,,3,-5,-4,1,0,0,rectangle,-5,-4,1,0,0,-5,-4,1,0,0,0,125,125,114,1,,,,,,,,
,,,,,,,,,,,,,FF,,,,,,,,5.4,,,,,,,,,,,,,,,,,,,,,,610350fa3d929461b8ca9103,61036995e72b80b143b0e82b,2021-07-29_22h54.37.983,Simcolourproject_2stim_asymm_v5,2020.2.10,MacIntel,60,61025ae37ef11b136ea224fe,,,,,,,,,473,-30,-56,1,0,0,response5disk,,3,3,1,1,0,0,rectangle,3,1,1,0,0,3,1,1,0,0,0,126,126,16,1,,,,,,,,
,,,,,,,,,,,,,FF,,,,,,,,1.268,,,,,,,,,,,,,,,,,,,,,,610350fa3d929461b8ca9103,61036995e72b80b143b0e82b,2021-07-29_22h54.37.983,Simcolourproject_2stim_asymm_v5,2020.2.10,MacIntel,60,61025ae37ef11b136ea224fe,,,,,,,,,143,32,-50,1,0,0,response3disk,,4,24,-8,1,0,0,rectangle,24,-8,1,0,0,24,-8,1,0,0,0,127,127,153,1,,,,,,,,
,,,,,,,,,,,,,FF,,,,,,,,1.033,,,,,,,,,,,,,,,,,,,,,,610350fa3d929461b8ca9103,61036995e72b80b143b0e82b,2021-07-29_22h54.37.983,Simcolourproject_2stim_asymm_v5,2020.2.10,MacIntel,60,61025ae37ef11b136ea224fe,,,,,,,,,2243,-39,-52,1,0,0,response5disk,,3,-25,-8,1,0,0,rectangle,-25,-8,1,0,0,-25,-8,1,0,0,0,128,128,122,1,,,,,,,,
,,,,,,,,,,,,,FF,,,,,,,,1.1,,,,,,,,,,,,,,,,,,,,,,610350fa3d929461b8ca9103,61036995e72b80b143b0e82b,2021-07-29_22h54.37.983,Simcolourproject_2stim_asymm_v5,2020.2.10,MacIntel,60,61025ae37ef11b136ea224fe,,,,,,,,,3704,-67,46,1,0,0,response7disk,,1,-9,11,1,0,0,rectangle,-9,11,1,0,0,-9,11,1,0,0,0,129,129,115,1,,,,,,,,
,,,,,,,,,,,,,FF,,,,,,,,1.767,,,,,,,,,,,,,,,,,,,,,,610350fa3d929461b8ca9103,61036995e72b80b143b0e82b,2021-07-29_22h54.37.983,Simcolourproject_2stim_asymm_v5,2020.2.10,MacIntel,60,61025ae37ef11b136ea224fe,,,,,,,,,3319,72,-33,1,0,0,response3disk,,5,10,-1,1,0,0,rectangle,10,-1,1,0,0,10,-1,1,0,0,0,130,130,110,1,,,,,,,,
,,,,,,,,,,,,,FF,,,,,,,,1.784,,,,,,,,,,,,,,,,,,,,,,610350fa3d929461b8ca9103,61036995e72b80b143b0e82b,2021-07-29_22h54.37.983,Simcolourproject_2stim_asymm_v5,2020.2.10,MacIntel,60,61025ae37ef11b136ea224fe,,,,,,,,,1012,-45,-58,1,0,0,response5disk,,3,-17,10,1,0,0,rectangle,-17,10,1,0,0,-17,10,1,0,0,0,131,131,151,1,,,,,,,,
,,,,,,,,,,,,,FF,,,,,,,,1.233,,,,,,,,,,,,,,,,,,,,,,610350fa3d929461b8ca9103,61036995e72b80b143b0e82b,2021-07-29_22h54.37.983,Simcolourproject_2stim_asymm_v5,2020.2.10,MacIntel,60,61025ae37ef11b136ea224fe,,,,,,,,,7,-65,37,1,0,0,response7disk,,1,-5,6,1,0,0,rectangle,-5,6,1,0,0,-5,6,1,0,0,0,132,132,61,1,,,,,,,,
,,,,,,,,,,,,,FF,,,,,,,,1.301,,,,,,,,,,,,,,,,,,,,,,610350fa3d929461b8ca9103,61036995e72b80b143b0e82b,2021-07-29_22h54.37.983,Simcolourproject_2stim_asymm_v5,2020.2.10,MacIntel,60,61025ae37ef11b136ea224fe,,,,,,,,,2810,26,-59,1,0,0,response3disk,,4,16,0,1,0,0,rectangle,16,0,1,0,0,16,0,1,0,0,0,133,133,136,1,,,,,,,,
,,,,,,,,,,,,,FF,,,,,,,,1.234,,,,,,,,,,,,,,,,,,,,,,610350fa3d929461b8ca9103,61036995e72b80b143b0e82b,2021-07-29_22h54.37.983,Simcolourproject_2stim_asymm_v5,2020.2.10,MacIntel,60,61025ae37ef11b136ea224fe,,,,,,,,,1999,66,-32,1,0,0,response3disk,,5,8,-2,1,0,0,rectangle,8,-2,1,0,0,8,-2,1,0,0,0,134,134,70,1,,,,,,,,
,,,,,,,,,,,,,FF,,,,,,,,0.966,,,,,,,,,,,,,,,,,,,,,,610350fa3d929461b8ca9103,61036995e72b80b143b0e82b,2021-07-29_22h54.37.983,Simcolourproject_2stim_asymm_v5,2020.2.10,MacIntel,60,61025ae37ef11b136ea224fe,,,,,,,,,2019,-42,-42,1,0,0,response5disk,,3,-4,-1,1,0,0,rectangle,-4,-1,1,0,0,-4,-1,1,0,0,0,135,135,99,1,,,,,,,,
,,,,,,,,,,,,,FF,,,,,,,,1.3,,,,,,,,,,,,,,,,,,,,,,610350fa3d929461b8ca9103,61036995e72b80b143b0e82b,2021-07-29_22h54.37.983,Simcolourproject_2stim_asymm_v5,2020.2.10,MacIntel,60,61025ae37ef11b136ea224fe,,,,,,,,,1008,73,42,1,0,0,response1disk,,6,19,11,1,0,0,rectangle,19,11,1,0,0,19,11,1,0,0,0,136,136,15,1,,,,,,,,
,,,,,,,,,,,,,FF,,,,,,,,2.667,,,,,,,,,,,,,,,,,,,,,,610350fa3d929461b8ca9103,61036995e72b80b143b0e82b,2021-07-29_22h54.37.983,Simcolourproject_2stim_asymm_v5,2020.2.10,MacIntel,60,61025ae37ef11b136ea224fe,,,,,,,,,3169,62,-29,1,0,0,response3disk,,5,15,-7,1,0,0,rectangle,15,-7,1,0,0,15,-7,1,0,0,0,137,137,154,1,,,,,,,,
,,,,,,,,,,,,,FF,,,,,,,,1.715,,,,,,,,,,,,,,,,,,,,,,610350fa3d929461b8ca9103,61036995e72b80b143b0e82b,2021-07-29_22h54.37.983,Simcolourproject_2stim_asymm_v5,2020.2.10,MacIntel,60,61025ae37ef11b136ea224fe,,,,,,,,,725,-32,-57,1,0,0,response5disk,,3,6,7,1,0,0,rectangle,6,7,1,0,0,6,7,1,0,0,0,138,138,74,1,,,,,,,,
,,,,,,,,,,,,,FF,,,,,,,,0.916,,,,,,,,,,,,,,,,,,,,,,610350fa3d929461b8ca9103,61036995e72b80b143b0e82b,2021-07-29_22h54.37.983,Simcolourproject_2stim_asymm_v5,2020.2.10,MacIntel,60,61025ae37ef11b136ea224fe,,,,,,,,,2597,23,-63,1,0,0,response3disk,,4,11,-12,1,0,0,rectangle,11,-12,1,0,0,11,-12,1,0,0,0,139,139,134,1,,,,,,,,
,,,,,,,,,,,,,FF,,,,,,,,1.75,,,,,,,,,,,,,,,,,,,,,,610350fa3d929461b8ca9103,61036995e72b80b143b0e82b,2021-07-29_22h54.37.983,Simcolourproject_2stim_asymm_v5,2020.2.10,MacIntel,60,61025ae37ef11b136ea224fe,,,,,,,,,1612,-28,-54,1,0,0,response5disk,,3,0,-3,1,0,0,rectangle,0,-3,1,0,0,0,-3,1,0,0,0,140,140,132,1,,,,,,,,
,,,,,,,,,,,,,FF,,,,,,,,2.182,,,,,,,,,,,,,,,,,,,,,,610350fa3d929461b8ca9103,61036995e72b80b143b0e82b,2021-07-29_22h54.37.983,Simcolourproject_2stim_asymm_v5,2020.2.10,MacIntel,60,61025ae37ef11b136ea224fe,,,,,,,,,1754,-31,-53,1,0,0,response5disk,,3,1,-5,1,0,0,rectangle,1,-5,1,0,0,1,-5,1,0,0,0,141,141,73,1,,,,,,,,
,,,,,,,,,,,,,FF,,,,,,,,1.317,,,,,,,,,,,,,,,,,,,,,,610350fa3d929461b8ca9103,61036995e72b80b143b0e82b,2021-07-29_22h54.37.983,Simcolourproject_2stim_asymm_v5,2020.2.10,MacIntel,60,61025ae37ef11b136ea224fe,,,,,,,,,3557,-33,-58,1,0,0,response5disk,,3,19,5,1,0,0,rectangle,19,5,1,0,0,19,5,1,0,0,0,142,142,82,1,,,,,,,,
,,,,,,,,,,,,,FF,,,,,,,,2.332,,,,,,,,,,,,,,,,,,,,,,610350fa3d929461b8ca9103,61036995e72b80b143b0e82b,2021-07-29_22h54.37.983,Simcolourproject_2stim_asymm_v5,2020.2.10,MacIntel,60,61025ae37ef11b136ea224fe,,,,,,,,,2195,37,-52,1,0,0,response3disk,,4,10,-4,1,0,0,rectangle,10,-4,1,0,0,10,-4,1,0,0,0,143,143,4,1,,,,,,,,
,,,,,,,,,,,,,FF,,,,,,,,1.317,,,,,,,,,,,,,,,,,,,,,,610350fa3d929461b8ca9103,61036995e72b80b143b0e82b,2021-07-29_22h54.37.983,Simcolourproject_2stim_asymm_v5,2020.2.10,MacIntel,60,61025ae37ef11b136ea224fe,,,,,,,,,1206,66,42,1,0,0,response1disk,,6,18,12,1,0,0,rectangle,18,12,1,0,0,18,12,1,0,0,0,144,144,54,1,,,,,,,,
,,,,,,,,,,,,,FF,,,,,,,,2.3,,,,,,,,,,,,,,,,,,,,,,610350fa3d929461b8ca9103,61036995e72b80b143b0e82b,2021-07-29_22h54.37.983,Simcolourproject_2stim_asymm_v5,2020.2.10,MacIntel,60,61025ae37ef11b136ea224fe,,,,,,,,,153,-31,-63,1,0,0,response5disk,,3,-4,-1,1,0,0,rectangle,27,-70,1,0,0,4,-11,1,0,0,0,145,145,86,1,,response3disk_3,TRUE,4,4,"[125,194,242,287,7,111,305,202,146,199,97,27,299,23,179,203,47,99,170,221]",2.032,rectangle
,,,,,,,,,,,,,FF,,,,,,,,2.217,,,,,,,,,,,,,,,,,,,,,,610350fa3d929461b8ca9103,61036995e72b80b143b0e82b,2021-07-29_22h54.37.983,Simcolourproject_2stim_asymm_v5,2020.2.10,MacIntel,60,61025ae37ef11b136ea224fe,,,,,,,,,3448,33,-49,1,0,0,response3disk,,4,15,-8,1,0,0,rectangle,15,-8,1,0,0,15,-8,1,0,0,0,146,146,21,1,,,,,,,,
,,,,,,,,,,,,,FF,,,,,,,,1.283,,,,,,,,,,,,,,,,,,,,,,610350fa3d929461b8ca9103,61036995e72b80b143b0e82b,2021-07-29_22h54.37.983,Simcolourproject_2stim_asymm_v5,2020.2.10,MacIntel,60,61025ae37ef11b136ea224fe,,,,,,,,,4075,27,-47,1,0,0,response3disk,,4,13,-1,1,0,0,rectangle,13,-1,1,0,0,13,-1,1,0,0,0,147,147,53,1,,,,,,,,
,,,,,,,,,,,,,FF,,,,,,,,1.316,,,,,,,,,,,,,,,,,,,,,,610350fa3d929461b8ca9103,61036995e72b80b143b0e82b,2021-07-29_22h54.37.983,Simcolourproject_2stim_asymm_v5,2020.2.10,MacIntel,60,61025ae37ef11b136ea224fe,,,,,,,,,1617,-33,-67,1,0,0,response5disk,,3,1,8,1,0,0,rectangle,1,8,1,0,0,1,8,1,0,0,0,148,148,146,1,,,,,,,,
,,,,,,,,,,,,,FF,,,,,,,,3.433,,,,,,,,,,,,,,,,,,,,,,610350fa3d929461b8ca9103,61036995e72b80b143b0e82b,2021-07-29_22h54.37.983,Simcolourproject_2stim_asymm_v5,2020.2.10,MacIntel,60,61025ae37ef11b136ea224fe,,,,,,,,,2649,56,-29,1,0,0,response3disk,,5,0,2,1,0,0,rectangle,0,2,1,0,0,0,2,1,0,0,0,149,149,138,1,,,,,,,,
,,,,,,,,,,,,,FF,,,,,,,,1.583,,,,,,,,,,,,,,,,,,,,,,610350fa3d929461b8ca9103,61036995e72b80b143b0e82b,2021-07-29_22h54.37.983,Simcolourproject_2stim_asymm_v5,2020.2.10,MacIntel,60,61025ae37ef11b136ea224fe,,,,,,,,,3600,63,-27,1,0,0,response3disk,,5,13,0,1,0,0,rectangle,13,0,1,0,0,13,0,1,0,0,0,150,150,14,1,,,,,,,,
,,,,,,,,,,,,,FF,,,,,,,,0.883,,,,,,,,,,,,,,,,,,,,,,610350fa3d929461b8ca9103,61036995e72b80b143b0e82b,2021-07-29_22h54.37.983,Simcolourproject_2stim_asymm_v5,2020.2.10,MacIntel,60,61025ae37ef11b136ea224fe,,,,,,,,,30,-37,-61,1,0,0,response5disk,,3,-10,1,1,0,0,rectangle,-10,1,1,0,0,-10,1,1,0,0,0,151,151,78,1,,,,,,,,
,,,,,,,,,,,,,FF,,,,,,,,1.566,,,,,,,,,,,,,,,,,,,,,,610350fa3d929461b8ca9103,61036995e72b80b143b0e82b,2021-07-29_22h54.37.983,Simcolourproject_2stim_asymm_v5,2020.2.10,MacIntel,60,61025ae37ef11b136ea224fe,,,,,,,,,1070,-62,-24,1,0,0,response5disk,,2,0,-2,1,0,0,rectangle,0,-2,1,0,0,0,-2,1,0,0,0,152,152,98,1,,,,,,,,
,,,,,,,,,,,,,FF,,,,,,,,1.7,,,,,,,,,,,,,,,,,,,,,,610350fa3d929461b8ca9103,61036995e72b80b143b0e82b,2021-07-29_22h54.37.983,Simcolourproject_2stim_asymm_v5,2020.2.10,MacIntel,60,61025ae37ef11b136ea224fe,,,,,,,,,3190,-66,-23,1,0,0,response5disk,,2,-13,3,1,0,0,rectangle,-13,3,1,0,0,-13,3,1,0,0,0,153,153,94,1,,,,,,,,
,,,,,,,,,,,,,FF,,,,,,,,0.884,,,,,,,,,,,,,,,,,,,,,,610350fa3d929461b8ca9103,61036995e72b80b143b0e82b,2021-07-29_22h54.37.983,Simcolourproject_2stim_asymm_v5,2020.2.10,MacIntel,60,61025ae37ef11b136ea224fe,,,,,,,,,4361,-37,77,1,0,0,response7disk,,0,-4,0,1,0,0,rectangle,-4,0,1,0,0,-4,0,1,0,0,0,154,154,37,1,,,,,,,,
,,,,,,,,,,,,,FF,,,,,,,,1.6,,,,,,,,,,,,,,,,,,,,,,610350fa3d929461b8ca9103,61036995e72b80b143b0e82b,2021-07-29_22h54.37.983,Simcolourproject_2stim_asymm_v5,2020.2.10,MacIntel,60,61025ae37ef11b136ea224fe,,,,,,,,,3312,31,61,1,0,0,response1disk,,7,6,0,1,0,0,rectangle,6,0,1,0,0,6,0,1,0,0,0,155,155,35,1,,,,,,,,
,,,,,,,,,,,,,FF,,,,,,,,2.116,,,,,,,,,,,,,,,,,,,,,,610350fa3d929461b8ca9103,61036995e72b80b143b0e82b,2021-07-29_22h54.37.983,Simcolourproject_2stim_asymm_v5,2020.2.10,MacIntel,60,61025ae37ef11b136ea224fe,,,,,,,,,283,-19,-70,1,0,0,response5disk,,3,5,6,1,0,0,rectangle,5,6,1,0,0,5,6,1,0,0,0,156,156,75,1,,,,,,,,
,,,,,,,,,,,,,FF,,,,,,,,2.115,,,,,,,,,,,,,,,,,,,,,,610350fa3d929461b8ca9103,61036995e72b80b143b0e82b,2021-07-29_22h54.37.983,Simcolourproject_2stim_asymm_v5,2020.2.10,MacIntel,60,61025ae37ef11b136ea224fe,,,,,,,,,916,55,-33,1,0,0,response3disk,,5,9,-5,1,0,0,rectangle,9,-5,1,0,0,9,-5,1,0,0,0,157,157,87,1,,,,,,,,
,,,,,,,,,,,,,FF,,,,,,,,2.533,,,,,,,,,,,,,,,,,,,,,,610350fa3d929461b8ca9103,61036995e72b80b143b0e82b,2021-07-29_22h54.37.983,Simcolourproject_2stim_asymm_v5,2020.2.10,MacIntel,60,61025ae37ef11b136ea224fe,,,,,,,,,954,36,-56,1,0,0,response3disk,,4,13,-9,1,0,0,rectangle,13,-9,1,0,0,13,-9,1,0,0,0,158,158,142,1,,,,,,,,
,,,,,,,,,,,,,FF,,,,,,,,1.316,,,,,,,,,,,,,,,,,,,,,,610350fa3d929461b8ca9103,61036995e72b80b143b0e82b,2021-07-29_22h54.37.983,Simcolourproject_2stim_asymm_v5,2020.2.10,MacIntel,60,61025ae37ef11b136ea224fe,,,,,,,,,2960,61,25,1,0,0,response1disk,,6,18,1,1,0,0,rectangle,18,1,1,0,0,18,1,1,0,0,0,159,159,130,1,,,,,,,,
,,,,,,,,,,,,,FF,,,,,,,,3.15,,,,,,,,,,,,,,,,,,,,,,610350fa3d929461b8ca9103,61036995e72b80b143b0e82b,2021-07-29_22h54.37.983,Simcolourproject_2stim_asymm_v5,2020.2.10,MacIntel,60,61025ae37ef11b136ea224fe,,,,,,,,,3261,44,60,1,0,0,response1disk,,7,11,9,1,0,0,rectangle,11,9,1,0,0,11,9,1,0,0,1,0,160,123,1,,,,,,,,
,,,,,,,,,,,,,FF,,,,,,,,1.333,,,,,,,,,,,,,,,,,,,,,,610350fa3d929461b8ca9103,61036995e72b80b143b0e82b,2021-07-29_22h54.37.983,Simcolourproject_2stim_asymm_v5,2020.2.10,MacIntel,60,61025ae37ef11b136ea224fe,,,,,,,,,2758,41,61,1,0,0,response1disk,,7,11,3,1,0,0,rectangle,11,3,1,0,0,11,3,1,0,0,1,1,161,34,1,,,,,,,,
,,,,,,,,,,,,,FF,,,,,,,,2.066,,,,,,,,,,,,,,,,,,,,,,610350fa3d929461b8ca9103,61036995e72b80b143b0e82b,2021-07-29_22h54.37.983,Simcolourproject_2stim_asymm_v5,2020.2.10,MacIntel,60,61025ae37ef11b136ea224fe,,,,,,,,,881,26,-75,1,0,0,response3disk,,4,2,-5,1,0,0,rectangle,2,-5,1,0,0,2,-5,1,0,0,1,2,162,159,1,,,,,,,,
,,,,,,,,,,,,,FF,,,,,,,,2.534,,,,,,,,,,,,,,,,,,,,,,610350fa3d929461b8ca9103,61036995e72b80b143b0e82b,2021-07-29_22h54.37.983,Simcolourproject_2stim_asymm_v5,2020.2.10,MacIntel,60,61025ae37ef11b136ea224fe,,,,,,,,,535,28,-72,1,0,0,response3disk,,4,2,-7,1,0,0,rectangle,2,-7,1,0,0,2,-7,1,0,0,1,3,163,12,1,,,,,,,,
,,,,,,,,,,,,,FF,,,,,,,,1.201,,,,,,,,,,,,,,,,,,,,,,610350fa3d929461b8ca9103,61036995e72b80b143b0e82b,2021-07-29_22h54.37.983,Simcolourproject_2stim_asymm_v5,2020.2.10,MacIntel,60,61025ae37ef11b136ea224fe,,,,,,,,,3860,-41,-75,1,0,0,response5disk,,3,8,-4,1,0,0,rectangle,8,-4,1,0,0,8,-4,1,0,0,1,4,164,130,1,,,,,,,,
,,,,,,,,,,,,,FF,,,,,,,,2.117,,,,,,,,,,,,,,,,,,,,,,610350fa3d929461b8ca9103,61036995e72b80b143b0e82b,2021-07-29_22h54.37.983,Simcolourproject_2stim_asymm_v5,2020.2.10,MacIntel,60,61025ae37ef11b136ea224fe,,,,,,,,,3255,-35,-75,1,0,0,response5disk,,3,4,-4,1,0,0,rectangle,4,-4,1,0,0,4,-4,1,0,0,1,5,165,62,1,,,,,,,,
,,,,,,,,,,,,,FF,,,,,,,,0.816,,,,,,,,,,,,,,,,,,,,,,610350fa3d929461b8ca9103,61036995e72b80b143b0e82b,2021-07-29_22h54.37.983,Simcolourproject_2stim_asymm_v5,2020.2.10,MacIntel,60,61025ae37ef11b136ea224fe,,,,,,,,,3468,-36,70,1,0,0,response7disk,,0,-11,9,1,0,0,rectangle,-11,9,1,0,0,-11,9,1,0,0,1,6,166,32,1,,,,,,,,
,,,,,,,,,,,,,FF,,,,,,,,0.766,,,,,,,,,,,,,,,,,,,,,,610350fa3d929461b8ca9103,61036995e72b80b143b0e82b,2021-07-29_22h54.37.983,Simcolourproject_2stim_asymm_v5,2020.2.10,MacIntel,60,61025ae37ef11b136ea224fe,,,,,,,,,2282,31,72,1,0,0,response1disk,,7,-11,9,1,0,0,rectangle,-11,9,1,0,0,-11,9,1,0,0,1,7,167,74,1,,,,,,,,
,,,,,,,,,,,,,FF,,,,,,,,1.268,,,,,,,,,,,,,,,,,,,,,,610350fa3d929461b8ca9103,61036995e72b80b143b0e82b,2021-07-29_22h54.37.983,Simcolourproject_2stim_asymm_v5,2020.2.10,MacIntel,60,61025ae37ef11b136ea224fe,,,,,,,,,203,28,-62,1,0,0,response3disk,,4,1,1,1,0,0,rectangle,1,1,1,0,0,1,1,1,0,0,1,8,168,83,1,,,,,,,,
,,,,,,,,,,,,,FF,,,,,,,,0.933,,,,,,,,,,,,,,,,,,,,,,610350fa3d929461b8ca9103,61036995e72b80b143b0e82b,2021-07-29_22h54.37.983,Simcolourproject_2stim_asymm_v5,2020.2.10,MacIntel,60,61025ae37ef11b136ea224fe,,,,,,,,,4104,-54,-26,1,0,0,response5disk,,2,3,-4,1,0,0,rectangle,21,-62,1,0,0,-3,-1,1,0,0,1,9,169,148,1,,response3disk_3,TRUE,4,4,"[125,194,242,287,7,111,305,202,146,199,97,27,299,23,179,203,47,99,170,221]",1.799,rectangle
,,,,,,,,,,,,,FF,,,,,,,,1.2,,,,,,,,,,,,,,,,,,,,,,610350fa3d929461b8ca9103,61036995e72b80b143b0e82b,2021-07-29_22h54.37.983,Simcolourproject_2stim_asymm_v5,2020.2.10,MacIntel,60,61025ae37ef11b136ea224fe,,,,,,,,,1100,49,-33,1,0,0,response3disk,,5,5,-3,1,0,0,rectangle,5,-3,1,0,0,5,-3,1,0,0,1,10,170,157,1,,,,,,,,
,,,,,,,,,,,,,FF,,,,,,,,1.451,,,,,,,,,,,,,,,,,,,,,,610350fa3d929461b8ca9103,61036995e72b80b143b0e82b,2021-07-29_22h54.37.983,Simcolourproject_2stim_asymm_v5,2020.2.10,MacIntel,60,61025ae37ef11b136ea224fe,,,,,,,,,692,43,32,1,0,0,response1disk,,6,6,3,1,0,0,rectangle,6,3,1,0,0,6,3,1,0,0,1,11,171,93,1,,,,,,,,
,,,,,,,,,,,,,FF,,,,,,,,1.399,,,,,,,,,,,,,,,,,,,,,,610350fa3d929461b8ca9103,61036995e72b80b143b0e82b,2021-07-29_22h54.37.983,Simcolourproject_2stim_asymm_v5,2020.2.10,MacIntel,60,61025ae37ef11b136ea224fe,,,,,,,,,4150,-21,-56,1,0,0,response5disk,,3,-1,-4,1,0,0,rectangle,-1,-4,1,0,0,-1,-4,1,0,0,1,12,172,23,1,,,,,,,,
,,,,,,,,,,,,,FF,,,,,,,,2.367,,,,,,,,,,,,,,,,,,,,,,610350fa3d929461b8ca9103,61036995e72b80b143b0e82b,2021-07-29_22h54.37.983,Simcolourproject_2stim_asymm_v5,2020.2.10,MacIntel,60,61025ae37ef11b136ea224fe,,,,,,,,,1884,22,-53,1,0,0,response3disk,,4,1,-8,1,0,0,rectangle,1,-8,1,0,0,1,-8,1,0,0,1,13,173,150,1,,,,,,,,
,,,,,,,,,,,,,FF,,,,,,,,4.6,,,,,,,,,,,,,,,,,,,,,,610350fa3d929461b8ca9103,61036995e72b80b143b0e82b,2021-07-29_22h54.37.983,Simcolourproject_2stim_asymm_v5,2020.2.10,MacIntel,60,61025ae37ef11b136ea224fe,,,,,,,,,843,27,-67,1,0,0,response3disk,,4,5,3,1,0,0,rectangle,5,3,1,0,0,5,3,1,0,0,1,14,174,82,1,,,,,,,,
,,,,,,,,,,,,,FF,,,,,,,,1.182,,,,,,,,,,,,,,,,,,,,,,610350fa3d929461b8ca9103,61036995e72b80b143b0e82b,2021-07-29_22h54.37.983,Simcolourproject_2stim_asymm_v5,2020.2.10,MacIntel,60,61025ae37ef11b136ea224fe,,,,,,,,,3778,-81,47,1,0,0,response7disk,,1,0,6,1,0,0,rectangle,0,6,1,0,0,0,6,1,0,0,1,15,175,16,1,,,,,,,,
,,,,,,,,,,,,,FF,,,,,,,,1.533,,,,,,,,,,,,,,,,,,,,,,610350fa3d929461b8ca9103,61036995e72b80b143b0e82b,2021-07-29_22h54.37.983,Simcolourproject_2stim_asymm_v5,2020.2.10,MacIntel,60,61025ae37ef11b136ea224fe,,,,,,,,,2611,28,-62,1,0,0,response3disk,,4,2,-4,1,0,0,rectangle,2,-4,1,0,0,2,-4,1,0,0,1,16,176,11,1,,,,,,,,
,,,,,,,,,,,,,FF,,,,,,,,0.966,,,,,,,,,,,,,,,,,,,,,,610350fa3d929461b8ca9103,61036995e72b80b143b0e82b,2021-07-29_22h54.37.983,Simcolourproject_2stim_asymm_v5,2020.2.10,MacIntel,60,61025ae37ef11b136ea224fe,,,,,,,,,280,35,-63,1,0,0,response3disk,,4,6,-9,1,0,0,rectangle,6,-9,1,0,0,6,-9,1,0,0,1,17,177,19,1,,,,,,,,
,,,,,,,,,,,,,FF,,,,,,,,2.284,,,,,,,,,,,,,,,,,,,,,,610350fa3d929461b8ca9103,61036995e72b80b143b0e82b,2021-07-29_22h54.37.983,Simcolourproject_2stim_asymm_v5,2020.2.10,MacIntel,60,61025ae37ef11b136ea224fe,,,,,,,,,3036,-65,-23,1,0,0,response5disk,,2,-4,-4,1,0,0,rectangle,29,74,1,0,0,-3,-7,1,0,0,1,18,178,58,1,,response1disk_3,TRUE,7,7,"[125,194,242,287,7,111,305,202,146,199,97,27,299,23,179,203,47,99,170,221]",1.684,rectangle
,,,,,,,,,,,,,FF,,,,,,,,1.449,,,,,,,,,,,,,,,,,,,,,,610350fa3d929461b8ca9103,61036995e72b80b143b0e82b,2021-07-29_22h54.37.983,Simcolourproject_2stim_asymm_v5,2020.2.10,MacIntel,60,61025ae37ef11b136ea224fe,,,,,,,,,4291,39,33,1,0,0,response1disk,,6,0,4,1,0,0,rectangle,0,4,1,0,0,0,4,1,0,0,1,19,179,84,1,,,,,,,,
,,,,,,,,,,,,,FF,,,,,,,,2.001,,,,,,,,,,,,,,,,,,,,,,610350fa3d929461b8ca9103,61036995e72b80b143b0e82b,2021-07-29_22h54.37.983,Simcolourproject_2stim_asymm_v5,2020.2.10,MacIntel,60,61025ae37ef11b136ea224fe,,,,,,,,,1461,-68,36,1,0,0,response7disk,,1,-9,8,1,0,0,rectangle,-9,8,1,0,0,-9,8,1,0,0,1,20,180,89,1,,,,,,,,
,,,,,,,,,,,,,FF,,,,,,,,1.566,,,,,,,,,,,,,,,,,,,,,,610350fa3d929461b8ca9103,61036995e72b80b143b0e82b,2021-07-29_22h54.37.983,Simcolourproject_2stim_asymm_v5,2020.2.10,MacIntel,60,61025ae37ef11b136ea224fe,,,,,,,,,2695,26,-67,1,0,0,response3disk,,4,0,-5,1,0,0,rectangle,0,-5,1,0,0,0,-5,1,0,0,1,21,181,9,1,,,,,,,,
,,,,,,,,,,,,,FF,,,,,,,,1.166,,,,,,,,,,,,,,,,,,,,,,610350fa3d929461b8ca9103,61036995e72b80b143b0e82b,2021-07-29_22h54.37.983,Simcolourproject_2stim_asymm_v5,2020.2.10,MacIntel,60,61025ae37ef11b136ea224fe,,,,,,,,,3992,-26,-62,1,0,0,response5disk,,3,0,1,1,0,0,rectangle,0,1,1,0,0,0,1,1,0,0,1,22,182,85,1,,,,,,,,
,,,,,,,,,,,,,FF,,,,,,,,1.545,,,,,,,,,,,,,,,,,,,,,,610350fa3d929461b8ca9103,61036995e72b80b143b0e82b,2021-07-29_22h54.37.983,Simcolourproject_2stim_asymm_v5,2020.2.10,MacIntel,60,61025ae37ef11b136ea224fe,,,,,,,,,1446,-62,-23,1,0,0,response5disk,,2,-4,-1,1,0,0,rectangle,-4,-1,1,0,0,-4,-1,1,0,0,1,23,183,41,1,,,,,,,,
,,,,,,,,,,,,,FF,,,,,,,,1.284,,,,,,,,,,,,,,,,,,,,,,610350fa3d929461b8ca9103,61036995e72b80b143b0e82b,2021-07-29_22h54.37.983,Simcolourproject_2stim_asymm_v5,2020.2.10,MacIntel,60,61025ae37ef11b136ea224fe,,,,,,,,,2819,51,-30,1,0,0,response3disk,,5,0,2,1,0,0,rectangle,0,2,1,0,0,0,2,1,0,0,1,24,184,151,1,,,,,,,,
,,,,,,,,,,,,,FF,,,,,,,,1.682,,,,,,,,,,,,,,,,,,,,,,610350fa3d929461b8ca9103,61036995e72b80b143b0e82b,2021-07-29_22h54.37.983,Simcolourproject_2stim_asymm_v5,2020.2.10,MacIntel,60,61025ae37ef11b136ea224fe,,,,,,,,,1672,-65,-31,1,0,0,response5disk,,2,-3,-2,1,0,0,rectangle,-3,-2,1,0,0,-3,-2,1,0,0,1,25,185,109,1,,,,,,,,
,,,,,,,,,,,,,FF,,,,,,,,1.666,,,,,,,,,,,,,,,,,,,,,,610350fa3d929461b8ca9103,61036995e72b80b143b0e82b,2021-07-29_22h54.37.983,Simcolourproject_2stim_asymm_v5,2020.2.10,MacIntel,60,61025ae37ef11b136ea224fe,,,,,,,,,2225,-29,-64,1,0,0,response5disk,,3,0,0,1,0,0,rectangle,0,0,1,0,0,0,0,1,0,0,1,26,186,51,1,,,,,,,,
,,,,,,,,,,,,,FF,,,,,,,,3.917,,,,,,,,,,,,,,,,,,,,,,610350fa3d929461b8ca9103,61036995e72b80b143b0e82b,2021-07-29_22h54.37.983,Simcolourproject_2stim_asymm_v5,2020.2.10,MacIntel,60,61025ae37ef11b136ea224fe,,,,,,,,,2714,35,-67,1,0,0,response3disk,,4,2,-5,1,0,0,rectangle,2,-5,1,0,0,2,-5,1,0,0,1,27,187,56,1,,,,,,,,
,,,,,,,,,,,,,FF,,,,,,,,1.432,,,,,,,,,,,,,,,,,,,,,,610350fa3d929461b8ca9103,61036995e72b80b143b0e82b,2021-07-29_22h54.37.983,Simcolourproject_2stim_asymm_v5,2020.2.10,MacIntel,60,61025ae37ef11b136ea224fe,,,,,,,,,1742,56,25,1,0,0,response1disk,,6,8,0,1,0,0,rectangle,8,0,1,0,0,8,0,1,0,0,1,28,188,135,1,,,,,,,,
,,,,,,,,,,,,,FF,,,,,,,,1.916,,,,,,,,,,,,,,,,,,,,,,610350fa3d929461b8ca9103,61036995e72b80b143b0e82b,2021-07-29_22h54.37.983,Simcolourproject_2stim_asymm_v5,2020.2.10,MacIntel,60,61025ae37ef11b136ea224fe,,,,,,,,,2555,-25,-59,1,0,0,response5disk,,3,6,-5,1,0,0,rectangle,6,-5,1,0,0,6,-5,1,0,0,1,29,189,10,1,,,,,,,,
,,,,,,,,,,,,,FF,,,,,,,,1.084,,,,,,,,,,,,,,,,,,,,,,610350fa3d929461b8ca9103,61036995e72b80b143b0e82b,2021-07-29_22h54.37.983,Simcolourproject_2stim_asymm_v5,2020.2.10,MacIntel,60,61025ae37ef11b136ea224fe,,,,,,,,,3994,-55,-21,1,0,0,response5disk,,2,6,1,1,0,0,rectangle,6,1,1,0,0,6,1,1,0,0,1,30,190,57,1,,,,,,,,
,,,,,,,,,,,,,FF,,,,,,,,0.917,,,,,,,,,,,,,,,,,,,,,,610350fa3d929461b8ca9103,61036995e72b80b143b0e82b,2021-07-29_22h54.37.983,Simcolourproject_2stim_asymm_v5,2020.2.10,MacIntel,60,61025ae37ef11b136ea224fe,,,,,,,,,3826,-33,-49,1,0,0,response5disk,,3,0,-2,1,0,0,rectangle,0,-2,1,0,0,0,-2,1,0,0,1,31,191,49,1,,,,,,,,
,,,,,,,,,,,,,FF,,,,,,,,0.8,,,,,,,,,,,,,,,,,,,,,,610350fa3d929461b8ca9103,61036995e72b80b143b0e82b,2021-07-29_22h54.37.983,Simcolourproject_2stim_asymm_v5,2020.2.10,MacIntel,60,61025ae37ef11b136ea224fe,,,,,,,,,3051,-26,-52,1,0,0,response5disk,,3,3,10,1,0,0,rectangle,3,10,1,0,0,3,10,1,0,0,1,32,192,38,1,,,,,,,,
,,,,,,,,,,,,,FF,,,,,,,,0.917,,,,,,,,,,,,,,,,,,,,,,610350fa3d929461b8ca9103,61036995e72b80b143b0e82b,2021-07-29_22h54.37.983,Simcolourproject_2stim_asymm_v5,2020.2.10,MacIntel,60,61025ae37ef11b136ea224fe,,,,,,,,,3004,21,-58,1,0,0,response3disk,,4,4,-1,1,0,0,rectangle,49,32,1,0,0,6,5,1,0,0,1,33,193,121,1,,response1disk_3,TRUE,6,6,"[125,194,242,287,7,111,305,202,146,199,97,27,299,23,179,203,47,99,170,221]",1.45,rectangle
,,,,,,,,,,,,,FF,,,,,,,,2.868,,,,,,,,,,,,,,,,,,,,,,610350fa3d929461b8ca9103,61036995e72b80b143b0e82b,2021-07-29_22h54.37.983,Simcolourproject_2stim_asymm_v5,2020.2.10,MacIntel,60,61025ae37ef11b136ea224fe,,,,,,,,,2624,92,36,1,0,0,response1disk,,6,5,-3,1,0,0,rectangle,5,-3,1,0,0,5,-3,1,0,0,1,34,194,156,1,,,,,,,,
,,,,,,,,,,,,,FF,,,,,,,,0.999,,,,,,,,,,,,,,,,,,,,,,610350fa3d929461b8ca9103,61036995e72b80b143b0e82b,2021-07-29_22h54.37.983,Simcolourproject_2stim_asymm_v5,2020.2.10,MacIntel,60,61025ae37ef11b136ea224fe,,,,,,,,,3833,26,-65,1,0,0,response3disk,,4,-2,-1,1,0,0,rectangle,-2,-1,1,0,0,-2,-1,1,0,0,1,35,195,152,1,,,,,,,,
,,,,,,,,,,,,,FF,,,,,,,,1.267,,,,,,,,,,,,,,,,,,,,,,610350fa3d929461b8ca9103,61036995e72b80b143b0e82b,2021-07-29_22h54.37.983,Simcolourproject_2stim_asymm_v5,2020.2.10,MacIntel,60,61025ae37ef11b136ea224fe,,,,,,,,,3079,76,-35,1,0,0,response3disk,,5,-3,2,1,0,0,rectangle,-3,2,1,0,0,-3,2,1,0,0,1,36,196,71,1,,,,,,,,
,,,,,,,,,,,,,FF,,,,,,,,1.133,,,,,,,,,,,,,,,,,,,,,,610350fa3d929461b8ca9103,61036995e72b80b143b0e82b,2021-07-29_22h54.37.983,Simcolourproject_2stim_asymm_v5,2020.2.10,MacIntel,60,61025ae37ef11b136ea224fe,,,,,,,,,4136,64,40,1,0,0,response1disk,,6,10,6,1,0,0,rectangle,10,6,1,0,0,10,6,1,0,0,1,37,197,20,1,,,,,,,,
,,,,,,,,,,,,,FF,,,,,,,,1.45,,,,,,,,,,,,,,,,,,,,,,610350fa3d929461b8ca9103,61036995e72b80b143b0e82b,2021-07-29_22h54.37.983,Simcolourproject_2stim_asymm_v5,2020.2.10,MacIntel,60,61025ae37ef11b136ea224fe,,,,,,,,,3023,34,69,1,0,0,response1disk,,7,4,6,1,0,0,rectangle,37,-77,1,0,0,5,3,1,0,0,1,38,198,96,1,,response3disk_3,TRUE,4,4,"[125,194,242,287,7,111,305,202,146,199,97,27,299,23,179,203,47,99,170,221]",2.448,rectangle
,,,,,,,,,,,,,FF,,,,,,,,2.849,,,,,,,,,,,,,,,,,,,,,,610350fa3d929461b8ca9103,61036995e72b80b143b0e82b,2021-07-29_22h54.37.983,Simcolourproject_2stim_asymm_v5,2020.2.10,MacIntel,60,61025ae37ef11b136ea224fe,,,,,,,,,2223,62,-35,1,0,0,response3disk,,5,1,0,1,0,0,rectangle,1,0,1,0,0,1,0,1,0,0,1,39,199,107,1,,,,,,,,
,,,,,,,,,,,,,FF,,,,,,,,1.149,,,,,,,,,,,,,,,,,,,,,,610350fa3d929461b8ca9103,61036995e72b80b143b0e82b,2021-07-29_22h54.37.983,Simcolourproject_2stim_asymm_v5,2020.2.10,MacIntel,60,61025ae37ef11b136ea224fe,,,,,,,,,3476,-70,-28,1,0,0,response5disk,,2,-5,-7,1,0,0,rectangle,-5,-7,1,0,0,-5,-7,1,0,0,1,40,200,147,1,,,,,,,,
,,,,,,,,,,,,,FF,,,,,,,,1.349,,,,,,,,,,,,,,,,,,,,,,610350fa3d929461b8ca9103,61036995e72b80b143b0e82b,2021-07-29_22h54.37.983,Simcolourproject_2stim_asymm_v5,2020.2.10,MacIntel,60,61025ae37ef11b136ea224fe,,,,,,,,,2319,29,-68,1,0,0,response3disk,,4,3,-2,1,0,0,rectangle,-40,70,1,0,0,-4,7,1,0,0,1,41,201,94,1,,response7disk_3,TRUE,0,0,"[125,194,242,287,7,111,305,202,146,199,97,27,299,23,179,203,47,99,170,221]",1.433,rectangle
,,,,,,,,,,,,,FF,,,,,,,,1.433,,,,,,,,,,,,,,,,,,,,,,610350fa3d929461b8ca9103,61036995e72b80b143b0e82b,2021-07-29_22h54.37.983,Simcolourproject_2stim_asymm_v5,2020.2.10,MacIntel,60,61025ae37ef11b136ea224fe,,,,,,,,,3634,40,-73,1,0,0,response3disk,,4,4,-11,1,0,0,rectangle,64,31,1,0,0,14,8,1,0,0,1,42,202,7,1,,response1disk_3,TRUE,6,6,"[125,194,242,287,7,111,305,202,146,199,97,27,299,23,179,203,47,99,170,221]",1.433,rectangle
,,,,,,,,,,,,,FF,,,,,,,,1.25,,,,,,,,,,,,,,,,,,,,,,610350fa3d929461b8ca9103,61036995e72b80b143b0e82b,2021-07-29_22h54.37.983,Simcolourproject_2stim_asymm_v5,2020.2.10,MacIntel,60,61025ae37ef11b136ea224fe,,,,,,,,,3685,-42,-68,1,0,0,response5disk,,3,0,-1,1,0,0,rectangle,0,-1,1,0,0,0,-1,1,0,0,1,43,203,125,1,,,,,,,,
,,,,,,,,,,,,,FF,,,,,,,,3.467,,,,,,,,,,,,,,,,,,,,,,610350fa3d929461b8ca9103,61036995e72b80b143b0e82b,2021-07-29_22h54.37.983,Simcolourproject_2stim_asymm_v5,2020.2.10,MacIntel,60,61025ae37ef11b136ea224fe,,,,,,,,,341,-41,-68,1,0,0,response5disk,,3,-4,-5,1,0,0,rectangle,-4,-5,1,0,0,-4,-5,1,0,0,1,44,204,149,1,,,,,,,,
,,,,,,,,,,,,,FF,,,,,,,,1,,,,,,,,,,,,,,,,,,,,,,610350fa3d929461b8ca9103,61036995e72b80b143b0e82b,2021-07-29_22h54.37.983,Simcolourproject_2stim_asymm_v5,2020.2.10,MacIntel,60,61025ae37ef11b136ea224fe,,,,,,,,,1805,48,-25,1,0,0,response3disk,,5,3,1,1,0,0,rectangle,3,1,1,0,0,3,1,1,0,0,1,45,205,13,1,,,,,,,,
,,,,,,,,,,,,,FF,,,,,,,,1.799,,,,,,,,,,,,,,,,,,,,,,610350fa3d929461b8ca9103,61036995e72b80b143b0e82b,2021-07-29_22h54.37.983,Simcolourproject_2stim_asymm_v5,2020.2.10,MacIntel,60,61025ae37ef11b136ea224fe,,,,,,,,,131,62,-31,1,0,0,response3disk,,5,-2,3,1,0,0,rectangle,-2,3,1,0,0,-2,3,1,0,0,1,46,206,158,1,,,,,,,,
,,,,,,,,,,,,,FF,,,,,,,,1.05,,,,,,,,,,,,,,,,,,,,,,610350fa3d929461b8ca9103,61036995e72b80b143b0e82b,2021-07-29_22h54.37.983,Simcolourproject_2stim_asymm_v5,2020.2.10,MacIntel,60,61025ae37ef11b136ea224fe,,,,,,,,,3029,32,63,1,0,0,response1disk,,7,5,-3,1,0,0,rectangle,5,-3,1,0,0,5,-3,1,0,0,1,47,207,115,1,,,,,,,,
,,,,,,,,,,,,,FF,,,,,,,,2.384,,,,,,,,,,,,,,,,,,,,,,610350fa3d929461b8ca9103,61036995e72b80b143b0e82b,2021-07-29_22h54.37.983,Simcolourproject_2stim_asymm_v5,2020.2.10,MacIntel,60,61025ae37ef11b136ea224fe,,,,,,,,,2066,72,-27,1,0,0,response3disk,,5,5,-2,1,0,0,rectangle,5,-2,1,0,0,5,-2,1,0,0,1,48,208,52,1,,,,,,,,
,,,,,,,,,,,,,FF,,,,,,,,1.834,,,,,,,,,,,,,,,,,,,,,,610350fa3d929461b8ca9103,61036995e72b80b143b0e82b,2021-07-29_22h54.37.983,Simcolourproject_2stim_asymm_v5,2020.2.10,MacIntel,60,61025ae37ef11b136ea224fe,,,,,,,,,519,29,-64,1,0,0,response3disk,,4,-5,8,1,0,0,rectangle,-5,8,1,0,0,-5,8,1,0,0,1,49,209,81,1,,,,,,,,
,,,,,,,,,,,,,FF,,,,,,,,2.151,,,,,,,,,,,,,,,,,,,,,,610350fa3d929461b8ca9103,61036995e72b80b143b0e82b,2021-07-29_22h54.37.983,Simcolourproject_2stim_asymm_v5,2020.2.10,MacIntel,60,61025ae37ef11b136ea224fe,,,,,,,,,670,31,-73,1,0,0,response3disk,,4,4,2,1,0,0,rectangle,4,2,1,0,0,4,2,1,0,0,1,50,210,29,1,,,,,,,,
,,,,,,,,,,,,,FF,,,,,,,,2.849,,,,,,,,,,,,,,,,,,,,,,610350fa3d929461b8ca9103,61036995e72b80b143b0e82b,2021-07-29_22h54.37.983,Simcolourproject_2stim_asymm_v5,2020.2.10,MacIntel,60,61025ae37ef11b136ea224fe,,,,,,,,,1881,-35,-73,1,0,0,response5disk,,3,-9,-5,1,0,0,rectangle,-9,-5,1,0,0,-9,-5,1,0,0,1,51,211,116,1,,,,,,,,
,,,,,,,,,,,,,FF,,,,,,,,1.732,,,,,,,,,,,,,,,,,,,,,,610350fa3d929461b8ca9103,61036995e72b80b143b0e82b,2021-07-29_22h54.37.983,Simcolourproject_2stim_asymm_v5,2020.2.10,MacIntel,60,61025ae37ef11b136ea224fe,,,,,,,,,1509,37,-72,1,0,0,response3disk,,4,5,3,1,0,0,rectangle,5,3,1,0,0,5,3,1,0,0,1,52,212,60,1,,,,,,,,
,,,,,,,,,,,,,FF,,,,,,,,2.216,,,,,,,,,,,,,,,,,,,,,,610350fa3d929461b8ca9103,61036995e72b80b143b0e82b,2021-07-29_22h54.37.983,Simcolourproject_2stim_asymm_v5,2020.2.10,MacIntel,60,61025ae37ef11b136ea224fe,,,,,,,,,2908,-34,-72,1,0,0,response5disk,,3,-1,0,1,0,0,rectangle,-1,0,1,0,0,-1,0,1,0,0,1,53,213,24,1,,,,,,,,
,,,,,,,,,,,,,FF,,,,,,,,1.166,,,,,,,,,,,,,,,,,,,,,,610350fa3d929461b8ca9103,61036995e72b80b143b0e82b,2021-07-29_22h54.37.983,Simcolourproject_2stim_asymm_v5,2020.2.10,MacIntel,60,61025ae37ef11b136ea224fe,,,,,,,,,3536,60,-27,1,0,0,response3disk,,5,-2,7,1,0,0,rectangle,-2,7,1,0,0,-2,7,1,0,0,1,54,214,126,1,,,,,,,,
,,,,,,,,,,,,,FF,,,,,,,,1.567,,,,,,,,,,,,,,,,,,,,,,610350fa3d929461b8ca9103,61036995e72b80b143b0e82b,2021-07-29_22h54.37.983,Simcolourproject_2stim_asymm_v5,2020.2.10,MacIntel,60,61025ae37ef11b136ea224fe,,,,,,,,,3539,42,-67,1,0,0,response3disk,,4,-11,5,1,0,0,rectangle,-11,5,1,0,0,-11,5,1,0,0,1,55,215,139,1,,,,,,,,
,,,,,,,,,,,,,FF,,,,,,,,1.348,,,,,,,,,,,,,,,,,,,,,,610350fa3d929461b8ca9103,61036995e72b80b143b0e82b,2021-07-29_22h54.37.983,Simcolourproject_2stim_asymm_v5,2020.2.10,MacIntel,60,61025ae37ef11b136ea224fe,,,,,,,,,2233,-63,41,1,0,0,response7disk,,1,-5,7,1,0,0,rectangle,-5,7,1,0,0,-5,7,1,0,0,1,56,216,110,1,,,,,,,,
,,,,,,,,,,,,,FF,,,,,,,,4.833,,,,,,,,,,,,,,,,,,,,,,610350fa3d929461b8ca9103,61036995e72b80b143b0e82b,2021-07-29_22h54.37.983,Simcolourproject_2stim_asymm_v5,2020.2.10,MacIntel,60,61025ae37ef11b136ea224fe,,,,,,,,,1836,71,-30,1,0,0,response3disk,,5,8,5,1,0,0,rectangle,8,5,1,0,0,8,5,1,0,0,1,57,217,118,1,,,,,,,,
,,,,,,,,,,,,,FF,,,,,,,,3.433,,,,,,,,,,,,,,,,,,,,,,610350fa3d929461b8ca9103,61036995e72b80b143b0e82b,2021-07-29_22h54.37.983,Simcolourproject_2stim_asymm_v5,2020.2.10,MacIntel,60,61025ae37ef11b136ea224fe,,,,,,,,,1870,30,-70,1,0,0,response3disk,,4,-3,-2,1,0,0,rectangle,-3,-2,1,0,0,-3,-2,1,0,0,1,58,218,124,1,,,,,,,,
,,,,,,,,,,,,,FF,,,,,,,,1.783,,,,,,,,,,,,,,,,,,,,,,610350fa3d929461b8ca9103,61036995e72b80b143b0e82b,2021-07-29_22h54.37.983,Simcolourproject_2stim_asymm_v5,2020.2.10,MacIntel,60,61025ae37ef11b136ea224fe,,,,,,,,,2472,-44,-60,1,0,0,response5disk,,3,-9,-4,1,0,0,rectangle,-9,-4,1,0,0,-9,-4,1,0,0,1,59,219,155,1,,,,,,,,
,,,,,,,,,,,,,FF,,,,,,,,1.349,,,,,,,,,,,,,,,,,,,,,,610350fa3d929461b8ca9103,61036995e72b80b143b0e82b,2021-07-29_22h54.37.983,Simcolourproject_2stim_asymm_v5,2020.2.10,MacIntel,60,61025ae37ef11b136ea224fe,,,,,,,,,3796,-34,-71,1,0,0,response5disk,,3,1,4,1,0,0,rectangle,68,-33,1,0,0,7,-2,1,0,0,1,60,220,145,1,,response3disk_3,TRUE,5,5,"[125,194,242,287,7,111,305,202,146,199,97,27,299,23,179,203,47,99,170,221]",2.7,rectangle
,,,,,,,,,,,,,FF,,,,,,,,1.451,,,,,,,,,,,,,,,,,,,,,,610350fa3d929461b8ca9103,61036995e72b80b143b0e82b,2021-07-29_22h54.37.983,Simcolourproject_2stim_asymm_v5,2020.2.10,MacIntel,60,61025ae37ef11b136ea224fe,,,,,,,,,560,21,-47,1,0,0,response3disk,,4,-1,-5,1,0,0,rectangle,-1,-5,1,0,0,-1,-5,1,0,0,1,61,221,117,1,,,,,,,,
,,,,,,,,,,,,,FF,,,,,,,,1.034,,,,,,,,,,,,,,,,,,,,,,610350fa3d929461b8ca9103,61036995e72b80b143b0e82b,2021-07-29_22h54.37.983,Simcolourproject_2stim_asymm_v5,2020.2.10,MacIntel,60,61025ae37ef11b136ea224fe,,,,,,,,,2280,61,38,1,0,0,response1disk,,6,2,6,1,0,0,rectangle,2,6,1,0,0,2,6,1,0,0,1,62,222,63,1,,,,,,,,
,,,,,,,,,,,,,FF,,,,,,,,1,,,,,,,,,,,,,,,,,,,,,,610350fa3d929461b8ca9103,61036995e72b80b143b0e82b,2021-07-29_22h54.37.983,Simcolourproject_2stim_asymm_v5,2020.2.10,MacIntel,60,61025ae37ef11b136ea224fe,,,,,,,,,1974,-23,-56,1,0,0,response5disk,,3,0,0,1,0,0,rectangle,0,0,1,0,0,0,0,1,0,0,1,63,223,80,1,,,,,,,,
,,,,,,,,,,,,,FF,,,,,,,,1.6,,,,,,,,,,,,,,,,,,,,,,610350fa3d929461b8ca9103,61036995e72b80b143b0e82b,2021-07-29_22h54.37.983,Simcolourproject_2stim_asymm_v5,2020.2.10,MacIntel,60,61025ae37ef11b136ea224fe,,,,,,,,,4090,26,-53,1,0,0,response3disk,,4,0,-2,1,0,0,rectangle,0,-2,1,0,0,0,-2,1,0,0,1,64,224,146,1,,,,,,,,
,,,,,,,,,,,,,FF,,,,,,,,1.383,,,,,,,,,,,,,,,,,,,,,,610350fa3d929461b8ca9103,61036995e72b80b143b0e82b,2021-07-29_22h54.37.983,Simcolourproject_2stim_asymm_v5,2020.2.10,MacIntel,60,61025ae37ef11b136ea224fe,,,,,,,,,2011,26,-57,1,0,0,response3disk,,4,-3,-1,1,0,0,rectangle,-3,-1,1,0,0,-3,-1,1,0,0,1,65,225,90,1,,,,,,,,
,,,,,,,,,,,,,FF,,,,,,,,1.017,,,,,,,,,,,,,,,,,,,,,,610350fa3d929461b8ca9103,61036995e72b80b143b0e82b,2021-07-29_22h54.37.983,Simcolourproject_2stim_asymm_v5,2020.2.10,MacIntel,60,61025ae37ef11b136ea224fe,,,,,,,,,1991,76,-32,1,0,0,response3disk,,5,-2,10,1,0,0,rectangle,-2,10,1,0,0,-2,10,1,0,0,1,66,226,113,1,,,,,,,,
,,,,,,,,,,,,,FF,,,,,,,,1.468,,,,,,,,,,,,,,,,,,,,,,610350fa3d929461b8ca9103,61036995e72b80b143b0e82b,2021-07-29_22h54.37.983,Simcolourproject_2stim_asymm_v5,2020.2.10,MacIntel,60,61025ae37ef11b136ea224fe,,,,,,,,,2683,-68,-28,1,0,0,response5disk,,2,-16,-1,1,0,0,rectangle,-16,-1,1,0,0,-16,-1,1,0,0,1,67,227,30,1,,,,,,,,
,,,,,,,,,,,,,FF,,,,,,,,1.083,,,,,,,,,,,,,,,,,,,,,,610350fa3d929461b8ca9103,61036995e72b80b143b0e82b,2021-07-29_22h54.37.983,Simcolourproject_2stim_asymm_v5,2020.2.10,MacIntel,60,61025ae37ef11b136ea224fe,,,,,,,,,327,65,-29,1,0,0,response3disk,,5,1,1,1,0,0,rectangle,1,1,1,0,0,1,1,1,0,0,1,68,228,3,1,,,,,,,,
,,,,,,,,,,,,,FF,,,,,,,,1.416,,,,,,,,,,,,,,,,,,,,,,610350fa3d929461b8ca9103,61036995e72b80b143b0e82b,2021-07-29_22h54.37.983,Simcolourproject_2stim_asymm_v5,2020.2.10,MacIntel,60,61025ae37ef11b136ea224fe,,,,,,,,,329,67,-37,1,0,0,response3disk,,5,5,9,1,0,0,rectangle,5,9,1,0,0,5,9,1,0,0,1,69,229,45,1,,,,,,,,
,,,,,,,,,,,,,FF,,,,,,,,1.632,,,,,,,,,,,,,,,,,,,,,,610350fa3d929461b8ca9103,61036995e72b80b143b0e82b,2021-07-29_22h54.37.983,Simcolourproject_2stim_asymm_v5,2020.2.10,MacIntel,60,61025ae37ef11b136ea224fe,,,,,,,,,3919,27,-87,1,0,0,response3disk,,4,-1,0,1,0,0,rectangle,-1,0,1,0,0,-1,0,1,0,0,1,70,230,0,1,,,,,,,,
,,,,,,,,,,,,,FF,,,,,,,,1.066,,,,,,,,,,,,,,,,,,,,,,610350fa3d929461b8ca9103,61036995e72b80b143b0e82b,2021-07-29_22h54.37.983,Simcolourproject_2stim_asymm_v5,2020.2.10,MacIntel,60,61025ae37ef11b136ea224fe,,,,,,,,,212,-29,-55,1,0,0,response5disk,,3,-3,2,1,0,0,rectangle,-3,2,1,0,0,-3,2,1,0,0,1,71,231,86,1,,,,,,,,
,,,,,,,,,,,,,FF,,,,,,,,1.949,,,,,,,,,,,,,,,,,,,,,,610350fa3d929461b8ca9103,61036995e72b80b143b0e82b,2021-07-29_22h54.37.983,Simcolourproject_2stim_asymm_v5,2020.2.10,MacIntel,60,61025ae37ef11b136ea224fe,,,,,,,,,107,-32,-79,1,0,0,response5disk,,3,-1,-3,1,0,0,rectangle,-1,-3,1,0,0,-1,-3,1,0,0,1,72,232,61,1,,,,,,,,
,,,,,,,,,,,,,FF,,,,,,,,1.7,,,,,,,,,,,,,,,,,,,,,,610350fa3d929461b8ca9103,61036995e72b80b143b0e82b,2021-07-29_22h54.37.983,Simcolourproject_2stim_asymm_v5,2020.2.10,MacIntel,60,61025ae37ef11b136ea224fe,,,,,,,,,1488,57,-29,1,0,0,response3disk,,5,2,8,1,0,0,rectangle,2,8,1,0,0,2,8,1,0,0,1,73,233,92,1,,,,,,,,
,,,,,,,,,,,,,FF,,,,,,,,1.033,,,,,,,,,,,,,,,,,,,,,,610350fa3d929461b8ca9103,61036995e72b80b143b0e82b,2021-07-29_22h54.37.983,Simcolourproject_2stim_asymm_v5,2020.2.10,MacIntel,60,61025ae37ef11b136ea224fe,,,,,,,,,3429,-58,-33,1,0,0,response5disk,,2,6,3,1,0,0,rectangle,6,3,1,0,0,6,3,1,0,0,1,74,234,69,1,,,,,,,,
,,,,,,,,,,,,,FF,,,,,,,,0.901,,,,,,,,,,,,,,,,,,,,,,610350fa3d929461b8ca9103,61036995e72b80b143b0e82b,2021-07-29_22h54.37.983,Simcolourproject_2stim_asymm_v5,2020.2.10,MacIntel,60,61025ae37ef11b136ea224fe,,,,,,,,,2587,57,-28,1,0,0,response3disk,,5,-2,15,1,0,0,rectangle,-2,15,1,0,0,-2,15,1,0,0,1,75,235,70,1,,,,,,,,
,,,,,,,,,,,,,FF,,,,,,,,1.25,,,,,,,,,,,,,,,,,,,,,,610350fa3d929461b8ca9103,61036995e72b80b143b0e82b,2021-07-29_22h54.37.983,Simcolourproject_2stim_asymm_v5,2020.2.10,MacIntel,60,61025ae37ef11b136ea224fe,,,,,,,,,4130,26,-69,1,0,0,response3disk,,4,-3,-4,1,0,0,rectangle,-3,-4,1,0,0,-3,-4,1,0,0,1,76,236,31,1,,,,,,,,
,,,,,,,,,,,,,FF,,,,,,,,1.399,,,,,,,,,,,,,,,,,,,,,,610350fa3d929461b8ca9103,61036995e72b80b143b0e82b,2021-07-29_22h54.37.983,Simcolourproject_2stim_asymm_v5,2020.2.10,MacIntel,60,61025ae37ef11b136ea224fe,,,,,,,,,2135,65,28,1,0,0,response1disk,,6,6,-4,1,0,0,rectangle,6,-4,1,0,0,6,-4,1,0,0,1,77,237,50,1,,,,,,,,
,,,,,,,,,,,,,FF,,,,,,,,0.749,,,,,,,,,,,,,,,,,,,,,,610350fa3d929461b8ca9103,61036995e72b80b143b0e82b,2021-07-29_22h54.37.983,Simcolourproject_2stim_asymm_v5,2020.2.10,MacIntel,60,61025ae37ef11b136ea224fe,,,,,,,,,1723,35,67,1,0,0,response1disk,,7,-10,-3,1,0,0,rectangle,-10,-3,1,0,0,-10,-3,1,0,0,1,78,238,137,1,,,,,,,,
,,,,,,,,,,,,,FF,,,,,,,,1.5,,,,,,,,,,,,,,,,,,,,,,610350fa3d929461b8ca9103,61036995e72b80b143b0e82b,2021-07-29_22h54.37.983,Simcolourproject_2stim_asymm_v5,2020.2.10,MacIntel,60,61025ae37ef11b136ea224fe,,,,,,,,,2943,-55,-32,1,0,0,response5disk,,2,5,-5,1,0,0,rectangle,5,-5,1,0,0,5,-5,1,0,0,1,79,239,14,1,,,,,,,,
,,,,,,,,,,,,,FF,,,,,,,,0.867,,,,,,,,,,,,,,,,,,,,,,610350fa3d929461b8ca9103,61036995e72b80b143b0e82b,2021-07-29_22h54.37.983,Simcolourproject_2stim_asymm_v5,2020.2.10,MacIntel,60,61025ae37ef11b136ea224fe,,,,,,,,,2946,-70,-23,1,0,0,response5disk,,2,-4,-5,1,0,0,rectangle,-4,-5,1,0,0,-4,-5,1,0,0,1,80,240,131,1,,,,,,,,
,,,,,,,,,,,,,FF,,,,,,,,1,,,,,,,,,,,,,,,,,,,,,,610350fa3d929461b8ca9103,61036995e72b80b143b0e82b,2021-07-29_22h54.37.983,Simcolourproject_2stim_asymm_v5,2020.2.10,MacIntel,60,61025ae37ef11b136ea224fe,,,,,,,,,1185,79,-30,1,0,0,response3disk,,5,11,-9,1,0,0,rectangle,79,29,1,0,0,2,-5,1,0,0,1,81,241,133,1,,response1disk_3,TRUE,6,6,"[125,194,242,287,7,111,305,202,146,199,97,27,299,23,179,203,47,99,170,221]",1.534,rectangle
,,,,,,,,,,,,,FF,,,,,,,,1.466,,,,,,,,,,,,,,,,,,,,,,610350fa3d929461b8ca9103,61036995e72b80b143b0e82b,2021-07-29_22h54.37.983,Simcolourproject_2stim_asymm_v5,2020.2.10,MacIntel,60,61025ae37ef11b136ea224fe,,,,,,,,,3445,-56,-39,1,0,0,response5disk,,2,-11,-7,1,0,0,rectangle,-11,-7,1,0,0,-11,-7,1,0,0,1,82,242,22,1,,,,,,,,
,,,,,,,,,,,,,FF,,,,,,,,1.918,,,,,,,,,,,,,,,,,,,,,,610350fa3d929461b8ca9103,61036995e72b80b143b0e82b,2021-07-29_22h54.37.983,Simcolourproject_2stim_asymm_v5,2020.2.10,MacIntel,60,61025ae37ef11b136ea224fe,,,,,,,,,3244,-68,-21,1,0,0,response5disk,,2,-5,-10,1,0,0,rectangle,-5,-10,1,0,0,-5,-10,1,0,0,1,83,243,99,1,,,,,,,,
,,,,,,,,,,,,,FF,,,,,,,,1.251,,,,,,,,,,,,,,,,,,,,,,610350fa3d929461b8ca9103,61036995e72b80b143b0e82b,2021-07-29_22h54.37.983,Simcolourproject_2stim_asymm_v5,2020.2.10,MacIntel,60,61025ae37ef11b136ea224fe,,,,,,,,,3018,68,38,1,0,0,response1disk,,6,3,1,1,0,0,rectangle,3,1,1,0,0,3,1,1,0,0,1,84,244,144,1,,,,,,,,
,,,,,,,,,,,,,FF,,,,,,,,1.201,,,,,,,,,,,,,,,,,,,,,,610350fa3d929461b8ca9103,61036995e72b80b143b0e82b,2021-07-29_22h54.37.983,Simcolourproject_2stim_asymm_v5,2020.2.10,MacIntel,60,61025ae37ef11b136ea224fe,,,,,,,,,2038,-56,-27,1,0,0,response5disk,,2,5,8,1,0,0,rectangle,5,8,1,0,0,5,8,1,0,0,1,85,245,4,1,,,,,,,,
,,,,,,,,,,,,,FF,,,,,,,,1.201,,,,,,,,,,,,,,,,,,,,,,610350fa3d929461b8ca9103,61036995e72b80b143b0e82b,2021-07-29_22h54.37.983,Simcolourproject_2stim_asymm_v5,2020.2.10,MacIntel,60,61025ae37ef11b136ea224fe,,,,,,,,,3418,34,-60,1,0,0,response3disk,,4,-8,-5,1,0,0,rectangle,-8,-5,1,0,0,-8,-5,1,0,0,1,86,246,108,1,,,,,,,,
,,,,,,,,,,,,,FF,,,,,,,,2.516,,,,,,,,,,,,,,,,,,,,,,610350fa3d929461b8ca9103,61036995e72b80b143b0e82b,2021-07-29_22h54.37.983,Simcolourproject_2stim_asymm_v5,2020.2.10,MacIntel,60,61025ae37ef11b136ea224fe,,,,,,,,,3996,-23,-57,1,0,0,response5disk,,3,6,8,1,0,0,rectangle,6,8,1,0,0,6,8,1,0,0,1,87,247,95,1,,,,,,,,
,,,,,,,,,,,,,FF,,,,,,,,1.184,,,,,,,,,,,,,,,,,,,,,,610350fa3d929461b8ca9103,61036995e72b80b143b0e82b,2021-07-29_22h54.37.983,Simcolourproject_2stim_asymm_v5,2020.2.10,MacIntel,60,61025ae37ef11b136ea224fe,,,,,,,,,2174,-81,44,1,0,0,response7disk,,1,0,2,1,0,0,rectangle,0,2,1,0,0,0,2,1,0,0,1,88,248,73,1,,,,,,,,
,,,,,,,,,,,,,FF,,,,,,,,1.283,,,,,,,,,,,,,,,,,,,,,,610350fa3d929461b8ca9103,61036995e72b80b143b0e82b,2021-07-29_22h54.37.983,Simcolourproject_2stim_asymm_v5,2020.2.10,MacIntel,60,61025ae37ef11b136ea224fe,,,,,,,,,1505,-21,-58,1,0,0,response5disk,,3,8,4,1,0,0,rectangle,8,4,1,0,0,8,4,1,0,0,1,89,249,141,1,,,,,,,,
,,,,,,,,,,,,,FF,,,,,,,,0.9,,,,,,,,,,,,,,,,,,,,,,610350fa3d929461b8ca9103,61036995e72b80b143b0e82b,2021-07-29_22h54.37.983,Simcolourproject_2stim_asymm_v5,2020.2.10,MacIntel,60,61025ae37ef11b136ea224fe,,,,,,,,,2396,35,-57,1,0,0,response3disk,,4,9,2,1,0,0,rectangle,9,2,1,0,0,9,2,1,0,0,1,90,250,18,1,,,,,,,,
,,,,,,,,,,,,,FF,,,,,,,,1.1,,,,,,,,,,,,,,,,,,,,,,610350fa3d929461b8ca9103,61036995e72b80b143b0e82b,2021-07-29_22h54.37.983,Simcolourproject_2stim_asymm_v5,2020.2.10,MacIntel,60,61025ae37ef11b136ea224fe,,,,,,,,,3775,-72,-23,1,0,0,response5disk,,2,-11,0,1,0,0,rectangle,-11,0,1,0,0,-11,0,1,0,0,1,91,251,1,1,,,,,,,,
,,,,,,,,,,,,,FF,,,,,,,,2.65,,,,,,,,,,,,,,,,,,,,,,610350fa3d929461b8ca9103,61036995e72b80b143b0e82b,2021-07-29_22h54.37.983,Simcolourproject_2stim_asymm_v5,2020.2.10,MacIntel,60,61025ae37ef11b136ea224fe,,,,,,,,,1725,-40,-62,1,0,0,response5disk,,3,1,2,1,0,0,rectangle,1,2,1,0,0,1,2,1,0,0,1,92,252,100,1,,,,,,,,
,,,,,,,,,,,,,FF,,,,,,,,0.966,,,,,,,,,,,,,,,,,,,,,,610350fa3d929461b8ca9103,61036995e72b80b143b0e82b,2021-07-29_22h54.37.983,Simcolourproject_2stim_asymm_v5,2020.2.10,MacIntel,60,61025ae37ef11b136ea224fe,,,,,,,,,529,-39,-61,1,0,0,response5disk,,3,-14,3,1,0,0,rectangle,-14,3,1,0,0,-14,3,1,0,0,1,93,253,37,1,,,,,,,,
,,,,,,,,,,,,,FF,,,,,,,,0.766,,,,,,,,,,,,,,,,,,,,,,610350fa3d929461b8ca9103,61036995e72b80b143b0e82b,2021-07-29_22h54.37.983,Simcolourproject_2stim_asymm_v5,2020.2.10,MacIntel,60,61025ae37ef11b136ea224fe,,,,,,,,,1968,-31,-60,1,0,0,response5disk,,3,-8,-1,1,0,0,rectangle,-8,-1,1,0,0,-8,-1,1,0,0,1,94,254,134,1,,,,,,,,
,,,,,,,,,,,,,FF,,,,,,,,1.415,,,,,,,,,,,,,,,,,,,,,,610350fa3d929461b8ca9103,61036995e72b80b143b0e82b,2021-07-29_22h54.37.983,Simcolourproject_2stim_asymm_v5,2020.2.10,MacIntel,60,61025ae37ef11b136ea224fe,,,,,,,,,1227,-69,53,1,0,0,response7disk,,1,-10,9,1,0,0,rectangle,-10,9,1,0,0,-10,9,1,0,0,1,95,255,42,1,,,,,,,,
,,,,,,,,,,,,,FF,,,,,,,,0.8,,,,,,,,,,,,,,,,,,,,,,610350fa3d929461b8ca9103,61036995e72b80b143b0e82b,2021-07-29_22h54.37.983,Simcolourproject_2stim_asymm_v5,2020.2.10,MacIntel,60,61025ae37ef11b136ea224fe,,,,,,,,,2688,-68,-22,1,0,0,response5disk,,2,2,0,1,0,0,rectangle,2,0,1,0,0,2,0,1,0,0,1,96,256,17,1,,,,,,,,
,,,,,,,,,,,,,FF,,,,,,,,0.901,,,,,,,,,,,,,,,,,,,,,,610350fa3d929461b8ca9103,61036995e72b80b143b0e82b,2021-07-29_22h54.37.983,Simcolourproject_2stim_asymm_v5,2020.2.10,MacIntel,60,61025ae37ef11b136ea224fe,,,,,,,,,2507,62,-32,1,0,0,response3disk,,5,3,4,1,0,0,rectangle,3,4,1,0,0,3,4,1,0,0,1,97,257,76,1,,,,,,,,
,,,,,,,,,,,,,FF,,,,,,,,1.083,,,,,,,,,,,,,,,,,,,,,,610350fa3d929461b8ca9103,61036995e72b80b143b0e82b,2021-07-29_22h54.37.983,Simcolourproject_2stim_asymm_v5,2020.2.10,MacIntel,60,61025ae37ef11b136ea224fe,,,,,,,,,4348,-74,28,1,0,0,response7disk,,1,-2,-4,1,0,0,rectangle,-2,-4,1,0,0,-2,-4,1,0,0,1,98,258,138,1,,,,,,,,
,,,,,,,,,,,,,FF,,,,,,,,1.4,,,,,,,,,,,,,,,,,,,,,,610350fa3d929461b8ca9103,61036995e72b80b143b0e82b,2021-07-29_22h54.37.983,Simcolourproject_2stim_asymm_v5,2020.2.10,MacIntel,60,61025ae37ef11b136ea224fe,,,,,,,,,4226,-69,-29,1,0,0,response5disk,,2,7,-1,1,0,0,rectangle,7,-1,1,0,0,7,-1,1,0,0,1,99,259,39,1,,,,,,,,
,,,,,,,,,,,,,FF,,,,,,,,1.15,,,,,,,,,,,,,,,,,,,,,,610350fa3d929461b8ca9103,61036995e72b80b143b0e82b,2021-07-29_22h54.37.983,Simcolourproject_2stim_asymm_v5,2020.2.10,MacIntel,60,61025ae37ef11b136ea224fe,,,,,,,,,3010,60,-33,1,0,0,response3disk,,5,3,-14,1,0,0,rectangle,3,-14,1,0,0,3,-14,1,0,0,1,100,260,97,1,,,,,,,,
,,,,,,,,,,,,,FF,,,,,,,,1.568,,,,,,,,,,,,,,,,,,,,,,610350fa3d929461b8ca9103,61036995e72b80b143b0e82b,2021-07-29_22h54.37.983,Simcolourproject_2stim_asymm_v5,2020.2.10,MacIntel,60,61025ae37ef11b136ea224fe,,,,,,,,,1418,53,40,1,0,0,response1disk,,6,8,-16,1,0,0,rectangle,8,-16,1,0,0,8,-16,1,0,0,1,101,261,53,1,,,,,,,,
,,,,,,,,,,,,,FF,,,,,,,,1.2,,,,,,,,,,,,,,,,,,,,,,610350fa3d929461b8ca9103,61036995e72b80b143b0e82b,2021-07-29_22h54.37.983,Simcolourproject_2stim_asymm_v5,2020.2.10,MacIntel,60,61025ae37ef11b136ea224fe,,,,,,,,,2130,26,66,1,0,0,response1disk,,7,-1,0,1,0,0,rectangle,-1,0,1,0,0,-1,0,1,0,0,1,102,262,153,1,,,,,,,,
,,,,,,,,,,,,,FF,,,,,,,,1.483,,,,,,,,,,,,,,,,,,,,,,610350fa3d929461b8ca9103,61036995e72b80b143b0e82b,2021-07-29_22h54.37.983,Simcolourproject_2stim_asymm_v5,2020.2.10,MacIntel,60,61025ae37ef11b136ea224fe,,,,,,,,,873,-87,-21,1,0,0,response5disk,,2,-8,-10,1,0,0,rectangle,-8,-10,1,0,0,-8,-10,1,0,0,1,103,263,46,1,,,,,,,,
,,,,,,,,,,,,,FF,,,,,,,,0.932,,,,,,,,,,,,,,,,,,,,,,610350fa3d929461b8ca9103,61036995e72b80b143b0e82b,2021-07-29_22h54.37.983,Simcolourproject_2stim_asymm_v5,2020.2.10,MacIntel,60,61025ae37ef11b136ea224fe,,,,,,,,,909,-22,-65,1,0,0,response5disk,,3,21,-2,1,0,0,rectangle,21,-2,1,0,0,21,-2,1,0,0,1,104,264,78,1,,,,,,,,
,,,,,,,,,,,,,FF,,,,,,,,1.333,,,,,,,,,,,,,,,,,,,,,,610350fa3d929461b8ca9103,61036995e72b80b143b0e82b,2021-07-29_22h54.37.983,Simcolourproject_2stim_asymm_v5,2020.2.10,MacIntel,60,61025ae37ef11b136ea224fe,,,,,,,,,54,62,-36,1,0,0,response3disk,,5,8,-12,1,0,0,rectangle,8,-12,1,0,0,8,-12,1,0,0,1,105,265,114,1,,,,,,,,
,,,,,,,,,,,,,FF,,,,,,,,1.65,,,,,,,,,,,,,,,,,,,,,,610350fa3d929461b8ca9103,61036995e72b80b143b0e82b,2021-07-29_22h54.37.983,Simcolourproject_2stim_asymm_v5,2020.2.10,MacIntel,60,61025ae37ef11b136ea224fe,,,,,,,,,3721,-35,-55,1,0,0,response5disk,,3,-3,-5,1,0,0,rectangle,-3,-5,1,0,0,-3,-5,1,0,0,1,106,266,21,1,,,,,,,,
,,,,,,,,,,,,,FF,,,,,,,,1.116,,,,,,,,,,,,,,,,,,,,,,610350fa3d929461b8ca9103,61036995e72b80b143b0e82b,2021-07-29_22h54.37.983,Simcolourproject_2stim_asymm_v5,2020.2.10,MacIntel,60,61025ae37ef11b136ea224fe,,,,,,,,,3640,64,-35,1,0,0,response3disk,,5,1,-4,1,0,0,rectangle,1,-4,1,0,0,1,-4,1,0,0,1,107,267,54,1,,,,,,,,
,,,,,,,,,,,,,FF,,,,,,,,2.7,,,,,,,,,,,,,,,,,,,,,,610350fa3d929461b8ca9103,61036995e72b80b143b0e82b,2021-07-29_22h54.37.983,Simcolourproject_2stim_asymm_v5,2020.2.10,MacIntel,60,61025ae37ef11b136ea224fe,,,,,,,,,1086,-35,-65,1,0,0,response5disk,,3,2,-6,1,0,0,rectangle,2,-6,1,0,0,2,-6,1,0,0,1,108,268,120,1,,,,,,,,
,,,,,,,,,,,,,FF,,,,,,,,1.233,,,,,,,,,,,,,,,,,,,,,,610350fa3d929461b8ca9103,61036995e72b80b143b0e82b,2021-07-29_22h54.37.983,Simcolourproject_2stim_asymm_v5,2020.2.10,MacIntel,60,61025ae37ef11b136ea224fe,,,,,,,,,3214,63,-25,1,0,0,response3disk,,5,6,0,1,0,0,rectangle,6,0,1,0,0,6,0,1,0,0,1,109,269,143,1,,,,,,,,
,,,,,,,,,,,,,FF,,,,,,,,0.984,,,,,,,,,,,,,,,,,,,,,,610350fa3d929461b8ca9103,61036995e72b80b143b0e82b,2021-07-29_22h54.37.983,Simcolourproject_2stim_asymm_v5,2020.2.10,MacIntel,60,61025ae37ef11b136ea224fe,,,,,,,,,1963,-39,68,1,0,0,response7disk,,0,-7,0,1,0,0,rectangle,-7,0,1,0,0,-7,0,1,0,0,1,110,270,27,1,,,,,,,,
,,,,,,,,,,,,,FF,,,,,,,,0.816,,,,,,,,,,,,,,,,,,,,,,610350fa3d929461b8ca9103,61036995e72b80b143b0e82b,2021-07-29_22h54.37.983,Simcolourproject_2stim_asymm_v5,2020.2.10,MacIntel,60,61025ae37ef11b136ea224fe,,,,,,,,,1970,-66,28,1,0,0,response7disk,,1,-3,-4,1,0,0,rectangle,-3,-4,1,0,0,-3,-4,1,0,0,1,111,271,132,1,,,,,,,,
,,,,,,,,,,,,,FF,,,,,,,,1.767,,,,,,,,,,,,,,,,,,,,,,610350fa3d929461b8ca9103,61036995e72b80b143b0e82b,2021-07-29_22h54.37.983,Simcolourproject_2stim_asymm_v5,2020.2.10,MacIntel,60,61025ae37ef11b136ea224fe,,,,,,,,,962,63,-35,1,0,0,response3disk,,5,4,1,1,0,0,rectangle,4,1,1,0,0,4,1,1,0,0,1,112,272,77,1,,,,,,,,
,,,,,,,,,,,,,FF,,,,,,,,1.134,,,,,,,,,,,,,,,,,,,,,,610350fa3d929461b8ca9103,61036995e72b80b143b0e82b,2021-07-29_22h54.37.983,Simcolourproject_2stim_asymm_v5,2020.2.10,MacIntel,60,61025ae37ef11b136ea224fe,,,,,,,,,1982,29,-71,1,0,0,response3disk,,4,-10,-6,1,0,0,rectangle,-10,-6,1,0,0,-10,-6,1,0,0,1,113,273,122,1,,,,,,,,
,,,,,,,,,,,,,FF,,,,,,,,2.4,,,,,,,,,,,,,,,,,,,,,,610350fa3d929461b8ca9103,61036995e72b80b143b0e82b,2021-07-29_22h54.37.983,Simcolourproject_2stim_asymm_v5,2020.2.10,MacIntel,60,61025ae37ef11b136ea224fe,,,,,,,,,3799,39,-64,1,0,0,response3disk,,4,-2,-4,1,0,0,rectangle,-2,-4,1,0,0,-2,-4,1,0,0,1,114,274,101,1,,,,,,,,
,,,,,,,,,,,,,FF,,,,,,,,0.882,,,,,,,,,,,,,,,,,,,,,,610350fa3d929461b8ca9103,61036995e72b80b143b0e82b,2021-07-29_22h54.37.983,Simcolourproject_2stim_asymm_v5,2020.2.10,MacIntel,60,61025ae37ef11b136ea224fe,,,,,,,,,2595,-28,-58,1,0,0,response5disk,,3,-6,-6,1,0,0,rectangle,-6,-6,1,0,0,-6,-6,1,0,0,1,115,275,102,1,,,,,,,,
,,,,,,,,,,,,,FF,,,,,,,,1.133,,,,,,,,,,,,,,,,,,,,,,610350fa3d929461b8ca9103,61036995e72b80b143b0e82b,2021-07-29_22h54.37.983,Simcolourproject_2stim_asymm_v5,2020.2.10,MacIntel,60,61025ae37ef11b136ea224fe,,,,,,,,,1472,31,-53,1,0,0,response3disk,,4,25,-2,1,0,0,rectangle,25,-2,1,0,0,25,-2,1,0,0,1,116,276,106,1,,,,,,,,
,,,,,,,,,,,,,FF,,,,,,,,1.318,,,,,,,,,,,,,,,,,,,,,,610350fa3d929461b8ca9103,61036995e72b80b143b0e82b,2021-07-29_22h54.37.983,Simcolourproject_2stim_asymm_v5,2020.2.10,MacIntel,60,61025ae37ef11b136ea224fe,,,,,,,,,2713,-21,-56,1,0,0,response5disk,,3,21,-2,1,0,0,rectangle,21,-2,1,0,0,21,-2,1,0,0,1,117,277,15,1,,,,,,,,
,,,,,,,,,,,,,FF,,,,,,,,0.917,,,,,,,,,,,,,,,,,,,,,,610350fa3d929461b8ca9103,61036995e72b80b143b0e82b,2021-07-29_22h54.37.983,Simcolourproject_2stim_asymm_v5,2020.2.10,MacIntel,60,61025ae37ef11b136ea224fe,,,,,,,,,910,66,-27,1,0,0,response3disk,,5,10,7,1,0,0,rectangle,10,7,1,0,0,10,7,1,0,0,1,118,278,25,1,,,,,,,,
,,,,,,,,,,,,,FF,,,,,,,,1.583,,,,,,,,,,,,,,,,,,,,,,610350fa3d929461b8ca9103,61036995e72b80b143b0e82b,2021-07-29_22h54.37.983,Simcolourproject_2stim_asymm_v5,2020.2.10,MacIntel,60,61025ae37ef11b136ea224fe,,,,,,,,,3014,22,-73,1,0,0,response3disk,,4,-2,4,1,0,0,rectangle,-2,4,1,0,0,-2,4,1,0,0,1,119,279,136,1,,,,,,,,
,,,,,,,,,,,,,FF,,,,,,,,1,,,,,,,,,,,,,,,,,,,,,,610350fa3d929461b8ca9103,61036995e72b80b143b0e82b,2021-07-29_22h54.37.983,Simcolourproject_2stim_asymm_v5,2020.2.10,MacIntel,60,61025ae37ef11b136ea224fe,,,,,,,,,1775,-40,-58,1,0,0,response5disk,,3,-1,-2,1,0,0,rectangle,-1,-2,1,0,0,-1,-2,1,0,0,1,120,280,64,1,,,,,,,,
,,,,,,,,,,,,,FF,,,,,,,,1.383,,,,,,,,,,,,,,,,,,,,,,610350fa3d929461b8ca9103,61036995e72b80b143b0e82b,2021-07-29_22h54.37.983,Simcolourproject_2stim_asymm_v5,2020.2.10,MacIntel,60,61025ae37ef11b136ea224fe,,,,,,,,,267,48,68,1,0,0,response1disk,,7,18,3,1,0,0,rectangle,18,3,1,0,0,18,3,1,0,0,1,121,281,79,1,,,,,,,,
,,,,,,,,,,,,,FF,,,,,,,,0.999,,,,,,,,,,,,,,,,,,,,,,610350fa3d929461b8ca9103,61036995e72b80b143b0e82b,2021-07-29_22h54.37.983,Simcolourproject_2stim_asymm_v5,2020.2.10,MacIntel,60,61025ae37ef11b136ea224fe,,,,,,,,,3088,56,33,1,0,0,response1disk,,6,7,0,1,0,0,rectangle,7,0,1,0,0,7,0,1,0,0,1,122,282,5,1,,,,,,,,
,,,,,,,,,,,,,FF,,,,,,,,1.117,,,,,,,,,,,,,,,,,,,,,,610350fa3d929461b8ca9103,61036995e72b80b143b0e82b,2021-07-29_22h54.37.983,Simcolourproject_2stim_asymm_v5,2020.2.10,MacIntel,60,61025ae37ef11b136ea224fe,,,,,,,,,2717,-74,-22,1,0,0,response5disk,,2,-10,-7,1,0,0,rectangle,-10,-7,1,0,0,-10,-7,1,0,0,1,123,283,36,1,,,,,,,,
,,,,,,,,,,,,,FF,,,,,,,,1.2,,,,,,,,,,,,,,,,,,,,,,610350fa3d929461b8ca9103,61036995e72b80b143b0e82b,2021-07-29_22h54.37.983,Simcolourproject_2stim_asymm_v5,2020.2.10,MacIntel,60,61025ae37ef11b136ea224fe,,,,,,,,,771,32,-60,1,0,0,response3disk,,4,0,-8,1,0,0,rectangle,0,-8,1,0,0,0,-8,1,0,0,1,124,284,111,1,,,,,,,,
,,,,,,,,,,,,,FF,,,,,,,,0.834,,,,,,,,,,,,,,,,,,,,,,610350fa3d929461b8ca9103,61036995e72b80b143b0e82b,2021-07-29_22h54.37.983,Simcolourproject_2stim_asymm_v5,2020.2.10,MacIntel,60,61025ae37ef11b136ea224fe,,,,,,,,,1577,-31,-52,1,0,0,response5disk,,3,-5,-2,1,0,0,rectangle,-5,-2,1,0,0,-5,-2,1,0,0,1,125,285,104,1,,,,,,,,
,,,,,,,,,,,,,FF,,,,,,,,1.182,,,,,,,,,,,,,,,,,,,,,,610350fa3d929461b8ca9103,61036995e72b80b143b0e82b,2021-07-29_22h54.37.983,Simcolourproject_2stim_asymm_v5,2020.2.10,MacIntel,60,61025ae37ef11b136ea224fe,,,,,,,,,473,69,-22,1,0,0,response3disk,,5,27,2,1,0,0,rectangle,43,-70,1,0,0,-9,-2,1,0,0,1,126,286,48,1,,response3disk_3,TRUE,4,4,"[125,194,242,287,7,111,305,202,146,199,97,27,299,23,179,203,47,99,170,221]",2.216,rectangle
,,,,,,,,,,,,,FF,,,,,,,,1.015,,,,,,,,,,,,,,,,,,,,,,610350fa3d929461b8ca9103,61036995e72b80b143b0e82b,2021-07-29_22h54.37.983,Simcolourproject_2stim_asymm_v5,2020.2.10,MacIntel,60,61025ae37ef11b136ea224fe,,,,,,,,,143,60,-31,1,0,0,response3disk,,5,-3,-4,1,0,0,rectangle,-3,-4,1,0,0,-3,-4,1,0,0,1,127,287,66,1,,,,,,,,
,,,,,,,,,,,,,FF,,,,,,,,0.984,,,,,,,,,,,,,,,,,,,,,,610350fa3d929461b8ca9103,61036995e72b80b143b0e82b,2021-07-29_22h54.37.983,Simcolourproject_2stim_asymm_v5,2020.2.10,MacIntel,60,61025ae37ef11b136ea224fe,,,,,,,,,2243,-23,-60,1,0,0,response5disk,,3,-7,-6,1,0,0,rectangle,-7,-6,1,0,0,-7,-6,1,0,0,1,128,288,44,1,,,,,,,,
,,,,,,,,,,,,,FF,,,,,,,,1.2,,,,,,,,,,,,,,,,,,,,,,610350fa3d929461b8ca9103,61036995e72b80b143b0e82b,2021-07-29_22h54.37.983,Simcolourproject_2stim_asymm_v5,2020.2.10,MacIntel,60,61025ae37ef11b136ea224fe,,,,,,,,,3704,-65,45,1,0,0,response7disk,,1,19,-3,1,0,0,rectangle,19,-3,1,0,0,19,-3,1,0,0,1,129,289,128,1,,,,,,,,
,,,,,,,,,,,,,FF,,,,,,,,1.466,,,,,,,,,,,,,,,,,,,,,,610350fa3d929461b8ca9103,61036995e72b80b143b0e82b,2021-07-29_22h54.37.983,Simcolourproject_2stim_asymm_v5,2020.2.10,MacIntel,60,61025ae37ef11b136ea224fe,,,,,,,,,3319,63,52,1,0,0,response1disk,,6,3,-3,1,0,0,rectangle,3,-3,1,0,0,3,-3,1,0,0,1,130,290,112,1,,,,,,,,
,,,,,,,,,,,,,FF,,,,,,,,1.915,,,,,,,,,,,,,,,,,,,,,,610350fa3d929461b8ca9103,61036995e72b80b143b0e82b,2021-07-29_22h54.37.983,Simcolourproject_2stim_asymm_v5,2020.2.10,MacIntel,60,61025ae37ef11b136ea224fe,,,,,,,,,1012,22,-63,1,0,0,response3disk,,4,-5,0,1,0,0,rectangle,-5,0,1,0,0,-5,0,1,0,0,1,131,291,6,1,,,,,,,,
,,,,,,,,,,,,,FF,,,,,,,,1.7,,,,,,,,,,,,,,,,,,,,,,610350fa3d929461b8ca9103,61036995e72b80b143b0e82b,2021-07-29_22h54.37.983,Simcolourproject_2stim_asymm_v5,2020.2.10,MacIntel,60,61025ae37ef11b136ea224fe,,,,,,,,,7,-65,-25,1,0,0,response5disk,,2,0,-7,1,0,0,rectangle,0,-7,1,0,0,0,-7,1,0,0,1,132,292,67,1,,,,,,,,
,,,,,,,,,,,,,FF,,,,,,,,1.151,,,,,,,,,,,,,,,,,,,,,,610350fa3d929461b8ca9103,61036995e72b80b143b0e82b,2021-07-29_22h54.37.983,Simcolourproject_2stim_asymm_v5,2020.2.10,MacIntel,60,61025ae37ef11b136ea224fe,,,,,,,,,2810,34,-59,1,0,0,response3disk,,4,17,-11,1,0,0,rectangle,17,-11,1,0,0,17,-11,1,0,0,1,133,293,33,1,,,,,,,,
,,,,,,,,,,,,,FF,,,,,,,,1.417,,,,,,,,,,,,,,,,,,,,,,610350fa3d929461b8ca9103,61036995e72b80b143b0e82b,2021-07-29_22h54.37.983,Simcolourproject_2stim_asymm_v5,2020.2.10,MacIntel,60,61025ae37ef11b136ea224fe,,,,,,,,,1999,60,48,1,0,0,response1disk,,6,16,1,1,0,0,rectangle,16,1,1,0,0,16,1,1,0,0,1,134,294,47,1,,,,,,,,
,,,,,,,,,,,,,FF,,,,,,,,1.883,,,,,,,,,,,,,,,,,,,,,,610350fa3d929461b8ca9103,61036995e72b80b143b0e82b,2021-07-29_22h54.37.983,Simcolourproject_2stim_asymm_v5,2020.2.10,MacIntel,60,61025ae37ef11b136ea224fe,,,,,,,,,2019,74,-26,1,0,0,response3disk,,5,-4,1,1,0,0,rectangle,-4,1,1,0,0,-4,1,1,0,0,1,135,295,68,1,,,,,,,,
,,,,,,,,,,,,,FF,,,,,,,,1.432,,,,,,,,,,,,,,,,,,,,,,610350fa3d929461b8ca9103,61036995e72b80b143b0e82b,2021-07-29_22h54.37.983,Simcolourproject_2stim_asymm_v5,2020.2.10,MacIntel,60,61025ae37ef11b136ea224fe,,,,,,,,,1008,30,62,1,0,0,response1disk,,7,28,2,1,0,0,rectangle,28,2,1,0,0,28,2,1,0,0,1,136,296,28,1,,,,,,,,
,,,,,,,,,,,,,FF,,,,,,,,2.083,,,,,,,,,,,,,,,,,,,,,,610350fa3d929461b8ca9103,61036995e72b80b143b0e82b,2021-07-29_22h54.37.983,Simcolourproject_2stim_asymm_v5,2020.2.10,MacIntel,60,61025ae37ef11b136ea224fe,,,,,,,,,3169,74,-26,1,0,0,response3disk,,5,-4,10,1,0,0,rectangle,-4,10,1,0,0,-4,10,1,0,0,1,137,297,26,1,,,,,,,,
,,,,,,,,,,,,,FF,,,,,,,,0.933,,,,,,,,,,,,,,,,,,,,,,610350fa3d929461b8ca9103,61036995e72b80b143b0e82b,2021-07-29_22h54.37.983,Simcolourproject_2stim_asymm_v5,2020.2.10,MacIntel,60,61025ae37ef11b136ea224fe,,,,,,,,,725,59,-28,1,0,0,response3disk,,5,1,-4,1,0,0,rectangle,-67,34,1,0,0,-8,2,1,0,0,1,138,298,119,1,,response7disk_3,TRUE,1,1,"[125,194,242,287,7,111,305,202,146,199,97,27,299,23,179,203,47,99,170,221]",1.466,rectangle
,,,,,,,,,,,,,FF,,,,,,,,3.183,,,,,,,,,,,,,,,,,,,,,,610350fa3d929461b8ca9103,61036995e72b80b143b0e82b,2021-07-29_22h54.37.983,Simcolourproject_2stim_asymm_v5,2020.2.10,MacIntel,60,61025ae37ef11b136ea224fe,,,,,,,,,2597,49,-61,1,0,0,response3disk,,4,12,12,1,0,0,rectangle,12,12,1,0,0,12,12,1,0,0,1,139,299,91,1,,,,,,,,
,,,,,,,,,,,,,FF,,,,,,,,1.1,,,,,,,,,,,,,,,,,,,,,,610350fa3d929461b8ca9103,61036995e72b80b143b0e82b,2021-07-29_22h54.37.983,Simcolourproject_2stim_asymm_v5,2020.2.10,MacIntel,60,61025ae37ef11b136ea224fe,,,,,,,,,1612,50,-29,1,0,0,response3disk,,5,5,-1,1,0,0,rectangle,5,-1,1,0,0,5,-1,1,0,0,1,140,300,88,1,,,,,,,,
