key_resp.keys,key_resp.rt,key_resp_14.keys,key_resp_14.rt,key_resp_15.keys,key_resp_15.rt,key_resp_17.keys,key_resp_17.rt,key_resp_9.keys,key_resp_9.rt,key_resp_10.keys,key_resp_10.rt,practice_comparison,Ecc,mouse_5.x,mouse_5.y,mouse_5.leftButton,mouse_5.midButton,mouse_5.rightButton,mouse_5.clicked_name,pracsimilarity,response_time,mouse_10.x,mouse_10.y,mouse_10.leftButton,mouse_10.midButton,mouse_10.rightButton,mouse_10.clicked_name,mouse_7.x,mouse_7.y,mouse_7.leftButton,mouse_7.midButton,mouse_7.rightButton,mouse_6.x,mouse_6.y,mouse_6.leftButton,mouse_6.midButton,mouse_6.rightButton,duringprac.thisRepN,duringprac.thisTrialN,duringprac.thisN,duringprac.thisIndex,duringprac.ran,participant,session,date,expName,psychopyVersion,OS,frameRate,study_id,mouse_7.clicked_name,catchpracsimilarity,catch_response_time,catchnumberprac,catchtrialorderprac,mouse_6.clicked_name,key_resp_22.keys,key_resp_22.rt,realcomparison,mouse.x,mouse.y,mouse.leftButton,mouse.midButton,mouse.rightButton,mouse.clicked_name,Colour2,similarity,mouse_2.x,mouse_2.y,mouse_2.leftButton,mouse_2.midButton,mouse_2.rightButton,mouse_2.clicked_name,mouse_3.x,mouse_3.y,mouse_3.leftButton,mouse_3.midButton,mouse_3.rightButton,mouse_11.x,mouse_11.y,mouse_11.leftButton,mouse_11.midButton,mouse_11.rightButton,trials_2.thisRepN,trials_2.thisTrialN,trials_2.thisN,trials_2.thisIndex,trials_2.ran,Colour1,mouse_3.clicked_name,catchornah,catchsimilarity,catchnumber,catchtrialorder,catchRT,mouse_11.clicked_name
space,1.6223,space,5.5249,space,4.7971,space,4.3473,space,1.0323,space,2.4499,135,PF,99,-58,1,0,0,response3disk_5,5,4.898,1,3,1,0,0,rectangle_8,1,3,1,0,0,1,3,1,0,0,0,0,0,2,1,61032601dabc8bfe1409e7ac,61036b5ec5234f1187fb1c3d,2021-07-29_23h01.18.864,Simcolourproject_2stim_asymm_v5,2020.2.10,Win32,60,61025ae37ef11b136ea224fe,,,,,,,,,,,,,,,,,,,,,,,,,,,,,,,,,,,,,,,,,,,,,,
,,,,,,,,,,,,106,PF,-82,-49,1,0,0,response5disk_5,2,4.5775,9,4,1,0,0,rectangle_8,-49,129,1,0,0,-8,-9,1,0,0,0,1,1,6,1,61032601dabc8bfe1409e7ac,61036b5ec5234f1187fb1c3d,2021-07-29_23h01.18.864,Simcolourproject_2stim_asymm_v5,2020.2.10,Win32,60,61025ae37ef11b136ea224fe,response7disk_7,0,2.6848,0,"[2,5]",rectangle_4,,,,,,,,,,,,,,,,,,,,,,,,,,,,,,,,,,,,,,,,
,,,,,,,,,,,,84,FF,83,-45,1,0,0,response3disk_5,5,3.948,1,13,1,0,0,rectangle_8,1,13,1,0,0,1,13,1,0,0,0,2,2,0,1,61032601dabc8bfe1409e7ac,61036b5ec5234f1187fb1c3d,2021-07-29_23h01.18.864,Simcolourproject_2stim_asymm_v5,2020.2.10,Win32,60,61025ae37ef11b136ea224fe,,,,,,,,,,,,,,,,,,,,,,,,,,,,,,,,,,,,,,,,,,,,,,
,,,,,,,,,,,,122,FF,65,93,1,0,0,response1disk_5,7,4.7476,5,-4,1,0,0,rectangle_8,5,-4,1,0,0,5,-4,1,0,0,0,3,3,3,1,61032601dabc8bfe1409e7ac,61036b5ec5234f1187fb1c3d,2021-07-29_23h01.18.864,Simcolourproject_2stim_asymm_v5,2020.2.10,Win32,60,61025ae37ef11b136ea224fe,,,,,,,,,,,,,,,,,,,,,,,,,,,,,,,,,,,,,,,,,,,,,,
,,,,,,,,,,,,64,FF,51,-115,1,0,0,response3disk_5,4,3.2315,7,7,1,0,0,rectangle_8,-48,92,1,0,0,0,-7,1,0,0,0,4,4,5,1,61032601dabc8bfe1409e7ac,61036b5ec5234f1187fb1c3d,2021-07-29_23h01.18.864,Simcolourproject_2stim_asymm_v5,2020.2.10,Win32,60,61025ae37ef11b136ea224fe,response7disk_7,0,2.0313,0,"[2,5]",rectangle_4,,,,,,,,,,,,,,,,,,,,,,,,,,,,,,,,,,,,,,,,
,,,,,,,,,,,,16,PF,97,-73,1,0,0,response3disk_5,5,5.6961,11,-8,1,0,0,rectangle_8,11,-8,1,0,0,11,-8,1,0,0,0,5,5,4,1,61032601dabc8bfe1409e7ac,61036b5ec5234f1187fb1c3d,2021-07-29_23h01.18.864,Simcolourproject_2stim_asymm_v5,2020.2.10,Win32,60,61025ae37ef11b136ea224fe,,,,,,,,,,,,,,,,,,,,,,,,,,,,,,,,,,,,,,,,,,,,,,
,,,,,,,,,,,,153,PF,-34,-104,1,0,0,response5disk_5,3,2.7487,18,6,1,0,0,rectangle_8,18,6,1,0,0,18,6,1,0,0,0,6,6,1,1,61032601dabc8bfe1409e7ac,61036b5ec5234f1187fb1c3d,2021-07-29_23h01.18.864,Simcolourproject_2stim_asymm_v5,2020.2.10,Win32,60,61025ae37ef11b136ea224fe,,,,,,,,,,,,,,,,,,,,,,,,,,,,,,,,,,,,,,,,,,,,,,
,,,,,,,,,,,,,FF,,,,,,,,3.6999,,,,,,,,,,,,,,,,,,,,,,61032601dabc8bfe1409e7ac,61036b5ec5234f1187fb1c3d,2021-07-29_23h01.18.864,Simcolourproject_2stim_asymm_v5,2020.2.10,Win32,60,61025ae37ef11b136ea224fe,,,,,,,space,1.5372,2243,48,-118,1,0,0,response3disk,,4,5,-1,1,0,0,rectangle,5,-1,1,0,0,5,-1,1,0,0,0,0,0,66,1,,,,,,,,
,,,,,,,,,,,,,FF,,,,,,,,4.597,,,,,,,,,,,,,,,,,,,,,,61032601dabc8bfe1409e7ac,61036b5ec5234f1187fb1c3d,2021-07-29_23h01.18.864,Simcolourproject_2stim_asymm_v5,2020.2.10,Win32,60,61025ae37ef11b136ea224fe,,,,,,,,,4004,-63,-38,1,0,0,response5disk,,2,17,1,1,0,0,rectangle,-108,66,1,0,0,7,-9,1,0,0,0,1,1,122,1,,response7disk_3,TRUE,1,1,"[287,29,251,207,216,263,125,147,245,102,62,50,39,219,142,143,122,2,240,107]",2.0826,rectangle
,,,,,,,,,,,,,FF,,,,,,,,3.4314,,,,,,,,,,,,,,,,,,,,,,61032601dabc8bfe1409e7ac,61036b5ec5234f1187fb1c3d,2021-07-29_23h01.18.864,Simcolourproject_2stim_asymm_v5,2020.2.10,Win32,60,61025ae37ef11b136ea224fe,,,,,,,,,3897,70,-82,1,0,0,response3disk,,4,20,5,1,0,0,rectangle,20,5,1,0,0,20,5,1,0,0,0,2,2,71,1,,,,,,,,
,,,,,,,,,,,,,FF,,,,,,,,2.299,,,,,,,,,,,,,,,,,,,,,,61032601dabc8bfe1409e7ac,61036b5ec5234f1187fb1c3d,2021-07-29_23h01.18.864,Simcolourproject_2stim_asymm_v5,2020.2.10,Win32,60,61025ae37ef11b136ea224fe,,,,,,,,,2598,80,44,1,0,0,response1disk,,6,12,-12,1,0,0,rectangle,12,-12,1,0,0,12,-12,1,0,0,0,3,3,28,1,,,,,,,,
,,,,,,,,,,,,,FF,,,,,,,,1.3817,,,,,,,,,,,,,,,,,,,,,,61032601dabc8bfe1409e7ac,61036b5ec5234f1187fb1c3d,2021-07-29_23h01.18.864,Simcolourproject_2stim_asymm_v5,2020.2.10,Win32,60,61025ae37ef11b136ea224fe,,,,,,,,,1736,85,27,1,0,0,response1disk,,6,8,4,1,0,0,rectangle,8,4,1,0,0,8,4,1,0,0,0,4,4,93,1,,,,,,,,
,,,,,,,,,,,,,FF,,,,,,,,2.3126,,,,,,,,,,,,,,,,,,,,,,61032601dabc8bfe1409e7ac,61036b5ec5234f1187fb1c3d,2021-07-29_23h01.18.864,Simcolourproject_2stim_asymm_v5,2020.2.10,Win32,60,61025ae37ef11b136ea224fe,,,,,,,,,26,40,-80,1,0,0,response3disk,,4,4,2,1,0,0,rectangle,4,2,1,0,0,4,2,1,0,0,0,5,5,154,1,,,,,,,,
,,,,,,,,,,,,,FF,,,,,,,,1.3577,,,,,,,,,,,,,,,,,,,,,,61032601dabc8bfe1409e7ac,61036b5ec5234f1187fb1c3d,2021-07-29_23h01.18.864,Simcolourproject_2stim_asymm_v5,2020.2.10,Win32,60,61025ae37ef11b136ea224fe,,,,,,,,,2878,-33,-94,1,0,0,response5disk,,3,8,9,1,0,0,rectangle,8,9,1,0,0,8,9,1,0,0,0,6,6,119,1,,,,,,,,
,,,,,,,,,,,,,FF,,,,,,,,1.4492,,,,,,,,,,,,,,,,,,,,,,61032601dabc8bfe1409e7ac,61036b5ec5234f1187fb1c3d,2021-07-29_23h01.18.864,Simcolourproject_2stim_asymm_v5,2020.2.10,Win32,60,61025ae37ef11b136ea224fe,,,,,,,,,869,35,-103,1,0,0,response3disk,,4,7,12,1,0,0,rectangle,7,12,1,0,0,7,12,1,0,0,0,7,7,89,1,,,,,,,,
,,,,,,,,,,,,,FF,,,,,,,,1.7324,,,,,,,,,,,,,,,,,,,,,,61032601dabc8bfe1409e7ac,61036b5ec5234f1187fb1c3d,2021-07-29_23h01.18.864,Simcolourproject_2stim_asymm_v5,2020.2.10,Win32,60,61025ae37ef11b136ea224fe,,,,,,,,,3606,47,-115,1,0,0,response3disk,,4,6,-7,1,0,0,rectangle,6,-7,1,0,0,6,-7,1,0,0,0,8,8,149,1,,,,,,,,
,,,,,,,,,,,,,FF,,,,,,,,1.4498,,,,,,,,,,,,,,,,,,,,,,61032601dabc8bfe1409e7ac,61036b5ec5234f1187fb1c3d,2021-07-29_23h01.18.864,Simcolourproject_2stim_asymm_v5,2020.2.10,Win32,60,61025ae37ef11b136ea224fe,,,,,,,,,1261,90,-59,1,0,0,response3disk,,5,25,-3,1,0,0,rectangle,25,-3,1,0,0,25,-3,1,0,0,0,9,9,137,1,,,,,,,,
,,,,,,,,,,,,,FF,,,,,,,,1.7163,,,,,,,,,,,,,,,,,,,,,,61032601dabc8bfe1409e7ac,61036b5ec5234f1187fb1c3d,2021-07-29_23h01.18.864,Simcolourproject_2stim_asymm_v5,2020.2.10,Win32,60,61025ae37ef11b136ea224fe,,,,,,,,,1528,-59,-79,1,0,0,response5disk,,3,-9,0,1,0,0,rectangle,-9,0,1,0,0,-9,0,1,0,0,0,10,10,45,1,,,,,,,,
,,,,,,,,,,,,,FF,,,,,,,,1.3493,,,,,,,,,,,,,,,,,,,,,,61032601dabc8bfe1409e7ac,61036b5ec5234f1187fb1c3d,2021-07-29_23h01.18.864,Simcolourproject_2stim_asymm_v5,2020.2.10,Win32,60,61025ae37ef11b136ea224fe,,,,,,,,,575,58,-103,1,0,0,response3disk,,4,18,-7,1,0,0,rectangle,18,-7,1,0,0,18,-7,1,0,0,0,11,11,42,1,,,,,,,,
,,,,,,,,,,,,,FF,,,,,,,,1.4324,,,,,,,,,,,,,,,,,,,,,,61032601dabc8bfe1409e7ac,61036b5ec5234f1187fb1c3d,2021-07-29_23h01.18.864,Simcolourproject_2stim_asymm_v5,2020.2.10,Win32,60,61025ae37ef11b136ea224fe,,,,,,,,,3534,96,-58,1,0,0,response3disk,,5,-3,-4,1,0,0,rectangle,-3,-4,1,0,0,-3,-4,1,0,0,0,12,12,78,1,,,,,,,,
,,,,,,,,,,,,,FF,,,,,,,,1.3322,,,,,,,,,,,,,,,,,,,,,,61032601dabc8bfe1409e7ac,61036b5ec5234f1187fb1c3d,2021-07-29_23h01.18.864,Simcolourproject_2stim_asymm_v5,2020.2.10,Win32,60,61025ae37ef11b136ea224fe,,,,,,,,,2310,38,-89,1,0,0,response3disk,,4,3,-4,1,0,0,rectangle,3,-4,1,0,0,3,-4,1,0,0,0,13,13,98,1,,,,,,,,
,,,,,,,,,,,,,FF,,,,,,,,2.4631,,,,,,,,,,,,,,,,,,,,,,61032601dabc8bfe1409e7ac,61036b5ec5234f1187fb1c3d,2021-07-29_23h01.18.864,Simcolourproject_2stim_asymm_v5,2020.2.10,Win32,60,61025ae37ef11b136ea224fe,,,,,,,,,495,55,75,1,0,0,response1disk,,7,10,9,1,0,0,rectangle,10,9,1,0,0,10,9,1,0,0,0,14,14,65,1,,,,,,,,
,,,,,,,,,,,,,FF,,,,,,,,1.3827,,,,,,,,,,,,,,,,,,,,,,61032601dabc8bfe1409e7ac,61036b5ec5234f1187fb1c3d,2021-07-29_23h01.18.864,Simcolourproject_2stim_asymm_v5,2020.2.10,Win32,60,61025ae37ef11b136ea224fe,,,,,,,,,1339,84,34,1,0,0,response1disk,,6,26,-9,1,0,0,rectangle,26,-9,1,0,0,26,-9,1,0,0,0,15,15,107,1,,,,,,,,
,,,,,,,,,,,,,FF,,,,,,,,1.3827,,,,,,,,,,,,,,,,,,,,,,61032601dabc8bfe1409e7ac,61036b5ec5234f1187fb1c3d,2021-07-29_23h01.18.864,Simcolourproject_2stim_asymm_v5,2020.2.10,Win32,60,61025ae37ef11b136ea224fe,,,,,,,,,3554,38,-75,1,0,0,response3disk,,4,1,15,0,0,1,rectangle,1,15,0,0,1,1,15,0,0,1,0,16,16,5,1,,,,,,,,
,,,,,,,,,,,,,FF,,,,,,,,2.0197,,,,,,,,,,,,,,,,,,,,,,61032601dabc8bfe1409e7ac,61036b5ec5234f1187fb1c3d,2021-07-29_23h01.18.864,Simcolourproject_2stim_asymm_v5,2020.2.10,Win32,60,61025ae37ef11b136ea224fe,,,,,,,,,3822,-35,-80,1,0,1,response5disk,,3,10,2,1,0,1,rectangle,10,2,1,0,1,10,2,1,0,1,0,17,17,150,1,,,,,,,,
,,,,,,,,,,,,,FF,,,,,,,,2.516,,,,,,,,,,,,,,,,,,,,,,61032601dabc8bfe1409e7ac,61036b5ec5234f1187fb1c3d,2021-07-29_23h01.18.864,Simcolourproject_2stim_asymm_v5,2020.2.10,Win32,60,61025ae37ef11b136ea224fe,,,,,,,,,741,56,-81,1,0,1,response3disk,,4,22,-6,1,0,1,rectangle,22,-6,1,0,1,22,-6,1,0,1,0,18,18,135,1,,,,,,,,
,,,,,,,,,,,,,FF,,,,,,,,1.6148,,,,,,,,,,,,,,,,,,,,,,61032601dabc8bfe1409e7ac,61036b5ec5234f1187fb1c3d,2021-07-29_23h01.18.864,Simcolourproject_2stim_asymm_v5,2020.2.10,Win32,60,61025ae37ef11b136ea224fe,,,,,,,,,2699,63,96,1,0,1,response1disk,,7,5,2,1,0,1,rectangle,5,2,1,0,1,5,2,1,0,1,0,19,19,131,1,,,,,,,,
,,,,,,,,,,,,,FF,,,,,,,,1.732,,,,,,,,,,,,,,,,,,,,,,61032601dabc8bfe1409e7ac,61036b5ec5234f1187fb1c3d,2021-07-29_23h01.18.864,Simcolourproject_2stim_asymm_v5,2020.2.10,Win32,60,61025ae37ef11b136ea224fe,,,,,,,,,2629,-55,-98,1,0,1,response5disk,,3,-24,-4,1,0,1,rectangle,-24,-4,1,0,1,-24,-4,1,0,1,0,20,20,159,1,,,,,,,,
,,,,,,,,,,,,,FF,,,,,,,,1.8992,,,,,,,,,,,,,,,,,,,,,,61032601dabc8bfe1409e7ac,61036b5ec5234f1187fb1c3d,2021-07-29_23h01.18.864,Simcolourproject_2stim_asymm_v5,2020.2.10,Win32,60,61025ae37ef11b136ea224fe,,,,,,,,,3628,89,-69,1,0,1,response3disk,,5,4,-8,1,0,1,rectangle,4,-8,1,0,1,4,-8,1,0,1,0,21,21,32,1,,,,,,,,
,,,,,,,,,,,,,FF,,,,,,,,3.1454,,,,,,,,,,,,,,,,,,,,,,61032601dabc8bfe1409e7ac,61036b5ec5234f1187fb1c3d,2021-07-29_23h01.18.864,Simcolourproject_2stim_asymm_v5,2020.2.10,Win32,60,61025ae37ef11b136ea224fe,,,,,,,,,443,-24,110,1,0,1,response7disk,,0,11,2,1,0,1,rectangle,11,2,1,0,1,11,2,1,0,1,0,22,22,103,1,,,,,,,,
,,,,,,,,,,,,,FF,,,,,,,,1.3825,,,,,,,,,,,,,,,,,,,,,,61032601dabc8bfe1409e7ac,61036b5ec5234f1187fb1c3d,2021-07-29_23h01.18.864,Simcolourproject_2stim_asymm_v5,2020.2.10,Win32,60,61025ae37ef11b136ea224fe,,,,,,,,,2299,-71,-52,1,0,1,response5disk,,2,-21,-10,1,0,1,rectangle,-21,-10,1,0,1,-21,-10,1,0,1,0,23,23,87,1,,,,,,,,
,,,,,,,,,,,,,FF,,,,,,,,2.2324,,,,,,,,,,,,,,,,,,,,,,61032601dabc8bfe1409e7ac,61036b5ec5234f1187fb1c3d,2021-07-29_23h01.18.864,Simcolourproject_2stim_asymm_v5,2020.2.10,Win32,60,61025ae37ef11b136ea224fe,,,,,,,,,3523,85,-38,1,0,1,response3disk,,5,3,6,1,0,1,rectangle,3,6,1,0,1,3,6,1,0,1,0,24,24,57,1,,,,,,,,
,,,,,,,,,,,,,FF,,,,,,,,2.5819,,,,,,,,,,,,,,,,,,,,,,61032601dabc8bfe1409e7ac,61036b5ec5234f1187fb1c3d,2021-07-29_23h01.18.864,Simcolourproject_2stim_asymm_v5,2020.2.10,Win32,60,61025ae37ef11b136ea224fe,,,,,,,,,2227,-87,36,1,0,1,response7disk,,1,-14,-7,1,0,1,rectangle,-14,-7,1,0,1,-14,-7,1,0,1,0,25,25,13,1,,,,,,,,
,,,,,,,,,,,,,FF,,,,,,,,1.3521,,,,,,,,,,,,,,,,,,,,,,61032601dabc8bfe1409e7ac,61036b5ec5234f1187fb1c3d,2021-07-29_23h01.18.864,Simcolourproject_2stim_asymm_v5,2020.2.10,Win32,60,61025ae37ef11b136ea224fe,,,,,,,,,3179,84,34,1,0,1,response1disk,,6,19,-5,1,0,1,rectangle,19,-5,1,0,1,19,-5,1,0,1,0,26,26,83,1,,,,,,,,
,,,,,,,,,,,,,FF,,,,,,,,1.5492,,,,,,,,,,,,,,,,,,,,,,61032601dabc8bfe1409e7ac,61036b5ec5234f1187fb1c3d,2021-07-29_23h01.18.864,Simcolourproject_2stim_asymm_v5,2020.2.10,Win32,60,61025ae37ef11b136ea224fe,,,,,,,,,1046,97,-71,1,0,1,response3disk,,5,21,-12,1,0,1,rectangle,21,-12,1,0,1,21,-12,1,0,1,0,27,27,108,1,,,,,,,,
,,,,,,,,,,,,,FF,,,,,,,,3.165,,,,,,,,,,,,,,,,,,,,,,61032601dabc8bfe1409e7ac,61036b5ec5234f1187fb1c3d,2021-07-29_23h01.18.864,Simcolourproject_2stim_asymm_v5,2020.2.10,Win32,60,61025ae37ef11b136ea224fe,,,,,,,,,3315,76,99,1,0,1,response1disk,,7,-7,-8,1,0,1,rectangle,38,111,1,0,1,2,-1,1,0,1,0,28,28,6,1,,response1disk_3,TRUE,7,7,"[287,29,251,207,216,263,125,147,245,102,62,50,39,219,142,143,122,2,240,107]",1.7173,rectangle
,,,,,,,,,,,,,FF,,,,,,,,1.5828,,,,,,,,,,,,,,,,,,,,,,61032601dabc8bfe1409e7ac,61036b5ec5234f1187fb1c3d,2021-07-29_23h01.18.864,Simcolourproject_2stim_asymm_v5,2020.2.10,Win32,60,61025ae37ef11b136ea224fe,,,,,,,,,3810,-31,76,1,0,1,response7disk,,0,10,4,1,0,1,rectangle,10,4,1,0,1,10,4,1,0,1,0,29,29,140,1,,,,,,,,
,,,,,,,,,,,,,FF,,,,,,,,1.2836,,,,,,,,,,,,,,,,,,,,,,61032601dabc8bfe1409e7ac,61036b5ec5234f1187fb1c3d,2021-07-29_23h01.18.864,Simcolourproject_2stim_asymm_v5,2020.2.10,Win32,60,61025ae37ef11b136ea224fe,,,,,,,,,477,71,89,1,0,1,response1disk,,7,-17,-2,1,0,1,rectangle,-17,-2,1,0,1,-17,-2,1,0,1,0,30,30,151,1,,,,,,,,
,,,,,,,,,,,,,FF,,,,,,,,1.1999,,,,,,,,,,,,,,,,,,,,,,61032601dabc8bfe1409e7ac,61036b5ec5234f1187fb1c3d,2021-07-29_23h01.18.864,Simcolourproject_2stim_asymm_v5,2020.2.10,Win32,60,61025ae37ef11b136ea224fe,,,,,,,,,1417,84,-58,1,0,1,response3disk,,5,16,-1,1,0,1,rectangle,16,-1,1,0,1,16,-1,1,0,1,0,31,31,153,1,,,,,,,,
,,,,,,,,,,,,,FF,,,,,,,,1.0997,,,,,,,,,,,,,,,,,,,,,,61032601dabc8bfe1409e7ac,61036b5ec5234f1187fb1c3d,2021-07-29_23h01.18.864,Simcolourproject_2stim_asymm_v5,2020.2.10,Win32,60,61025ae37ef11b136ea224fe,,,,,,,,,1783,110,-69,1,0,1,response3disk,,5,2,2,1,0,1,rectangle,2,2,1,0,1,2,2,1,0,1,0,32,32,35,1,,,,,,,,
,,,,,,,,,,,,,FF,,,,,,,,2.5492,,,,,,,,,,,,,,,,,,,,,,61032601dabc8bfe1409e7ac,61036b5ec5234f1187fb1c3d,2021-07-29_23h01.18.864,Simcolourproject_2stim_asymm_v5,2020.2.10,Win32,60,61025ae37ef11b136ea224fe,,,,,,,,,2114,42,-103,1,0,1,response3disk,,4,19,-11,1,0,1,rectangle,19,-11,1,0,1,19,-11,1,0,1,0,33,33,133,1,,,,,,,,
,,,,,,,,,,,,,FF,,,,,,,,1.6203,,,,,,,,,,,,,,,,,,,,,,61032601dabc8bfe1409e7ac,61036b5ec5234f1187fb1c3d,2021-07-29_23h01.18.864,Simcolourproject_2stim_asymm_v5,2020.2.10,Win32,60,61025ae37ef11b136ea224fe,,,,,,,,,2638,46,83,1,0,1,response1disk,,7,10,7,1,0,1,rectangle,10,7,1,0,1,10,7,1,0,1,0,34,34,14,1,,,,,,,,
,,,,,,,,,,,,,FF,,,,,,,,1.5992,,,,,,,,,,,,,,,,,,,,,,61032601dabc8bfe1409e7ac,61036b5ec5234f1187fb1c3d,2021-07-29_23h01.18.864,Simcolourproject_2stim_asymm_v5,2020.2.10,Win32,60,61025ae37ef11b136ea224fe,,,,,,,,,3313,112,65,1,0,1,response1disk,,6,3,3,1,0,1,rectangle,3,3,1,0,1,3,3,1,0,1,0,35,35,64,1,,,,,,,,
,,,,,,,,,,,,,FF,,,,,,,,1.4658,,,,,,,,,,,,,,,,,,,,,,61032601dabc8bfe1409e7ac,61036b5ec5234f1187fb1c3d,2021-07-29_23h01.18.864,Simcolourproject_2stim_asymm_v5,2020.2.10,Win32,60,61025ae37ef11b136ea224fe,,,,,,,,,1860,58,74,1,0,1,response1disk,,7,18,-1,1,0,1,rectangle,18,-1,1,0,1,18,-1,1,0,1,0,36,36,12,1,,,,,,,,
,,,,,,,,,,,,,FF,,,,,,,,1.1494,,,,,,,,,,,,,,,,,,,,,,61032601dabc8bfe1409e7ac,61036b5ec5234f1187fb1c3d,2021-07-29_23h01.18.864,Simcolourproject_2stim_asymm_v5,2020.2.10,Win32,60,61025ae37ef11b136ea224fe,,,,,,,,,2564,40,79,1,0,1,response1disk,,7,2,-4,1,0,1,rectangle,2,-4,1,0,1,2,-4,1,0,1,0,37,37,105,1,,,,,,,,
,,,,,,,,,,,,,FF,,,,,,,,1.4159,,,,,,,,,,,,,,,,,,,,,,61032601dabc8bfe1409e7ac,61036b5ec5234f1187fb1c3d,2021-07-29_23h01.18.864,Simcolourproject_2stim_asymm_v5,2020.2.10,Win32,60,61025ae37ef11b136ea224fe,,,,,,,,,1838,91,-63,1,0,1,response3disk,,5,25,-8,1,0,1,rectangle,-35,-99,1,0,1,3,-1,1,0,1,0,38,38,80,1,,response5disk_3,TRUE,3,3,"[287,29,251,207,216,263,125,147,245,102,62,50,39,219,142,143,122,2,240,107]",2.1814,rectangle
,,,,,,,,,,,,,FF,,,,,,,,1.1829,,,,,,,,,,,,,,,,,,,,,,61032601dabc8bfe1409e7ac,61036b5ec5234f1187fb1c3d,2021-07-29_23h01.18.864,Simcolourproject_2stim_asymm_v5,2020.2.10,Win32,60,61025ae37ef11b136ea224fe,,,,,,,,,21,109,78,1,0,1,response1disk,,6,-8,10,1,0,1,rectangle,-8,10,1,0,1,-8,10,1,0,1,0,39,39,134,1,,,,,,,,
,,,,,,,,,,,,,FF,,,,,,,,1.1656,,,,,,,,,,,,,,,,,,,,,,61032601dabc8bfe1409e7ac,61036b5ec5234f1187fb1c3d,2021-07-29_23h01.18.864,Simcolourproject_2stim_asymm_v5,2020.2.10,Win32,60,61025ae37ef11b136ea224fe,,,,,,,,,2198,84,30,1,0,1,response1disk,,6,-4,5,1,0,0,rectangle,-4,5,1,0,0,-4,5,1,0,0,0,40,40,17,1,,,,,,,,
,,,,,,,,,,,,,FF,,,,,,,,1.3514,,,,,,,,,,,,,,,,,,,,,,61032601dabc8bfe1409e7ac,61036b5ec5234f1187fb1c3d,2021-07-29_23h01.18.864,Simcolourproject_2stim_asymm_v5,2020.2.10,Win32,60,61025ae37ef11b136ea224fe,,,,,,,,,1041,87,47,1,0,0,response1disk,,6,-9,4,1,0,0,rectangle,-9,4,1,0,0,-9,4,1,0,0,0,41,41,52,1,,,,,,,,
,,,,,,,,,,,,,FF,,,,,,,,1.6481,,,,,,,,,,,,,,,,,,,,,,61032601dabc8bfe1409e7ac,61036b5ec5234f1187fb1c3d,2021-07-29_23h01.18.864,Simcolourproject_2stim_asymm_v5,2020.2.10,Win32,60,61025ae37ef11b136ea224fe,,,,,,,,,533,-85,38,1,0,0,response7disk,,1,-25,8,1,0,0,rectangle,-25,8,1,0,0,-25,8,1,0,0,0,42,42,56,1,,,,,,,,
,,,,,,,,,,,,,FF,,,,,,,,2.6984,,,,,,,,,,,,,,,,,,,,,,61032601dabc8bfe1409e7ac,61036b5ec5234f1187fb1c3d,2021-07-29_23h01.18.864,Simcolourproject_2stim_asymm_v5,2020.2.10,Win32,60,61025ae37ef11b136ea224fe,,,,,,,,,680,86,-92,1,0,0,response3disk,,4,13,14,1,0,0,rectangle,13,14,1,0,0,13,14,1,0,0,0,43,43,44,1,,,,,,,,
,,,,,,,,,,,,,FF,,,,,,,,1.2658,,,,,,,,,,,,,,,,,,,,,,61032601dabc8bfe1409e7ac,61036b5ec5234f1187fb1c3d,2021-07-29_23h01.18.864,Simcolourproject_2stim_asymm_v5,2020.2.10,Win32,60,61025ae37ef11b136ea224fe,,,,,,,,,505,106,52,1,0,0,response1disk,,6,20,5,1,0,0,rectangle,20,5,1,0,0,20,5,1,0,0,0,44,44,152,1,,,,,,,,
,,,,,,,,,,,,,FF,,,,,,,,4.2143,,,,,,,,,,,,,,,,,,,,,,61032601dabc8bfe1409e7ac,61036b5ec5234f1187fb1c3d,2021-07-29_23h01.18.864,Simcolourproject_2stim_asymm_v5,2020.2.10,Win32,60,61025ae37ef11b136ea224fe,,,,,,,,,538,35,74,1,0,0,response1disk,,7,15,10,1,0,0,rectangle,15,10,1,0,0,15,10,1,0,0,0,45,45,18,1,,,,,,,,
,,,,,,,,,,,,,FF,,,,,,,,2.1816,,,,,,,,,,,,,,,,,,,,,,61032601dabc8bfe1409e7ac,61036b5ec5234f1187fb1c3d,2021-07-29_23h01.18.864,Simcolourproject_2stim_asymm_v5,2020.2.10,Win32,60,61025ae37ef11b136ea224fe,,,,,,,,,2441,53,-95,1,0,0,response3disk,,4,-4,0,1,0,0,rectangle,-4,0,1,0,0,-4,0,1,0,0,0,46,46,145,1,,,,,,,,
,,,,,,,,,,,,,FF,,,,,,,,2.965,,,,,,,,,,,,,,,,,,,,,,61032601dabc8bfe1409e7ac,61036b5ec5234f1187fb1c3d,2021-07-29_23h01.18.864,Simcolourproject_2stim_asymm_v5,2020.2.10,Win32,60,61025ae37ef11b136ea224fe,,,,,,,,,2917,89,33,1,0,0,response1disk,,6,21,-4,1,0,0,rectangle,21,-4,1,0,0,21,-4,1,0,0,0,47,47,142,1,,,,,,,,
,,,,,,,,,,,,,FF,,,,,,,,1.216,,,,,,,,,,,,,,,,,,,,,,61032601dabc8bfe1409e7ac,61036b5ec5234f1187fb1c3d,2021-07-29_23h01.18.864,Simcolourproject_2stim_asymm_v5,2020.2.10,Win32,60,61025ae37ef11b136ea224fe,,,,,,,,,1797,74,56,1,0,0,response1disk,,6,-16,-15,1,0,0,rectangle,-16,-15,1,0,0,-16,-15,1,0,0,0,48,48,26,1,,,,,,,,
,,,,,,,,,,,,,FF,,,,,,,,2.1823,,,,,,,,,,,,,,,,,,,,,,61032601dabc8bfe1409e7ac,61036b5ec5234f1187fb1c3d,2021-07-29_23h01.18.864,Simcolourproject_2stim_asymm_v5,2020.2.10,Win32,60,61025ae37ef11b136ea224fe,,,,,,,,,1738,68,124,1,0,0,response1disk,,7,-1,12,1,0,0,rectangle,63,-83,1,0,0,5,6,1,0,0,0,49,49,112,1,,response3disk_3,TRUE,4,4,"[287,29,251,207,216,263,125,147,245,102,62,50,39,219,142,143,122,2,240,107]",2.2649,rectangle
,,,,,,,,,,,,,FF,,,,,,,,9.411,,,,,,,,,,,,,,,,,,,,,,61032601dabc8bfe1409e7ac,61036b5ec5234f1187fb1c3d,2021-07-29_23h01.18.864,Simcolourproject_2stim_asymm_v5,2020.2.10,Win32,60,61025ae37ef11b136ea224fe,,,,,,,,,2639,89,45,1,0,0,response1disk,,6,10,-2,1,0,0,rectangle,10,-2,1,0,0,10,-2,1,0,0,0,50,50,50,1,,,,,,,,
,,,,,,,,,,,,,FF,,,,,,,,1.1314,,,,,,,,,,,,,,,,,,,,,,61032601dabc8bfe1409e7ac,61036b5ec5234f1187fb1c3d,2021-07-29_23h01.18.864,Simcolourproject_2stim_asymm_v5,2020.2.10,Win32,60,61025ae37ef11b136ea224fe,,,,,,,,,238,84,-49,1,0,0,response3disk,,5,7,-2,1,0,0,rectangle,7,-2,1,0,0,7,-2,1,0,0,0,51,51,73,1,,,,,,,,
,,,,,,,,,,,,,FF,,,,,,,,6.9461,,,,,,,,,,,,,,,,,,,,,,61032601dabc8bfe1409e7ac,61036b5ec5234f1187fb1c3d,2021-07-29_23h01.18.864,Simcolourproject_2stim_asymm_v5,2020.2.10,Win32,60,61025ae37ef11b136ea224fe,,,,,,,,,894,-46,31,1,0,0,response7disk,,1,-13,-6,1,0,0,rectangle,-13,-6,1,0,0,-13,-6,1,0,0,0,52,52,115,1,,,,,,,,
,,,,,,,,,,,,,FF,,,,,,,,1.4659,,,,,,,,,,,,,,,,,,,,,,61032601dabc8bfe1409e7ac,61036b5ec5234f1187fb1c3d,2021-07-29_23h01.18.864,Simcolourproject_2stim_asymm_v5,2020.2.10,Win32,60,61025ae37ef11b136ea224fe,,,,,,,,,770,64,-37,1,0,0,response3disk,,5,1,2,1,0,0,rectangle,1,2,1,0,0,1,2,1,0,0,0,53,53,109,1,,,,,,,,
,,,,,,,,,,,,,FF,,,,,,,,2.1158,,,,,,,,,,,,,,,,,,,,,,61032601dabc8bfe1409e7ac,61036b5ec5234f1187fb1c3d,2021-07-29_23h01.18.864,Simcolourproject_2stim_asymm_v5,2020.2.10,Win32,60,61025ae37ef11b136ea224fe,,,,,,,,,1884,94,55,1,0,0,response1disk,,6,7,-4,1,0,0,rectangle,7,-4,1,0,0,7,-4,1,0,0,0,54,54,124,1,,,,,,,,
,,,,,,,,,,,,,FF,,,,,,,,1.9821,,,,,,,,,,,,,,,,,,,,,,61032601dabc8bfe1409e7ac,61036b5ec5234f1187fb1c3d,2021-07-29_23h01.18.864,Simcolourproject_2stim_asymm_v5,2020.2.10,Win32,60,61025ae37ef11b136ea224fe,,,,,,,,,1540,82,-56,1,0,0,response3disk,,5,1,0,1,0,0,rectangle,1,0,1,0,0,1,0,1,0,0,0,55,55,10,1,,,,,,,,
,,,,,,,,,,,,,FF,,,,,,,,2.349,,,,,,,,,,,,,,,,,,,,,,61032601dabc8bfe1409e7ac,61036b5ec5234f1187fb1c3d,2021-07-29_23h01.18.864,Simcolourproject_2stim_asymm_v5,2020.2.10,Win32,60,61025ae37ef11b136ea224fe,,,,,,,,,2755,-39,-77,1,0,0,response5disk,,3,-17,3,1,0,0,rectangle,-17,3,1,0,0,-17,3,1,0,0,0,56,56,27,1,,,,,,,,
,,,,,,,,,,,,,FF,,,,,,,,1.6999,,,,,,,,,,,,,,,,,,,,,,61032601dabc8bfe1409e7ac,61036b5ec5234f1187fb1c3d,2021-07-29_23h01.18.864,Simcolourproject_2stim_asymm_v5,2020.2.10,Win32,60,61025ae37ef11b136ea224fe,,,,,,,,,931,51,79,1,0,0,response1disk,,7,6,-14,1,0,0,rectangle,6,-14,1,0,0,6,-14,1,0,0,0,57,57,34,1,,,,,,,,
,,,,,,,,,,,,,FF,,,,,,,,1.1994,,,,,,,,,,,,,,,,,,,,,,61032601dabc8bfe1409e7ac,61036b5ec5234f1187fb1c3d,2021-07-29_23h01.18.864,Simcolourproject_2stim_asymm_v5,2020.2.10,Win32,60,61025ae37ef11b136ea224fe,,,,,,,,,282,90,35,1,0,0,response1disk,,6,-7,7,1,0,0,rectangle,-7,7,1,0,0,-7,7,1,0,0,0,58,58,49,1,,,,,,,,
,,,,,,,,,,,,,FF,,,,,,,,2.0158,,,,,,,,,,,,,,,,,,,,,,61032601dabc8bfe1409e7ac,61036b5ec5234f1187fb1c3d,2021-07-29_23h01.18.864,Simcolourproject_2stim_asymm_v5,2020.2.10,Win32,60,61025ae37ef11b136ea224fe,,,,,,,,,3252,-72,-38,1,0,0,response5disk,,2,3,16,1,0,0,rectangle,3,16,1,0,0,3,16,1,0,0,0,59,59,76,1,,,,,,,,
,,,,,,,,,,,,,FF,,,,,,,,2.6985,,,,,,,,,,,,,,,,,,,,,,61032601dabc8bfe1409e7ac,61036b5ec5234f1187fb1c3d,2021-07-29_23h01.18.864,Simcolourproject_2stim_asymm_v5,2020.2.10,Win32,60,61025ae37ef11b136ea224fe,,,,,,,,,877,82,40,1,0,0,response1disk,,6,-16,4,1,0,0,rectangle,-16,4,1,0,0,-16,4,1,0,0,0,60,60,51,1,,,,,,,,
,,,,,,,,,,,,,FF,,,,,,,,2.4155,,,,,,,,,,,,,,,,,,,,,,61032601dabc8bfe1409e7ac,61036b5ec5234f1187fb1c3d,2021-07-29_23h01.18.864,Simcolourproject_2stim_asymm_v5,2020.2.10,Win32,60,61025ae37ef11b136ea224fe,,,,,,,,,1940,110,-75,1,0,0,response3disk,,5,17,-7,1,0,0,rectangle,76,-63,1,0,0,-11,8,1,0,0,0,61,61,90,1,,response3disk_3,TRUE,5,5,"[287,29,251,207,216,263,125,147,245,102,62,50,39,219,142,143,122,2,240,107]",1.8816,rectangle
,,,,,,,,,,,,,FF,,,,,,,,1.8522,,,,,,,,,,,,,,,,,,,,,,61032601dabc8bfe1409e7ac,61036b5ec5234f1187fb1c3d,2021-07-29_23h01.18.864,Simcolourproject_2stim_asymm_v5,2020.2.10,Win32,60,61025ae37ef11b136ea224fe,,,,,,,,,2963,-74,-72,1,0,0,response5disk,,2,12,5,1,0,0,rectangle,12,5,1,0,0,12,5,1,0,0,0,62,62,136,1,,,,,,,,
,,,,,,,,,,,,,FF,,,,,,,,1.1811,,,,,,,,,,,,,,,,,,,,,,61032601dabc8bfe1409e7ac,61036b5ec5234f1187fb1c3d,2021-07-29_23h01.18.864,Simcolourproject_2stim_asymm_v5,2020.2.10,Win32,60,61025ae37ef11b136ea224fe,,,,,,,,,2339,80,-43,1,0,0,response3disk,,5,4,-1,1,0,0,rectangle,4,-1,1,0,0,4,-1,1,0,0,0,63,63,70,1,,,,,,,,
,,,,,,,,,,,,,FF,,,,,,,,0.9994,,,,,,,,,,,,,,,,,,,,,,61032601dabc8bfe1409e7ac,61036b5ec5234f1187fb1c3d,2021-07-29_23h01.18.864,Simcolourproject_2stim_asymm_v5,2020.2.10,Win32,60,61025ae37ef11b136ea224fe,,,,,,,,,3547,105,34,1,0,0,response1disk,,6,7,2,1,0,0,rectangle,7,2,1,0,0,7,2,1,0,0,0,64,64,79,1,,,,,,,,
,,,,,,,,,,,,,FF,,,,,,,,1.2493,,,,,,,,,,,,,,,,,,,,,,61032601dabc8bfe1409e7ac,61036b5ec5234f1187fb1c3d,2021-07-29_23h01.18.864,Simcolourproject_2stim_asymm_v5,2020.2.10,Win32,60,61025ae37ef11b136ea224fe,,,,,,,,,3591,-76,39,1,0,0,response7disk,,1,2,2,1,0,0,rectangle,2,2,1,0,0,2,2,1,0,0,0,65,65,1,1,,,,,,,,
,,,,,,,,,,,,,FF,,,,,,,,2.1988,,,,,,,,,,,,,,,,,,,,,,61032601dabc8bfe1409e7ac,61036b5ec5234f1187fb1c3d,2021-07-29_23h01.18.864,Simcolourproject_2stim_asymm_v5,2020.2.10,Win32,60,61025ae37ef11b136ea224fe,,,,,,,,,1890,57,-80,1,0,0,response3disk,,4,9,-2,1,0,0,rectangle,9,-2,1,0,0,9,-2,1,0,0,0,66,66,111,1,,,,,,,,
,,,,,,,,,,,,,FF,,,,,,,,1.0158,,,,,,,,,,,,,,,,,,,,,,61032601dabc8bfe1409e7ac,61036b5ec5234f1187fb1c3d,2021-07-29_23h01.18.864,Simcolourproject_2stim_asymm_v5,2020.2.10,Win32,60,61025ae37ef11b136ea224fe,,,,,,,,,537,85,43,1,0,0,response1disk,,6,7,4,1,0,0,rectangle,7,4,1,0,0,7,4,1,0,0,0,67,67,58,1,,,,,,,,
,,,,,,,,,,,,,FF,,,,,,,,2.5819,,,,,,,,,,,,,,,,,,,,,,61032601dabc8bfe1409e7ac,61036b5ec5234f1187fb1c3d,2021-07-29_23h01.18.864,Simcolourproject_2stim_asymm_v5,2020.2.10,Win32,60,61025ae37ef11b136ea224fe,,,,,,,,,368,-87,-45,1,0,0,response5disk,,2,-12,1,1,0,0,rectangle,-12,1,1,0,0,-12,1,1,0,0,0,68,68,110,1,,,,,,,,
,,,,,,,,,,,,,FF,,,,,,,,1.0663,,,,,,,,,,,,,,,,,,,,,,61032601dabc8bfe1409e7ac,61036b5ec5234f1187fb1c3d,2021-07-29_23h01.18.864,Simcolourproject_2stim_asymm_v5,2020.2.10,Win32,60,61025ae37ef11b136ea224fe,,,,,,,,,2732,89,49,1,0,0,response1disk,,6,-4,7,1,0,0,rectangle,-4,7,1,0,0,-4,7,1,0,0,0,69,69,63,1,,,,,,,,
,,,,,,,,,,,,,FF,,,,,,,,1.5657,,,,,,,,,,,,,,,,,,,,,,61032601dabc8bfe1409e7ac,61036b5ec5234f1187fb1c3d,2021-07-29_23h01.18.864,Simcolourproject_2stim_asymm_v5,2020.2.10,Win32,60,61025ae37ef11b136ea224fe,,,,,,,,,1465,66,-36,1,0,0,response3disk,,5,10,2,1,0,0,rectangle,10,2,1,0,0,10,2,1,0,0,0,70,70,61,1,,,,,,,,
,,,,,,,,,,,,,FF,,,,,,,,1.0665,,,,,,,,,,,,,,,,,,,,,,61032601dabc8bfe1409e7ac,61036b5ec5234f1187fb1c3d,2021-07-29_23h01.18.864,Simcolourproject_2stim_asymm_v5,2020.2.10,Win32,60,61025ae37ef11b136ea224fe,,,,,,,,,3110,103,-55,1,0,0,response3disk,,5,0,9,1,0,0,rectangle,0,9,1,0,0,0,9,1,0,0,0,71,71,114,1,,,,,,,,
,,,,,,,,,,,,,FF,,,,,,,,2.4986,,,,,,,,,,,,,,,,,,,,,,61032601dabc8bfe1409e7ac,61036b5ec5234f1187fb1c3d,2021-07-29_23h01.18.864,Simcolourproject_2stim_asymm_v5,2020.2.10,Win32,60,61025ae37ef11b136ea224fe,,,,,,,,,2136,51,51,1,0,0,response1disk,,7,-2,8,1,0,0,rectangle,-2,8,1,0,0,-2,8,1,0,0,0,72,72,55,1,,,,,,,,
,,,,,,,,,,,,,FF,,,,,,,,1.6157,,,,,,,,,,,,,,,,,,,,,,61032601dabc8bfe1409e7ac,61036b5ec5234f1187fb1c3d,2021-07-29_23h01.18.864,Simcolourproject_2stim_asymm_v5,2020.2.10,Win32,60,61025ae37ef11b136ea224fe,,,,,,,,,3819,-42,-79,1,0,0,response5disk,,3,-26,-3,1,0,0,rectangle,-26,-3,1,0,0,-26,-3,1,0,0,0,73,73,15,1,,,,,,,,
,,,,,,,,,,,,,FF,,,,,,,,1.4993,,,,,,,,,,,,,,,,,,,,,,61032601dabc8bfe1409e7ac,61036b5ec5234f1187fb1c3d,2021-07-29_23h01.18.864,Simcolourproject_2stim_asymm_v5,2020.2.10,Win32,60,61025ae37ef11b136ea224fe,,,,,,,,,370,58,-42,1,0,0,response3disk,,5,17,-11,1,0,0,rectangle,17,-11,1,0,0,17,-11,1,0,0,0,74,74,155,1,,,,,,,,
,,,,,,,,,,,,,FF,,,,,,,,1.0326,,,,,,,,,,,,,,,,,,,,,,61032601dabc8bfe1409e7ac,61036b5ec5234f1187fb1c3d,2021-07-29_23h01.18.864,Simcolourproject_2stim_asymm_v5,2020.2.10,Win32,60,61025ae37ef11b136ea224fe,,,,,,,,,1007,56,-88,1,0,0,response3disk,,4,21,-10,1,0,0,rectangle,21,-10,1,0,0,21,-10,1,0,0,0,75,75,0,1,,,,,,,,
,,,,,,,,,,,,,FF,,,,,,,,1.0344,,,,,,,,,,,,,,,,,,,,,,61032601dabc8bfe1409e7ac,61036b5ec5234f1187fb1c3d,2021-07-29_23h01.18.864,Simcolourproject_2stim_asymm_v5,2020.2.10,Win32,60,61025ae37ef11b136ea224fe,,,,,,,,,2818,87,-41,1,0,0,response3disk,,5,26,-3,1,0,0,rectangle,26,-3,1,0,0,26,-3,1,0,0,0,76,76,95,1,,,,,,,,
,,,,,,,,,,,,,FF,,,,,,,,0.8495,,,,,,,,,,,,,,,,,,,,,,61032601dabc8bfe1409e7ac,61036b5ec5234f1187fb1c3d,2021-07-29_23h01.18.864,Simcolourproject_2stim_asymm_v5,2020.2.10,Win32,60,61025ae37ef11b136ea224fe,,,,,,,,,1393,91,-47,1,0,0,response3disk,,5,11,4,1,0,0,rectangle,11,4,1,0,0,11,4,1,0,0,0,77,77,30,1,,,,,,,,
,,,,,,,,,,,,,FF,,,,,,,,0.8515,,,,,,,,,,,,,,,,,,,,,,61032601dabc8bfe1409e7ac,61036b5ec5234f1187fb1c3d,2021-07-29_23h01.18.864,Simcolourproject_2stim_asymm_v5,2020.2.10,Win32,60,61025ae37ef11b136ea224fe,,,,,,,,,4088,91,35,1,0,0,response1disk,,6,1,-2,1,0,0,rectangle,1,-2,1,0,0,1,-2,1,0,0,0,78,78,130,1,,,,,,,,
,,,,,,,,,,,,,FF,,,,,,,,0.7824,,,,,,,,,,,,,,,,,,,,,,61032601dabc8bfe1409e7ac,61036b5ec5234f1187fb1c3d,2021-07-29_23h01.18.864,Simcolourproject_2stim_asymm_v5,2020.2.10,Win32,60,61025ae37ef11b136ea224fe,,,,,,,,,2930,109,31,1,0,0,response1disk,,6,21,12,1,0,0,rectangle,21,12,1,0,0,21,12,1,0,0,0,79,79,77,1,,,,,,,,
,,,,,,,,,,,,,FF,,,,,,,,0.7513,,,,,,,,,,,,,,,,,,,,,,61032601dabc8bfe1409e7ac,61036b5ec5234f1187fb1c3d,2021-07-29_23h01.18.864,Simcolourproject_2stim_asymm_v5,2020.2.10,Win32,60,61025ae37ef11b136ea224fe,,,,,,,,,1169,75,-57,1,0,0,response3disk,,5,-11,7,1,0,0,rectangle,-11,7,1,0,0,-11,7,1,0,0,0,80,80,139,1,,,,,,,,
,,,,,,,,,,,,,FF,,,,,,,,0.8187,,,,,,,,,,,,,,,,,,,,,,61032601dabc8bfe1409e7ac,61036b5ec5234f1187fb1c3d,2021-07-29_23h01.18.864,Simcolourproject_2stim_asymm_v5,2020.2.10,Win32,60,61025ae37ef11b136ea224fe,,,,,,,,,926,73,30,1,0,0,response1disk,,6,-5,12,1,0,0,rectangle,-5,12,1,0,0,-5,12,1,0,0,0,81,81,3,1,,,,,,,,
,,,,,,,,,,,,,FF,,,,,,,,2.0821,,,,,,,,,,,,,,,,,,,,,,61032601dabc8bfe1409e7ac,61036b5ec5234f1187fb1c3d,2021-07-29_23h01.18.864,Simcolourproject_2stim_asymm_v5,2020.2.10,Win32,60,61025ae37ef11b136ea224fe,,,,,,,,,908,96,-48,1,0,0,response3disk,,5,24,1,1,0,0,rectangle,24,1,1,0,0,24,1,1,0,0,0,82,82,100,1,,,,,,,,
,,,,,,,,,,,,,FF,,,,,,,,1.2158,,,,,,,,,,,,,,,,,,,,,,61032601dabc8bfe1409e7ac,61036b5ec5234f1187fb1c3d,2021-07-29_23h01.18.864,Simcolourproject_2stim_asymm_v5,2020.2.10,Win32,60,61025ae37ef11b136ea224fe,,,,,,,,,269,75,32,1,0,0,response1disk,,6,13,3,1,0,0,rectangle,13,3,1,0,0,13,3,1,0,0,0,83,83,68,1,,,,,,,,
,,,,,,,,,,,,,FF,,,,,,,,1.7666,,,,,,,,,,,,,,,,,,,,,,61032601dabc8bfe1409e7ac,61036b5ec5234f1187fb1c3d,2021-07-29_23h01.18.864,Simcolourproject_2stim_asymm_v5,2020.2.10,Win32,60,61025ae37ef11b136ea224fe,,,,,,,,,1960,-73,-39,1,0,0,response5disk,,2,-6,0,1,0,0,rectangle,-6,0,1,0,0,-6,0,1,0,0,0,84,84,113,1,,,,,,,,
,,,,,,,,,,,,,FF,,,,,,,,1.066,,,,,,,,,,,,,,,,,,,,,,61032601dabc8bfe1409e7ac,61036b5ec5234f1187fb1c3d,2021-07-29_23h01.18.864,Simcolourproject_2stim_asymm_v5,2020.2.10,Win32,60,61025ae37ef11b136ea224fe,,,,,,,,,1910,64,-84,1,0,0,response3disk,,4,21,8,1,0,0,rectangle,21,8,1,0,0,21,8,1,0,0,0,85,85,101,1,,,,,,,,
,,,,,,,,,,,,,FF,,,,,,,,0.8161,,,,,,,,,,,,,,,,,,,,,,61032601dabc8bfe1409e7ac,61036b5ec5234f1187fb1c3d,2021-07-29_23h01.18.864,Simcolourproject_2stim_asymm_v5,2020.2.10,Win32,60,61025ae37ef11b136ea224fe,,,,,,,,,4198,73,33,1,0,0,response1disk,,6,-8,-7,1,0,0,rectangle,-8,-7,1,0,0,-8,-7,1,0,0,0,86,86,74,1,,,,,,,,
,,,,,,,,,,,,,FF,,,,,,,,1.384,,,,,,,,,,,,,,,,,,,,,,61032601dabc8bfe1409e7ac,61036b5ec5234f1187fb1c3d,2021-07-29_23h01.18.864,Simcolourproject_2stim_asymm_v5,2020.2.10,Win32,60,61025ae37ef11b136ea224fe,,,,,,,,,129,56,-32,1,0,0,response3disk,,5,5,6,1,0,0,rectangle,5,6,1,0,0,5,6,1,0,0,0,87,87,4,1,,,,,,,,
,,,,,,,,,,,,,FF,,,,,,,,1.4327,,,,,,,,,,,,,,,,,,,,,,61032601dabc8bfe1409e7ac,61036b5ec5234f1187fb1c3d,2021-07-29_23h01.18.864,Simcolourproject_2stim_asymm_v5,2020.2.10,Win32,60,61025ae37ef11b136ea224fe,,,,,,,,,1200,48,90,1,0,0,response1disk,,7,9,3,1,0,0,rectangle,9,3,1,0,0,9,3,1,0,0,0,88,88,158,1,,,,,,,,
,,,,,,,,,,,,,FF,,,,,,,,1.5825,,,,,,,,,,,,,,,,,,,,,,61032601dabc8bfe1409e7ac,61036b5ec5234f1187fb1c3d,2021-07-29_23h01.18.864,Simcolourproject_2stim_asymm_v5,2020.2.10,Win32,60,61025ae37ef11b136ea224fe,,,,,,,,,3308,77,45,1,0,0,response1disk,,6,6,4,1,0,0,rectangle,6,4,1,0,0,6,4,1,0,0,0,89,89,60,1,,,,,,,,
,,,,,,,,,,,,,FF,,,,,,,,0.9325,,,,,,,,,,,,,,,,,,,,,,61032601dabc8bfe1409e7ac,61036b5ec5234f1187fb1c3d,2021-07-29_23h01.18.864,Simcolourproject_2stim_asymm_v5,2020.2.10,Win32,60,61025ae37ef11b136ea224fe,,,,,,,,,3314,71,41,1,0,0,response1disk,,6,11,11,1,0,0,rectangle,11,11,1,0,0,11,11,1,0,0,0,90,90,84,1,,,,,,,,
,,,,,,,,,,,,,FF,,,,,,,,1.2993,,,,,,,,,,,,,,,,,,,,,,61032601dabc8bfe1409e7ac,61036b5ec5234f1187fb1c3d,2021-07-29_23h01.18.864,Simcolourproject_2stim_asymm_v5,2020.2.10,Win32,60,61025ae37ef11b136ea224fe,,,,,,,,,1563,60,87,1,0,0,response1disk,,7,14,-11,1,0,0,rectangle,14,-11,1,0,0,14,-11,1,0,0,0,91,91,129,1,,,,,,,,
,,,,,,,,,,,,,FF,,,,,,,,1.5329,,,,,,,,,,,,,,,,,,,,,,61032601dabc8bfe1409e7ac,61036b5ec5234f1187fb1c3d,2021-07-29_23h01.18.864,Simcolourproject_2stim_asymm_v5,2020.2.10,Win32,60,61025ae37ef11b136ea224fe,,,,,,,,,665,47,94,1,0,0,response1disk,,7,6,10,1,0,0,rectangle,6,10,1,0,0,6,10,1,0,0,0,92,92,53,1,,,,,,,,
,,,,,,,,,,,,,FF,,,,,,,,1.3655,,,,,,,,,,,,,,,,,,,,,,61032601dabc8bfe1409e7ac,61036b5ec5234f1187fb1c3d,2021-07-29_23h01.18.864,Simcolourproject_2stim_asymm_v5,2020.2.10,Win32,60,61025ae37ef11b136ea224fe,,,,,,,,,2968,41,48,1,0,0,response1disk,,7,-1,-10,1,0,0,rectangle,-1,-10,1,0,0,-1,-10,1,0,0,0,93,93,102,1,,,,,,,,
,,,,,,,,,,,,,FF,,,,,,,,0.9997,,,,,,,,,,,,,,,,,,,,,,61032601dabc8bfe1409e7ac,61036b5ec5234f1187fb1c3d,2021-07-29_23h01.18.864,Simcolourproject_2stim_asymm_v5,2020.2.10,Win32,60,61025ae37ef11b136ea224fe,,,,,,,,,1395,66,95,1,0,0,response1disk,,7,15,-3,1,0,0,rectangle,15,-3,1,0,0,15,-3,1,0,0,0,94,94,156,1,,,,,,,,
,,,,,,,,,,,,,FF,,,,,,,,1.4328,,,,,,,,,,,,,,,,,,,,,,61032601dabc8bfe1409e7ac,61036b5ec5234f1187fb1c3d,2021-07-29_23h01.18.864,Simcolourproject_2stim_asymm_v5,2020.2.10,Win32,60,61025ae37ef11b136ea224fe,,,,,,,,,3160,87,27,1,0,0,response1disk,,6,1,-1,1,0,0,rectangle,1,-1,1,0,0,1,-1,1,0,0,0,95,95,43,1,,,,,,,,
,,,,,,,,,,,,,FF,,,,,,,,1.1324,,,,,,,,,,,,,,,,,,,,,,61032601dabc8bfe1409e7ac,61036b5ec5234f1187fb1c3d,2021-07-29_23h01.18.864,Simcolourproject_2stim_asymm_v5,2020.2.10,Win32,60,61025ae37ef11b136ea224fe,,,,,,,,,77,-64,109,1,0,0,response7disk,,0,1,4,1,0,0,rectangle,1,4,1,0,0,1,4,1,0,0,0,96,96,40,1,,,,,,,,
,,,,,,,,,,,,,FF,,,,,,,,2.0658,,,,,,,,,,,,,,,,,,,,,,61032601dabc8bfe1409e7ac,61036b5ec5234f1187fb1c3d,2021-07-29_23h01.18.864,Simcolourproject_2stim_asymm_v5,2020.2.10,Win32,60,61025ae37ef11b136ea224fe,,,,,,,,,2426,-55,-120,1,0,0,response5disk,,3,14,-8,1,0,0,rectangle,14,-8,1,0,0,14,-8,1,0,0,0,97,97,2,1,,,,,,,,
,,,,,,,,,,,,,FF,,,,,,,,2.2987,,,,,,,,,,,,,,,,,,,,,,61032601dabc8bfe1409e7ac,61036b5ec5234f1187fb1c3d,2021-07-29_23h01.18.864,Simcolourproject_2stim_asymm_v5,2020.2.10,Win32,60,61025ae37ef11b136ea224fe,,,,,,,,,3545,69,-42,1,0,0,response3disk,,5,-1,-5,1,0,0,rectangle,-1,-5,1,0,0,-1,-5,1,0,0,0,98,98,62,1,,,,,,,,
,,,,,,,,,,,,,FF,,,,,,,,1.3493,,,,,,,,,,,,,,,,,,,,,,61032601dabc8bfe1409e7ac,61036b5ec5234f1187fb1c3d,2021-07-29_23h01.18.864,Simcolourproject_2stim_asymm_v5,2020.2.10,Win32,60,61025ae37ef11b136ea224fe,,,,,,,,,3038,54,-59,1,0,0,response3disk,,4,26,-8,1,0,0,rectangle,26,-8,1,0,0,26,-8,1,0,0,0,99,99,69,1,,,,,,,,
,,,,,,,,,,,,,FF,,,,,,,,1.0682,,,,,,,,,,,,,,,,,,,,,,61032601dabc8bfe1409e7ac,61036b5ec5234f1187fb1c3d,2021-07-29_23h01.18.864,Simcolourproject_2stim_asymm_v5,2020.2.10,Win32,60,61025ae37ef11b136ea224fe,,,,,,,,,1892,42,-80,1,0,0,response3disk,,4,9,14,0,0,1,rectangle,9,14,0,0,1,9,14,0,0,1,0,100,100,7,1,,,,,,,,
,,,,,,,,,,,,,FF,,,,,,,,1.0505,,,,,,,,,,,,,,,,,,,,,,61032601dabc8bfe1409e7ac,61036b5ec5234f1187fb1c3d,2021-07-29_23h01.18.864,Simcolourproject_2stim_asymm_v5,2020.2.10,Win32,60,61025ae37ef11b136ea224fe,,,,,,,,,543,-45,73,1,0,0,response7disk,,0,12,1,1,0,0,rectangle,-46,-74,1,0,0,0,-1,1,0,0,0,101,101,21,1,,response5disk_3,TRUE,3,3,"[287,29,251,207,216,263,125,147,245,102,62,50,39,219,142,143,122,2,240,107]",2.4823,rectangle
,,,,,,,,,,,,,FF,,,,,,,,1.6979,,,,,,,,,,,,,,,,,,,,,,61032601dabc8bfe1409e7ac,61036b5ec5234f1187fb1c3d,2021-07-29_23h01.18.864,Simcolourproject_2stim_asymm_v5,2020.2.10,Win32,60,61025ae37ef11b136ea224fe,,,,,,,,,145,48,-42,1,0,0,response3disk,,5,5,0,1,0,0,rectangle,5,0,1,0,0,5,0,1,0,0,0,102,102,141,1,,,,,,,,
,,,,,,,,,,,,,FF,,,,,,,,1.0348,,,,,,,,,,,,,,,,,,,,,,61032601dabc8bfe1409e7ac,61036b5ec5234f1187fb1c3d,2021-07-29_23h01.18.864,Simcolourproject_2stim_asymm_v5,2020.2.10,Win32,60,61025ae37ef11b136ea224fe,,,,,,,,,1112,68,37,1,0,0,response1disk,,6,4,-6,1,0,0,rectangle,4,-6,1,0,0,4,-6,1,0,0,0,103,103,126,1,,,,,,,,
,,,,,,,,,,,,,FF,,,,,,,,0.9495,,,,,,,,,,,,,,,,,,,,,,61032601dabc8bfe1409e7ac,61036b5ec5234f1187fb1c3d,2021-07-29_23h01.18.864,Simcolourproject_2stim_asymm_v5,2020.2.10,Win32,60,61025ae37ef11b136ea224fe,,,,,,,,,335,56,24,1,0,0,response1disk,,6,1,-9,1,0,0,rectangle,1,-9,1,0,0,1,-9,1,0,0,0,104,104,88,1,,,,,,,,
,,,,,,,,,,,,,FF,,,,,,,,1.0993,,,,,,,,,,,,,,,,,,,,,,61032601dabc8bfe1409e7ac,61036b5ec5234f1187fb1c3d,2021-07-29_23h01.18.864,Simcolourproject_2stim_asymm_v5,2020.2.10,Win32,60,61025ae37ef11b136ea224fe,,,,,,,,,1101,45,69,1,0,0,response1disk,,7,15,-4,1,0,0,rectangle,15,-4,1,0,0,15,-4,1,0,0,0,105,105,9,1,,,,,,,,
,,,,,,,,,,,,,FF,,,,,,,,1.3692,,,,,,,,,,,,,,,,,,,,,,61032601dabc8bfe1409e7ac,61036b5ec5234f1187fb1c3d,2021-07-29_23h01.18.864,Simcolourproject_2stim_asymm_v5,2020.2.10,Win32,60,61025ae37ef11b136ea224fe,,,,,,,,,3912,99,-82,1,0,0,response3disk,,5,0,-1,1,0,0,rectangle,-47,-89,1,0,0,-2,8,1,0,0,0,106,106,82,1,,response5disk_3,TRUE,3,3,"[287,29,251,207,216,263,125,147,245,102,62,50,39,219,142,143,122,2,240,107]",2.0645,rectangle
,,,,,,,,,,,,,FF,,,,,,,,2.0989,,,,,,,,,,,,,,,,,,,,,,61032601dabc8bfe1409e7ac,61036b5ec5234f1187fb1c3d,2021-07-29_23h01.18.864,Simcolourproject_2stim_asymm_v5,2020.2.10,Win32,60,61025ae37ef11b136ea224fe,,,,,,,,,889,-31,-85,1,0,0,response5disk,,3,-11,5,1,0,0,rectangle,-11,5,1,0,0,-11,5,1,0,0,0,107,107,16,1,,,,,,,,
,,,,,,,,,,,,,FF,,,,,,,,1.2521,,,,,,,,,,,,,,,,,,,,,,61032601dabc8bfe1409e7ac,61036b5ec5234f1187fb1c3d,2021-07-29_23h01.18.864,Simcolourproject_2stim_asymm_v5,2020.2.10,Win32,60,61025ae37ef11b136ea224fe,,,,,,,,,4258,74,-21,1,0,0,response3disk,,5,10,-2,1,0,0,rectangle,10,-2,1,0,0,10,-2,1,0,0,0,108,108,92,1,,,,,,,,
,,,,,,,,,,,,,FF,,,,,,,,1.3828,,,,,,,,,,,,,,,,,,,,,,61032601dabc8bfe1409e7ac,61036b5ec5234f1187fb1c3d,2021-07-29_23h01.18.864,Simcolourproject_2stim_asymm_v5,2020.2.10,Win32,60,61025ae37ef11b136ea224fe,,,,,,,,,3581,72,54,1,0,0,response1disk,,6,0,-4,1,0,0,rectangle,0,-4,1,0,0,0,-4,1,0,0,0,109,109,19,1,,,,,,,,
,,,,,,,,,,,,,FF,,,,,,,,1.2329,,,,,,,,,,,,,,,,,,,,,,61032601dabc8bfe1409e7ac,61036b5ec5234f1187fb1c3d,2021-07-29_23h01.18.864,Simcolourproject_2stim_asymm_v5,2020.2.10,Win32,60,61025ae37ef11b136ea224fe,,,,,,,,,3037,-71,98,1,0,0,response7disk,,0,10,-7,1,0,0,rectangle,10,-7,1,0,0,10,-7,1,0,0,0,110,110,81,1,,,,,,,,
,,,,,,,,,,,,,FF,,,,,,,,0.8995,,,,,,,,,,,,,,,,,,,,,,61032601dabc8bfe1409e7ac,61036b5ec5234f1187fb1c3d,2021-07-29_23h01.18.864,Simcolourproject_2stim_asymm_v5,2020.2.10,Win32,60,61025ae37ef11b136ea224fe,,,,,,,,,903,83,41,1,0,0,response1disk,,6,16,1,1,0,0,rectangle,16,1,1,0,0,16,1,1,0,0,0,111,111,31,1,,,,,,,,
,,,,,,,,,,,,,FF,,,,,,,,1.0328,,,,,,,,,,,,,,,,,,,,,,61032601dabc8bfe1409e7ac,61036b5ec5234f1187fb1c3d,2021-07-29_23h01.18.864,Simcolourproject_2stim_asymm_v5,2020.2.10,Win32,60,61025ae37ef11b136ea224fe,,,,,,,,,4350,-75,109,1,0,0,response7disk,,0,2,1,1,0,0,rectangle,2,1,1,0,0,2,1,1,0,0,0,112,112,96,1,,,,,,,,
,,,,,,,,,,,,,FF,,,,,,,,2.3987,,,,,,,,,,,,,,,,,,,,,,61032601dabc8bfe1409e7ac,61036b5ec5234f1187fb1c3d,2021-07-29_23h01.18.864,Simcolourproject_2stim_asymm_v5,2020.2.10,Win32,60,61025ae37ef11b136ea224fe,,,,,,,,,180,33,90,1,0,0,response1disk,,7,10,-1,1,0,0,rectangle,10,-1,1,0,0,10,-1,1,0,0,0,113,113,94,1,,,,,,,,
,,,,,,,,,,,,,FF,,,,,,,,1.149,,,,,,,,,,,,,,,,,,,,,,61032601dabc8bfe1409e7ac,61036b5ec5234f1187fb1c3d,2021-07-29_23h01.18.864,Simcolourproject_2stim_asymm_v5,2020.2.10,Win32,60,61025ae37ef11b136ea224fe,,,,,,,,,1658,87,-54,1,0,0,response3disk,,5,0,7,1,0,0,rectangle,0,7,1,0,0,0,7,1,0,0,0,114,114,25,1,,,,,,,,
,,,,,,,,,,,,,FF,,,,,,,,0.9663,,,,,,,,,,,,,,,,,,,,,,61032601dabc8bfe1409e7ac,61036b5ec5234f1187fb1c3d,2021-07-29_23h01.18.864,Simcolourproject_2stim_asymm_v5,2020.2.10,Win32,60,61025ae37ef11b136ea224fe,,,,,,,,,4116,59,34,1,0,0,response1disk,,6,20,-3,1,0,0,rectangle,20,-3,1,0,0,20,-3,1,0,0,0,115,115,123,1,,,,,,,,
,,,,,,,,,,,,,FF,,,,,,,,0.9493,,,,,,,,,,,,,,,,,,,,,,61032601dabc8bfe1409e7ac,61036b5ec5234f1187fb1c3d,2021-07-29_23h01.18.864,Simcolourproject_2stim_asymm_v5,2020.2.10,Win32,60,61025ae37ef11b136ea224fe,,,,,,,,,4043,39,55,1,0,0,response1disk,,7,17,-8,1,0,0,rectangle,17,-8,1,0,0,17,-8,1,0,0,0,116,116,144,1,,,,,,,,
,,,,,,,,,,,,,FF,,,,,,,,1.3659,,,,,,,,,,,,,,,,,,,,,,61032601dabc8bfe1409e7ac,61036b5ec5234f1187fb1c3d,2021-07-29_23h01.18.864,Simcolourproject_2stim_asymm_v5,2020.2.10,Win32,60,61025ae37ef11b136ea224fe,,,,,,,,,1374,62,-116,1,0,0,response3disk,,4,15,-4,1,0,0,rectangle,15,-4,1,0,0,15,-4,1,0,0,0,117,117,37,1,,,,,,,,
,,,,,,,,,,,,,FF,,,,,,,,1.3495,,,,,,,,,,,,,,,,,,,,,,61032601dabc8bfe1409e7ac,61036b5ec5234f1187fb1c3d,2021-07-29_23h01.18.864,Simcolourproject_2stim_asymm_v5,2020.2.10,Win32,60,61025ae37ef11b136ea224fe,,,,,,,,,3005,83,-53,1,0,0,response3disk,,5,9,2,1,0,0,rectangle,9,2,1,0,0,9,2,1,0,0,0,118,118,132,1,,,,,,,,
,,,,,,,,,,,,,FF,,,,,,,,1.0496,,,,,,,,,,,,,,,,,,,,,,61032601dabc8bfe1409e7ac,61036b5ec5234f1187fb1c3d,2021-07-29_23h01.18.864,Simcolourproject_2stim_asymm_v5,2020.2.10,Win32,60,61025ae37ef11b136ea224fe,,,,,,,,,3185,39,61,1,0,0,response1disk,,7,8,-8,1,0,0,rectangle,8,-8,1,0,0,8,-8,1,0,0,0,119,119,47,1,,,,,,,,
,,,,,,,,,,,,,FF,,,,,,,,0.8842,,,,,,,,,,,,,,,,,,,,,,61032601dabc8bfe1409e7ac,61036b5ec5234f1187fb1c3d,2021-07-29_23h01.18.864,Simcolourproject_2stim_asymm_v5,2020.2.10,Win32,60,61025ae37ef11b136ea224fe,,,,,,,,,1349,54,81,1,0,0,response1disk,,7,18,-5,1,0,0,rectangle,18,-5,1,0,0,18,-5,1,0,0,0,120,120,127,1,,,,,,,,
,,,,,,,,,,,,,FF,,,,,,,,0.7665,,,,,,,,,,,,,,,,,,,,,,61032601dabc8bfe1409e7ac,61036b5ec5234f1187fb1c3d,2021-07-29_23h01.18.864,Simcolourproject_2stim_asymm_v5,2020.2.10,Win32,60,61025ae37ef11b136ea224fe,,,,,,,,,2316,56,76,1,0,0,response1disk,,7,7,-1,1,0,0,rectangle,-31,93,1,0,0,5,-14,1,0,0,0,121,121,38,1,,response7disk_3,TRUE,0,0,"[287,29,251,207,216,263,125,147,245,102,62,50,39,219,142,143,122,2,240,107]",1.6805,rectangle
,,,,,,,,,,,,,FF,,,,,,,,1.0496,,,,,,,,,,,,,,,,,,,,,,61032601dabc8bfe1409e7ac,61036b5ec5234f1187fb1c3d,2021-07-29_23h01.18.864,Simcolourproject_2stim_asymm_v5,2020.2.10,Win32,60,61025ae37ef11b136ea224fe,,,,,,,,,2204,78,-40,1,0,0,response3disk,,5,29,-9,1,0,0,rectangle,29,-9,1,0,0,29,-9,1,0,0,0,122,122,117,1,,,,,,,,
,,,,,,,,,,,,,FF,,,,,,,,1.2825,,,,,,,,,,,,,,,,,,,,,,61032601dabc8bfe1409e7ac,61036b5ec5234f1187fb1c3d,2021-07-29_23h01.18.864,Simcolourproject_2stim_asymm_v5,2020.2.10,Win32,60,61025ae37ef11b136ea224fe,,,,,,,,,2032,-42,-74,1,0,0,response5disk,,3,1,1,1,0,0,rectangle,1,1,1,0,0,1,1,1,0,0,0,123,123,72,1,,,,,,,,
,,,,,,,,,,,,,FF,,,,,,,,2.0156,,,,,,,,,,,,,,,,,,,,,,61032601dabc8bfe1409e7ac,61036b5ec5234f1187fb1c3d,2021-07-29_23h01.18.864,Simcolourproject_2stim_asymm_v5,2020.2.10,Win32,60,61025ae37ef11b136ea224fe,,,,,,,,,3303,-39,-84,1,0,0,response5disk,,3,5,-4,1,0,0,rectangle,-120,-40,1,0,0,-6,-12,1,0,0,0,124,124,138,1,,response5disk_3,TRUE,2,2,"[287,29,251,207,216,263,125,147,245,102,62,50,39,219,142,143,122,2,240,107]",2.6824,rectangle
,,,,,,,,,,,,,FF,,,,,,,,0.9663,,,,,,,,,,,,,,,,,,,,,,61032601dabc8bfe1409e7ac,61036b5ec5234f1187fb1c3d,2021-07-29_23h01.18.864,Simcolourproject_2stim_asymm_v5,2020.2.10,Win32,60,61025ae37ef11b136ea224fe,,,,,,,,,28,102,42,1,0,0,response1disk,,6,26,-7,1,0,0,rectangle,26,-7,1,0,0,26,-7,1,0,0,0,125,125,67,1,,,,,,,,
,,,,,,,,,,,,,FF,,,,,,,,1.7325,,,,,,,,,,,,,,,,,,,,,,61032601dabc8bfe1409e7ac,61036b5ec5234f1187fb1c3d,2021-07-29_23h01.18.864,Simcolourproject_2stim_asymm_v5,2020.2.10,Win32,60,61025ae37ef11b136ea224fe,,,,,,,,,1457,-73,-27,1,0,0,response5disk,,2,-4,-1,1,0,0,rectangle,-4,-1,1,0,0,-4,-1,1,0,0,0,126,126,91,1,,,,,,,,
,,,,,,,,,,,,,FF,,,,,,,,1.0328,,,,,,,,,,,,,,,,,,,,,,61032601dabc8bfe1409e7ac,61036b5ec5234f1187fb1c3d,2021-07-29_23h01.18.864,Simcolourproject_2stim_asymm_v5,2020.2.10,Win32,60,61025ae37ef11b136ea224fe,,,,,,,,,3151,82,-49,1,0,0,response3disk,,5,-6,3,1,0,0,rectangle,-6,3,1,0,0,-6,3,1,0,0,0,127,127,48,1,,,,,,,,
,,,,,,,,,,,,,FF,,,,,,,,1.2158,,,,,,,,,,,,,,,,,,,,,,61032601dabc8bfe1409e7ac,61036b5ec5234f1187fb1c3d,2021-07-29_23h01.18.864,Simcolourproject_2stim_asymm_v5,2020.2.10,Win32,60,61025ae37ef11b136ea224fe,,,,,,,,,2258,28,77,1,0,0,response1disk,,7,5,-2,1,0,0,rectangle,5,-2,1,0,0,5,-2,1,0,0,0,128,128,59,1,,,,,,,,
,,,,,,,,,,,,,FF,,,,,,,,0.6827,,,,,,,,,,,,,,,,,,,,,,61032601dabc8bfe1409e7ac,61036b5ec5234f1187fb1c3d,2021-07-29_23h01.18.864,Simcolourproject_2stim_asymm_v5,2020.2.10,Win32,60,61025ae37ef11b136ea224fe,,,,,,,,,1008,40,91,1,0,0,response1disk,,7,-1,-9,1,0,0,rectangle,-1,-9,1,0,0,-1,-9,1,0,0,0,129,129,118,1,,,,,,,,
,,,,,,,,,,,,,FF,,,,,,,,1.2496,,,,,,,,,,,,,,,,,,,,,,61032601dabc8bfe1409e7ac,61036b5ec5234f1187fb1c3d,2021-07-29_23h01.18.864,Simcolourproject_2stim_asymm_v5,2020.2.10,Win32,60,61025ae37ef11b136ea224fe,,,,,,,,,4189,35,-88,1,0,0,response3disk,,4,-4,12,1,0,0,rectangle,-4,12,1,0,0,-4,12,1,0,0,0,130,130,22,1,,,,,,,,
,,,,,,,,,,,,,FF,,,,,,,,0.6975,,,,,,,,,,,,,,,,,,,,,,61032601dabc8bfe1409e7ac,61036b5ec5234f1187fb1c3d,2021-07-29_23h01.18.864,Simcolourproject_2stim_asymm_v5,2020.2.10,Win32,60,61025ae37ef11b136ea224fe,,,,,,,,,3918,55,63,1,0,0,response1disk,,7,21,-10,1,0,0,rectangle,21,-10,1,0,0,21,-10,1,0,0,0,131,131,146,1,,,,,,,,
,,,,,,,,,,,,,FF,,,,,,,,0.8459,,,,,,,,,,,,,,,,,,,,,,61032601dabc8bfe1409e7ac,61036b5ec5234f1187fb1c3d,2021-07-29_23h01.18.864,Simcolourproject_2stim_asymm_v5,2020.2.10,Win32,60,61025ae37ef11b136ea224fe,,,,,,,,,643,59,73,1,0,0,response1disk,,7,30,-6,1,0,0,rectangle,30,-6,1,0,0,30,-6,1,0,0,0,132,132,86,1,,,,,,,,
,,,,,,,,,,,,,FF,,,,,,,,0.7834,,,,,,,,,,,,,,,,,,,,,,61032601dabc8bfe1409e7ac,61036b5ec5234f1187fb1c3d,2021-07-29_23h01.18.864,Simcolourproject_2stim_asymm_v5,2020.2.10,Win32,60,61025ae37ef11b136ea224fe,,,,,,,,,1226,38,67,1,0,0,response1disk,,7,9,-10,1,0,0,rectangle,9,-10,1,0,0,9,-10,1,0,0,0,133,133,33,1,,,,,,,,
,,,,,,,,,,,,,FF,,,,,,,,1.0162,,,,,,,,,,,,,,,,,,,,,,61032601dabc8bfe1409e7ac,61036b5ec5234f1187fb1c3d,2021-07-29_23h01.18.864,Simcolourproject_2stim_asymm_v5,2020.2.10,Win32,60,61025ae37ef11b136ea224fe,,,,,,,,,2399,37,74,1,0,0,response1disk,,7,14,-6,1,0,0,rectangle,14,-6,1,0,0,14,-6,1,0,0,0,134,134,36,1,,,,,,,,
,,,,,,,,,,,,,FF,,,,,,,,0.8162,,,,,,,,,,,,,,,,,,,,,,61032601dabc8bfe1409e7ac,61036b5ec5234f1187fb1c3d,2021-07-29_23h01.18.864,Simcolourproject_2stim_asymm_v5,2020.2.10,Win32,60,61025ae37ef11b136ea224fe,,,,,,,,,3044,51,62,1,0,0,response1disk,,7,17,-9,1,0,0,rectangle,17,-9,1,0,0,17,-9,1,0,0,0,135,135,143,1,,,,,,,,
,,,,,,,,,,,,,FF,,,,,,,,1.5161,,,,,,,,,,,,,,,,,,,,,,61032601dabc8bfe1409e7ac,61036b5ec5234f1187fb1c3d,2021-07-29_23h01.18.864,Simcolourproject_2stim_asymm_v5,2020.2.10,Win32,60,61025ae37ef11b136ea224fe,,,,,,,,,2071,47,61,1,0,0,response1disk,,7,21,-8,1,0,0,rectangle,21,-8,1,0,0,21,-8,1,0,0,0,136,136,41,1,,,,,,,,
,,,,,,,,,,,,,FF,,,,,,,,0.9495,,,,,,,,,,,,,,,,,,,,,,61032601dabc8bfe1409e7ac,61036b5ec5234f1187fb1c3d,2021-07-29_23h01.18.864,Simcolourproject_2stim_asymm_v5,2020.2.10,Win32,60,61025ae37ef11b136ea224fe,,,,,,,,,3878,46,81,1,0,0,response1disk,,7,20,-7,1,0,0,rectangle,20,-7,1,0,0,20,-7,1,0,0,0,137,137,106,1,,,,,,,,
,,,,,,,,,,,,,FF,,,,,,,,1.766,,,,,,,,,,,,,,,,,,,,,,61032601dabc8bfe1409e7ac,61036b5ec5234f1187fb1c3d,2021-07-29_23h01.18.864,Simcolourproject_2stim_asymm_v5,2020.2.10,Win32,60,61025ae37ef11b136ea224fe,,,,,,,,,1962,-101,-51,1,0,0,response5disk,,2,-29,0,1,0,0,rectangle,-29,0,1,0,0,-29,0,1,0,0,0,138,138,11,1,,,,,,,,
,,,,,,,,,,,,,FF,,,,,,,,1.0661,,,,,,,,,,,,,,,,,,,,,,61032601dabc8bfe1409e7ac,61036b5ec5234f1187fb1c3d,2021-07-29_23h01.18.864,Simcolourproject_2stim_asymm_v5,2020.2.10,Win32,60,61025ae37ef11b136ea224fe,,,,,,,,,4093,90,34,1,0,0,response1disk,,6,32,-1,1,0,0,rectangle,32,-1,1,0,0,32,-1,1,0,0,0,139,139,8,1,,,,,,,,
,,,,,,,,,,,,,FF,,,,,,,,0.6666,,,,,,,,,,,,,,,,,,,,,,61032601dabc8bfe1409e7ac,61036b5ec5234f1187fb1c3d,2021-07-29_23h01.18.864,Simcolourproject_2stim_asymm_v5,2020.2.10,Win32,60,61025ae37ef11b136ea224fe,,,,,,,,,872,52,70,1,0,0,response1disk,,7,16,12,1,0,0,rectangle,16,12,1,0,0,16,12,1,0,0,0,140,140,85,1,,,,,,,,
,,,,,,,,,,,,,FF,,,,,,,,1.2303,,,,,,,,,,,,,,,,,,,,,,61032601dabc8bfe1409e7ac,61036b5ec5234f1187fb1c3d,2021-07-29_23h01.18.864,Simcolourproject_2stim_asymm_v5,2020.2.10,Win32,60,61025ae37ef11b136ea224fe,,,,,,,,,278,-51,-100,1,0,0,response5disk,,3,-15,5,1,0,0,rectangle,-76,47,1,0,0,-25,8,1,0,0,0,141,141,97,1,,response7disk_3,TRUE,1,1,"[287,29,251,207,216,263,125,147,245,102,62,50,39,219,142,143,122,2,240,107]",1.8837,rectangle
,,,,,,,,,,,,,FF,,,,,,,,1.1162,,,,,,,,,,,,,,,,,,,,,,61032601dabc8bfe1409e7ac,61036b5ec5234f1187fb1c3d,2021-07-29_23h01.18.864,Simcolourproject_2stim_asymm_v5,2020.2.10,Win32,60,61025ae37ef11b136ea224fe,,,,,,,,,3521,65,33,1,0,0,response1disk,,6,-8,-4,1,0,0,rectangle,-45,64,1,0,0,-16,11,1,0,0,0,142,142,99,1,,response7disk_3,TRUE,0,0,"[287,29,251,207,216,263,125,147,245,102,62,50,39,219,142,143,122,2,240,107]",1.7976,rectangle
,,,,,,,,,,,,,FF,,,,,,,,1.2162,,,,,,,,,,,,,,,,,,,,,,61032601dabc8bfe1409e7ac,61036b5ec5234f1187fb1c3d,2021-07-29_23h01.18.864,Simcolourproject_2stim_asymm_v5,2020.2.10,Win32,60,61025ae37ef11b136ea224fe,,,,,,,,,4130,50,72,1,0,0,response1disk,,7,21,10,1,0,0,rectangle,21,10,1,0,0,21,10,1,0,0,0,143,143,148,1,,,,,,,,
,,,,,,,,,,,,,FF,,,,,,,,1.3817,,,,,,,,,,,,,,,,,,,,,,61032601dabc8bfe1409e7ac,61036b5ec5234f1187fb1c3d,2021-07-29_23h01.18.864,Simcolourproject_2stim_asymm_v5,2020.2.10,Win32,60,61025ae37ef11b136ea224fe,,,,,,,,,4204,63,22,1,0,0,response1disk,,6,-11,-4,1,0,0,rectangle,-11,-4,1,0,0,-11,-4,1,0,0,0,144,144,23,1,,,,,,,,
,,,,,,,,,,,,,FF,,,,,,,,1.2831,,,,,,,,,,,,,,,,,,,,,,61032601dabc8bfe1409e7ac,61036b5ec5234f1187fb1c3d,2021-07-29_23h01.18.864,Simcolourproject_2stim_asymm_v5,2020.2.10,Win32,60,61025ae37ef11b136ea224fe,,,,,,,,,3475,-94,32,1,0,0,response7disk,,1,-18,1,1,0,0,rectangle,-18,1,1,0,0,-18,1,1,0,0,0,145,145,104,1,,,,,,,,
,,,,,,,,,,,,,FF,,,,,,,,1.0661,,,,,,,,,,,,,,,,,,,,,,61032601dabc8bfe1409e7ac,61036b5ec5234f1187fb1c3d,2021-07-29_23h01.18.864,Simcolourproject_2stim_asymm_v5,2020.2.10,Win32,60,61025ae37ef11b136ea224fe,,,,,,,,,1769,93,-63,1,0,0,response3disk,,5,-9,-1,1,0,0,rectangle,-65,-47,1,0,0,-17,-5,1,0,0,0,146,146,24,1,,response5disk_3,TRUE,2,2,"[287,29,251,207,216,263,125,147,245,102,62,50,39,219,142,143,122,2,240,107]",2.0146,rectangle
,,,,,,,,,,,,,FF,,,,,,,,1.1006,,,,,,,,,,,,,,,,,,,,,,61032601dabc8bfe1409e7ac,61036b5ec5234f1187fb1c3d,2021-07-29_23h01.18.864,Simcolourproject_2stim_asymm_v5,2020.2.10,Win32,60,61025ae37ef11b136ea224fe,,,,,,,,,778,98,-59,1,0,0,response3disk,,5,12,-12,1,0,0,rectangle,12,-12,1,0,0,12,-12,1,0,0,0,147,147,75,1,,,,,,,,
,,,,,,,,,,,,,FF,,,,,,,,1.0632,,,,,,,,,,,,,,,,,,,,,,61032601dabc8bfe1409e7ac,61036b5ec5234f1187fb1c3d,2021-07-29_23h01.18.864,Simcolourproject_2stim_asymm_v5,2020.2.10,Win32,60,61025ae37ef11b136ea224fe,,,,,,,,,3491,88,38,1,0,0,response1disk,,6,1,-11,1,0,0,rectangle,1,-11,1,0,0,1,-11,1,0,0,0,148,148,46,1,,,,,,,,
,,,,,,,,,,,,,FF,,,,,,,,1.2497,,,,,,,,,,,,,,,,,,,,,,61032601dabc8bfe1409e7ac,61036b5ec5234f1187fb1c3d,2021-07-29_23h01.18.864,Simcolourproject_2stim_asymm_v5,2020.2.10,Win32,60,61025ae37ef11b136ea224fe,,,,,,,,,1795,44,83,1,0,0,response1disk,,7,20,-1,1,0,0,rectangle,20,-1,1,0,0,20,-1,1,0,0,0,149,149,128,1,,,,,,,,
,,,,,,,,,,,,,FF,,,,,,,,0.9322,,,,,,,,,,,,,,,,,,,,,,61032601dabc8bfe1409e7ac,61036b5ec5234f1187fb1c3d,2021-07-29_23h01.18.864,Simcolourproject_2stim_asymm_v5,2020.2.10,Win32,60,61025ae37ef11b136ea224fe,,,,,,,,,2703,33,59,1,0,0,response1disk,,7,-5,5,1,0,0,rectangle,-5,5,1,0,0,-5,5,1,0,0,0,150,150,157,1,,,,,,,,
,,,,,,,,,,,,,FF,,,,,,,,1.3156,,,,,,,,,,,,,,,,,,,,,,61032601dabc8bfe1409e7ac,61036b5ec5234f1187fb1c3d,2021-07-29_23h01.18.864,Simcolourproject_2stim_asymm_v5,2020.2.10,Win32,60,61025ae37ef11b136ea224fe,,,,,,,,,2487,-40,-91,1,0,0,response5disk,,3,-13,-2,1,0,0,rectangle,-13,-2,1,0,0,-13,-2,1,0,0,0,151,151,120,1,,,,,,,,
,,,,,,,,,,,,,FF,,,,,,,,0.7639,,,,,,,,,,,,,,,,,,,,,,61032601dabc8bfe1409e7ac,61036b5ec5234f1187fb1c3d,2021-07-29_23h01.18.864,Simcolourproject_2stim_asymm_v5,2020.2.10,Win32,60,61025ae37ef11b136ea224fe,,,,,,,,,1584,30,62,1,0,0,response1disk,,7,9,0,1,0,0,rectangle,9,0,1,0,0,9,0,1,0,0,0,152,152,147,1,,,,,,,,
,,,,,,,,,,,,,FF,,,,,,,,1.1639,,,,,,,,,,,,,,,,,,,,,,61032601dabc8bfe1409e7ac,61036b5ec5234f1187fb1c3d,2021-07-29_23h01.18.864,Simcolourproject_2stim_asymm_v5,2020.2.10,Win32,60,61025ae37ef11b136ea224fe,,,,,,,,,1383,98,-64,1,0,0,response3disk,,5,19,12,1,0,0,rectangle,19,12,1,0,0,19,12,1,0,0,0,153,153,121,1,,,,,,,,
,,,,,,,,,,,,,FF,,,,,,,,1.3993,,,,,,,,,,,,,,,,,,,,,,61032601dabc8bfe1409e7ac,61036b5ec5234f1187fb1c3d,2021-07-29_23h01.18.864,Simcolourproject_2stim_asymm_v5,2020.2.10,Win32,60,61025ae37ef11b136ea224fe,,,,,,,,,2304,62,-50,1,0,0,response3disk,,5,10,-10,1,0,0,rectangle,10,-10,1,0,0,10,-10,1,0,0,0,154,154,29,1,,,,,,,,
,,,,,,,,,,,,,FF,,,,,,,,0.8178,,,,,,,,,,,,,,,,,,,,,,61032601dabc8bfe1409e7ac,61036b5ec5234f1187fb1c3d,2021-07-29_23h01.18.864,Simcolourproject_2stim_asymm_v5,2020.2.10,Win32,60,61025ae37ef11b136ea224fe,,,,,,,,,2403,78,45,1,0,0,response1disk,,6,-1,-3,1,0,0,rectangle,-1,-3,1,0,0,-1,-3,1,0,0,0,155,155,20,1,,,,,,,,
,,,,,,,,,,,,,FF,,,,,,,,0.8189,,,,,,,,,,,,,,,,,,,,,,61032601dabc8bfe1409e7ac,61036b5ec5234f1187fb1c3d,2021-07-29_23h01.18.864,Simcolourproject_2stim_asymm_v5,2020.2.10,Win32,60,61025ae37ef11b136ea224fe,,,,,,,,,3455,46,99,1,0,0,response1disk,,7,13,-1,1,0,0,rectangle,13,-1,1,0,0,13,-1,1,0,0,0,156,156,116,1,,,,,,,,
,,,,,,,,,,,,,FF,,,,,,,,1.4325,,,,,,,,,,,,,,,,,,,,,,61032601dabc8bfe1409e7ac,61036b5ec5234f1187fb1c3d,2021-07-29_23h01.18.864,Simcolourproject_2stim_asymm_v5,2020.2.10,Win32,60,61025ae37ef11b136ea224fe,,,,,,,,,2663,-43,-80,1,0,0,response5disk,,3,-5,10,1,0,0,rectangle,-5,10,1,0,0,-5,10,1,0,0,0,157,157,54,1,,,,,,,,
,,,,,,,,,,,,,FF,,,,,,,,0.9492,,,,,,,,,,,,,,,,,,,,,,61032601dabc8bfe1409e7ac,61036b5ec5234f1187fb1c3d,2021-07-29_23h01.18.864,Simcolourproject_2stim_asymm_v5,2020.2.10,Win32,60,61025ae37ef11b136ea224fe,,,,,,,,,2382,85,-34,1,0,0,response3disk,,5,28,-9,1,0,0,rectangle,28,-9,1,0,0,28,-9,1,0,0,0,158,158,39,1,,,,,,,,
,,,,,,,,,,,,,FF,,,,,,,,0.9497,,,,,,,,,,,,,,,,,,,,,,61032601dabc8bfe1409e7ac,61036b5ec5234f1187fb1c3d,2021-07-29_23h01.18.864,Simcolourproject_2stim_asymm_v5,2020.2.10,Win32,60,61025ae37ef11b136ea224fe,,,,,,,,,1205,64,35,1,0,0,response1disk,,6,1,4,1,0,0,rectangle,1,4,1,0,0,1,4,1,0,0,0,159,159,125,1,,,,,,,,
,,,,,,,,,,,,,FF,,,,,,,,1.566,,,,,,,,,,,,,,,,,,,,,,61032601dabc8bfe1409e7ac,61036b5ec5234f1187fb1c3d,2021-07-29_23h01.18.864,Simcolourproject_2stim_asymm_v5,2020.2.10,Win32,60,61025ae37ef11b136ea224fe,,,,,,,,,2243,43,90,1,0,0,response1disk,,7,3,-9,1,0,0,rectangle,3,-9,1,0,0,3,-9,1,0,0,1,0,160,89,1,,,,,,,,
,,,,,,,,,,,,,FF,,,,,,,,0.6665,,,,,,,,,,,,,,,,,,,,,,61032601dabc8bfe1409e7ac,61036b5ec5234f1187fb1c3d,2021-07-29_23h01.18.864,Simcolourproject_2stim_asymm_v5,2020.2.10,Win32,60,61025ae37ef11b136ea224fe,,,,,,,,,4004,50,81,1,0,0,response1disk,,7,14,-18,1,0,0,rectangle,14,-18,1,0,0,14,-18,1,0,0,1,1,161,84,1,,,,,,,,
,,,,,,,,,,,,,FF,,,,,,,,0.6498,,,,,,,,,,,,,,,,,,,,,,61032601dabc8bfe1409e7ac,61036b5ec5234f1187fb1c3d,2021-07-29_23h01.18.864,Simcolourproject_2stim_asymm_v5,2020.2.10,Win32,60,61025ae37ef11b136ea224fe,,,,,,,,,3897,56,79,1,0,0,response1disk,,7,27,6,1,0,0,rectangle,27,6,1,0,0,27,6,1,0,0,1,2,162,118,1,,,,,,,,
,,,,,,,,,,,,,FF,,,,,,,,0.8662,,,,,,,,,,,,,,,,,,,,,,61032601dabc8bfe1409e7ac,61036b5ec5234f1187fb1c3d,2021-07-29_23h01.18.864,Simcolourproject_2stim_asymm_v5,2020.2.10,Win32,60,61025ae37ef11b136ea224fe,,,,,,,,,2598,56,103,1,0,0,response1disk,,7,12,0,1,0,0,rectangle,12,0,1,0,0,12,0,1,0,0,1,3,163,5,1,,,,,,,,
,,,,,,,,,,,,,FF,,,,,,,,0.8162,,,,,,,,,,,,,,,,,,,,,,61032601dabc8bfe1409e7ac,61036b5ec5234f1187fb1c3d,2021-07-29_23h01.18.864,Simcolourproject_2stim_asymm_v5,2020.2.10,Win32,60,61025ae37ef11b136ea224fe,,,,,,,,,1736,37,87,1,0,0,response1disk,,7,1,-17,1,0,0,rectangle,1,-17,1,0,0,1,-17,1,0,0,1,4,164,116,1,,,,,,,,
,,,,,,,,,,,,,FF,,,,,,,,1.3825,,,,,,,,,,,,,,,,,,,,,,61032601dabc8bfe1409e7ac,61036b5ec5234f1187fb1c3d,2021-07-29_23h01.18.864,Simcolourproject_2stim_asymm_v5,2020.2.10,Win32,60,61025ae37ef11b136ea224fe,,,,,,,,,26,49,79,1,0,0,response1disk,,7,11,4,1,0,0,rectangle,11,4,1,0,0,11,4,1,0,0,1,5,165,21,1,,,,,,,,
,,,,,,,,,,,,,FF,,,,,,,,1.4325,,,,,,,,,,,,,,,,,,,,,,61032601dabc8bfe1409e7ac,61036b5ec5234f1187fb1c3d,2021-07-29_23h01.18.864,Simcolourproject_2stim_asymm_v5,2020.2.10,Win32,60,61025ae37ef11b136ea224fe,,,,,,,,,2878,56,-89,1,0,0,response3disk,,4,6,-9,1,0,0,rectangle,6,-9,1,0,0,6,-9,1,0,0,1,6,166,159,1,,,,,,,,
,,,,,,,,,,,,,FF,,,,,,,,1.049,,,,,,,,,,,,,,,,,,,,,,61032601dabc8bfe1409e7ac,61036b5ec5234f1187fb1c3d,2021-07-29_23h01.18.864,Simcolourproject_2stim_asymm_v5,2020.2.10,Win32,60,61025ae37ef11b136ea224fe,,,,,,,,,869,33,-52,1,0,0,response3disk,,4,9,15,1,0,0,rectangle,9,15,1,0,0,9,15,1,0,0,1,7,167,132,1,,,,,,,,
,,,,,,,,,,,,,FF,,,,,,,,0.9503,,,,,,,,,,,,,,,,,,,,,,61032601dabc8bfe1409e7ac,61036b5ec5234f1187fb1c3d,2021-07-29_23h01.18.864,Simcolourproject_2stim_asymm_v5,2020.2.10,Win32,60,61025ae37ef11b136ea224fe,,,,,,,,,3606,89,-54,1,0,0,response3disk,,5,24,-11,1,0,0,rectangle,24,-11,1,0,0,24,-11,1,0,0,1,8,168,135,1,,,,,,,,
,,,,,,,,,,,,,FF,,,,,,,,0.9484,,,,,,,,,,,,,,,,,,,,,,61032601dabc8bfe1409e7ac,61036b5ec5234f1187fb1c3d,2021-07-29_23h01.18.864,Simcolourproject_2stim_asymm_v5,2020.2.10,Win32,60,61025ae37ef11b136ea224fe,,,,,,,,,1261,65,53,1,0,0,response1disk,,6,11,4,1,0,0,rectangle,11,4,1,0,0,11,4,1,0,0,1,9,169,99,1,,,,,,,,
,,,,,,,,,,,,,FF,,,,,,,,1.3159,,,,,,,,,,,,,,,,,,,,,,61032601dabc8bfe1409e7ac,61036b5ec5234f1187fb1c3d,2021-07-29_23h01.18.864,Simcolourproject_2stim_asymm_v5,2020.2.10,Win32,60,61025ae37ef11b136ea224fe,,,,,,,,,1528,-33,-119,1,0,0,response5disk,,3,4,-5,1,0,0,rectangle,4,-5,1,0,0,4,-5,1,0,0,1,10,170,62,1,,,,,,,,
,,,,,,,,,,,,,FF,,,,,,,,1.1167,,,,,,,,,,,,,,,,,,,,,,61032601dabc8bfe1409e7ac,61036b5ec5234f1187fb1c3d,2021-07-29_23h01.18.864,Simcolourproject_2stim_asymm_v5,2020.2.10,Win32,60,61025ae37ef11b136ea224fe,,,,,,,,,575,41,70,1,0,0,response1disk,,7,16,-6,1,0,0,rectangle,16,-6,1,0,0,16,-6,1,0,0,1,11,171,85,1,,,,,,,,
,,,,,,,,,,,,,FF,,,,,,,,0.8657,,,,,,,,,,,,,,,,,,,,,,61032601dabc8bfe1409e7ac,61036b5ec5234f1187fb1c3d,2021-07-29_23h01.18.864,Simcolourproject_2stim_asymm_v5,2020.2.10,Win32,60,61025ae37ef11b136ea224fe,,,,,,,,,3534,43,71,1,0,0,response1disk,,7,21,9,1,0,0,rectangle,21,9,1,0,0,21,9,1,0,0,1,12,172,28,1,,,,,,,,
,,,,,,,,,,,,,FF,,,,,,,,0.8832,,,,,,,,,,,,,,,,,,,,,,61032601dabc8bfe1409e7ac,61036b5ec5234f1187fb1c3d,2021-07-29_23h01.18.864,Simcolourproject_2stim_asymm_v5,2020.2.10,Win32,60,61025ae37ef11b136ea224fe,,,,,,,,,2310,49,81,1,0,0,response1disk,,7,20,1,1,0,0,rectangle,20,1,1,0,0,20,1,1,0,0,1,13,173,19,1,,,,,,,,
,,,,,,,,,,,,,FF,,,,,,,,0.7161,,,,,,,,,,,,,,,,,,,,,,61032601dabc8bfe1409e7ac,61036b5ec5234f1187fb1c3d,2021-07-29_23h01.18.864,Simcolourproject_2stim_asymm_v5,2020.2.10,Win32,60,61025ae37ef11b136ea224fe,,,,,,,,,495,58,92,1,0,0,response1disk,,7,19,-11,1,0,0,rectangle,19,-11,1,0,0,19,-11,1,0,0,1,14,174,54,1,,,,,,,,
,,,,,,,,,,,,,FF,,,,,,,,0.5995,,,,,,,,,,,,,,,,,,,,,,61032601dabc8bfe1409e7ac,61036b5ec5234f1187fb1c3d,2021-07-29_23h01.18.864,Simcolourproject_2stim_asymm_v5,2020.2.10,Win32,60,61025ae37ef11b136ea224fe,,,,,,,,,1339,45,47,1,0,0,response1disk,,7,14,9,1,0,0,rectangle,14,9,1,0,0,14,9,1,0,0,1,15,175,158,1,,,,,,,,
,,,,,,,,,,,,,FF,,,,,,,,1.3661,,,,,,,,,,,,,,,,,,,,,,61032601dabc8bfe1409e7ac,61036b5ec5234f1187fb1c3d,2021-07-29_23h01.18.864,Simcolourproject_2stim_asymm_v5,2020.2.10,Win32,60,61025ae37ef11b136ea224fe,,,,,,,,,3554,105,-63,1,0,0,response3disk,,5,5,-8,1,0,0,rectangle,5,-8,1,0,0,5,-8,1,0,0,1,16,176,10,1,,,,,,,,
,,,,,,,,,,,,,FF,,,,,,,,0.833,,,,,,,,,,,,,,,,,,,,,,61032601dabc8bfe1409e7ac,61036b5ec5234f1187fb1c3d,2021-07-29_23h01.18.864,Simcolourproject_2stim_asymm_v5,2020.2.10,Win32,60,61025ae37ef11b136ea224fe,,,,,,,,,3822,62,-37,1,0,0,response3disk,,5,22,-3,1,0,0,rectangle,22,-3,1,0,0,22,-3,1,0,0,1,17,177,79,1,,,,,,,,
,,,,,,,,,,,,,FF,,,,,,,,1.3326,,,,,,,,,,,,,,,,,,,,,,61032601dabc8bfe1409e7ac,61036b5ec5234f1187fb1c3d,2021-07-29_23h01.18.864,Simcolourproject_2stim_asymm_v5,2020.2.10,Win32,60,61025ae37ef11b136ea224fe,,,,,,,,,741,31,-85,1,0,0,response3disk,,4,-7,-10,1,0,0,rectangle,-7,-10,1,0,0,-7,-10,1,0,0,1,18,178,153,1,,,,,,,,
,,,,,,,,,,,,,FF,,,,,,,,1.2494,,,,,,,,,,,,,,,,,,,,,,61032601dabc8bfe1409e7ac,61036b5ec5234f1187fb1c3d,2021-07-29_23h01.18.864,Simcolourproject_2stim_asymm_v5,2020.2.10,Win32,60,61025ae37ef11b136ea224fe,,,,,,,,,2699,22,113,1,0,0,response1disk,,7,8,-4,1,0,0,rectangle,8,-4,1,0,0,8,-4,1,0,0,1,19,179,60,1,,,,,,,,
,,,,,,,,,,,,,FF,,,,,,,,1.2148,,,,,,,,,,,,,,,,,,,,,,61032601dabc8bfe1409e7ac,61036b5ec5234f1187fb1c3d,2021-07-29_23h01.18.864,Simcolourproject_2stim_asymm_v5,2020.2.10,Win32,60,61025ae37ef11b136ea224fe,,,,,,,,,2629,74,40,1,0,0,response1disk,,6,15,15,1,0,0,rectangle,15,15,1,0,0,15,15,1,0,0,1,20,180,108,1,,,,,,,,
,,,,,,,,,,,,,FF,,,,,,,,1.0162,,,,,,,,,,,,,,,,,,,,,,61032601dabc8bfe1409e7ac,61036b5ec5234f1187fb1c3d,2021-07-29_23h01.18.864,Simcolourproject_2stim_asymm_v5,2020.2.10,Win32,60,61025ae37ef11b136ea224fe,,,,,,,,,3628,55,27,1,0,0,response1disk,,6,8,10,1,0,0,rectangle,8,10,1,0,0,8,10,1,0,0,1,21,181,106,1,,,,,,,,
,,,,,,,,,,,,,FF,,,,,,,,2.0658,,,,,,,,,,,,,,,,,,,,,,61032601dabc8bfe1409e7ac,61036b5ec5234f1187fb1c3d,2021-07-29_23h01.18.864,Simcolourproject_2stim_asymm_v5,2020.2.10,Win32,60,61025ae37ef11b136ea224fe,,,,,,,,,443,-90,40,1,0,0,response7disk,,1,12,-4,1,0,0,rectangle,12,-4,1,0,0,12,-4,1,0,0,1,22,182,97,1,,,,,,,,
,,,,,,,,,,,,,FF,,,,,,,,0.8163,,,,,,,,,,,,,,,,,,,,,,61032601dabc8bfe1409e7ac,61036b5ec5234f1187fb1c3d,2021-07-29_23h01.18.864,Simcolourproject_2stim_asymm_v5,2020.2.10,Win32,60,61025ae37ef11b136ea224fe,,,,,,,,,2299,-61,40,1,0,0,response7disk,,1,-3,-14,1,0,0,rectangle,-3,-14,1,0,0,-3,-14,1,0,0,1,23,183,48,1,,,,,,,,
,,,,,,,,,,,,,FF,,,,,,,,0.8666,,,,,,,,,,,,,,,,,,,,,,61032601dabc8bfe1409e7ac,61036b5ec5234f1187fb1c3d,2021-07-29_23h01.18.864,Simcolourproject_2stim_asymm_v5,2020.2.10,Win32,60,61025ae37ef11b136ea224fe,,,,,,,,,3523,62,49,1,0,0,response1disk,,6,24,3,1,0,0,rectangle,24,3,1,0,0,24,3,1,0,0,1,24,184,7,1,,,,,,,,
,,,,,,,,,,,,,FF,,,,,,,,1.0005,,,,,,,,,,,,,,,,,,,,,,61032601dabc8bfe1409e7ac,61036b5ec5234f1187fb1c3d,2021-07-29_23h01.18.864,Simcolourproject_2stim_asymm_v5,2020.2.10,Win32,60,61025ae37ef11b136ea224fe,,,,,,,,,2227,-79,34,1,0,0,response7disk,,1,4,-12,1,0,0,rectangle,4,-12,1,0,0,4,-12,1,0,0,1,25,185,154,1,,,,,,,,
,,,,,,,,,,,,,FF,,,,,,,,0.916,,,,,,,,,,,,,,,,,,,,,,61032601dabc8bfe1409e7ac,61036b5ec5234f1187fb1c3d,2021-07-29_23h01.18.864,Simcolourproject_2stim_asymm_v5,2020.2.10,Win32,60,61025ae37ef11b136ea224fe,,,,,,,,,3179,100,-48,1,0,0,response3disk,,5,4,-5,1,0,0,rectangle,4,-5,1,0,0,4,-5,1,0,0,1,26,186,15,1,,,,,,,,
,,,,,,,,,,,,,FF,,,,,,,,0.9334,,,,,,,,,,,,,,,,,,,,,,61032601dabc8bfe1409e7ac,61036b5ec5234f1187fb1c3d,2021-07-29_23h01.18.864,Simcolourproject_2stim_asymm_v5,2020.2.10,Win32,60,61025ae37ef11b136ea224fe,,,,,,,,,1046,70,-43,1,0,0,response3disk,,5,12,0,1,0,0,rectangle,12,0,1,0,0,12,0,1,0,0,1,27,187,123,1,,,,,,,,
,,,,,,,,,,,,,FF,,,,,,,,0.6997,,,,,,,,,,,,,,,,,,,,,,61032601dabc8bfe1409e7ac,61036b5ec5234f1187fb1c3d,2021-07-29_23h01.18.864,Simcolourproject_2stim_asymm_v5,2020.2.10,Win32,60,61025ae37ef11b136ea224fe,,,,,,,,,3315,70,-35,1,0,0,response3disk,,5,-9,9,1,0,0,rectangle,-9,9,1,0,0,-9,9,1,0,0,1,28,188,27,1,,,,,,,,
,,,,,,,,,,,,,FF,,,,,,,,0.9487,,,,,,,,,,,,,,,,,,,,,,61032601dabc8bfe1409e7ac,61036b5ec5234f1187fb1c3d,2021-07-29_23h01.18.864,Simcolourproject_2stim_asymm_v5,2020.2.10,Win32,60,61025ae37ef11b136ea224fe,,,,,,,,,3810,-84,27,1,0,0,response7disk,,1,-16,-9,1,0,0,rectangle,-16,-9,1,0,0,-16,-9,1,0,0,1,29,189,156,1,,,,,,,,
,,,,,,,,,,,,,FF,,,,,,,,0.7993,,,,,,,,,,,,,,,,,,,,,,61032601dabc8bfe1409e7ac,61036b5ec5234f1187fb1c3d,2021-07-29_23h01.18.864,Simcolourproject_2stim_asymm_v5,2020.2.10,Win32,60,61025ae37ef11b136ea224fe,,,,,,,,,477,65,22,1,0,0,response1disk,,6,36,-2,1,0,0,rectangle,36,-2,1,0,0,36,-2,1,0,0,1,30,190,150,1,,,,,,,,
,,,,,,,,,,,,,FF,,,,,,,,1.0496,,,,,,,,,,,,,,,,,,,,,,61032601dabc8bfe1409e7ac,61036b5ec5234f1187fb1c3d,2021-07-29_23h01.18.864,Simcolourproject_2stim_asymm_v5,2020.2.10,Win32,60,61025ae37ef11b136ea224fe,,,,,,,,,1417,44,45,1,0,0,response1disk,,7,17,2,1,0,0,rectangle,17,2,1,0,0,17,2,1,0,0,1,31,191,8,1,,,,,,,,
,,,,,,,,,,,,,FF,,,,,,,,0.9329,,,,,,,,,,,,,,,,,,,,,,61032601dabc8bfe1409e7ac,61036b5ec5234f1187fb1c3d,2021-07-29_23h01.18.864,Simcolourproject_2stim_asymm_v5,2020.2.10,Win32,60,61025ae37ef11b136ea224fe,,,,,,,,,1783,40,78,1,0,0,response1disk,,7,20,-4,1,0,0,rectangle,20,-4,1,0,0,20,-4,1,0,0,1,32,192,109,1,,,,,,,,
,,,,,,,,,,,,,FF,,,,,,,,0.8329,,,,,,,,,,,,,,,,,,,,,,61032601dabc8bfe1409e7ac,61036b5ec5234f1187fb1c3d,2021-07-29_23h01.18.864,Simcolourproject_2stim_asymm_v5,2020.2.10,Win32,60,61025ae37ef11b136ea224fe,,,,,,,,,2114,51,84,1,0,0,response1disk,,7,10,-1,1,0,0,rectangle,10,-1,1,0,0,10,-1,1,0,0,1,33,193,71,1,,,,,,,,
,,,,,,,,,,,,,FF,,,,,,,,0.8492,,,,,,,,,,,,,,,,,,,,,,61032601dabc8bfe1409e7ac,61036b5ec5234f1187fb1c3d,2021-07-29_23h01.18.864,Simcolourproject_2stim_asymm_v5,2020.2.10,Win32,60,61025ae37ef11b136ea224fe,,,,,,,,,2638,37,73,1,0,0,response1disk,,7,8,-15,1,0,0,rectangle,8,-15,1,0,0,8,-15,1,0,0,1,34,194,66,1,,,,,,,,
,,,,,,,,,,,,,FF,,,,,,,,0.6645,,,,,,,,,,,,,,,,,,,,,,61032601dabc8bfe1409e7ac,61036b5ec5234f1187fb1c3d,2021-07-29_23h01.18.864,Simcolourproject_2stim_asymm_v5,2020.2.10,Win32,60,61025ae37ef11b136ea224fe,,,,,,,,,3313,74,58,1,0,0,response1disk,,6,9,-9,1,0,0,rectangle,9,-9,1,0,0,9,-9,1,0,0,1,35,195,6,1,,,,,,,,
,,,,,,,,,,,,,FF,,,,,,,,0.5996,,,,,,,,,,,,,,,,,,,,,,61032601dabc8bfe1409e7ac,61036b5ec5234f1187fb1c3d,2021-07-29_23h01.18.864,Simcolourproject_2stim_asymm_v5,2020.2.10,Win32,60,61025ae37ef11b136ea224fe,,,,,,,,,1860,31,69,1,0,0,response1disk,,7,16,4,1,0,0,rectangle,16,4,1,0,0,16,4,1,0,0,1,36,196,49,1,,,,,,,,
,,,,,,,,,,,,,FF,,,,,,,,0.6501,,,,,,,,,,,,,,,,,,,,,,61032601dabc8bfe1409e7ac,61036b5ec5234f1187fb1c3d,2021-07-29_23h01.18.864,Simcolourproject_2stim_asymm_v5,2020.2.10,Win32,60,61025ae37ef11b136ea224fe,,,,,,,,,2564,37,59,1,0,0,response1disk,,7,16,1,1,0,0,rectangle,16,1,1,0,0,16,1,1,0,0,1,37,197,14,1,,,,,,,,
,,,,,,,,,,,,,FF,,,,,,,,0.6498,,,,,,,,,,,,,,,,,,,,,,61032601dabc8bfe1409e7ac,61036b5ec5234f1187fb1c3d,2021-07-29_23h01.18.864,Simcolourproject_2stim_asymm_v5,2020.2.10,Win32,60,61025ae37ef11b136ea224fe,,,,,,,,,1838,63,77,1,0,0,response1disk,,7,38,4,1,0,0,rectangle,38,4,1,0,0,38,4,1,0,0,1,38,198,128,1,,,,,,,,
,,,,,,,,,,,,,FF,,,,,,,,1.0352,,,,,,,,,,,,,,,,,,,,,,61032601dabc8bfe1409e7ac,61036b5ec5234f1187fb1c3d,2021-07-29_23h01.18.864,Simcolourproject_2stim_asymm_v5,2020.2.10,Win32,60,61025ae37ef11b136ea224fe,,,,,,,,,21,34,71,1,0,0,response1disk,,7,5,-12,1,0,0,rectangle,5,-12,1,0,0,5,-12,1,0,0,1,39,199,131,1,,,,,,,,
,,,,,,,,,,,,,FF,,,,,,,,0.9664,,,,,,,,,,,,,,,,,,,,,,61032601dabc8bfe1409e7ac,61036b5ec5234f1187fb1c3d,2021-07-29_23h01.18.864,Simcolourproject_2stim_asymm_v5,2020.2.10,Win32,60,61025ae37ef11b136ea224fe,,,,,,,,,2198,43,73,1,0,0,response1disk,,7,16,-1,1,0,0,rectangle,16,-1,1,0,0,16,-1,1,0,0,1,40,200,107,1,,,,,,,,
,,,,,,,,,,,,,FF,,,,,,,,0.8329,,,,,,,,,,,,,,,,,,,,,,61032601dabc8bfe1409e7ac,61036b5ec5234f1187fb1c3d,2021-07-29_23h01.18.864,Simcolourproject_2stim_asymm_v5,2020.2.10,Win32,60,61025ae37ef11b136ea224fe,,,,,,,,,1041,60,97,1,0,0,response1disk,,7,31,3,1,0,0,rectangle,31,3,1,0,0,31,3,1,0,0,1,41,201,104,1,,,,,,,,
,,,,,,,,,,,,,FF,,,,,,,,1.0328,,,,,,,,,,,,,,,,,,,,,,61032601dabc8bfe1409e7ac,61036b5ec5234f1187fb1c3d,2021-07-29_23h01.18.864,Simcolourproject_2stim_asymm_v5,2020.2.10,Win32,60,61025ae37ef11b136ea224fe,,,,,,,,,533,-97,54,1,0,0,response7disk,,1,-7,-3,1,0,0,rectangle,-7,-3,1,0,0,-7,-3,1,0,0,1,42,202,45,1,,,,,,,,
,,,,,,,,,,,,,FF,,,,,,,,1.1999,,,,,,,,,,,,,,,,,,,,,,61032601dabc8bfe1409e7ac,61036b5ec5234f1187fb1c3d,2021-07-29_23h01.18.864,Simcolourproject_2stim_asymm_v5,2020.2.10,Win32,60,61025ae37ef11b136ea224fe,,,,,,,,,680,68,54,1,0,0,response1disk,,6,14,-7,1,0,0,rectangle,14,-7,1,0,0,14,-7,1,0,0,1,43,203,41,1,,,,,,,,
,,,,,,,,,,,,,FF,,,,,,,,0.6649,,,,,,,,,,,,,,,,,,,,,,61032601dabc8bfe1409e7ac,61036b5ec5234f1187fb1c3d,2021-07-29_23h01.18.864,Simcolourproject_2stim_asymm_v5,2020.2.10,Win32,60,61025ae37ef11b136ea224fe,,,,,,,,,505,71,23,1,0,0,response1disk,,6,15,3,1,0,0,rectangle,15,3,1,0,0,15,3,1,0,0,1,44,204,58,1,,,,,,,,
,,,,,,,,,,,,,FF,,,,,,,,1.0828,,,,,,,,,,,,,,,,,,,,,,61032601dabc8bfe1409e7ac,61036b5ec5234f1187fb1c3d,2021-07-29_23h01.18.864,Simcolourproject_2stim_asymm_v5,2020.2.10,Win32,60,61025ae37ef11b136ea224fe,,,,,,,,,538,93,38,1,0,0,response1disk,,6,30,2,1,0,0,rectangle,30,2,1,0,0,30,2,1,0,0,1,45,205,136,1,,,,,,,,
,,,,,,,,,,,,,FF,,,,,,,,1.2984,,,,,,,,,,,,,,,,,,,,,,61032601dabc8bfe1409e7ac,61036b5ec5234f1187fb1c3d,2021-07-29_23h01.18.864,Simcolourproject_2stim_asymm_v5,2020.2.10,Win32,60,61025ae37ef11b136ea224fe,,,,,,,,,2441,75,43,1,0,0,response1disk,,6,11,-1,1,0,0,rectangle,-34,-92,1,0,0,-1,-3,1,0,0,1,46,206,67,1,,response5disk_3,TRUE,3,3,"[287,29,251,207,216,263,125,147,245,102,62,50,39,219,142,143,122,2,240,107]",2.2167,rectangle
,,,,,,,,,,,,,FF,,,,,,,,0.9995,,,,,,,,,,,,,,,,,,,,,,61032601dabc8bfe1409e7ac,61036b5ec5234f1187fb1c3d,2021-07-29_23h01.18.864,Simcolourproject_2stim_asymm_v5,2020.2.10,Win32,60,61025ae37ef11b136ea224fe,,,,,,,,,2917,72,65,1,0,0,response1disk,,6,21,-3,1,0,0,rectangle,21,-3,1,0,0,21,-3,1,0,0,1,47,207,37,1,,,,,,,,
,,,,,,,,,,,,,FF,,,,,,,,0.6999,,,,,,,,,,,,,,,,,,,,,,61032601dabc8bfe1409e7ac,61036b5ec5234f1187fb1c3d,2021-07-29_23h01.18.864,Simcolourproject_2stim_asymm_v5,2020.2.10,Win32,60,61025ae37ef11b136ea224fe,,,,,,,,,1797,75,34,1,0,0,response1disk,,6,18,6,1,0,0,rectangle,18,6,1,0,0,18,6,1,0,0,1,48,208,144,1,,,,,,,,
,,,,,,,,,,,,,FF,,,,,,,,1.0994,,,,,,,,,,,,,,,,,,,,,,61032601dabc8bfe1409e7ac,61036b5ec5234f1187fb1c3d,2021-07-29_23h01.18.864,Simcolourproject_2stim_asymm_v5,2020.2.10,Win32,60,61025ae37ef11b136ea224fe,,,,,,,,,1738,39,57,1,0,0,response1disk,,7,18,3,1,0,0,rectangle,18,3,1,0,0,18,3,1,0,0,1,49,209,77,1,,,,,,,,
,,,,,,,,,,,,,FF,,,,,,,,0.7821,,,,,,,,,,,,,,,,,,,,,,61032601dabc8bfe1409e7ac,61036b5ec5234f1187fb1c3d,2021-07-29_23h01.18.864,Simcolourproject_2stim_asymm_v5,2020.2.10,Win32,60,61025ae37ef11b136ea224fe,,,,,,,,,2639,52,100,1,0,0,response1disk,,7,12,1,1,0,0,rectangle,12,1,1,0,0,12,1,1,0,0,1,50,210,35,1,,,,,,,,
,,,,,,,,,,,,,FF,,,,,,,,2.2821,,,,,,,,,,,,,,,,,,,,,,61032601dabc8bfe1409e7ac,61036b5ec5234f1187fb1c3d,2021-07-29_23h01.18.864,Simcolourproject_2stim_asymm_v5,2020.2.10,Win32,60,61025ae37ef11b136ea224fe,,,,,,,,,238,34,107,1,0,0,response1disk,,7,2,7,1,0,0,rectangle,2,7,1,0,0,2,7,1,0,0,1,51,211,145,1,,,,,,,,
,,,,,,,,,,,,,FF,,,,,,,,1.3659,,,,,,,,,,,,,,,,,,,,,,61032601dabc8bfe1409e7ac,61036b5ec5234f1187fb1c3d,2021-07-29_23h01.18.864,Simcolourproject_2stim_asymm_v5,2020.2.10,Win32,60,61025ae37ef11b136ea224fe,,,,,,,,,894,75,-83,1,0,0,response3disk,,4,30,-3,1,0,0,rectangle,30,-3,1,0,0,30,-3,1,0,0,1,52,212,50,1,,,,,,,,
,,,,,,,,,,,,,FF,,,,,,,,0.8494,,,,,,,,,,,,,,,,,,,,,,61032601dabc8bfe1409e7ac,61036b5ec5234f1187fb1c3d,2021-07-29_23h01.18.864,Simcolourproject_2stim_asymm_v5,2020.2.10,Win32,60,61025ae37ef11b136ea224fe,,,,,,,,,770,85,-61,1,0,0,response3disk,,5,21,5,1,0,0,rectangle,21,5,1,0,0,21,5,1,0,0,1,53,213,148,1,,,,,,,,
,,,,,,,,,,,,,FF,,,,,,,,1.0661,,,,,,,,,,,,,,,,,,,,,,61032601dabc8bfe1409e7ac,61036b5ec5234f1187fb1c3d,2021-07-29_23h01.18.864,Simcolourproject_2stim_asymm_v5,2020.2.10,Win32,60,61025ae37ef11b136ea224fe,,,,,,,,,1884,55,55,1,0,0,response1disk,,7,19,-4,1,0,0,rectangle,19,-4,1,0,0,19,-4,1,0,0,1,54,214,122,1,,,,,,,,
,,,,,,,,,,,,,FF,,,,,,,,1.0687,,,,,,,,,,,,,,,,,,,,,,61032601dabc8bfe1409e7ac,61036b5ec5234f1187fb1c3d,2021-07-29_23h01.18.864,Simcolourproject_2stim_asymm_v5,2020.2.10,Win32,60,61025ae37ef11b136ea224fe,,,,,,,,,1540,64,39,1,0,0,response1disk,,6,4,9,1,0,0,rectangle,38,-132,1,0,0,-6,-6,1,0,0,1,55,215,65,1,,response3disk_3,TRUE,4,4,"[287,29,251,207,216,263,125,147,245,102,62,50,39,219,142,143,122,2,240,107]",2.0488,rectangle
,,,,,,,,,,,,,FF,,,,,,,,0.8336,,,,,,,,,,,,,,,,,,,,,,61032601dabc8bfe1409e7ac,61036b5ec5234f1187fb1c3d,2021-07-29_23h01.18.864,Simcolourproject_2stim_asymm_v5,2020.2.10,Win32,60,61025ae37ef11b136ea224fe,,,,,,,,,2755,76,38,1,0,0,response1disk,,6,23,2,1,0,0,rectangle,23,2,1,0,0,23,2,1,0,0,1,56,216,55,1,,,,,,,,
,,,,,,,,,,,,,FF,,,,,,,,0.7497,,,,,,,,,,,,,,,,,,,,,,61032601dabc8bfe1409e7ac,61036b5ec5234f1187fb1c3d,2021-07-29_23h01.18.864,Simcolourproject_2stim_asymm_v5,2020.2.10,Win32,60,61025ae37ef11b136ea224fe,,,,,,,,,931,82,68,1,0,0,response1disk,,6,17,-3,1,0,0,rectangle,17,-3,1,0,0,17,-3,1,0,0,1,57,217,114,1,,,,,,,,
,,,,,,,,,,,,,FF,,,,,,,,0.7495,,,,,,,,,,,,,,,,,,,,,,61032601dabc8bfe1409e7ac,61036b5ec5234f1187fb1c3d,2021-07-29_23h01.18.864,Simcolourproject_2stim_asymm_v5,2020.2.10,Win32,60,61025ae37ef11b136ea224fe,,,,,,,,,282,106,61,1,0,0,response1disk,,6,15,-8,1,0,0,rectangle,-85,35,1,0,0,-13,-1,1,0,0,1,58,218,151,1,,response7disk_3,TRUE,1,1,"[287,29,251,207,216,263,125,147,245,102,62,50,39,219,142,143,122,2,240,107]",1.7519,rectangle
,,,,,,,,,,,,,FF,,,,,,,,0.8829,,,,,,,,,,,,,,,,,,,,,,61032601dabc8bfe1409e7ac,61036b5ec5234f1187fb1c3d,2021-07-29_23h01.18.864,Simcolourproject_2stim_asymm_v5,2020.2.10,Win32,60,61025ae37ef11b136ea224fe,,,,,,,,,3252,-72,44,1,0,0,response7disk,,1,-12,2,1,0,0,rectangle,-12,2,1,0,0,-12,2,1,0,0,1,59,219,23,1,,,,,,,,
,,,,,,,,,,,,,FF,,,,,,,,0.8647,,,,,,,,,,,,,,,,,,,,,,61032601dabc8bfe1409e7ac,61036b5ec5234f1187fb1c3d,2021-07-29_23h01.18.864,Simcolourproject_2stim_asymm_v5,2020.2.10,Win32,60,61025ae37ef11b136ea224fe,,,,,,,,,877,96,39,1,0,0,response1disk,,6,-18,-11,1,0,0,rectangle,-18,-11,1,0,0,-18,-11,1,0,0,1,60,220,63,1,,,,,,,,
,,,,,,,,,,,,,FF,,,,,,,,0.8829,,,,,,,,,,,,,,,,,,,,,,61032601dabc8bfe1409e7ac,61036b5ec5234f1187fb1c3d,2021-07-29_23h01.18.864,Simcolourproject_2stim_asymm_v5,2020.2.10,Win32,60,61025ae37ef11b136ea224fe,,,,,,,,,1940,96,57,1,0,0,response1disk,,6,-2,-5,1,0,0,rectangle,-2,-5,1,0,0,-2,-5,1,0,0,1,61,221,111,1,,,,,,,,
,,,,,,,,,,,,,FF,,,,,,,,0.9698,,,,,,,,,,,,,,,,,,,,,,61032601dabc8bfe1409e7ac,61036b5ec5234f1187fb1c3d,2021-07-29_23h01.18.864,Simcolourproject_2stim_asymm_v5,2020.2.10,Win32,60,61025ae37ef11b136ea224fe,,,,,,,,,2963,-124,69,1,0,0,response7disk,,1,-24,1,1,0,0,rectangle,-24,1,1,0,0,-24,1,1,0,0,1,62,222,43,1,,,,,,,,
,,,,,,,,,,,,,FF,,,,,,,,1.3661,,,,,,,,,,,,,,,,,,,,,,61032601dabc8bfe1409e7ac,61036b5ec5234f1187fb1c3d,2021-07-29_23h01.18.864,Simcolourproject_2stim_asymm_v5,2020.2.10,Win32,60,61025ae37ef11b136ea224fe,,,,,,,,,2339,87,34,1,0,0,response1disk,,6,0,0,1,0,0,rectangle,0,0,1,0,0,0,0,1,0,0,1,63,223,127,1,,,,,,,,
,,,,,,,,,,,,,FF,,,,,,,,1.3326,,,,,,,,,,,,,,,,,,,,,,61032601dabc8bfe1409e7ac,61036b5ec5234f1187fb1c3d,2021-07-29_23h01.18.864,Simcolourproject_2stim_asymm_v5,2020.2.10,Win32,60,61025ae37ef11b136ea224fe,,,,,,,,,3547,59,102,1,0,0,response1disk,,7,8,-3,1,0,0,rectangle,8,-3,1,0,0,8,-3,1,0,0,1,64,224,130,1,,,,,,,,
,,,,,,,,,,,,,FF,,,,,,,,0.9497,,,,,,,,,,,,,,,,,,,,,,61032601dabc8bfe1409e7ac,61036b5ec5234f1187fb1c3d,2021-07-29_23h01.18.864,Simcolourproject_2stim_asymm_v5,2020.2.10,Win32,60,61025ae37ef11b136ea224fe,,,,,,,,,3591,-74,96,1,0,0,response7disk,,0,2,-2,1,0,0,rectangle,2,-2,1,0,0,2,-2,1,0,0,1,65,225,75,1,,,,,,,,
,,,,,,,,,,,,,FF,,,,,,,,1.9314,,,,,,,,,,,,,,,,,,,,,,61032601dabc8bfe1409e7ac,61036b5ec5234f1187fb1c3d,2021-07-29_23h01.18.864,Simcolourproject_2stim_asymm_v5,2020.2.10,Win32,60,61025ae37ef11b136ea224fe,,,,,,,,,1890,-80,-56,1,0,0,response5disk,,2,-18,-11,1,0,0,rectangle,-18,-11,1,0,0,-18,-11,1,0,0,1,66,226,120,1,,,,,,,,
,,,,,,,,,,,,,FF,,,,,,,,1.3993,,,,,,,,,,,,,,,,,,,,,,61032601dabc8bfe1409e7ac,61036b5ec5234f1187fb1c3d,2021-07-29_23h01.18.864,Simcolourproject_2stim_asymm_v5,2020.2.10,Win32,60,61025ae37ef11b136ea224fe,,,,,,,,,537,96,-43,1,0,0,response3disk,,5,6,3,1,0,0,rectangle,6,3,1,0,0,6,3,1,0,0,1,67,227,12,1,,,,,,,,
,,,,,,,,,,,,,FF,,,,,,,,1.1494,,,,,,,,,,,,,,,,,,,,,,61032601dabc8bfe1409e7ac,61036b5ec5234f1187fb1c3d,2021-07-29_23h01.18.864,Simcolourproject_2stim_asymm_v5,2020.2.10,Win32,60,61025ae37ef11b136ea224fe,,,,,,,,,368,-119,52,1,0,0,response7disk,,1,-6,-5,1,0,0,rectangle,-6,-5,1,0,0,-6,-5,1,0,0,1,68,228,69,1,,,,,,,,
,,,,,,,,,,,,,FF,,,,,,,,0.9157,,,,,,,,,,,,,,,,,,,,,,61032601dabc8bfe1409e7ac,61036b5ec5234f1187fb1c3d,2021-07-29_23h01.18.864,Simcolourproject_2stim_asymm_v5,2020.2.10,Win32,60,61025ae37ef11b136ea224fe,,,,,,,,,2732,92,36,1,0,0,response1disk,,6,-17,-17,1,0,0,rectangle,-17,-17,1,0,0,-17,-17,1,0,0,1,69,229,133,1,,,,,,,,
,,,,,,,,,,,,,FF,,,,,,,,1.0644,,,,,,,,,,,,,,,,,,,,,,61032601dabc8bfe1409e7ac,61036b5ec5234f1187fb1c3d,2021-07-29_23h01.18.864,Simcolourproject_2stim_asymm_v5,2020.2.10,Win32,60,61025ae37ef11b136ea224fe,,,,,,,,,1465,68,43,1,0,0,response1disk,,6,13,7,1,0,0,rectangle,13,7,1,0,0,13,7,1,0,0,1,70,230,93,1,,,,,,,,
,,,,,,,,,,,,,FF,,,,,,,,1.4662,,,,,,,,,,,,,,,,,,,,,,61032601dabc8bfe1409e7ac,61036b5ec5234f1187fb1c3d,2021-07-29_23h01.18.864,Simcolourproject_2stim_asymm_v5,2020.2.10,Win32,60,61025ae37ef11b136ea224fe,,,,,,,,,3110,94,-66,1,0,0,response3disk,,5,-10,-1,1,0,0,rectangle,-10,-1,1,0,0,-10,-1,1,0,0,1,71,231,80,1,,,,,,,,
,,,,,,,,,,,,,FF,,,,,,,,0.8496,,,,,,,,,,,,,,,,,,,,,,61032601dabc8bfe1409e7ac,61036b5ec5234f1187fb1c3d,2021-07-29_23h01.18.864,Simcolourproject_2stim_asymm_v5,2020.2.10,Win32,60,61025ae37ef11b136ea224fe,,,,,,,,,2136,94,59,1,0,0,response1disk,,6,11,16,1,0,0,rectangle,11,16,1,0,0,11,16,1,0,0,1,72,232,155,1,,,,,,,,
,,,,,,,,,,,,,FF,,,,,,,,1.0879,,,,,,,,,,,,,,,,,,,,,,61032601dabc8bfe1409e7ac,61036b5ec5234f1187fb1c3d,2021-07-29_23h01.18.864,Simcolourproject_2stim_asymm_v5,2020.2.10,Win32,60,61025ae37ef11b136ea224fe,,,,,,,,,3819,86,-34,1,0,0,response3disk,,5,-1,-4,1,0,0,rectangle,-1,-4,1,0,0,-1,-4,1,0,0,1,73,233,137,1,,,,,,,,
,,,,,,,,,,,,,FF,,,,,,,,1.353,,,,,,,,,,,,,,,,,,,,,,61032601dabc8bfe1409e7ac,61036b5ec5234f1187fb1c3d,2021-07-29_23h01.18.864,Simcolourproject_2stim_asymm_v5,2020.2.10,Win32,60,61025ae37ef11b136ea224fe,,,,,,,,,370,95,-44,1,0,0,response3disk,,5,27,-12,1,0,0,rectangle,27,-12,1,0,0,27,-12,1,0,0,1,74,234,70,1,,,,,,,,
,,,,,,,,,,,,,FF,,,,,,,,0.733,,,,,,,,,,,,,,,,,,,,,,61032601dabc8bfe1409e7ac,61036b5ec5234f1187fb1c3d,2021-07-29_23h01.18.864,Simcolourproject_2stim_asymm_v5,2020.2.10,Win32,60,61025ae37ef11b136ea224fe,,,,,,,,,1007,95,35,1,0,0,response1disk,,6,17,-3,1,0,0,rectangle,17,-3,1,0,0,17,-3,1,0,0,1,75,235,78,1,,,,,,,,
,,,,,,,,,,,,,FF,,,,,,,,0.7496,,,,,,,,,,,,,,,,,,,,,,61032601dabc8bfe1409e7ac,61036b5ec5234f1187fb1c3d,2021-07-29_23h01.18.864,Simcolourproject_2stim_asymm_v5,2020.2.10,Win32,60,61025ae37ef11b136ea224fe,,,,,,,,,2818,88,-38,1,0,0,response3disk,,5,17,-8,1,0,0,rectangle,17,-8,1,0,0,17,-8,1,0,0,1,76,236,13,1,,,,,,,,
,,,,,,,,,,,,,FF,,,,,,,,0.8495,,,,,,,,,,,,,,,,,,,,,,61032601dabc8bfe1409e7ac,61036b5ec5234f1187fb1c3d,2021-07-29_23h01.18.864,Simcolourproject_2stim_asymm_v5,2020.2.10,Win32,60,61025ae37ef11b136ea224fe,,,,,,,,,1393,82,-32,1,0,0,response3disk,,5,6,16,1,0,0,rectangle,6,16,1,0,0,6,16,1,0,0,1,77,237,11,1,,,,,,,,
,,,,,,,,,,,,,FF,,,,,,,,0.8163,,,,,,,,,,,,,,,,,,,,,,61032601dabc8bfe1409e7ac,61036b5ec5234f1187fb1c3d,2021-07-29_23h01.18.864,Simcolourproject_2stim_asymm_v5,2020.2.10,Win32,60,61025ae37ef11b136ea224fe,,,,,,,,,4088,97,-24,1,0,0,response3disk,,5,7,8,1,0,0,rectangle,7,8,1,0,0,7,8,1,0,0,1,78,238,110,1,,,,,,,,
,,,,,,,,,,,,,FF,,,,,,,,0.7989,,,,,,,,,,,,,,,,,,,,,,61032601dabc8bfe1409e7ac,61036b5ec5234f1187fb1c3d,2021-07-29_23h01.18.864,Simcolourproject_2stim_asymm_v5,2020.2.10,Win32,60,61025ae37ef11b136ea224fe,,,,,,,,,2930,96,41,1,0,0,response1disk,,6,0,9,1,0,0,rectangle,-87,-39,1,0,0,13,17,1,0,0,1,79,239,125,1,,response5disk_3,TRUE,2,2,"[287,29,251,207,216,263,125,147,245,102,62,50,39,219,142,143,122,2,240,107]",1.6982,rectangle
,,,,,,,,,,,,,FF,,,,,,,,0.8494,,,,,,,,,,,,,,,,,,,,,,61032601dabc8bfe1409e7ac,61036b5ec5234f1187fb1c3d,2021-07-29_23h01.18.864,Simcolourproject_2stim_asymm_v5,2020.2.10,Win32,60,61025ae37ef11b136ea224fe,,,,,,,,,1169,78,46,1,0,0,response1disk,,6,-6,-4,1,0,0,rectangle,-6,-4,1,0,0,-6,-4,1,0,0,1,80,240,98,1,,,,,,,,
,,,,,,,,,,,,,FF,,,,,,,,0.7996,,,,,,,,,,,,,,,,,,,,,,61032601dabc8bfe1409e7ac,61036b5ec5234f1187fb1c3d,2021-07-29_23h01.18.864,Simcolourproject_2stim_asymm_v5,2020.2.10,Win32,60,61025ae37ef11b136ea224fe,,,,,,,,,926,57,29,1,0,0,response1disk,,6,-11,-2,1,0,0,rectangle,-11,-2,1,0,0,-11,-2,1,0,0,1,81,241,134,1,,,,,,,,
,,,,,,,,,,,,,FF,,,,,,,,0.7326,,,,,,,,,,,,,,,,,,,,,,61032601dabc8bfe1409e7ac,61036b5ec5234f1187fb1c3d,2021-07-29_23h01.18.864,Simcolourproject_2stim_asymm_v5,2020.2.10,Win32,60,61025ae37ef11b136ea224fe,,,,,,,,,908,60,37,1,0,0,response1disk,,6,6,9,1,0,0,rectangle,6,9,1,0,0,6,9,1,0,0,1,82,242,29,1,,,,,,,,
,,,,,,,,,,,,,FF,,,,,,,,0.7165,,,,,,,,,,,,,,,,,,,,,,61032601dabc8bfe1409e7ac,61036b5ec5234f1187fb1c3d,2021-07-29_23h01.18.864,Simcolourproject_2stim_asymm_v5,2020.2.10,Win32,60,61025ae37ef11b136ea224fe,,,,,,,,,269,88,50,1,0,0,response1disk,,6,12,5,1,0,0,rectangle,12,5,1,0,0,12,5,1,0,0,1,83,243,3,1,,,,,,,,
,,,,,,,,,,,,,FF,,,,,,,,1.8173,,,,,,,,,,,,,,,,,,,,,,61032601dabc8bfe1409e7ac,61036b5ec5234f1187fb1c3d,2021-07-29_23h01.18.864,Simcolourproject_2stim_asymm_v5,2020.2.10,Win32,60,61025ae37ef11b136ea224fe,,,,,,,,,1960,-92,-68,1,0,0,response5disk,,2,-15,-7,1,0,0,rectangle,36,61,1,0,0,5,11,1,0,0,1,84,244,113,1,,response1disk_3,TRUE,7,7,"[287,29,251,207,216,263,125,147,245,102,62,50,39,219,142,143,122,2,240,107]",1.9644,rectangle
,,,,,,,,,,,,,FF,,,,,,,,1.3679,,,,,,,,,,,,,,,,,,,,,,61032601dabc8bfe1409e7ac,61036b5ec5234f1187fb1c3d,2021-07-29_23h01.18.864,Simcolourproject_2stim_asymm_v5,2020.2.10,Win32,60,61025ae37ef11b136ea224fe,,,,,,,,,1910,101,-48,1,0,0,response3disk,,5,24,2,1,0,0,rectangle,24,2,1,0,0,24,2,1,0,0,1,85,245,25,1,,,,,,,,
,,,,,,,,,,,,,FF,,,,,,,,0.8,,,,,,,,,,,,,,,,,,,,,,61032601dabc8bfe1409e7ac,61036b5ec5234f1187fb1c3d,2021-07-29_23h01.18.864,Simcolourproject_2stim_asymm_v5,2020.2.10,Win32,60,61025ae37ef11b136ea224fe,,,,,,,,,4198,85,-63,1,0,0,response3disk,,5,-5,-3,1,0,0,rectangle,-5,-3,1,0,0,-5,-3,1,0,0,1,86,246,51,1,,,,,,,,
,,,,,,,,,,,,,FF,,,,,,,,1.1327,,,,,,,,,,,,,,,,,,,,,,61032601dabc8bfe1409e7ac,61036b5ec5234f1187fb1c3d,2021-07-29_23h01.18.864,Simcolourproject_2stim_asymm_v5,2020.2.10,Win32,60,61025ae37ef11b136ea224fe,,,,,,,,,129,49,85,1,0,0,response1disk,,7,21,-8,1,0,0,rectangle,21,-8,1,0,0,21,-8,1,0,0,1,87,247,83,1,,,,,,,,
,,,,,,,,,,,,,FF,,,,,,,,0.833,,,,,,,,,,,,,,,,,,,,,,61032601dabc8bfe1409e7ac,61036b5ec5234f1187fb1c3d,2021-07-29_23h01.18.864,Simcolourproject_2stim_asymm_v5,2020.2.10,Win32,60,61025ae37ef11b136ea224fe,,,,,,,,,1200,56,85,1,0,0,response1disk,,7,19,8,1,0,0,rectangle,19,8,1,0,0,19,8,1,0,0,1,88,248,73,1,,,,,,,,
,,,,,,,,,,,,,FF,,,,,,,,1.0329,,,,,,,,,,,,,,,,,,,,,,61032601dabc8bfe1409e7ac,61036b5ec5234f1187fb1c3d,2021-07-29_23h01.18.864,Simcolourproject_2stim_asymm_v5,2020.2.10,Win32,60,61025ae37ef11b136ea224fe,,,,,,,,,3308,99,40,1,0,0,response1disk,,6,24,-2,1,0,0,rectangle,24,-2,1,0,0,24,-2,1,0,0,1,89,249,26,1,,,,,,,,
,,,,,,,,,,,,,FF,,,,,,,,0.833,,,,,,,,,,,,,,,,,,,,,,61032601dabc8bfe1409e7ac,61036b5ec5234f1187fb1c3d,2021-07-29_23h01.18.864,Simcolourproject_2stim_asymm_v5,2020.2.10,Win32,60,61025ae37ef11b136ea224fe,,,,,,,,,3314,77,36,1,0,0,response1disk,,6,2,-3,1,0,0,rectangle,-60,-31,1,0,0,5,-10,1,0,0,1,90,250,143,1,,response5disk_3,TRUE,2,2,"[287,29,251,207,216,263,125,147,245,102,62,50,39,219,142,143,122,2,240,107]",1.6655,rectangle
,,,,,,,,,,,,,FF,,,,,,,,0.833,,,,,,,,,,,,,,,,,,,,,,61032601dabc8bfe1409e7ac,61036b5ec5234f1187fb1c3d,2021-07-29_23h01.18.864,Simcolourproject_2stim_asymm_v5,2020.2.10,Win32,60,61025ae37ef11b136ea224fe,,,,,,,,,1563,85,-46,1,0,0,response3disk,,5,9,-4,1,0,0,rectangle,9,-4,1,0,0,9,-4,1,0,0,1,91,251,149,1,,,,,,,,
,,,,,,,,,,,,,FF,,,,,,,,0.7177,,,,,,,,,,,,,,,,,,,,,,61032601dabc8bfe1409e7ac,61036b5ec5234f1187fb1c3d,2021-07-29_23h01.18.864,Simcolourproject_2stim_asymm_v5,2020.2.10,Win32,60,61025ae37ef11b136ea224fe,,,,,,,,,665,91,53,1,0,0,response1disk,,6,-11,-1,1,0,0,rectangle,-11,-1,1,0,0,-11,-1,1,0,0,1,92,252,119,1,,,,,,,,
,,,,,,,,,,,,,FF,,,,,,,,0.733,,,,,,,,,,,,,,,,,,,,,,61032601dabc8bfe1409e7ac,61036b5ec5234f1187fb1c3d,2021-07-29_23h01.18.864,Simcolourproject_2stim_asymm_v5,2020.2.10,Win32,60,61025ae37ef11b136ea224fe,,,,,,,,,2968,41,22,1,0,0,response1disk,,6,-21,-7,1,0,0,rectangle,-21,-7,1,0,0,-21,-7,1,0,0,1,93,253,95,1,,,,,,,,
,,,,,,,,,,,,,FF,,,,,,,,0.7142,,,,,,,,,,,,,,,,,,,,,,61032601dabc8bfe1409e7ac,61036b5ec5234f1187fb1c3d,2021-07-29_23h01.18.864,Simcolourproject_2stim_asymm_v5,2020.2.10,Win32,60,61025ae37ef11b136ea224fe,,,,,,,,,1395,61,45,1,0,0,response1disk,,6,0,-16,1,0,0,rectangle,0,-16,1,0,0,0,-16,1,0,0,1,94,254,17,1,,,,,,,,
,,,,,,,,,,,,,FF,,,,,,,,1.2158,,,,,,,,,,,,,,,,,,,,,,61032601dabc8bfe1409e7ac,61036b5ec5234f1187fb1c3d,2021-07-29_23h01.18.864,Simcolourproject_2stim_asymm_v5,2020.2.10,Win32,60,61025ae37ef11b136ea224fe,,,,,,,,,3160,98,35,1,0,0,response1disk,,6,13,-5,1,0,0,rectangle,13,-5,1,0,0,13,-5,1,0,0,1,95,255,0,1,,,,,,,,
,,,,,,,,,,,,,FF,,,,,,,,1.2826,,,,,,,,,,,,,,,,,,,,,,61032601dabc8bfe1409e7ac,61036b5ec5234f1187fb1c3d,2021-07-29_23h01.18.864,Simcolourproject_2stim_asymm_v5,2020.2.10,Win32,60,61025ae37ef11b136ea224fe,,,,,,,,,77,-60,88,1,0,0,response7disk,,0,2,-1,1,0,0,rectangle,2,-1,1,0,0,2,-1,1,0,0,1,96,256,4,1,,,,,,,,
,,,,,,,,,,,,,FF,,,,,,,,1.4659,,,,,,,,,,,,,,,,,,,,,,61032601dabc8bfe1409e7ac,61036b5ec5234f1187fb1c3d,2021-07-29_23h01.18.864,Simcolourproject_2stim_asymm_v5,2020.2.10,Win32,60,61025ae37ef11b136ea224fe,,,,,,,,,2426,-73,-33,1,0,0,response5disk,,2,2,1,1,0,0,rectangle,2,1,1,0,0,2,1,1,0,0,1,97,257,115,1,,,,,,,,
,,,,,,,,,,,,,FF,,,,,,,,1.7324,,,,,,,,,,,,,,,,,,,,,,61032601dabc8bfe1409e7ac,61036b5ec5234f1187fb1c3d,2021-07-29_23h01.18.864,Simcolourproject_2stim_asymm_v5,2020.2.10,Win32,60,61025ae37ef11b136ea224fe,,,,,,,,,3545,67,-80,1,0,0,response3disk,,4,6,-4,1,0,0,rectangle,6,-4,1,0,0,6,-4,1,0,0,1,98,258,46,1,,,,,,,,
,,,,,,,,,,,,,FF,,,,,,,,0.8327,,,,,,,,,,,,,,,,,,,,,,61032601dabc8bfe1409e7ac,61036b5ec5234f1187fb1c3d,2021-07-29_23h01.18.864,Simcolourproject_2stim_asymm_v5,2020.2.10,Win32,60,61025ae37ef11b136ea224fe,,,,,,,,,3038,56,-84,1,0,0,response3disk,,4,-13,3,1,0,0,rectangle,-13,3,1,0,0,-13,3,1,0,0,1,99,259,42,1,,,,,,,,
,,,,,,,,,,,,,FF,,,,,,,,0.9478,,,,,,,,,,,,,,,,,,,,,,61032601dabc8bfe1409e7ac,61036b5ec5234f1187fb1c3d,2021-07-29_23h01.18.864,Simcolourproject_2stim_asymm_v5,2020.2.10,Win32,60,61025ae37ef11b136ea224fe,,,,,,,,,1892,64,-43,1,0,0,response3disk,,5,9,6,1,0,0,rectangle,9,6,1,0,0,9,6,1,0,0,1,100,260,2,1,,,,,,,,
,,,,,,,,,,,,,FF,,,,,,,,0.9162,,,,,,,,,,,,,,,,,,,,,,61032601dabc8bfe1409e7ac,61036b5ec5234f1187fb1c3d,2021-07-29_23h01.18.864,Simcolourproject_2stim_asymm_v5,2020.2.10,Win32,60,61025ae37ef11b136ea224fe,,,,,,,,,543,-46,89,1,0,0,response7disk,,0,8,-1,1,0,0,rectangle,8,-1,1,0,0,8,-1,1,0,0,1,101,261,81,1,,,,,,,,
,,,,,,,,,,,,,FF,,,,,,,,0.8663,,,,,,,,,,,,,,,,,,,,,,61032601dabc8bfe1409e7ac,61036b5ec5234f1187fb1c3d,2021-07-29_23h01.18.864,Simcolourproject_2stim_asymm_v5,2020.2.10,Win32,60,61025ae37ef11b136ea224fe,,,,,,,,,145,59,-40,1,0,0,response3disk,,5,1,-3,1,0,0,rectangle,-44,-71,1,0,0,-3,4,1,0,0,1,102,262,72,1,,response5disk_3,TRUE,3,3,"[287,29,251,207,216,263,125,147,245,102,62,50,39,219,142,143,122,2,240,107]",1.8809,rectangle
,,,,,,,,,,,,,FF,,,,,,,,1.7153,,,,,,,,,,,,,,,,,,,,,,61032601dabc8bfe1409e7ac,61036b5ec5234f1187fb1c3d,2021-07-29_23h01.18.864,Simcolourproject_2stim_asymm_v5,2020.2.10,Win32,60,61025ae37ef11b136ea224fe,,,,,,,,,1112,52,83,1,0,0,response1disk,,7,13,2,1,0,0,rectangle,13,2,1,0,0,13,2,1,0,0,1,103,263,152,1,,,,,,,,
,,,,,,,,,,,,,FF,,,,,,,,0.7162,,,,,,,,,,,,,,,,,,,,,,61032601dabc8bfe1409e7ac,61036b5ec5234f1187fb1c3d,2021-07-29_23h01.18.864,Simcolourproject_2stim_asymm_v5,2020.2.10,Win32,60,61025ae37ef11b136ea224fe,,,,,,,,,335,51,91,1,0,0,response1disk,,7,13,-12,1,0,0,rectangle,13,-12,1,0,0,13,-12,1,0,0,1,104,264,87,1,,,,,,,,
,,,,,,,,,,,,,FF,,,,,,,,0.7164,,,,,,,,,,,,,,,,,,,,,,61032601dabc8bfe1409e7ac,61036b5ec5234f1187fb1c3d,2021-07-29_23h01.18.864,Simcolourproject_2stim_asymm_v5,2020.2.10,Win32,60,61025ae37ef11b136ea224fe,,,,,,,,,1101,38,63,1,0,0,response1disk,,7,16,-11,1,0,0,rectangle,16,-11,1,0,0,16,-11,1,0,0,1,105,265,100,1,,,,,,,,
,,,,,,,,,,,,,FF,,,,,,,,0.8803,,,,,,,,,,,,,,,,,,,,,,61032601dabc8bfe1409e7ac,61036b5ec5234f1187fb1c3d,2021-07-29_23h01.18.864,Simcolourproject_2stim_asymm_v5,2020.2.10,Win32,60,61025ae37ef11b136ea224fe,,,,,,,,,3912,85,-57,1,0,0,response3disk,,5,23,-17,1,0,0,rectangle,23,-17,1,0,0,23,-17,1,0,0,1,106,266,121,1,,,,,,,,
,,,,,,,,,,,,,FF,,,,,,,,0.9329,,,,,,,,,,,,,,,,,,,,,,61032601dabc8bfe1409e7ac,61036b5ec5234f1187fb1c3d,2021-07-29_23h01.18.864,Simcolourproject_2stim_asymm_v5,2020.2.10,Win32,60,61025ae37ef11b136ea224fe,,,,,,,,,889,83,-67,1,0,0,response3disk,,5,10,-15,1,0,0,rectangle,10,-15,1,0,0,10,-15,1,0,0,1,107,267,57,1,,,,,,,,
,,,,,,,,,,,,,FF,,,,,,,,1.2162,,,,,,,,,,,,,,,,,,,,,,61032601dabc8bfe1409e7ac,61036b5ec5234f1187fb1c3d,2021-07-29_23h01.18.864,Simcolourproject_2stim_asymm_v5,2020.2.10,Win32,60,61025ae37ef11b136ea224fe,,,,,,,,,4258,71,103,1,0,0,response1disk,,7,15,-5,1,0,0,rectangle,15,-5,1,0,0,15,-5,1,0,0,1,108,268,102,1,,,,,,,,
,,,,,,,,,,,,,FF,,,,,,,,0.7332,,,,,,,,,,,,,,,,,,,,,,61032601dabc8bfe1409e7ac,61036b5ec5234f1187fb1c3d,2021-07-29_23h01.18.864,Simcolourproject_2stim_asymm_v5,2020.2.10,Win32,60,61025ae37ef11b136ea224fe,,,,,,,,,3581,42,91,1,0,0,response1disk,,7,17,9,1,0,0,rectangle,17,9,1,0,0,17,9,1,0,0,1,109,269,32,1,,,,,,,,
,,,,,,,,,,,,,FF,,,,,,,,0.8309,,,,,,,,,,,,,,,,,,,,,,61032601dabc8bfe1409e7ac,61036b5ec5234f1187fb1c3d,2021-07-29_23h01.18.864,Simcolourproject_2stim_asymm_v5,2020.2.10,Win32,60,61025ae37ef11b136ea224fe,,,,,,,,,3037,-57,83,1,0,0,response7disk,,0,10,-3,1,0,0,rectangle,10,-3,1,0,0,10,-3,1,0,0,1,110,270,96,1,,,,,,,,
,,,,,,,,,,,,,FF,,,,,,,,0.8661,,,,,,,,,,,,,,,,,,,,,,61032601dabc8bfe1409e7ac,61036b5ec5234f1187fb1c3d,2021-07-29_23h01.18.864,Simcolourproject_2stim_asymm_v5,2020.2.10,Win32,60,61025ae37ef11b136ea224fe,,,,,,,,,903,96,44,1,0,0,response1disk,,6,32,14,1,0,0,rectangle,32,14,1,0,0,32,14,1,0,0,1,111,271,47,1,,,,,,,,
,,,,,,,,,,,,,FF,,,,,,,,0.818,,,,,,,,,,,,,,,,,,,,,,61032601dabc8bfe1409e7ac,61036b5ec5234f1187fb1c3d,2021-07-29_23h01.18.864,Simcolourproject_2stim_asymm_v5,2020.2.10,Win32,60,61025ae37ef11b136ea224fe,,,,,,,,,4350,-50,66,1,0,0,response7disk,,0,6,0,1,0,0,rectangle,6,0,1,0,0,6,0,1,0,0,1,112,272,9,1,,,,,,,,
,,,,,,,,,,,,,FF,,,,,,,,1.4164,,,,,,,,,,,,,,,,,,,,,,61032601dabc8bfe1409e7ac,61036b5ec5234f1187fb1c3d,2021-07-29_23h01.18.864,Simcolourproject_2stim_asymm_v5,2020.2.10,Win32,60,61025ae37ef11b136ea224fe,,,,,,,,,180,37,130,1,0,0,response1disk,,7,3,1,1,0,0,rectangle,3,1,1,0,0,3,1,1,0,0,1,113,273,94,1,,,,,,,,
,,,,,,,,,,,,,FF,,,,,,,,1.0165,,,,,,,,,,,,,,,,,,,,,,61032601dabc8bfe1409e7ac,61036b5ec5234f1187fb1c3d,2021-07-29_23h01.18.864,Simcolourproject_2stim_asymm_v5,2020.2.10,Win32,60,61025ae37ef11b136ea224fe,,,,,,,,,1658,37,100,1,0,0,response1disk,,7,15,-4,1,0,0,rectangle,15,-4,1,0,0,15,-4,1,0,0,1,114,274,126,1,,,,,,,,
,,,,,,,,,,,,,FF,,,,,,,,2.2653,,,,,,,,,,,,,,,,,,,,,,61032601dabc8bfe1409e7ac,61036b5ec5234f1187fb1c3d,2021-07-29_23h01.18.864,Simcolourproject_2stim_asymm_v5,2020.2.10,Win32,60,61025ae37ef11b136ea224fe,,,,,,,,,4116,50,-87,1,0,0,response3disk,,4,11,-1,1,0,0,rectangle,11,-1,1,0,0,11,-1,1,0,0,1,115,275,38,1,,,,,,,,
,,,,,,,,,,,,,FF,,,,,,,,0.8495,,,,,,,,,,,,,,,,,,,,,,61032601dabc8bfe1409e7ac,61036b5ec5234f1187fb1c3d,2021-07-29_23h01.18.864,Simcolourproject_2stim_asymm_v5,2020.2.10,Win32,60,61025ae37ef11b136ea224fe,,,,,,,,,4043,86,-49,1,0,0,response3disk,,5,27,-6,1,0,0,rectangle,27,-6,1,0,0,27,-6,1,0,0,1,116,276,56,1,,,,,,,,
,,,,,,,,,,,,,FF,,,,,,,,1.6658,,,,,,,,,,,,,,,,,,,,,,61032601dabc8bfe1409e7ac,61036b5ec5234f1187fb1c3d,2021-07-29_23h01.18.864,Simcolourproject_2stim_asymm_v5,2020.2.10,Win32,60,61025ae37ef11b136ea224fe,,,,,,,,,1374,36,-59,1,0,0,response3disk,,4,13,-11,1,0,0,rectangle,13,-11,1,0,0,13,-11,1,0,0,1,117,277,52,1,,,,,,,,
,,,,,,,,,,,,,FF,,,,,,,,0.8813,,,,,,,,,,,,,,,,,,,,,,61032601dabc8bfe1409e7ac,61036b5ec5234f1187fb1c3d,2021-07-29_23h01.18.864,Simcolourproject_2stim_asymm_v5,2020.2.10,Win32,60,61025ae37ef11b136ea224fe,,,,,,,,,3005,92,-50,1,0,0,response3disk,,5,15,-3,1,0,0,rectangle,15,-3,1,0,0,15,-3,1,0,0,1,118,278,53,1,,,,,,,,
,,,,,,,,,,,,,FF,,,,,,,,0.8665,,,,,,,,,,,,,,,,,,,,,,61032601dabc8bfe1409e7ac,61036b5ec5234f1187fb1c3d,2021-07-29_23h01.18.864,Simcolourproject_2stim_asymm_v5,2020.2.10,Win32,60,61025ae37ef11b136ea224fe,,,,,,,,,3185,77,24,1,0,0,response1disk,,6,2,-7,1,0,0,rectangle,2,-7,1,0,0,2,-7,1,0,0,1,119,279,36,1,,,,,,,,
,,,,,,,,,,,,,FF,,,,,,,,0.7495,,,,,,,,,,,,,,,,,,,,,,61032601dabc8bfe1409e7ac,61036b5ec5234f1187fb1c3d,2021-07-29_23h01.18.864,Simcolourproject_2stim_asymm_v5,2020.2.10,Win32,60,61025ae37ef11b136ea224fe,,,,,,,,,1349,22,43,1,0,0,response1disk,,7,-3,-9,1,0,0,rectangle,-3,-9,1,0,0,-3,-9,1,0,0,1,120,280,68,1,,,,,,,,
,,,,,,,,,,,,,FF,,,,,,,,0.7665,,,,,,,,,,,,,,,,,,,,,,61032601dabc8bfe1409e7ac,61036b5ec5234f1187fb1c3d,2021-07-29_23h01.18.864,Simcolourproject_2stim_asymm_v5,2020.2.10,Win32,60,61025ae37ef11b136ea224fe,,,,,,,,,2316,40,65,1,0,0,response1disk,,7,4,-6,1,0,0,rectangle,4,-6,1,0,0,4,-6,1,0,0,1,121,281,91,1,,,,,,,,
,,,,,,,,,,,,,FF,,,,,,,,0.6831,,,,,,,,,,,,,,,,,,,,,,61032601dabc8bfe1409e7ac,61036b5ec5234f1187fb1c3d,2021-07-29_23h01.18.864,Simcolourproject_2stim_asymm_v5,2020.2.10,Win32,60,61025ae37ef11b136ea224fe,,,,,,,,,2204,43,80,1,0,0,response1disk,,7,12,4,1,0,0,rectangle,12,4,1,0,0,12,4,1,0,0,1,122,282,76,1,,,,,,,,
,,,,,,,,,,,,,FF,,,,,,,,1.2303,,,,,,,,,,,,,,,,,,,,,,61032601dabc8bfe1409e7ac,61036b5ec5234f1187fb1c3d,2021-07-29_23h01.18.864,Simcolourproject_2stim_asymm_v5,2020.2.10,Win32,60,61025ae37ef11b136ea224fe,,,,,,,,,2032,33,-78,1,0,0,response3disk,,4,-5,-7,1,0,0,rectangle,-5,-7,1,0,0,-5,-7,1,0,0,1,123,283,61,1,,,,,,,,
,,,,,,,,,,,,,FF,,,,,,,,0.6995,,,,,,,,,,,,,,,,,,,,,,61032601dabc8bfe1409e7ac,61036b5ec5234f1187fb1c3d,2021-07-29_23h01.18.864,Simcolourproject_2stim_asymm_v5,2020.2.10,Win32,60,61025ae37ef11b136ea224fe,,,,,,,,,3303,59,78,1,0,0,response1disk,,7,18,-5,1,0,0,rectangle,18,-5,1,0,0,18,-5,1,0,0,1,124,284,105,1,,,,,,,,
,,,,,,,,,,,,,FF,,,,,,,,0.5977,,,,,,,,,,,,,,,,,,,,,,61032601dabc8bfe1409e7ac,61036b5ec5234f1187fb1c3d,2021-07-29_23h01.18.864,Simcolourproject_2stim_asymm_v5,2020.2.10,Win32,60,61025ae37ef11b136ea224fe,,,,,,,,,28,52,60,1,0,0,response1disk,,7,32,6,1,0,0,rectangle,32,6,1,0,0,32,6,1,0,0,1,125,285,74,1,,,,,,,,
,,,,,,,,,,,,,FF,,,,,,,,1.2468,,,,,,,,,,,,,,,,,,,,,,61032601dabc8bfe1409e7ac,61036b5ec5234f1187fb1c3d,2021-07-29_23h01.18.864,Simcolourproject_2stim_asymm_v5,2020.2.10,Win32,60,61025ae37ef11b136ea224fe,,,,,,,,,1457,-68,-102,1,0,0,response5disk,,3,1,13,1,0,0,rectangle,49,63,1,0,0,27,11,1,0,0,1,126,286,147,1,,response1disk_3,TRUE,7,7,"[287,29,251,207,216,263,125,147,245,102,62,50,39,219,142,143,122,2,240,107]",1.9982,rectangle
,,,,,,,,,,,,,FF,,,,,,,,0.833,,,,,,,,,,,,,,,,,,,,,,61032601dabc8bfe1409e7ac,61036b5ec5234f1187fb1c3d,2021-07-29_23h01.18.864,Simcolourproject_2stim_asymm_v5,2020.2.10,Win32,60,61025ae37ef11b136ea224fe,,,,,,,,,3151,98,-51,1,0,0,response3disk,,5,9,-2,1,0,0,rectangle,9,-2,1,0,0,9,-2,1,0,0,1,127,287,139,1,,,,,,,,
,,,,,,,,,,,,,FF,,,,,,,,0.8162,,,,,,,,,,,,,,,,,,,,,,61032601dabc8bfe1409e7ac,61036b5ec5234f1187fb1c3d,2021-07-29_23h01.18.864,Simcolourproject_2stim_asymm_v5,2020.2.10,Win32,60,61025ae37ef11b136ea224fe,,,,,,,,,2258,41,75,1,0,0,response1disk,,7,11,-10,1,0,0,rectangle,11,-10,1,0,0,11,-10,1,0,0,1,128,288,20,1,,,,,,,,
,,,,,,,,,,,,,FF,,,,,,,,0.5664,,,,,,,,,,,,,,,,,,,,,,61032601dabc8bfe1409e7ac,61036b5ec5234f1187fb1c3d,2021-07-29_23h01.18.864,Simcolourproject_2stim_asymm_v5,2020.2.10,Win32,60,61025ae37ef11b136ea224fe,,,,,,,,,1008,50,58,1,0,0,response1disk,,7,15,-13,1,0,0,rectangle,15,-13,1,0,0,15,-13,1,0,0,1,129,289,90,1,,,,,,,,
,,,,,,,,,,,,,FF,,,,,,,,0.7808,,,,,,,,,,,,,,,,,,,,,,61032601dabc8bfe1409e7ac,61036b5ec5234f1187fb1c3d,2021-07-29_23h01.18.864,Simcolourproject_2stim_asymm_v5,2020.2.10,Win32,60,61025ae37ef11b136ea224fe,,,,,,,,,4189,45,70,1,0,0,response1disk,,7,22,-1,1,0,0,rectangle,22,-1,1,0,0,22,-1,1,0,0,1,130,290,88,1,,,,,,,,
,,,,,,,,,,,,,FF,,,,,,,,1.0996,,,,,,,,,,,,,,,,,,,,,,61032601dabc8bfe1409e7ac,61036b5ec5234f1187fb1c3d,2021-07-29_23h01.18.864,Simcolourproject_2stim_asymm_v5,2020.2.10,Win32,60,61025ae37ef11b136ea224fe,,,,,,,,,3918,101,-74,1,0,0,response3disk,,5,18,-14,1,0,0,rectangle,18,-14,1,0,0,18,-14,1,0,0,1,131,291,24,1,,,,,,,,
,,,,,,,,,,,,,FF,,,,,,,,2.2155,,,,,,,,,,,,,,,,,,,,,,61032601dabc8bfe1409e7ac,61036b5ec5234f1187fb1c3d,2021-07-29_23h01.18.864,Simcolourproject_2stim_asymm_v5,2020.2.10,Win32,60,61025ae37ef11b136ea224fe,,,,,,,,,643,47,85,1,0,0,response1disk,,7,6,-14,1,0,0,rectangle,6,-14,1,0,0,6,-14,1,0,0,1,132,292,101,1,,,,,,,,
,,,,,,,,,,,,,FF,,,,,,,,1.0993,,,,,,,,,,,,,,,,,,,,,,61032601dabc8bfe1409e7ac,61036b5ec5234f1187fb1c3d,2021-07-29_23h01.18.864,Simcolourproject_2stim_asymm_v5,2020.2.10,Win32,60,61025ae37ef11b136ea224fe,,,,,,,,,1226,32,-99,1,0,0,response3disk,,4,-24,7,1,0,0,rectangle,-24,7,1,0,0,-24,7,1,0,0,1,133,293,30,1,,,,,,,,
,,,,,,,,,,,,,FF,,,,,,,,1.133,,,,,,,,,,,,,,,,,,,,,,61032601dabc8bfe1409e7ac,61036b5ec5234f1187fb1c3d,2021-07-29_23h01.18.864,Simcolourproject_2stim_asymm_v5,2020.2.10,Win32,60,61025ae37ef11b136ea224fe,,,,,,,,,2399,54,98,1,0,0,response1disk,,7,20,3,1,0,0,rectangle,20,3,1,0,0,20,3,1,0,0,1,134,294,112,1,,,,,,,,
,,,,,,,,,,,,,FF,,,,,,,,1.3325,,,,,,,,,,,,,,,,,,,,,,61032601dabc8bfe1409e7ac,61036b5ec5234f1187fb1c3d,2021-07-29_23h01.18.864,Simcolourproject_2stim_asymm_v5,2020.2.10,Win32,60,61025ae37ef11b136ea224fe,,,,,,,,,3044,34,62,1,0,0,response1disk,,7,3,5,1,0,0,rectangle,3,5,1,0,0,3,5,1,0,0,1,135,295,142,1,,,,,,,,
,,,,,,,,,,,,,FF,,,,,,,,1.1326,,,,,,,,,,,,,,,,,,,,,,61032601dabc8bfe1409e7ac,61036b5ec5234f1187fb1c3d,2021-07-29_23h01.18.864,Simcolourproject_2stim_asymm_v5,2020.2.10,Win32,60,61025ae37ef11b136ea224fe,,,,,,,,,2071,30,65,1,0,0,response1disk,,7,13,5,1,0,0,rectangle,13,5,1,0,0,13,5,1,0,0,1,136,296,22,1,,,,,,,,
,,,,,,,,,,,,,FF,,,,,,,,1.1495,,,,,,,,,,,,,,,,,,,,,,61032601dabc8bfe1409e7ac,61036b5ec5234f1187fb1c3d,2021-07-29_23h01.18.864,Simcolourproject_2stim_asymm_v5,2020.2.10,Win32,60,61025ae37ef11b136ea224fe,,,,,,,,,3878,41,70,1,0,0,response1disk,,7,16,15,1,0,0,rectangle,16,15,1,0,0,16,15,1,0,0,1,137,297,31,1,,,,,,,,
,,,,,,,,,,,,,FF,,,,,,,,1.6158,,,,,,,,,,,,,,,,,,,,,,61032601dabc8bfe1409e7ac,61036b5ec5234f1187fb1c3d,2021-07-29_23h01.18.864,Simcolourproject_2stim_asymm_v5,2020.2.10,Win32,60,61025ae37ef11b136ea224fe,,,,,,,,,1962,-19,-99,1,0,0,response5disk,,3,15,-18,1,0,0,rectangle,15,-18,1,0,0,15,-18,1,0,0,1,138,298,124,1,,,,,,,,
,,,,,,,,,,,,,FF,,,,,,,,1.2658,,,,,,,,,,,,,,,,,,,,,,61032601dabc8bfe1409e7ac,61036b5ec5234f1187fb1c3d,2021-07-29_23h01.18.864,Simcolourproject_2stim_asymm_v5,2020.2.10,Win32,60,61025ae37ef11b136ea224fe,,,,,,,,,4093,65,87,1,0,0,response1disk,,7,15,-6,1,0,0,rectangle,15,-6,1,0,0,15,-6,1,0,0,1,139,299,157,1,,,,,,,,
,,,,,,,,,,,,,FF,,,,,,,,1.1661,,,,,,,,,,,,,,,,,,,,,,61032601dabc8bfe1409e7ac,61036b5ec5234f1187fb1c3d,2021-07-29_23h01.18.864,Simcolourproject_2stim_asymm_v5,2020.2.10,Win32,60,61025ae37ef11b136ea224fe,,,,,,,,,872,62,-72,1,0,0,response3disk,,4,-11,-7,1,0,0,rectangle,-11,-7,1,0,0,-11,-7,1,0,0,1,140,300,1,1,,,,,,,,
,,,,,,,,,,,,,FF,,,,,,,,0.9662,,,,,,,,,,,,,,,,,,,,,,61032601dabc8bfe1409e7ac,61036b5ec5234f1187fb1c3d,2021-07-29_23h01.18.864,Simcolourproject_2stim_asymm_v5,2020.2.10,Win32,60,61025ae37ef11b136ea224fe,,,,,,,,,278,-71,88,1,0,0,response7disk,,0,27,7,1,0,0,rectangle,27,7,1,0,0,27,7,1,0,0,1,141,301,86,1,,,,,,,,
