key_resp.keys,key_resp.rt,key_resp_14.keys,key_resp_14.rt,key_resp_15.keys,key_resp_15.rt,key_resp_17.keys,key_resp_17.rt,key_resp_9.keys,key_resp_9.rt,key_resp_10.keys,key_resp_10.rt,practice_comparison,Ecc,mouse_5.x,mouse_5.y,mouse_5.leftButton,mouse_5.midButton,mouse_5.rightButton,mouse_5.clicked_name,pracsimilarity,response_time,mouse_10.x,mouse_10.y,mouse_10.leftButton,mouse_10.midButton,mouse_10.rightButton,mouse_10.clicked_name,mouse_7.x,mouse_7.y,mouse_7.leftButton,mouse_7.midButton,mouse_7.rightButton,mouse_6.x,mouse_6.y,mouse_6.leftButton,mouse_6.midButton,mouse_6.rightButton,duringprac.thisRepN,duringprac.thisTrialN,duringprac.thisN,duringprac.thisIndex,duringprac.ran,participant,session,date,expName,psychopyVersion,OS,frameRate,study_id,mouse_7.clicked_name,catchpracsimilarity,catch_response_time,catchnumberprac,catchtrialorderprac,mouse_6.clicked_name,key_resp_22.keys,key_resp_22.rt,realcomparison,mouse.x,mouse.y,mouse.leftButton,mouse.midButton,mouse.rightButton,mouse.clicked_name,Colour2,similarity,mouse_2.x,mouse_2.y,mouse_2.leftButton,mouse_2.midButton,mouse_2.rightButton,mouse_2.clicked_name,mouse_3.x,mouse_3.y,mouse_3.leftButton,mouse_3.midButton,mouse_3.rightButton,mouse_11.x,mouse_11.y,mouse_11.leftButton,mouse_11.midButton,mouse_11.rightButton,trials_2.thisRepN,trials_2.thisTrialN,trials_2.thisN,trials_2.thisIndex,trials_2.ran,Colour1,mouse_3.clicked_name,catchornah,catchsimilarity,catchnumber,catchtrialorder,catchRT,mouse_11.clicked_name
space,1.28484,space,13.53069,space,38.888355,space,5.42516,space,1.43229,space,3.98287,3,FF,63.46875,-36.50338745,1,0,0,response3disk_5,5,13.91908,-10.46459961,1.048706055,1,0,0,rectangle_8,-10.46459961,1.048706055,1,0,0,-10.46459961,1.048706055,1,0,0,0,0,0,0,1,610313c21dc0b22ab21ed775,61036cfad281cbf50c8e6efa,2021-07-29_20h08.21.037,Simcolourproject_2stim_asymm_v5,2020.2.10,Linux x86_64,60,61025ae37ef11b136ea224fe,,,,,,,,,,,,,,,,,,,,,,,,,,,,,,,,,,,,,,,,,,,,,,
,,,,,,,,,,,,77,PF,34.17529297,93.87423706,1,0,0,response1disk_5,7,6.783285,-1.914367676,-2.817565918,1,0,0,rectangle_8,85.11621094,-55.35406494,1,0,0,-4.250549316,4.759277344,1,0,0,0,1,1,2,1,610313c21dc0b22ab21ed775,61036cfad281cbf50c8e6efa,2021-07-29_20h08.21.037,Simcolourproject_2stim_asymm_v5,2020.2.10,Linux x86_64,60,61025ae37ef11b136ea224fe,response3disk_7,5,4.335215,5,"[2,5]",rectangle_4,,,,,,,,,,,,,,,,,,,,,,,,,,,,,,,,,,,,,,,,
,,,,,,,,,,,,85,FF,107.6343384,27.9225769,1,0,0,response1disk_5,6,4.80062,6.012695313,-3.582092285,1,0,0,rectangle_8,6.012695313,-3.582092285,1,0,0,6.012695313,-3.582092285,1,0,0,0,2,2,5,1,610313c21dc0b22ab21ed775,61036cfad281cbf50c8e6efa,2021-07-29_20h08.21.037,Simcolourproject_2stim_asymm_v5,2020.2.10,Linux x86_64,60,61025ae37ef11b136ea224fe,,,,,,,,,,,,,,,,,,,,,,,,,,,,,,,,,,,,,,,,,,,,,,
,,,,,,,,,,,,149,FF,-28.9475708,-55.67831421,1,0,0,response5disk_5,3,2.766915,-13.7477417,0.459960938,1,0,0,rectangle_8,-13.7477417,0.459960938,1,0,0,-13.7477417,0.459960938,1,0,0,0,3,3,3,1,610313c21dc0b22ab21ed775,61036cfad281cbf50c8e6efa,2021-07-29_20h08.21.037,Simcolourproject_2stim_asymm_v5,2020.2.10,Linux x86_64,60,61025ae37ef11b136ea224fe,,,,,,,,,,,,,,,,,,,,,,,,,,,,,,,,,,,,,,,,,,,,,,
,,,,,,,,,,,,134,PF,49.78308105,-72.38287354,1,0,0,response3disk_5,4,3.333655,-3.266723633,-2.532440186,1,0,0,rectangle_8,119.4443359,-33.86364746,1,0,0,6.433654785,1.022979736,1,0,0,0,4,4,4,1,610313c21dc0b22ab21ed775,61036cfad281cbf50c8e6efa,2021-07-29_20h08.21.037,Simcolourproject_2stim_asymm_v5,2020.2.10,Linux x86_64,60,61025ae37ef11b136ea224fe,response3disk_7,5,2.986845,5,"[2,5]",rectangle_4,,,,,,,,,,,,,,,,,,,,,,,,,,,,,,,,,,,,,,,,
,,,,,,,,,,,,50,PF,-107.1228027,39.30166626,1,0,0,response7disk_5,1,2.51682,-10.4375,-4.816345215,1,0,0,rectangle_8,-10.4375,-4.816345215,1,0,0,-10.4375,-4.816345215,1,0,0,0,5,5,6,1,610313c21dc0b22ab21ed775,61036cfad281cbf50c8e6efa,2021-07-29_20h08.21.037,Simcolourproject_2stim_asymm_v5,2020.2.10,Linux x86_64,60,61025ae37ef11b136ea224fe,,,,,,,,,,,,,,,,,,,,,,,,,,,,,,,,,,,,,,,,,,,,,,
,,,,,,,,,,,,149,PF,62.18188477,31.88238525,1,0,0,response1disk_5,6,2.450775,1.349914551,-6.855987549,1,0,0,rectangle_8,1.349914551,-6.855987549,1,0,0,1.349914551,-6.855987549,1,0,0,0,6,6,1,1,610313c21dc0b22ab21ed775,61036cfad281cbf50c8e6efa,2021-07-29_20h08.21.037,Simcolourproject_2stim_asymm_v5,2020.2.10,Linux x86_64,60,61025ae37ef11b136ea224fe,,,,,,,,,,,,,,,,,,,,,,,,,,,,,,,,,,,,,,,,,,,,,,
,,,,,,,,,,,,,FF,,,,,,,,123.69536,,,,,,,,,,,,,,,,,,,,,,610313c21dc0b22ab21ed775,61036cfad281cbf50c8e6efa,2021-07-29_20h08.21.037,Simcolourproject_2stim_asymm_v5,2020.2.10,Linux x86_64,60,61025ae37ef11b136ea224fe,,,,,,,space,3.66816,496,-63.65710449,-86.33032227,1,0,0,response5disk,,3,-24.58978271,-4.982330322,1,0,0,rectangle,-24.58978271,-4.982330322,1,0,0,-24.58978271,-4.982330322,1,0,0,0,0,0,117,1,,,,,,,,
,,,,,,,,,,,,,FF,,,,,,,,5.24948,,,,,,,,,,,,,,,,,,,,,,610313c21dc0b22ab21ed775,61036cfad281cbf50c8e6efa,2021-07-29_20h08.21.037,Simcolourproject_2stim_asymm_v5,2020.2.10,Linux x86_64,60,61025ae37ef11b136ea224fe,,,,,,,,,4240,71.78430176,-28.73895264,1,0,0,response3disk,,5,-0.125610352,-0.231567383,1,0,0,rectangle,-45.13378906,85.17938232,1,0,0,1.660644531,-2.954772949,1,0,0,0,1,1,142,1,,response7disk_3,TRUE,0,0,"[233,67,71,70,219,110,107,141,2,57,111,178,136,3,310,309,23,301,34,88]",3.176635,rectangle
,,,,,,,,,,,,,FF,,,,,,,,4.066965,,,,,,,,,,,,,,,,,,,,,,610313c21dc0b22ab21ed775,61036cfad281cbf50c8e6efa,2021-07-29_20h08.21.037,Simcolourproject_2stim_asymm_v5,2020.2.10,Linux x86_64,60,61025ae37ef11b136ea224fe,,,,,,,,,2986,37.7612915,-64.4887085,1,0,0,response3disk,,4,-28.03094482,-1.94934082,1,0,0,rectangle,-84.63659668,-56.82925415,1,0,0,-9.975646973,-8.089050293,1,0,0,0,2,2,104,1,,response5disk_3,TRUE,2,2,"[233,67,71,70,219,110,107,141,2,57,111,178,136,3,310,309,23,301,34,88]",2.253115,rectangle
,,,,,,,,,,,,,FF,,,,,,,,7.55029,,,,,,,,,,,,,,,,,,,,,,610313c21dc0b22ab21ed775,61036cfad281cbf50c8e6efa,2021-07-29_20h08.21.037,Simcolourproject_2stim_asymm_v5,2020.2.10,Linux x86_64,60,61025ae37ef11b136ea224fe,,,,,,,,,1799,-45.98425293,84.91699219,1,0,0,response7disk,,0,-20.2086792,-8.307006836,1,0,0,rectangle,-20.2086792,-8.307006836,1,0,0,-20.2086792,-8.307006836,1,0,0,0,3,3,108,1,,,,,,,,
,,,,,,,,,,,,,FF,,,,,,,,2.06772,,,,,,,,,,,,,,,,,,,,,,610313c21dc0b22ab21ed775,61036cfad281cbf50c8e6efa,2021-07-29_20h08.21.037,Simcolourproject_2stim_asymm_v5,2020.2.10,Linux x86_64,60,61025ae37ef11b136ea224fe,,,,,,,,,4089,-33.58996582,-89.28543091,1,0,0,response5disk,,3,-6.079467773,3.478851318,1,0,0,rectangle,-6.079467773,3.478851318,1,0,0,-6.079467773,3.478851318,1,0,0,0,4,4,80,1,,,,,,,,
,,,,,,,,,,,,,FF,,,,,,,,1.71733,,,,,,,,,,,,,,,,,,,,,,610313c21dc0b22ab21ed775,61036cfad281cbf50c8e6efa,2021-07-29_20h08.21.037,Simcolourproject_2stim_asymm_v5,2020.2.10,Linux x86_64,60,61025ae37ef11b136ea224fe,,,,,,,,,1869,-65.49700928,84.79406738,1,0,0,response7disk,,0,-23.25366211,2.865264893,1,0,0,rectangle,-23.25366211,2.865264893,1,0,0,-23.25366211,2.865264893,1,0,0,0,5,5,127,1,,,,,,,,
,,,,,,,,,,,,,FF,,,,,,,,3.884075,,,,,,,,,,,,,,,,,,,,,,610313c21dc0b22ab21ed775,61036cfad281cbf50c8e6efa,2021-07-29_20h08.21.037,Simcolourproject_2stim_asymm_v5,2020.2.10,Linux x86_64,60,61025ae37ef11b136ea224fe,,,,,,,,,3160,58.89105225,-22.08087158,1,0,0,response3disk,,5,-5.131591797,6.947113037,1,0,0,rectangle,-5.131591797,6.947113037,1,0,0,-5.131591797,6.947113037,1,0,0,0,6,6,53,1,,,,,,,,
,,,,,,,,,,,,,FF,,,,,,,,1.500575,,,,,,,,,,,,,,,,,,,,,,610313c21dc0b22ab21ed775,61036cfad281cbf50c8e6efa,2021-07-29_20h08.21.037,Simcolourproject_2stim_asymm_v5,2020.2.10,Linux x86_64,60,61025ae37ef11b136ea224fe,,,,,,,,,1901,94.61468506,64.98883057,1,0,0,response1disk,,6,5.4765625,7.999084473,1,0,0,rectangle,5.4765625,7.999084473,1,0,0,5.4765625,7.999084473,1,0,0,0,7,7,91,1,,,,,,,,
,,,,,,,,,,,,,FF,,,,,,,,1.23296,,,,,,,,,,,,,,,,,,,,,,610313c21dc0b22ab21ed775,61036cfad281cbf50c8e6efa,2021-07-29_20h08.21.037,Simcolourproject_2stim_asymm_v5,2020.2.10,Linux x86_64,60,61025ae37ef11b136ea224fe,,,,,,,,,1602,29.18066406,62.11975098,1,0,0,response1disk,,7,-6.143432617,4.191070557,1,0,0,rectangle,-6.143432617,4.191070557,1,0,0,-6.143432617,4.191070557,1,0,0,0,8,8,144,1,,,,,,,,
,,,,,,,,,,,,,FF,,,,,,,,1.46612,,,,,,,,,,,,,,,,,,,,,,610313c21dc0b22ab21ed775,61036cfad281cbf50c8e6efa,2021-07-29_20h08.21.037,Simcolourproject_2stim_asymm_v5,2020.2.10,Linux x86_64,60,61025ae37ef11b136ea224fe,,,,,,,,,1662,-41.46856689,-56.90893555,1,0,0,response5disk,,3,-12.17346191,-4.274475098,1,0,0,rectangle,-12.17346191,-4.274475098,1,0,0,-12.17346191,-4.274475098,1,0,0,0,9,9,89,1,,,,,,,,
,,,,,,,,,,,,,FF,,,,,,,,5.35005,,,,,,,,,,,,,,,,,,,,,,610313c21dc0b22ab21ed775,61036cfad281cbf50c8e6efa,2021-07-29_20h08.21.037,Simcolourproject_2stim_asymm_v5,2020.2.10,Linux x86_64,60,61025ae37ef11b136ea224fe,,,,,,,,,848,-43.86029053,98.59823608,1,0,0,response7disk,,0,-16.04852295,-8.928710938,1,0,0,rectangle,-16.04852295,-8.928710938,1,0,0,-16.04852295,-8.928710938,1,0,0,0,10,10,25,1,,,,,,,,
,,,,,,,,,,,,,FF,,,,,,,,1.80027,,,,,,,,,,,,,,,,,,,,,,610313c21dc0b22ab21ed775,61036cfad281cbf50c8e6efa,2021-07-29_20h08.21.037,Simcolourproject_2stim_asymm_v5,2020.2.10,Linux x86_64,60,61025ae37ef11b136ea224fe,,,,,,,,,3834,-62.89141846,25.03198242,1,0,0,response7disk,,1,-15.29602051,2.178924561,1,0,0,rectangle,-15.29602051,2.178924561,1,0,0,-15.29602051,2.178924561,1,0,0,0,11,11,107,1,,,,,,,,
,,,,,,,,,,,,,FF,,,,,,,,1.915025,,,,,,,,,,,,,,,,,,,,,,610313c21dc0b22ab21ed775,61036cfad281cbf50c8e6efa,2021-07-29_20h08.21.037,Simcolourproject_2stim_asymm_v5,2020.2.10,Linux x86_64,60,61025ae37ef11b136ea224fe,,,,,,,,,4169,-93.89599609,-44.28070068,1,0,0,response5disk,,2,-19.7109375,-4.235839844,1,0,0,rectangle,-19.7109375,-4.235839844,1,0,0,-19.7109375,-4.235839844,1,0,0,0,12,12,113,1,,,,,,,,
,,,,,,,,,,,,,FF,,,,,,,,3.733165,,,,,,,,,,,,,,,,,,,,,,610313c21dc0b22ab21ed775,61036cfad281cbf50c8e6efa,2021-07-29_20h08.21.037,Simcolourproject_2stim_asymm_v5,2020.2.10,Linux x86_64,60,61025ae37ef11b136ea224fe,,,,,,,,,2225,-49.03839111,72.12982178,1,0,0,response7disk,,0,-13.72833252,13.10540771,1,0,0,rectangle,-13.72833252,13.10540771,1,0,0,-13.72833252,13.10540771,1,0,0,0,13,13,140,1,,,,,,,,
,,,,,,,,,,,,,FF,,,,,,,,1.26695,,,,,,,,,,,,,,,,,,,,,,610313c21dc0b22ab21ed775,61036cfad281cbf50c8e6efa,2021-07-29_20h08.21.037,Simcolourproject_2stim_asymm_v5,2020.2.10,Linux x86_64,60,61025ae37ef11b136ea224fe,,,,,,,,,3014,-70.26873779,-18.06976318,1,0,0,response5disk,,2,-16.67437744,3.653625488,1,0,0,rectangle,-16.67437744,3.653625488,1,0,0,-16.67437744,3.653625488,1,0,0,0,14,14,34,1,,,,,,,,
,,,,,,,,,,,,,FF,,,,,,,,2.066695,,,,,,,,,,,,,,,,,,,,,,610313c21dc0b22ab21ed775,61036cfad281cbf50c8e6efa,2021-07-29_20h08.21.037,Simcolourproject_2stim_asymm_v5,2020.2.10,Linux x86_64,60,61025ae37ef11b136ea224fe,,,,,,,,,2129,-121.9525146,-42.18499756,1,0,0,response5disk,,2,-17.61181641,-4.388427734,1,0,0,rectangle,-17.61181641,-4.388427734,1,0,0,-17.61181641,-4.388427734,1,0,0,0,15,15,42,1,,,,,,,,
,,,,,,,,,,,,,FF,,,,,,,,1.2499,,,,,,,,,,,,,,,,,,,,,,610313c21dc0b22ab21ed775,61036cfad281cbf50c8e6efa,2021-07-29_20h08.21.037,Simcolourproject_2stim_asymm_v5,2020.2.10,Linux x86_64,60,61025ae37ef11b136ea224fe,,,,,,,,,1821,90.07580566,57.46737671,1,0,0,response1disk,,6,3.675415039,-6.695068359,1,0,0,rectangle,3.675415039,-6.695068359,1,0,0,3.675415039,-6.695068359,1,0,0,0,16,16,52,1,,,,,,,,
,,,,,,,,,,,,,FF,,,,,,,,1.00356,,,,,,,,,,,,,,,,,,,,,,610313c21dc0b22ab21ed775,61036cfad281cbf50c8e6efa,2021-07-29_20h08.21.037,Simcolourproject_2stim_asymm_v5,2020.2.10,Linux x86_64,60,61025ae37ef11b136ea224fe,,,,,,,,,190,42.29675293,74.26000977,1,0,0,response1disk,,7,-0.950683594,-4.861968994,1,0,0,rectangle,-0.950683594,-4.861968994,1,0,0,-0.950683594,-4.861968994,1,0,0,0,17,17,7,1,,,,,,,,
,,,,,,,,,,,,,FF,,,,,,,,1.583525,,,,,,,,,,,,,,,,,,,,,,610313c21dc0b22ab21ed775,61036cfad281cbf50c8e6efa,2021-07-29_20h08.21.037,Simcolourproject_2stim_asymm_v5,2020.2.10,Linux x86_64,60,61025ae37ef11b136ea224fe,,,,,,,,,1923,-50.6918335,93.50390625,1,0,0,response7disk,,0,-1.599304199,3.720794678,1,0,0,rectangle,-1.599304199,3.720794678,1,0,0,-1.599304199,3.720794678,1,0,0,0,18,18,114,1,,,,,,,,
,,,,,,,,,,,,,FF,,,,,,,,3.017905,,,,,,,,,,,,,,,,,,,,,,610313c21dc0b22ab21ed775,61036cfad281cbf50c8e6efa,2021-07-29_20h08.21.037,Simcolourproject_2stim_asymm_v5,2020.2.10,Linux x86_64,60,61025ae37ef11b136ea224fe,,,,,,,,,2885,-37.98278809,-66.05105591,1,0,0,response5disk,,3,-6.720031738,5.602355957,1,0,0,rectangle,-6.720031738,5.602355957,1,0,0,-6.720031738,5.602355957,1,0,0,0,19,19,57,1,,,,,,,,
,,,,,,,,,,,,,FF,,,,,,,,1.55087,,,,,,,,,,,,,,,,,,,,,,610313c21dc0b22ab21ed775,61036cfad281cbf50c8e6efa,2021-07-29_20h08.21.037,Simcolourproject_2stim_asymm_v5,2020.2.10,Linux x86_64,60,61025ae37ef11b136ea224fe,,,,,,,,,1601,52.23968506,96.64855957,1,0,0,response1disk,,7,-1.209655762,8.128967285,1,0,0,rectangle,-1.209655762,8.128967285,1,0,0,-1.209655762,8.128967285,1,0,0,0,20,20,103,1,,,,,,,,
,,,,,,,,,,,,,FF,,,,,,,,2.03311,,,,,,,,,,,,,,,,,,,,,,610313c21dc0b22ab21ed775,61036cfad281cbf50c8e6efa,2021-07-29_20h08.21.037,Simcolourproject_2stim_asymm_v5,2020.2.10,Linux x86_64,60,61025ae37ef11b136ea224fe,,,,,,,,,3734,-53.22271729,69.5267334,1,0,0,response7disk,,0,-11.56671143,0.612884521,1,0,0,rectangle,-11.56671143,0.612884521,1,0,0,-11.56671143,0.612884521,1,0,0,0,21,21,99,1,,,,,,,,
,,,,,,,,,,,,,FF,,,,,,,,2.284305,,,,,,,,,,,,,,,,,,,,,,610313c21dc0b22ab21ed775,61036cfad281cbf50c8e6efa,2021-07-29_20h08.21.037,Simcolourproject_2stim_asymm_v5,2020.2.10,Linux x86_64,60,61025ae37ef11b136ea224fe,,,,,,,,,3326,-52.03320313,79.87524414,1,0,0,response7disk,,0,-14.88739014,5.715270996,1,0,0,rectangle,91.98797607,61.17376709,1,0,0,3.472229004,-6.024230957,1,0,0,0,22,22,69,1,,response1disk_3,TRUE,6,6,"[233,67,71,70,219,110,107,141,2,57,111,178,136,3,310,309,23,301,34,88]",2.802955,rectangle
,,,,,,,,,,,,,FF,,,,,,,,2.300955,,,,,,,,,,,,,,,,,,,,,,610313c21dc0b22ab21ed775,61036cfad281cbf50c8e6efa,2021-07-29_20h08.21.037,Simcolourproject_2stim_asymm_v5,2020.2.10,Linux x86_64,60,61025ae37ef11b136ea224fe,,,,,,,,,2703,-69.8916626,29.56314087,1,0,0,response7disk,,1,-10.09454346,-9.310302734,1,0,0,rectangle,-10.09454346,-9.310302734,1,0,0,-10.09454346,-9.310302734,1,0,0,0,23,23,55,1,,,,,,,,
,,,,,,,,,,,,,FF,,,,,,,,0.86754,,,,,,,,,,,,,,,,,,,,,,610313c21dc0b22ab21ed775,61036cfad281cbf50c8e6efa,2021-07-29_20h08.21.037,Simcolourproject_2stim_asymm_v5,2020.2.10,Linux x86_64,60,61025ae37ef11b136ea224fe,,,,,,,,,1959,64.02746582,119.9788818,1,0,0,response1disk,,7,-6.92779541,-0.54006958,1,0,0,rectangle,-6.92779541,-0.54006958,1,0,0,-6.92779541,-0.54006958,1,0,0,0,24,24,123,1,,,,,,,,
,,,,,,,,,,,,,FF,,,,,,,,1.933685,,,,,,,,,,,,,,,,,,,,,,610313c21dc0b22ab21ed775,61036cfad281cbf50c8e6efa,2021-07-29_20h08.21.037,Simcolourproject_2stim_asymm_v5,2020.2.10,Linux x86_64,60,61025ae37ef11b136ea224fe,,,,,,,,,4110,-39.87036133,65.60998535,1,0,0,response7disk,,0,-6.300231934,9.265411377,1,0,0,rectangle,-6.300231934,9.265411377,1,0,0,-6.300231934,9.265411377,1,0,0,0,25,25,41,1,,,,,,,,
,,,,,,,,,,,,,FF,,,,,,,,0.93361,,,,,,,,,,,,,,,,,,,,,,610313c21dc0b22ab21ed775,61036cfad281cbf50c8e6efa,2021-07-29_20h08.21.037,Simcolourproject_2stim_asymm_v5,2020.2.10,Linux x86_64,60,61025ae37ef11b136ea224fe,,,,,,,,,4262,-32.4876709,108.6515808,1,0,0,response7disk,,0,-5.741333008,6.404541016,1,0,0,rectangle,-5.741333008,6.404541016,1,0,0,-5.741333008,6.404541016,1,0,0,0,26,26,58,1,,,,,,,,
,,,,,,,,,,,,,FF,,,,,,,,1.018025,,,,,,,,,,,,,,,,,,,,,,610313c21dc0b22ab21ed775,61036cfad281cbf50c8e6efa,2021-07-29_20h08.21.037,Simcolourproject_2stim_asymm_v5,2020.2.10,Linux x86_64,60,61025ae37ef11b136ea224fe,,,,,,,,,2453,-30.63311768,73.38198853,1,0,0,response7disk,,0,-4.702941895,4.210906982,1,0,0,rectangle,-4.702941895,4.210906982,1,0,0,-4.702941895,4.210906982,1,0,0,0,27,27,14,1,,,,,,,,
,,,,,,,,,,,,,FF,,,,,,,,1.350845,,,,,,,,,,,,,,,,,,,,,,610313c21dc0b22ab21ed775,61036cfad281cbf50c8e6efa,2021-07-29_20h08.21.037,Simcolourproject_2stim_asymm_v5,2020.2.10,Linux x86_64,60,61025ae37ef11b136ea224fe,,,,,,,,,1030,-38.76525879,60.78253174,1,0,0,response7disk,,0,-23.30462646,5.58190918,1,0,0,rectangle,-23.30462646,5.58190918,1,0,0,-23.30462646,5.58190918,1,0,0,0,28,28,130,1,,,,,,,,
,,,,,,,,,,,,,FF,,,,,,,,1.601635,,,,,,,,,,,,,,,,,,,,,,610313c21dc0b22ab21ed775,61036cfad281cbf50c8e6efa,2021-07-29_20h08.21.037,Simcolourproject_2stim_asymm_v5,2020.2.10,Linux x86_64,60,61025ae37ef11b136ea224fe,,,,,,,,,818,94.36767578,-25.05218506,1,0,0,response3disk,,5,-4.699157715,1.047821045,1,0,0,rectangle,-4.699157715,1.047821045,1,0,0,-4.699157715,1.047821045,1,0,0,0,29,29,6,1,,,,,,,,
,,,,,,,,,,,,,FF,,,,,,,,1.86705,,,,,,,,,,,,,,,,,,,,,,610313c21dc0b22ab21ed775,61036cfad281cbf50c8e6efa,2021-07-29_20h08.21.037,Simcolourproject_2stim_asymm_v5,2020.2.10,Linux x86_64,60,61025ae37ef11b136ea224fe,,,,,,,,,4219,44.04931641,-67.9682312,1,0,0,response3disk,,4,-25.00311279,-5.640228271,1,0,0,rectangle,-25.00311279,-5.640228271,1,0,0,-25.00311279,-5.640228271,1,0,0,0,30,30,47,1,,,,,,,,
,,,,,,,,,,,,,FF,,,,,,,,3.45134,,,,,,,,,,,,,,,,,,,,,,610313c21dc0b22ab21ed775,61036cfad281cbf50c8e6efa,2021-07-29_20h08.21.037,Simcolourproject_2stim_asymm_v5,2020.2.10,Linux x86_64,60,61025ae37ef11b136ea224fe,,,,,,,,,149,-68.86505127,-37.6836853,1,0,0,response5disk,,2,-19.78796387,-8.806488037,1,0,0,rectangle,-19.78796387,-8.806488037,1,0,0,-19.78796387,-8.806488037,1,0,0,0,31,31,110,1,,,,,,,,
,,,,,,,,,,,,,FF,,,,,,,,1.216915,,,,,,,,,,,,,,,,,,,,,,610313c21dc0b22ab21ed775,61036cfad281cbf50c8e6efa,2021-07-29_20h08.21.037,Simcolourproject_2stim_asymm_v5,2020.2.10,Linux x86_64,60,61025ae37ef11b136ea224fe,,,,,,,,,2307,-20.82794189,-70.66427612,1,0,0,response5disk,,3,-12.08215332,-7.316375732,1,0,0,rectangle,-12.08215332,-7.316375732,1,0,0,-12.08215332,-7.316375732,1,0,0,0,32,32,136,1,,,,,,,,
,,,,,,,,,,,,,FF,,,,,,,,2.01712,,,,,,,,,,,,,,,,,,,,,,610313c21dc0b22ab21ed775,61036cfad281cbf50c8e6efa,2021-07-29_20h08.21.037,Simcolourproject_2stim_asymm_v5,2020.2.10,Linux x86_64,60,61025ae37ef11b136ea224fe,,,,,,,,,4186,-51.66088867,-62.83502197,1,0,0,response5disk,,3,-5.122558594,-3.082641602,1,0,0,rectangle,-35.45837402,-50.9815979,1,0,0,-13.58679199,-9.58114624,1,0,0,0,33,33,128,1,,response5disk_3,TRUE,3,3,"[233,67,71,70,219,110,107,141,2,57,111,178,136,3,310,309,23,301,34,88]",3.533815,rectangle
,,,,,,,,,,,,,FF,,,,,,,,8.000755,,,,,,,,,,,,,,,,,,,,,,610313c21dc0b22ab21ed775,61036cfad281cbf50c8e6efa,2021-07-29_20h08.21.037,Simcolourproject_2stim_asymm_v5,2020.2.10,Linux x86_64,60,61025ae37ef11b136ea224fe,,,,,,,,,2533,-43.10375977,75.1711731,1,0,0,response7disk,,0,-9.74005127,-9.168426514,1,0,0,rectangle,-9.74005127,-9.168426514,1,0,0,-9.74005127,-9.168426514,1,0,0,0,34,34,158,1,,,,,,,,
,,,,,,,,,,,,,FF,,,,,,,,1.050375,,,,,,,,,,,,,,,,,,,,,,610313c21dc0b22ab21ed775,61036cfad281cbf50c8e6efa,2021-07-29_20h08.21.037,Simcolourproject_2stim_asymm_v5,2020.2.10,Linux x86_64,60,61025ae37ef11b136ea224fe,,,,,,,,,3993,28.8067627,75.40701294,1,0,0,response1disk,,7,-10.78790283,-7.214324951,1,0,0,rectangle,-10.78790283,-7.214324951,1,0,0,-10.78790283,-7.214324951,1,0,0,0,35,35,40,1,,,,,,,,
,,,,,,,,,,,,,FF,,,,,,,,1.25083,,,,,,,,,,,,,,,,,,,,,,610313c21dc0b22ab21ed775,61036cfad281cbf50c8e6efa,2021-07-29_20h08.21.037,Simcolourproject_2stim_asymm_v5,2020.2.10,Linux x86_64,60,61025ae37ef11b136ea224fe,,,,,,,,,1309,67.53668213,29.41723633,1,0,0,response1disk,,6,-6.262084961,-1.407226563,1,0,0,rectangle,-6.262084961,-1.407226563,1,0,0,-6.262084961,-1.407226563,1,0,0,0,36,36,122,1,,,,,,,,
,,,,,,,,,,,,,FF,,,,,,,,0.86735,,,,,,,,,,,,,,,,,,,,,,610313c21dc0b22ab21ed775,61036cfad281cbf50c8e6efa,2021-07-29_20h08.21.037,Simcolourproject_2stim_asymm_v5,2020.2.10,Linux x86_64,60,61025ae37ef11b136ea224fe,,,,,,,,,4364,43.62371826,94.65008545,1,0,0,response1disk,,7,5.562438965,-10.15426636,1,0,0,rectangle,5.562438965,-10.15426636,1,0,0,5.562438965,-10.15426636,1,0,0,0,37,37,137,1,,,,,,,,
,,,,,,,,,,,,,FF,,,,,,,,1.5164,,,,,,,,,,,,,,,,,,,,,,610313c21dc0b22ab21ed775,61036cfad281cbf50c8e6efa,2021-07-29_20h08.21.037,Simcolourproject_2stim_asymm_v5,2020.2.10,Linux x86_64,60,61025ae37ef11b136ea224fe,,,,,,,,,1253,-62.05181885,90.09796143,1,0,0,response7disk,,0,-11.88696289,-15.20959473,1,0,0,rectangle,-11.88696289,-15.20959473,1,0,0,-11.88696289,-15.20959473,1,0,0,0,38,38,156,1,,,,,,,,
,,,,,,,,,,,,,FF,,,,,,,,1.433775,,,,,,,,,,,,,,,,,,,,,,610313c21dc0b22ab21ed775,61036cfad281cbf50c8e6efa,2021-07-29_20h08.21.037,Simcolourproject_2stim_asymm_v5,2020.2.10,Linux x86_64,60,61025ae37ef11b136ea224fe,,,,,,,,,4098,-47.78186035,44.19140625,1,0,0,response7disk,,1,1.531066895,-6.397827148,1,0,0,rectangle,1.531066895,-6.397827148,1,0,0,1.531066895,-6.397827148,1,0,0,0,39,39,49,1,,,,,,,,
,,,,,,,,,,,,,FF,,,,,,,,2.50024,,,,,,,,,,,,,,,,,,,,,,610313c21dc0b22ab21ed775,61036cfad281cbf50c8e6efa,2021-07-29_20h08.21.037,Simcolourproject_2stim_asymm_v5,2020.2.10,Linux x86_64,60,61025ae37ef11b136ea224fe,,,,,,,,,2408,-47.66223145,30.01696777,1,0,0,response7disk,,1,-16.31604004,-9.382476807,1,0,0,rectangle,-16.31604004,-9.382476807,1,0,0,-16.31604004,-9.382476807,1,0,0,0,40,40,29,1,,,,,,,,
,,,,,,,,,,,,,FF,,,,,,,,1.9003,,,,,,,,,,,,,,,,,,,,,,610313c21dc0b22ab21ed775,61036cfad281cbf50c8e6efa,2021-07-29_20h08.21.037,Simcolourproject_2stim_asymm_v5,2020.2.10,Linux x86_64,60,61025ae37ef11b136ea224fe,,,,,,,,,4171,-32.7088623,-69.03875732,1,0,0,response5disk,,3,-10.68432617,-5.096832275,1,0,0,rectangle,-10.68432617,-5.096832275,1,0,0,-10.68432617,-5.096832275,1,0,0,0,41,41,131,1,,,,,,,,
,,,,,,,,,,,,,FF,,,,,,,,1.6838,,,,,,,,,,,,,,,,,,,,,,610313c21dc0b22ab21ed775,61036cfad281cbf50c8e6efa,2021-07-29_20h08.21.037,Simcolourproject_2stim_asymm_v5,2020.2.10,Linux x86_64,60,61025ae37ef11b136ea224fe,,,,,,,,,1618,-30.61602783,-62.83456421,1,0,0,response5disk,,3,-17.90447998,-6.055450439,1,0,0,rectangle,-17.90447998,-6.055450439,1,0,0,-17.90447998,-6.055450439,1,0,0,0,42,42,138,1,,,,,,,,
,,,,,,,,,,,,,FF,,,,,,,,1.98463,,,,,,,,,,,,,,,,,,,,,,610313c21dc0b22ab21ed775,61036cfad281cbf50c8e6efa,2021-07-29_20h08.21.037,Simcolourproject_2stim_asymm_v5,2020.2.10,Linux x86_64,60,61025ae37ef11b136ea224fe,,,,,,,,,3681,-66.16070557,53.08325195,1,0,0,response7disk,,1,0.141906738,-0.107299805,1,0,0,rectangle,0.141906738,-0.107299805,1,0,0,0.141906738,-0.107299805,1,0,0,0,43,43,66,1,,,,,,,,
,,,,,,,,,,,,,FF,,,,,,,,3.316365,,,,,,,,,,,,,,,,,,,,,,610313c21dc0b22ab21ed775,61036cfad281cbf50c8e6efa,2021-07-29_20h08.21.037,Simcolourproject_2stim_asymm_v5,2020.2.10,Linux x86_64,60,61025ae37ef11b136ea224fe,,,,,,,,,3754,-70.86010742,37.19766235,1,0,0,response7disk,,1,-1.495300293,-5.807861328,1,0,0,rectangle,-1.495300293,-5.807861328,1,0,0,-1.495300293,-5.807861328,1,0,0,0,44,44,112,1,,,,,,,,
,,,,,,,,,,,,,FF,,,,,,,,1.250915,,,,,,,,,,,,,,,,,,,,,,610313c21dc0b22ab21ed775,61036cfad281cbf50c8e6efa,2021-07-29_20h08.21.037,Simcolourproject_2stim_asymm_v5,2020.2.10,Linux x86_64,60,61025ae37ef11b136ea224fe,,,,,,,,,1580,-65.44952393,28.20074463,1,0,0,response7disk,,1,-15.48205566,-10.41769409,1,0,0,rectangle,-15.48205566,-10.41769409,1,0,0,-15.48205566,-10.41769409,1,0,0,0,45,45,125,1,,,,,,,,
,,,,,,,,,,,,,FF,,,,,,,,1.550005,,,,,,,,,,,,,,,,,,,,,,610313c21dc0b22ab21ed775,61036cfad281cbf50c8e6efa,2021-07-29_20h08.21.037,Simcolourproject_2stim_asymm_v5,2020.2.10,Linux x86_64,60,61025ae37ef11b136ea224fe,,,,,,,,,3394,59.6630249,24.66665649,1,0,0,response1disk,,6,-3.588256836,0.967712402,1,0,0,rectangle,-3.588256836,0.967712402,1,0,0,-3.588256836,0.967712402,1,0,0,0,46,46,28,1,,,,,,,,
,,,,,,,,,,,,,FF,,,,,,,,0.850505,,,,,,,,,,,,,,,,,,,,,,610313c21dc0b22ab21ed775,61036cfad281cbf50c8e6efa,2021-07-29_20h08.21.037,Simcolourproject_2stim_asymm_v5,2020.2.10,Linux x86_64,60,61025ae37ef11b136ea224fe,,,,,,,,,2662,20.52264404,94.75378418,1,0,0,response1disk,,7,-4.940124512,4.990600586,1,0,0,rectangle,-4.940124512,4.990600586,1,0,0,-4.940124512,4.990600586,1,0,0,0,47,47,78,1,,,,,,,,
,,,,,,,,,,,,,FF,,,,,,,,2.40004,,,,,,,,,,,,,,,,,,,,,,610313c21dc0b22ab21ed775,61036cfad281cbf50c8e6efa,2021-07-29_20h08.21.037,Simcolourproject_2stim_asymm_v5,2020.2.10,Linux x86_64,60,61025ae37ef11b136ea224fe,,,,,,,,,1287,-33.12609863,-74.33206177,1,0,0,response5disk,,3,-7.976623535,-9.26776123,1,0,0,rectangle,-7.976623535,-9.26776123,1,0,0,-7.976623535,-9.26776123,1,0,0,0,48,48,119,1,,,,,,,,
,,,,,,,,,,,,,FF,,,,,,,,1.485165,,,,,,,,,,,,,,,,,,,,,,610313c21dc0b22ab21ed775,61036cfad281cbf50c8e6efa,2021-07-29_20h08.21.037,Simcolourproject_2stim_asymm_v5,2020.2.10,Linux x86_64,60,61025ae37ef11b136ea224fe,,,,,,,,,1848,-61.2802124,-32.55444336,1,0,0,response5disk,,2,-16.93280029,-1.853088379,1,0,0,rectangle,-16.93280029,-1.853088379,1,0,0,-16.93280029,-1.853088379,1,0,0,0,49,49,159,1,,,,,,,,
,,,,,,,,,,,,,FF,,,,,,,,1.31777,,,,,,,,,,,,,,,,,,,,,,610313c21dc0b22ab21ed775,61036cfad281cbf50c8e6efa,2021-07-29_20h08.21.037,Simcolourproject_2stim_asymm_v5,2020.2.10,Linux x86_64,60,61025ae37ef11b136ea224fe,,,,,,,,,2297,68.96063232,40.3092041,1,0,0,response1disk,,6,0.803894043,-4.271209717,1,0,0,rectangle,0.803894043,-4.271209717,1,0,0,0.803894043,-4.271209717,1,0,0,0,50,50,5,1,,,,,,,,
,,,,,,,,,,,,,FF,,,,,,,,0.91708,,,,,,,,,,,,,,,,,,,,,,610313c21dc0b22ab21ed775,61036cfad281cbf50c8e6efa,2021-07-29_20h08.21.037,Simcolourproject_2stim_asymm_v5,2020.2.10,Linux x86_64,60,61025ae37ef11b136ea224fe,,,,,,,,,4085,81.52648926,20.58987427,1,0,0,response1disk,,6,-26.23956299,5.365081787,1,0,0,rectangle,-26.23956299,5.365081787,1,0,0,-26.23956299,5.365081787,1,0,0,0,51,51,65,1,,,,,,,,
,,,,,,,,,,,,,FF,,,,,,,,1.817555,,,,,,,,,,,,,,,,,,,,,,610313c21dc0b22ab21ed775,61036cfad281cbf50c8e6efa,2021-07-29_20h08.21.037,Simcolourproject_2stim_asymm_v5,2020.2.10,Linux x86_64,60,61025ae37ef11b136ea224fe,,,,,,,,,3008,-57.26977539,23.95553589,1,0,0,response7disk,,1,0.948364258,5.433441162,1,0,0,rectangle,0.948364258,5.433441162,1,0,0,0.948364258,5.433441162,1,0,0,0,52,52,63,1,,,,,,,,
,,,,,,,,,,,,,FF,,,,,,,,2.149685,,,,,,,,,,,,,,,,,,,,,,610313c21dc0b22ab21ed775,61036cfad281cbf50c8e6efa,2021-07-29_20h08.21.037,Simcolourproject_2stim_asymm_v5,2020.2.10,Linux x86_64,60,61025ae37ef11b136ea224fe,,,,,,,,,3654,-36.40942383,76.02575684,1,0,0,response7disk,,0,-5.297302246,-3.11239624,1,0,0,rectangle,-5.297302246,-3.11239624,1,0,0,-5.297302246,-3.11239624,1,0,0,0,53,53,70,1,,,,,,,,
,,,,,,,,,,,,,FF,,,,,,,,0.967705,,,,,,,,,,,,,,,,,,,,,,610313c21dc0b22ab21ed775,61036cfad281cbf50c8e6efa,2021-07-29_20h08.21.037,Simcolourproject_2stim_asymm_v5,2020.2.10,Linux x86_64,60,61025ae37ef11b136ea224fe,,,,,,,,,2463,-36.48156738,47.13214111,1,0,0,response7disk,,0,-10.32312012,-5.094848633,1,0,0,rectangle,-10.32312012,-5.094848633,1,0,0,-10.32312012,-5.094848633,1,0,0,0,54,54,31,1,,,,,,,,
,,,,,,,,,,,,,FF,,,,,,,,1.166135,,,,,,,,,,,,,,,,,,,,,,610313c21dc0b22ab21ed775,61036cfad281cbf50c8e6efa,2021-07-29_20h08.21.037,Simcolourproject_2stim_asymm_v5,2020.2.10,Linux x86_64,60,61025ae37ef11b136ea224fe,,,,,,,,,3747,65.64758301,29.44158936,1,0,0,response1disk,,6,2.964294434,0.932281494,1,0,0,rectangle,2.964294434,0.932281494,1,0,0,2.964294434,0.932281494,1,0,0,0,55,55,152,1,,,,,,,,
,,,,,,,,,,,,,FF,,,,,,,,2.333525,,,,,,,,,,,,,,,,,,,,,,610313c21dc0b22ab21ed775,61036cfad281cbf50c8e6efa,2021-07-29_20h08.21.037,Simcolourproject_2stim_asymm_v5,2020.2.10,Linux x86_64,60,61025ae37ef11b136ea224fe,,,,,,,,,503,-77.72894287,27.17288208,1,0,0,response7disk,,1,-0.330322266,-11.07009888,1,0,0,rectangle,38.34606934,-86.534729,1,0,0,10.47937012,-1.097930908,1,0,0,0,56,56,146,1,,response3disk_3,TRUE,4,4,"[233,67,71,70,219,110,107,141,2,57,111,178,136,3,310,309,23,301,34,88]",3.33321,rectangle
,,,,,,,,,,,,,FF,,,,,,,,2.13314,,,,,,,,,,,,,,,,,,,,,,610313c21dc0b22ab21ed775,61036cfad281cbf50c8e6efa,2021-07-29_20h08.21.037,Simcolourproject_2stim_asymm_v5,2020.2.10,Linux x86_64,60,61025ae37ef11b136ea224fe,,,,,,,,,3905,-63.52966309,109.1908569,1,0,0,response7disk,,0,10.73529053,0.837371826,1,0,0,rectangle,10.73529053,0.837371826,1,0,0,10.73529053,0.837371826,1,0,0,0,57,57,15,1,,,,,,,,
,,,,,,,,,,,,,FF,,,,,,,,2.519905,,,,,,,,,,,,,,,,,,,,,,610313c21dc0b22ab21ed775,61036cfad281cbf50c8e6efa,2021-07-29_20h08.21.037,Simcolourproject_2stim_asymm_v5,2020.2.10,Linux x86_64,60,61025ae37ef11b136ea224fe,,,,,,,,,1620,-60.01202393,43.04956055,1,0,0,response7disk,,1,0.98034668,-10.45697021,1,0,0,rectangle,0.98034668,-10.45697021,1,0,0,0.98034668,-10.45697021,1,0,0,0,58,58,82,1,,,,,,,,
,,,,,,,,,,,,,FF,,,,,,,,2.23473,,,,,,,,,,,,,,,,,,,,,,610313c21dc0b22ab21ed775,61036cfad281cbf50c8e6efa,2021-07-29_20h08.21.037,Simcolourproject_2stim_asymm_v5,2020.2.10,Linux x86_64,60,61025ae37ef11b136ea224fe,,,,,,,,,234,-75.81939697,59.82180786,1,0,0,response7disk,,1,-24.06555176,-0.107513428,1,0,0,rectangle,-24.06555176,-0.107513428,1,0,0,-24.06555176,-0.107513428,1,0,0,0,59,59,92,1,,,,,,,,
,,,,,,,,,,,,,FF,,,,,,,,1.93231,,,,,,,,,,,,,,,,,,,,,,610313c21dc0b22ab21ed775,61036cfad281cbf50c8e6efa,2021-07-29_20h08.21.037,Simcolourproject_2stim_asymm_v5,2020.2.10,Linux x86_64,60,61025ae37ef11b136ea224fe,,,,,,,,,1324,-71.71429443,50.51586914,1,0,0,response7disk,,1,-25.64038086,9.012237549,1,0,0,rectangle,-25.64038086,9.012237549,1,0,0,-25.64038086,9.012237549,1,0,0,0,60,60,76,1,,,,,,,,
,,,,,,,,,,,,,FF,,,,,,,,0.866905,,,,,,,,,,,,,,,,,,,,,,610313c21dc0b22ab21ed775,61036cfad281cbf50c8e6efa,2021-07-29_20h08.21.037,Simcolourproject_2stim_asymm_v5,2020.2.10,Linux x86_64,60,61025ae37ef11b136ea224fe,,,,,,,,,3404,-67.08935547,35.14712524,1,0,0,response7disk,,1,-24.66101074,1.496246338,1,0,0,rectangle,-24.66101074,1.496246338,1,0,0,-24.66101074,1.496246338,1,0,0,0,61,61,86,1,,,,,,,,
,,,,,,,,,,,,,FF,,,,,,,,1.116495,,,,,,,,,,,,,,,,,,,,,,610313c21dc0b22ab21ed775,61036cfad281cbf50c8e6efa,2021-07-29_20h08.21.037,Simcolourproject_2stim_asymm_v5,2020.2.10,Linux x86_64,60,61025ae37ef11b136ea224fe,,,,,,,,,685,-83.03509521,39.40509033,1,0,0,response7disk,,1,-13.28601074,-6.821044922,1,0,0,rectangle,-13.28601074,-6.821044922,1,0,0,-13.28601074,-6.821044922,1,0,0,0,62,62,46,1,,,,,,,,
,,,,,,,,,,,,,FF,,,,,,,,1.26159,,,,,,,,,,,,,,,,,,,,,,610313c21dc0b22ab21ed775,61036cfad281cbf50c8e6efa,2021-07-29_20h08.21.037,Simcolourproject_2stim_asymm_v5,2020.2.10,Linux x86_64,60,61025ae37ef11b136ea224fe,,,,,,,,,1543,96.78198242,32.62039185,1,0,0,response1disk,,6,5.115722656,-12.88659668,1,0,0,rectangle,5.115722656,-12.88659668,1,0,0,5.115722656,-12.88659668,1,0,0,0,63,63,105,1,,,,,,,,
,,,,,,,,,,,,,FF,,,,,,,,1.532935,,,,,,,,,,,,,,,,,,,,,,610313c21dc0b22ab21ed775,61036cfad281cbf50c8e6efa,2021-07-29_20h08.21.037,Simcolourproject_2stim_asymm_v5,2020.2.10,Linux x86_64,60,61025ae37ef11b136ea224fe,,,,,,,,,1389,87.36035156,-72.37588501,1,0,0,response3disk,,5,17.32550049,1.527099609,1,0,0,rectangle,17.32550049,1.527099609,1,0,0,17.32550049,1.527099609,1,0,0,0,64,64,93,1,,,,,,,,
,,,,,,,,,,,,,FF,,,,,,,,2.13441,,,,,,,,,,,,,,,,,,,,,,610313c21dc0b22ab21ed775,61036cfad281cbf50c8e6efa,2021-07-29_20h08.21.037,Simcolourproject_2stim_asymm_v5,2020.2.10,Linux x86_64,60,61025ae37ef11b136ea224fe,,,,,,,,,3178,-21.42797852,54.37408447,1,0,0,response7disk,,0,-1.30065918,-2.266693115,1,0,0,rectangle,-1.30065918,-2.266693115,1,0,0,-1.30065918,-2.266693115,1,0,0,0,65,65,68,1,,,,,,,,
,,,,,,,,,,,,,FF,,,,,,,,5.28385,,,,,,,,,,,,,,,,,,,,,,610313c21dc0b22ab21ed775,61036cfad281cbf50c8e6efa,2021-07-29_20h08.21.037,Simcolourproject_2stim_asymm_v5,2020.2.10,Linux x86_64,60,61025ae37ef11b136ea224fe,,,,,,,,,3690,-31.94622803,56.46954346,1,0,0,response7disk,,0,-3.051025391,2.577697754,1,0,0,rectangle,57.83227539,26.40423584,1,0,0,0.727355957,-5.511505127,1,0,0,0,66,66,8,1,,response1disk_3,TRUE,6,6,"[233,67,71,70,219,110,107,141,2,57,111,178,136,3,310,309,23,301,34,88]",2.201145,rectangle
,,,,,,,,,,,,,FF,,,,,,,,1.525385,,,,,,,,,,,,,,,,,,,,,,610313c21dc0b22ab21ed775,61036cfad281cbf50c8e6efa,2021-07-29_20h08.21.037,Simcolourproject_2stim_asymm_v5,2020.2.10,Linux x86_64,60,61025ae37ef11b136ea224fe,,,,,,,,,2238,94.10650635,35.35287476,1,0,0,response1disk,,6,-16.80487061,11.44805908,1,0,0,rectangle,-16.80487061,11.44805908,1,0,0,-16.80487061,11.44805908,1,0,0,0,67,67,147,1,,,,,,,,
,,,,,,,,,,,,,FF,,,,,,,,1.700525,,,,,,,,,,,,,,,,,,,,,,610313c21dc0b22ab21ed775,61036cfad281cbf50c8e6efa,2021-07-29_20h08.21.037,Simcolourproject_2stim_asymm_v5,2020.2.10,Linux x86_64,60,61025ae37ef11b136ea224fe,,,,,,,,,4030,-84.71484375,26.10473633,1,0,0,response7disk,,1,-15.37103271,4.397125244,1,0,0,rectangle,-15.37103271,4.397125244,1,0,0,-15.37103271,4.397125244,1,0,0,0,68,68,134,1,,,,,,,,
,,,,,,,,,,,,,FF,,,,,,,,1.06667,,,,,,,,,,,,,,,,,,,,,,610313c21dc0b22ab21ed775,61036cfad281cbf50c8e6efa,2021-07-29_20h08.21.037,Simcolourproject_2stim_asymm_v5,2020.2.10,Linux x86_64,60,61025ae37ef11b136ea224fe,,,,,,,,,452,-60.69317627,39.53866577,1,0,0,response7disk,,1,-15.72808838,4.553192139,1,0,0,rectangle,22.97070313,16.24429321,1,0,0,5.630249023,10.0163269,1,0,0,0,69,69,38,1,,response1disk_3,TRUE,6,6,"[233,67,71,70,219,110,107,141,2,57,111,178,136,3,310,309,23,301,34,88]",3.09958,rectangle
,,,,,,,,,,,,,FF,,,,,,,,1.38618,,,,,,,,,,,,,,,,,,,,,,610313c21dc0b22ab21ed775,61036cfad281cbf50c8e6efa,2021-07-29_20h08.21.037,Simcolourproject_2stim_asymm_v5,2020.2.10,Linux x86_64,60,61025ae37ef11b136ea224fe,,,,,,,,,871,93.31207275,-30.53607178,1,0,0,response3disk,,5,-2.796813965,-0.371856689,1,0,0,rectangle,41.51312256,-83.7074585,1,0,0,13.7923584,-2.050140381,1,0,0,0,70,70,44,1,,response3disk_3,TRUE,4,4,"[233,67,71,70,219,110,107,141,2,57,111,178,136,3,310,309,23,301,34,88]",3.54344,rectangle
,,,,,,,,,,,,,FF,,,,,,,,1.23413,,,,,,,,,,,,,,,,,,,,,,610313c21dc0b22ab21ed775,61036cfad281cbf50c8e6efa,2021-07-29_20h08.21.037,Simcolourproject_2stim_asymm_v5,2020.2.10,Linux x86_64,60,61025ae37ef11b136ea224fe,,,,,,,,,2070,-80.91326904,44.12374878,1,0,0,response7disk,,1,-8.895385742,-6.868774414,1,0,0,rectangle,-8.895385742,-6.868774414,1,0,0,-8.895385742,-6.868774414,1,0,0,0,71,71,95,1,,,,,,,,
,,,,,,,,,,,,,FF,,,,,,,,1.065995,,,,,,,,,,,,,,,,,,,,,,610313c21dc0b22ab21ed775,61036cfad281cbf50c8e6efa,2021-07-29_20h08.21.037,Simcolourproject_2stim_asymm_v5,2020.2.10,Linux x86_64,60,61025ae37ef11b136ea224fe,,,,,,,,,1607,40.3838501,81.25115967,1,0,0,response1disk,,7,-13.47747803,-2.494689941,1,0,0,rectangle,-13.47747803,-2.494689941,1,0,0,-13.47747803,-2.494689941,1,0,0,0,72,72,48,1,,,,,,,,
,,,,,,,,,,,,,FF,,,,,,,,1.216,,,,,,,,,,,,,,,,,,,,,,610313c21dc0b22ab21ed775,61036cfad281cbf50c8e6efa,2021-07-29_20h08.21.037,Simcolourproject_2stim_asymm_v5,2020.2.10,Linux x86_64,60,61025ae37ef11b136ea224fe,,,,,,,,,2306,73.84356689,-28.3939209,1,0,0,response3disk,,5,11.6784668,0.362030029,1,0,0,rectangle,11.6784668,0.362030029,1,0,0,11.6784668,0.362030029,1,0,0,0,73,73,157,1,,,,,,,,
,,,,,,,,,,,,,FF,,,,,,,,1.216575,,,,,,,,,,,,,,,,,,,,,,610313c21dc0b22ab21ed775,61036cfad281cbf50c8e6efa,2021-07-29_20h08.21.037,Simcolourproject_2stim_asymm_v5,2020.2.10,Linux x86_64,60,61025ae37ef11b136ea224fe,,,,,,,,,2155,-34.83282471,60.1619873,1,0,0,response7disk,,0,-15.14135742,-1.957977295,1,0,0,rectangle,-15.14135742,-1.957977295,1,0,0,-15.14135742,-1.957977295,1,0,0,0,74,74,67,1,,,,,,,,
,,,,,,,,,,,,,FF,,,,,,,,1.15088,,,,,,,,,,,,,,,,,,,,,,610313c21dc0b22ab21ed775,61036cfad281cbf50c8e6efa,2021-07-29_20h08.21.037,Simcolourproject_2stim_asymm_v5,2020.2.10,Linux x86_64,60,61025ae37ef11b136ea224fe,,,,,,,,,285,105.4240723,33.62164307,1,0,0,response1disk,,6,-6.677978516,-1.856903076,1,0,0,rectangle,-6.677978516,-1.856903076,1,0,0,-6.677978516,-1.856903076,1,0,0,0,75,75,148,1,,,,,,,,
,,,,,,,,,,,,,FF,,,,,,,,1.100465,,,,,,,,,,,,,,,,,,,,,,610313c21dc0b22ab21ed775,61036cfad281cbf50c8e6efa,2021-07-29_20h08.21.037,Simcolourproject_2stim_asymm_v5,2020.2.10,Linux x86_64,60,61025ae37ef11b136ea224fe,,,,,,,,,1015,-46.98535156,101.1089172,1,0,0,response7disk,,0,7.825439453,-11.36138916,1,0,0,rectangle,7.825439453,-11.36138916,1,0,0,7.825439453,-11.36138916,1,0,0,0,76,76,116,1,,,,,,,,
,,,,,,,,,,,,,FF,,,,,,,,0.851235,,,,,,,,,,,,,,,,,,,,,,610313c21dc0b22ab21ed775,61036cfad281cbf50c8e6efa,2021-07-29_20h08.21.037,Simcolourproject_2stim_asymm_v5,2020.2.10,Linux x86_64,60,61025ae37ef11b136ea224fe,,,,,,,,,328,-51.84417725,81.31170654,1,0,0,response7disk,,0,-6.903991699,2.351135254,1,0,0,rectangle,-6.903991699,2.351135254,1,0,0,-6.903991699,2.351135254,1,0,0,0,77,77,19,1,,,,,,,,
,,,,,,,,,,,,,FF,,,,,,,,1.167965,,,,,,,,,,,,,,,,,,,,,,610313c21dc0b22ab21ed775,61036cfad281cbf50c8e6efa,2021-07-29_20h08.21.037,Simcolourproject_2stim_asymm_v5,2020.2.10,Linux x86_64,60,61025ae37ef11b136ea224fe,,,,,,,,,3254,-75.50109863,30.02316284,1,0,0,response7disk,,1,-14.64019775,-11.45089722,1,0,0,rectangle,-14.64019775,-11.45089722,1,0,0,-14.64019775,-11.45089722,1,0,0,0,78,78,0,1,,,,,,,,
,,,,,,,,,,,,,FF,,,,,,,,0.866715,,,,,,,,,,,,,,,,,,,,,,610313c21dc0b22ab21ed775,61036cfad281cbf50c8e6efa,2021-07-29_20h08.21.037,Simcolourproject_2stim_asymm_v5,2020.2.10,Linux x86_64,60,61025ae37ef11b136ea224fe,,,,,,,,,1686,88.17675781,50.05184937,1,0,0,response1disk,,6,4.016845703,-0.99005127,1,0,0,rectangle,4.016845703,-0.99005127,1,0,0,4.016845703,-0.99005127,1,0,0,0,79,79,33,1,,,,,,,,
,,,,,,,,,,,,,FF,,,,,,,,1.14989,,,,,,,,,,,,,,,,,,,,,,610313c21dc0b22ab21ed775,61036cfad281cbf50c8e6efa,2021-07-29_20h08.21.037,Simcolourproject_2stim_asymm_v5,2020.2.10,Linux x86_64,60,61025ae37ef11b136ea224fe,,,,,,,,,2841,79.35534668,-50.55648804,1,0,0,response3disk,,5,-3.618591309,11.82260132,1,0,0,rectangle,-3.618591309,11.82260132,1,0,0,-3.618591309,11.82260132,1,0,0,0,80,80,22,1,,,,,,,,
,,,,,,,,,,,,,FF,,,,,,,,2.868115,,,,,,,,,,,,,,,,,,,,,,610313c21dc0b22ab21ed775,61036cfad281cbf50c8e6efa,2021-07-29_20h08.21.037,Simcolourproject_2stim_asymm_v5,2020.2.10,Linux x86_64,60,61025ae37ef11b136ea224fe,,,,,,,,,1246,-57.68829346,-86.75079346,1,0,0,response5disk,,3,-16.43334961,-4.570953369,1,0,0,rectangle,-16.43334961,-4.570953369,1,0,0,-16.43334961,-4.570953369,1,0,0,0,81,81,71,1,,,,,,,,
,,,,,,,,,,,,,FF,,,,,,,,1.15004,,,,,,,,,,,,,,,,,,,,,,610313c21dc0b22ab21ed775,61036cfad281cbf50c8e6efa,2021-07-29_20h08.21.037,Simcolourproject_2stim_asymm_v5,2020.2.10,Linux x86_64,60,61025ae37ef11b136ea224fe,,,,,,,,,1517,-43.85620117,52.55654907,1,0,0,response7disk,,0,0.687805176,-4.563079834,1,0,0,rectangle,0.687805176,-4.563079834,1,0,0,0.687805176,-4.563079834,1,0,0,0,82,82,75,1,,,,,,,,
,,,,,,,,,,,,,FF,,,,,,,,0.73471,,,,,,,,,,,,,,,,,,,,,,610313c21dc0b22ab21ed775,61036cfad281cbf50c8e6efa,2021-07-29_20h08.21.037,Simcolourproject_2stim_asymm_v5,2020.2.10,Linux x86_64,60,61025ae37ef11b136ea224fe,,,,,,,,,880,-37.19067383,92.70062256,1,0,0,response7disk,,0,-3.551818848,-1.344238281,1,0,0,rectangle,-3.551818848,-1.344238281,1,0,0,-3.551818848,-1.344238281,1,0,0,0,83,83,59,1,,,,,,,,
,,,,,,,,,,,,,FF,,,,,,,,1.21691,,,,,,,,,,,,,,,,,,,,,,610313c21dc0b22ab21ed775,61036cfad281cbf50c8e6efa,2021-07-29_20h08.21.037,Simcolourproject_2stim_asymm_v5,2020.2.10,Linux x86_64,60,61025ae37ef11b136ea224fe,,,,,,,,,795,-74.20526123,42.48165894,1,0,0,response7disk,,1,-13.45959473,8.270721436,1,0,0,rectangle,-13.45959473,8.270721436,1,0,0,-13.45959473,8.270721436,1,0,0,0,84,84,132,1,,,,,,,,
,,,,,,,,,,,,,FF,,,,,,,,1.26685,,,,,,,,,,,,,,,,,,,,,,610313c21dc0b22ab21ed775,61036cfad281cbf50c8e6efa,2021-07-29_20h08.21.037,Simcolourproject_2stim_asymm_v5,2020.2.10,Linux x86_64,60,61025ae37ef11b136ea224fe,,,,,,,,,3733,-31.84051514,56.59902954,1,0,0,response7disk,,0,3.438781738,-3.257537842,1,0,0,rectangle,3.438781738,-3.257537842,1,0,0,3.438781738,-3.257537842,1,0,0,0,85,85,106,1,,,,,,,,
,,,,,,,,,,,,,FF,,,,,,,,2.0834,,,,,,,,,,,,,,,,,,,,,,610313c21dc0b22ab21ed775,61036cfad281cbf50c8e6efa,2021-07-29_20h08.21.037,Simcolourproject_2stim_asymm_v5,2020.2.10,Linux x86_64,60,61025ae37ef11b136ea224fe,,,,,,,,,1680,87.32403564,45.91290283,1,0,0,response1disk,,6,6.850646973,4.843841553,1,0,0,rectangle,6.850646973,4.843841553,1,0,0,6.850646973,4.843841553,1,0,0,0,86,86,39,1,,,,,,,,
,,,,,,,,,,,,,FF,,,,,,,,1.0002,,,,,,,,,,,,,,,,,,,,,,610313c21dc0b22ab21ed775,61036cfad281cbf50c8e6efa,2021-07-29_20h08.21.037,Simcolourproject_2stim_asymm_v5,2020.2.10,Linux x86_64,60,61025ae37ef11b136ea224fe,,,,,,,,,2607,55.98547363,99.52020264,1,0,0,response1disk,,7,3.178344727,0.073699951,1,0,0,rectangle,39.52301025,100.8835144,1,0,0,4.347290039,-3.618713379,1,0,0,0,87,87,64,1,,response1disk_3,TRUE,7,7,"[233,67,71,70,219,110,107,141,2,57,111,178,136,3,310,309,23,301,34,88]",2.450335,rectangle
,,,,,,,,,,,,,FF,,,,,,,,0.883955,,,,,,,,,,,,,,,,,,,,,,610313c21dc0b22ab21ed775,61036cfad281cbf50c8e6efa,2021-07-29_20h08.21.037,Simcolourproject_2stim_asymm_v5,2020.2.10,Linux x86_64,60,61025ae37ef11b136ea224fe,,,,,,,,,634,102.5439453,53.63375854,1,0,0,response1disk,,6,8.70324707,-5.850769043,1,0,0,rectangle,8.70324707,-5.850769043,1,0,0,8.70324707,-5.850769043,1,0,0,0,88,88,145,1,,,,,,,,
,,,,,,,,,,,,,FF,,,,,,,,0.8848,,,,,,,,,,,,,,,,,,,,,,610313c21dc0b22ab21ed775,61036cfad281cbf50c8e6efa,2021-07-29_20h08.21.037,Simcolourproject_2stim_asymm_v5,2020.2.10,Linux x86_64,60,61025ae37ef11b136ea224fe,,,,,,,,,2545,101.560791,61.82998657,1,0,0,response1disk,,6,-4.703613281,0.00668335,1,0,0,rectangle,-4.703613281,0.00668335,1,0,0,-4.703613281,0.00668335,1,0,0,0,89,89,100,1,,,,,,,,
,,,,,,,,,,,,,FF,,,,,,,,1.955525,,,,,,,,,,,,,,,,,,,,,,610313c21dc0b22ab21ed775,61036cfad281cbf50c8e6efa,2021-07-29_20h08.21.037,Simcolourproject_2stim_asymm_v5,2020.2.10,Linux x86_64,60,61025ae37ef11b136ea224fe,,,,,,,,,2319,-67.43469238,37.60961914,1,0,0,response7disk,,1,-10.58178711,3.971191406,1,0,0,rectangle,-10.58178711,3.971191406,1,0,0,-10.58178711,3.971191406,1,0,0,0,90,90,10,1,,,,,,,,
,,,,,,,,,,,,,FF,,,,,,,,0.95064,,,,,,,,,,,,,,,,,,,,,,610313c21dc0b22ab21ed775,61036cfad281cbf50c8e6efa,2021-07-29_20h08.21.037,Simcolourproject_2stim_asymm_v5,2020.2.10,Linux x86_64,60,61025ae37ef11b136ea224fe,,,,,,,,,1514,-38.45281982,58.89587402,1,0,0,response7disk,,0,-5.612365723,1.147979736,1,0,0,rectangle,-5.612365723,1.147979736,1,0,0,-5.612365723,1.147979736,1,0,0,0,91,91,11,1,,,,,,,,
,,,,,,,,,,,,,FF,,,,,,,,1.05043,,,,,,,,,,,,,,,,,,,,,,610313c21dc0b22ab21ed775,61036cfad281cbf50c8e6efa,2021-07-29_20h08.21.037,Simcolourproject_2stim_asymm_v5,2020.2.10,Linux x86_64,60,61025ae37ef11b136ea224fe,,,,,,,,,123,-68.02526855,44.64575195,1,0,0,response7disk,,1,-18.29473877,-0.400512695,1,0,0,rectangle,-18.29473877,-0.400512695,1,0,0,-18.29473877,-0.400512695,1,0,0,0,92,92,23,1,,,,,,,,
,,,,,,,,,,,,,FF,,,,,,,,0.91618,,,,,,,,,,,,,,,,,,,,,,610313c21dc0b22ab21ed775,61036cfad281cbf50c8e6efa,2021-07-29_20h08.21.037,Simcolourproject_2stim_asymm_v5,2020.2.10,Linux x86_64,60,61025ae37ef11b136ea224fe,,,,,,,,,419,-63.94274902,36.41854858,1,0,0,response7disk,,1,-17.309021,-14.02932739,1,0,0,rectangle,-17.309021,-14.02932739,1,0,0,-17.309021,-14.02932739,1,0,0,0,93,93,24,1,,,,,,,,
,,,,,,,,,,,,,FF,,,,,,,,0.71593,,,,,,,,,,,,,,,,,,,,,,610313c21dc0b22ab21ed775,61036cfad281cbf50c8e6efa,2021-07-29_20h08.21.037,Simcolourproject_2stim_asymm_v5,2020.2.10,Linux x86_64,60,61025ae37ef11b136ea224fe,,,,,,,,,2126,-34.40759277,83.52938843,1,0,0,response7disk,,0,17.64074707,-7.281036377,1,0,0,rectangle,17.64074707,-7.281036377,1,0,0,17.64074707,-7.281036377,1,0,0,0,94,94,118,1,,,,,,,,
,,,,,,,,,,,,,FF,,,,,,,,0.883475,,,,,,,,,,,,,,,,,,,,,,610313c21dc0b22ab21ed775,61036cfad281cbf50c8e6efa,2021-07-29_20h08.21.037,Simcolourproject_2stim_asymm_v5,2020.2.10,Linux x86_64,60,61025ae37ef11b136ea224fe,,,,,,,,,310,-55.07269287,93.80749512,1,0,0,response7disk,,0,20.52612305,-6.313049316,1,0,0,rectangle,20.52612305,-6.313049316,1,0,0,20.52612305,-6.313049316,1,0,0,0,95,95,109,1,,,,,,,,
,,,,,,,,,,,,,FF,,,,,,,,0.900675,,,,,,,,,,,,,,,,,,,,,,610313c21dc0b22ab21ed775,61036cfad281cbf50c8e6efa,2021-07-29_20h08.21.037,Simcolourproject_2stim_asymm_v5,2020.2.10,Linux x86_64,60,61025ae37ef11b136ea224fe,,,,,,,,,3351,-40.59472656,67.35116577,1,0,0,response7disk,,0,-4.691955566,-6.216796875,1,0,0,rectangle,-4.691955566,-6.216796875,1,0,0,-4.691955566,-6.216796875,1,0,0,0,96,96,18,1,,,,,,,,
,,,,,,,,,,,,,FF,,,,,,,,1.00128,,,,,,,,,,,,,,,,,,,,,,610313c21dc0b22ab21ed775,61036cfad281cbf50c8e6efa,2021-07-29_20h08.21.037,Simcolourproject_2stim_asymm_v5,2020.2.10,Linux x86_64,60,61025ae37ef11b136ea224fe,,,,,,,,,3629,-36.61022949,77.80441284,1,0,0,response7disk,,0,-9.470947266,0.198150635,1,0,0,rectangle,-9.470947266,0.198150635,1,0,0,-9.470947266,0.198150635,1,0,0,0,97,97,13,1,,,,,,,,
,,,,,,,,,,,,,FF,,,,,,,,0.85017,,,,,,,,,,,,,,,,,,,,,,610313c21dc0b22ab21ed775,61036cfad281cbf50c8e6efa,2021-07-29_20h08.21.037,Simcolourproject_2stim_asymm_v5,2020.2.10,Linux x86_64,60,61025ae37ef11b136ea224fe,,,,,,,,,3141,-35.05505371,49.54104614,1,0,0,response7disk,,0,-1.794189453,-3.267456055,1,0,0,rectangle,-1.794189453,-3.267456055,1,0,0,-1.794189453,-3.267456055,1,0,0,0,98,98,124,1,,,,,,,,
,,,,,,,,,,,,,FF,,,,,,,,1.167635,,,,,,,,,,,,,,,,,,,,,,610313c21dc0b22ab21ed775,61036cfad281cbf50c8e6efa,2021-07-29_20h08.21.037,Simcolourproject_2stim_asymm_v5,2020.2.10,Linux x86_64,60,61025ae37ef11b136ea224fe,,,,,,,,,2964,-29.68817139,49.62820435,1,0,0,response7disk,,0,-14.02862549,3.919799805,1,0,0,rectangle,-14.02862549,3.919799805,1,0,0,-14.02862549,3.919799805,1,0,0,0,99,99,153,1,,,,,,,,
,,,,,,,,,,,,,FF,,,,,,,,3.21578,,,,,,,,,,,,,,,,,,,,,,610313c21dc0b22ab21ed775,61036cfad281cbf50c8e6efa,2021-07-29_20h08.21.037,Simcolourproject_2stim_asymm_v5,2020.2.10,Linux x86_64,60,61025ae37ef11b136ea224fe,,,,,,,,,1565,-76.88574219,42.41625977,1,0,0,response7disk,,1,-3.378967285,3.364990234,1,0,0,rectangle,-3.378967285,3.364990234,1,0,0,-3.378967285,3.364990234,1,0,0,0,100,100,1,1,,,,,,,,
,,,,,,,,,,,,,FF,,,,,,,,1.118,,,,,,,,,,,,,,,,,,,,,,610313c21dc0b22ab21ed775,61036cfad281cbf50c8e6efa,2021-07-29_20h08.21.037,Simcolourproject_2stim_asymm_v5,2020.2.10,Linux x86_64,60,61025ae37ef11b136ea224fe,,,,,,,,,929,-31.47137451,-56.36715698,1,0,0,response5disk,,3,-9.184143066,5.358825684,1,0,0,rectangle,-9.184143066,5.358825684,1,0,0,-9.184143066,5.358825684,1,0,0,0,101,101,21,1,,,,,,,,
,,,,,,,,,,,,,FF,,,,,,,,1.433225,,,,,,,,,,,,,,,,,,,,,,610313c21dc0b22ab21ed775,61036cfad281cbf50c8e6efa,2021-07-29_20h08.21.037,Simcolourproject_2stim_asymm_v5,2020.2.10,Linux x86_64,60,61025ae37ef11b136ea224fe,,,,,,,,,434,83.12835693,29.7562561,1,0,0,response1disk,,6,5.22088623,-4.064361572,1,0,0,rectangle,5.22088623,-4.064361572,1,0,0,5.22088623,-4.064361572,1,0,0,0,102,102,36,1,,,,,,,,
,,,,,,,,,,,,,FF,,,,,,,,0.93331,,,,,,,,,,,,,,,,,,,,,,610313c21dc0b22ab21ed775,61036cfad281cbf50c8e6efa,2021-07-29_20h08.21.037,Simcolourproject_2stim_asymm_v5,2020.2.10,Linux x86_64,60,61025ae37ef11b136ea224fe,,,,,,,,,2124,-62.60125732,97.23898315,1,0,0,response7disk,,0,-3.630615234,3.862548828,1,0,0,rectangle,-3.630615234,3.862548828,1,0,0,-3.630615234,3.862548828,1,0,0,0,103,103,50,1,,,,,,,,
,,,,,,,,,,,,,FF,,,,,,,,1.434685,,,,,,,,,,,,,,,,,,,,,,610313c21dc0b22ab21ed775,61036cfad281cbf50c8e6efa,2021-07-29_20h08.21.037,Simcolourproject_2stim_asymm_v5,2020.2.10,Linux x86_64,60,61025ae37ef11b136ea224fe,,,,,,,,,1336,-29.38946533,114.9205322,1,0,0,response7disk,,0,-13.1895752,3.770080566,1,0,0,rectangle,-13.1895752,3.770080566,1,0,0,-13.1895752,3.770080566,1,0,0,0,104,104,83,1,,,,,,,,
,,,,,,,,,,,,,FF,,,,,,,,0.799755,,,,,,,,,,,,,,,,,,,,,,610313c21dc0b22ab21ed775,61036cfad281cbf50c8e6efa,2021-07-29_20h08.21.037,Simcolourproject_2stim_asymm_v5,2020.2.10,Linux x86_64,60,61025ae37ef11b136ea224fe,,,,,,,,,2008,-34.71032715,55.72976685,1,0,0,response7disk,,0,-10.40722656,8.534484863,1,0,0,rectangle,-10.40722656,8.534484863,1,0,0,-10.40722656,8.534484863,1,0,0,0,105,105,77,1,,,,,,,,
,,,,,,,,,,,,,FF,,,,,,,,0.96796,,,,,,,,,,,,,,,,,,,,,,610313c21dc0b22ab21ed775,61036cfad281cbf50c8e6efa,2021-07-29_20h08.21.037,Simcolourproject_2stim_asymm_v5,2020.2.10,Linux x86_64,60,61025ae37ef11b136ea224fe,,,,,,,,,366,32.52636719,68.87182617,1,0,0,response1disk,,7,-7.11932373,4.139160156,1,0,0,rectangle,75.77478027,20.18765259,1,0,0,17.85217285,2.372619629,1,0,0,0,106,106,150,1,,response1disk_3,TRUE,6,6,"[233,67,71,70,219,110,107,141,2,57,111,178,136,3,310,309,23,301,34,88]",2.483215,rectangle
,,,,,,,,,,,,,FF,,,,,,,,3.084355,,,,,,,,,,,,,,,,,,,,,,610313c21dc0b22ab21ed775,61036cfad281cbf50c8e6efa,2021-07-29_20h08.21.037,Simcolourproject_2stim_asymm_v5,2020.2.10,Linux x86_64,60,61025ae37ef11b136ea224fe,,,,,,,,,1419,-36.18054199,75.75534058,1,0,0,response7disk,,0,-1.239074707,-6.798217773,1,0,0,rectangle,-1.239074707,-6.798217773,1,0,0,-1.239074707,-6.798217773,1,0,0,0,107,107,45,1,,,,,,,,
,,,,,,,,,,,,,FF,,,,,,,,1.0338,,,,,,,,,,,,,,,,,,,,,,610313c21dc0b22ab21ed775,61036cfad281cbf50c8e6efa,2021-07-29_20h08.21.037,Simcolourproject_2stim_asymm_v5,2020.2.10,Linux x86_64,60,61025ae37ef11b136ea224fe,,,,,,,,,1804,-68.32598877,29.32095337,1,0,0,response7disk,,1,-5.295776367,0.395751953,1,0,0,rectangle,-5.295776367,0.395751953,1,0,0,-5.295776367,0.395751953,1,0,0,0,108,108,98,1,,,,,,,,
,,,,,,,,,,,,,FF,,,,,,,,0.767045,,,,,,,,,,,,,,,,,,,,,,610313c21dc0b22ab21ed775,61036cfad281cbf50c8e6efa,2021-07-29_20h08.21.037,Simcolourproject_2stim_asymm_v5,2020.2.10,Linux x86_64,60,61025ae37ef11b136ea224fe,,,,,,,,,1250,-30.62145996,66.79406738,1,0,0,response7disk,,0,-0.40020752,-5.336456299,1,0,0,rectangle,-89.89910889,29.63537598,1,0,0,-9.074401855,0.061309814,1,0,0,0,109,109,26,1,,response7disk_3,TRUE,1,1,"[233,67,71,70,219,110,107,141,2,57,111,178,136,3,310,309,23,301,34,88]",1.999805,rectangle
,,,,,,,,,,,,,FF,,,,,,,,28.85237,,,,,,,,,,,,,,,,,,,,,,610313c21dc0b22ab21ed775,61036cfad281cbf50c8e6efa,2021-07-29_20h08.21.037,Simcolourproject_2stim_asymm_v5,2020.2.10,Linux x86_64,60,61025ae37ef11b136ea224fe,,,,,,,,,2981,-33.72851563,51.53015137,1,0,0,response7disk,,0,1.814697266,-2.922393799,1,0,0,rectangle,-47.83551025,-81.10638428,1,0,0,-2.218383789,-4.096221924,1,0,0,0,110,110,74,1,,response5disk_3,TRUE,3,3,"[233,67,71,70,219,110,107,141,2,57,111,178,136,3,310,309,23,301,34,88]",2.100125,rectangle
,,,,,,,,,,,,,FF,,,,,,,,1.00138,,,,,,,,,,,,,,,,,,,,,,610313c21dc0b22ab21ed775,61036cfad281cbf50c8e6efa,2021-07-29_20h08.21.037,Simcolourproject_2stim_asymm_v5,2020.2.10,Linux x86_64,60,61025ae37ef11b136ea224fe,,,,,,,,,1653,-30.86602783,66.11871338,1,0,0,response7disk,,0,3.979553223,2.254394531,1,0,0,rectangle,3.979553223,2.254394531,1,0,0,3.979553223,2.254394531,1,0,0,0,111,111,16,1,,,,,,,,
,,,,,,,,,,,,,FF,,,,,,,,0.917495,,,,,,,,,,,,,,,,,,,,,,610313c21dc0b22ab21ed775,61036cfad281cbf50c8e6efa,2021-07-29_20h08.21.037,Simcolourproject_2stim_asymm_v5,2020.2.10,Linux x86_64,60,61025ae37ef11b136ea224fe,,,,,,,,,3383,61.2824707,47.00360107,1,0,0,response1disk,,6,-1.192932129,2.172119141,1,0,0,rectangle,-1.192932129,2.172119141,1,0,0,-1.192932129,2.172119141,1,0,0,0,112,112,115,1,,,,,,,,
,,,,,,,,,,,,,FF,,,,,,,,1.23278,,,,,,,,,,,,,,,,,,,,,,610313c21dc0b22ab21ed775,61036cfad281cbf50c8e6efa,2021-07-29_20h08.21.037,Simcolourproject_2stim_asymm_v5,2020.2.10,Linux x86_64,60,61025ae37ef11b136ea224fe,,,,,,,,,4270,84.02752686,-26.83932495,1,0,0,response3disk,,5,-9.022155762,13.42181396,1,0,0,rectangle,-9.022155762,13.42181396,1,0,0,-9.022155762,13.42181396,1,0,0,0,113,113,2,1,,,,,,,,
,,,,,,,,,,,,,FF,,,,,,,,1.8998,,,,,,,,,,,,,,,,,,,,,,610313c21dc0b22ab21ed775,61036cfad281cbf50c8e6efa,2021-07-29_20h08.21.037,Simcolourproject_2stim_asymm_v5,2020.2.10,Linux x86_64,60,61025ae37ef11b136ea224fe,,,,,,,,,2470,-63.33441162,-40.67276001,1,0,0,response5disk,,2,-4.003295898,4.279876709,1,0,0,rectangle,-4.003295898,4.279876709,1,0,0,-4.003295898,4.279876709,1,0,0,0,114,114,4,1,,,,,,,,
,,,,,,,,,,,,,FF,,,,,,,,1.2164,,,,,,,,,,,,,,,,,,,,,,610313c21dc0b22ab21ed775,61036cfad281cbf50c8e6efa,2021-07-29_20h08.21.037,Simcolourproject_2stim_asymm_v5,2020.2.10,Linux x86_64,60,61025ae37ef11b136ea224fe,,,,,,,,,4286,-36.22076416,72.8302002,1,0,0,response7disk,,0,-2.206054688,-6.697937012,1,0,0,rectangle,-2.206054688,-6.697937012,1,0,0,-2.206054688,-6.697937012,1,0,0,0,115,115,101,1,,,,,,,,
,,,,,,,,,,,,,FF,,,,,,,,1.65003,,,,,,,,,,,,,,,,,,,,,,610313c21dc0b22ab21ed775,61036cfad281cbf50c8e6efa,2021-07-29_20h08.21.037,Simcolourproject_2stim_asymm_v5,2020.2.10,Linux x86_64,60,61025ae37ef11b136ea224fe,,,,,,,,,956,80.54022217,-53.71960449,1,0,0,response3disk,,5,2.871643066,-3.63180542,1,0,0,rectangle,2.871643066,-3.63180542,1,0,0,2.871643066,-3.63180542,1,0,0,0,116,116,135,1,,,,,,,,
,,,,,,,,,,,,,FF,,,,,,,,1.049825,,,,,,,,,,,,,,,,,,,,,,610313c21dc0b22ab21ed775,61036cfad281cbf50c8e6efa,2021-07-29_20h08.21.037,Simcolourproject_2stim_asymm_v5,2020.2.10,Linux x86_64,60,61025ae37ef11b136ea224fe,,,,,,,,,800,-38.45068359,61.34963989,1,0,0,response7disk,,0,-0.615722656,7.918182373,1,0,0,rectangle,-0.615722656,7.918182373,1,0,0,-0.615722656,7.918182373,1,0,0,0,117,117,129,1,,,,,,,,
,,,,,,,,,,,,,FF,,,,,,,,0.702075,,,,,,,,,,,,,,,,,,,,,,610313c21dc0b22ab21ed775,61036cfad281cbf50c8e6efa,2021-07-29_20h08.21.037,Simcolourproject_2stim_asymm_v5,2020.2.10,Linux x86_64,60,61025ae37ef11b136ea224fe,,,,,,,,,1929,-36.94989014,56.91693115,1,0,0,response7disk,,0,-3.612487793,0.442779541,1,0,0,rectangle,-3.612487793,0.442779541,1,0,0,-3.612487793,0.442779541,1,0,0,0,118,118,155,1,,,,,,,,
,,,,,,,,,,,,,FF,,,,,,,,3.083555,,,,,,,,,,,,,,,,,,,,,,610313c21dc0b22ab21ed775,61036cfad281cbf50c8e6efa,2021-07-29_20h08.21.037,Simcolourproject_2stim_asymm_v5,2020.2.10,Linux x86_64,60,61025ae37ef11b136ea224fe,,,,,,,,,223,74.70849609,-40.337677,1,0,0,response3disk,,5,3.170593262,-5.385772705,1,0,0,rectangle,3.170593262,-5.385772705,1,0,0,3.170593262,-5.385772705,1,0,0,0,119,119,88,1,,,,,,,,
,,,,,,,,,,,,,FF,,,,,,,,1.183565,,,,,,,,,,,,,,,,,,,,,,610313c21dc0b22ab21ed775,61036cfad281cbf50c8e6efa,2021-07-29_20h08.21.037,Simcolourproject_2stim_asymm_v5,2020.2.10,Linux x86_64,60,61025ae37ef11b136ea224fe,,,,,,,,,1074,92.59185791,-35.21035767,1,0,0,response3disk,,5,21.18603516,-3.900878906,1,0,0,rectangle,21.18603516,-3.900878906,1,0,0,21.18603516,-3.900878906,1,0,0,0,120,120,3,1,,,,,,,,
,,,,,,,,,,,,,FF,,,,,,,,0.917685,,,,,,,,,,,,,,,,,,,,,,610313c21dc0b22ab21ed775,61036cfad281cbf50c8e6efa,2021-07-29_20h08.21.037,Simcolourproject_2stim_asymm_v5,2020.2.10,Linux x86_64,60,61025ae37ef11b136ea224fe,,,,,,,,,3211,69.59631348,-36.43722534,1,0,0,response3disk,,5,17.10693359,2.018554688,1,0,0,rectangle,17.10693359,2.018554688,1,0,0,17.10693359,2.018554688,1,0,0,0,121,121,35,1,,,,,,,,
,,,,,,,,,,,,,FF,,,,,,,,0.866195,,,,,,,,,,,,,,,,,,,,,,610313c21dc0b22ab21ed775,61036cfad281cbf50c8e6efa,2021-07-29_20h08.21.037,Simcolourproject_2stim_asymm_v5,2020.2.10,Linux x86_64,60,61025ae37ef11b136ea224fe,,,,,,,,,4282,70.22680664,37.28637695,1,0,0,response1disk,,6,-2.115661621,-6.299438477,1,0,0,rectangle,-2.115661621,-6.299438477,1,0,0,-2.115661621,-6.299438477,1,0,0,0,122,122,87,1,,,,,,,,
,,,,,,,,,,,,,FF,,,,,,,,0.900605,,,,,,,,,,,,,,,,,,,,,,610313c21dc0b22ab21ed775,61036cfad281cbf50c8e6efa,2021-07-29_20h08.21.037,Simcolourproject_2stim_asymm_v5,2020.2.10,Linux x86_64,60,61025ae37ef11b136ea224fe,,,,,,,,,3557,72.76531982,-27.66033936,1,0,0,response3disk,,5,17.65795898,2.335876465,1,0,0,rectangle,17.65795898,2.335876465,1,0,0,17.65795898,2.335876465,1,0,0,0,123,123,9,1,,,,,,,,
,,,,,,,,,,,,,FF,,,,,,,,1.867555,,,,,,,,,,,,,,,,,,,,,,610313c21dc0b22ab21ed775,61036cfad281cbf50c8e6efa,2021-07-29_20h08.21.037,Simcolourproject_2stim_asymm_v5,2020.2.10,Linux x86_64,60,61025ae37ef11b136ea224fe,,,,,,,,,1092,-53.7442627,-25.07022095,1,0,0,response5disk,,2,-12.65002441,8.376831055,1,0,0,rectangle,-12.65002441,8.376831055,1,0,0,-12.65002441,8.376831055,1,0,0,0,124,124,62,1,,,,,,,,
,,,,,,,,,,,,,FF,,,,,,,,1.532845,,,,,,,,,,,,,,,,,,,,,,610313c21dc0b22ab21ed775,61036cfad281cbf50c8e6efa,2021-07-29_20h08.21.037,Simcolourproject_2stim_asymm_v5,2020.2.10,Linux x86_64,60,61025ae37ef11b136ea224fe,,,,,,,,,1138,91.87249756,35.17086792,1,0,0,response1disk,,6,-5.167114258,0.768737793,1,0,0,rectangle,-5.167114258,0.768737793,1,0,0,-5.167114258,0.768737793,1,0,0,0,125,125,54,1,,,,,,,,
,,,,,,,,,,,,,FF,,,,,,,,0.91679,,,,,,,,,,,,,,,,,,,,,,610313c21dc0b22ab21ed775,61036cfad281cbf50c8e6efa,2021-07-29_20h08.21.037,Simcolourproject_2stim_asymm_v5,2020.2.10,Linux x86_64,60,61025ae37ef11b136ea224fe,,,,,,,,,1295,88.42059326,48.58010864,1,0,0,response1disk,,6,2.368225098,0.716033936,1,0,0,rectangle,2.368225098,0.716033936,1,0,0,2.368225098,0.716033936,1,0,0,0,126,126,60,1,,,,,,,,
,,,,,,,,,,,,,FF,,,,,,,,1.29984,,,,,,,,,,,,,,,,,,,,,,610313c21dc0b22ab21ed775,61036cfad281cbf50c8e6efa,2021-07-29_20h08.21.037,Simcolourproject_2stim_asymm_v5,2020.2.10,Linux x86_64,60,61025ae37ef11b136ea224fe,,,,,,,,,3612,-89.96496582,25.65222168,1,0,0,response7disk,,1,7.909484863,2.919281006,1,0,0,rectangle,7.909484863,2.919281006,1,0,0,7.909484863,2.919281006,1,0,0,0,127,127,102,1,,,,,,,,
,,,,,,,,,,,,,FF,,,,,,,,0.90094,,,,,,,,,,,,,,,,,,,,,,610313c21dc0b22ab21ed775,61036cfad281cbf50c8e6efa,2021-07-29_20h08.21.037,Simcolourproject_2stim_asymm_v5,2020.2.10,Linux x86_64,60,61025ae37ef11b136ea224fe,,,,,,,,,2002,-38.36553955,62.59719849,1,0,0,response7disk,,0,-7.098632813,5.955810547,1,0,0,rectangle,-7.098632813,5.955810547,1,0,0,-7.098632813,5.955810547,1,0,0,0,128,128,96,1,,,,,,,,
,,,,,,,,,,,,,FF,,,,,,,,1.7986,,,,,,,,,,,,,,,,,,,,,,610313c21dc0b22ab21ed775,61036cfad281cbf50c8e6efa,2021-07-29_20h08.21.037,Simcolourproject_2stim_asymm_v5,2020.2.10,Linux x86_64,60,61025ae37ef11b136ea224fe,,,,,,,,,250,-85.55639648,-38.34188843,1,0,0,response5disk,,2,5.501953125,-1.483215332,1,0,0,rectangle,5.501953125,-1.483215332,1,0,0,5.501953125,-1.483215332,1,0,0,0,129,129,133,1,,,,,,,,
,,,,,,,,,,,,,FF,,,,,,,,1.10419,,,,,,,,,,,,,,,,,,,,,,610313c21dc0b22ab21ed775,61036cfad281cbf50c8e6efa,2021-07-29_20h08.21.037,Simcolourproject_2stim_asymm_v5,2020.2.10,Linux x86_64,60,61025ae37ef11b136ea224fe,,,,,,,,,3570,-101.2518311,46.36010742,1,0,0,response7disk,,1,-9.533691406,8.871887207,1,0,0,rectangle,-9.533691406,8.871887207,1,0,0,-9.533691406,8.871887207,1,0,0,0,130,130,90,1,,,,,,,,
,,,,,,,,,,,,,FF,,,,,,,,1.31712,,,,,,,,,,,,,,,,,,,,,,610313c21dc0b22ab21ed775,61036cfad281cbf50c8e6efa,2021-07-29_20h08.21.037,Simcolourproject_2stim_asymm_v5,2020.2.10,Linux x86_64,60,61025ae37ef11b136ea224fe,,,,,,,,,1384,79.8168335,30.20410156,1,0,0,response1disk,,6,-4.689331055,4.744384766,1,0,0,rectangle,-4.689331055,4.744384766,1,0,0,-4.689331055,4.744384766,1,0,0,0,131,131,141,1,,,,,,,,
,,,,,,,,,,,,,FF,,,,,,,,0.88575,,,,,,,,,,,,,,,,,,,,,,610313c21dc0b22ab21ed775,61036cfad281cbf50c8e6efa,2021-07-29_20h08.21.037,Simcolourproject_2stim_asymm_v5,2020.2.10,Linux x86_64,60,61025ae37ef11b136ea224fe,,,,,,,,,2042,92.85559082,57.97305298,1,0,0,response1disk,,6,-12.3069458,-0.039886475,1,0,0,rectangle,-12.3069458,-0.039886475,1,0,0,-12.3069458,-0.039886475,1,0,0,0,132,132,32,1,,,,,,,,
,,,,,,,,,,,,,FF,,,,,,,,1.034615,,,,,,,,,,,,,,,,,,,,,,610313c21dc0b22ab21ed775,61036cfad281cbf50c8e6efa,2021-07-29_20h08.21.037,Simcolourproject_2stim_asymm_v5,2020.2.10,Linux x86_64,60,61025ae37ef11b136ea224fe,,,,,,,,,1179,-53.36120605,74.2940979,1,0,0,response7disk,,0,-10.62030029,6.126220703,1,0,0,rectangle,-10.62030029,6.126220703,1,0,0,-10.62030029,6.126220703,1,0,0,0,133,133,27,1,,,,,,,,
,,,,,,,,,,,,,FF,,,,,,,,2.083215,,,,,,,,,,,,,,,,,,,,,,610313c21dc0b22ab21ed775,61036cfad281cbf50c8e6efa,2021-07-29_20h08.21.037,Simcolourproject_2stim_asymm_v5,2020.2.10,Linux x86_64,60,61025ae37ef11b136ea224fe,,,,,,,,,485,44.43188477,-81.09033203,1,0,0,response3disk,,4,-2.951965332,-8.177459717,1,0,0,rectangle,-2.951965332,-8.177459717,1,0,0,-2.951965332,-8.177459717,1,0,0,0,134,134,97,1,,,,,,,,
,,,,,,,,,,,,,FF,,,,,,,,1.666505,,,,,,,,,,,,,,,,,,,,,,610313c21dc0b22ab21ed775,61036cfad281cbf50c8e6efa,2021-07-29_20h08.21.037,Simcolourproject_2stim_asymm_v5,2020.2.10,Linux x86_64,60,61025ae37ef11b136ea224fe,,,,,,,,,3992,-59.99780273,-71.41122437,1,0,0,response5disk,,3,-18.53125,-0.161865234,1,0,0,rectangle,20.44689941,-76.54418945,1,0,0,17.1998291,0.507232666,1,0,0,0,135,135,121,1,,response3disk_3,TRUE,4,4,"[233,67,71,70,219,110,107,141,2,57,111,178,136,3,310,309,23,301,34,88]",2.400115,rectangle
,,,,,,,,,,,,,FF,,,,,,,,3.06778,,,,,,,,,,,,,,,,,,,,,,610313c21dc0b22ab21ed775,61036cfad281cbf50c8e6efa,2021-07-29_20h08.21.037,Simcolourproject_2stim_asymm_v5,2020.2.10,Linux x86_64,60,61025ae37ef11b136ea224fe,,,,,,,,,2730,75.87390137,-24.78640747,1,0,0,response3disk,,5,18.52526855,3.434997559,1,0,0,rectangle,18.52526855,3.434997559,1,0,0,18.52526855,3.434997559,1,0,0,0,136,136,151,1,,,,,,,,
,,,,,,,,,,,,,FF,,,,,,,,1.23611,,,,,,,,,,,,,,,,,,,,,,610313c21dc0b22ab21ed775,61036cfad281cbf50c8e6efa,2021-07-29_20h08.21.037,Simcolourproject_2stim_asymm_v5,2020.2.10,Linux x86_64,60,61025ae37ef11b136ea224fe,,,,,,,,,48,-34.73120117,68.56411743,1,0,0,response7disk,,0,-6.014526367,8.218597412,1,0,0,rectangle,-6.014526367,8.218597412,1,0,0,-6.014526367,8.218597412,1,0,0,0,137,137,85,1,,,,,,,,
,,,,,,,,,,,,,FF,,,,,,,,0.983425,,,,,,,,,,,,,,,,,,,,,,610313c21dc0b22ab21ed775,61036cfad281cbf50c8e6efa,2021-07-29_20h08.21.037,Simcolourproject_2stim_asymm_v5,2020.2.10,Linux x86_64,60,61025ae37ef11b136ea224fe,,,,,,,,,3399,-66.31634521,35.58126831,1,0,0,response7disk,,1,-13.32391357,3.24307251,1,0,0,rectangle,-13.32391357,3.24307251,1,0,0,-13.32391357,3.24307251,1,0,0,0,138,138,61,1,,,,,,,,
,,,,,,,,,,,,,FF,,,,,,,,0.883855,,,,,,,,,,,,,,,,,,,,,,610313c21dc0b22ab21ed775,61036cfad281cbf50c8e6efa,2021-07-29_20h08.21.037,Simcolourproject_2stim_asymm_v5,2020.2.10,Linux x86_64,60,61025ae37ef11b136ea224fe,,,,,,,,,1969,82.01519775,37.31259155,1,0,0,response1disk,,6,0.441955566,6.783050537,1,0,0,rectangle,0.441955566,6.783050537,1,0,0,0.441955566,6.783050537,1,0,0,0,139,139,56,1,,,,,,,,
,,,,,,,,,,,,,FF,,,,,,,,3.686175,,,,,,,,,,,,,,,,,,,,,,610313c21dc0b22ab21ed775,61036cfad281cbf50c8e6efa,2021-07-29_20h08.21.037,Simcolourproject_2stim_asymm_v5,2020.2.10,Linux x86_64,60,61025ae37ef11b136ea224fe,,,,,,,,,910,27.45941162,-69.52258301,1,0,0,response3disk,,4,-8.528503418,4.473052979,1,0,0,rectangle,26.48095703,-72.81546021,1,0,0,1.644348145,10.07885742,1,0,0,0,140,140,17,1,,response3disk_3,TRUE,4,4,"[233,67,71,70,219,110,107,141,2,57,111,178,136,3,310,309,23,301,34,88]",2.20092,rectangle
,,,,,,,,,,,,,FF,,,,,,,,1.38394,,,,,,,,,,,,,,,,,,,,,,610313c21dc0b22ab21ed775,61036cfad281cbf50c8e6efa,2021-07-29_20h08.21.037,Simcolourproject_2stim_asymm_v5,2020.2.10,Linux x86_64,60,61025ae37ef11b136ea224fe,,,,,,,,,1394,82.23986816,-28.50866699,1,0,0,response3disk,,5,-1.271484375,0.038726807,1,0,0,rectangle,-1.271484375,0.038726807,1,0,0,-1.271484375,0.038726807,1,0,0,0,141,141,12,1,,,,,,,,
,,,,,,,,,,,,,FF,,,,,,,,1.53426,,,,,,,,,,,,,,,,,,,,,,610313c21dc0b22ab21ed775,61036cfad281cbf50c8e6efa,2021-07-29_20h08.21.037,Simcolourproject_2stim_asymm_v5,2020.2.10,Linux x86_64,60,61025ae37ef11b136ea224fe,,,,,,,,,1776,-40.00177002,-85.82189941,1,0,0,response5disk,,3,16.50561523,4.011108398,1,0,0,rectangle,16.50561523,4.011108398,1,0,0,16.50561523,4.011108398,1,0,0,0,142,142,154,1,,,,,,,,
,,,,,,,,,,,,,FF,,,,,,,,0.918075,,,,,,,,,,,,,,,,,,,,,,610313c21dc0b22ab21ed775,61036cfad281cbf50c8e6efa,2021-07-29_20h08.21.037,Simcolourproject_2stim_asymm_v5,2020.2.10,Linux x86_64,60,61025ae37ef11b136ea224fe,,,,,,,,,3049,91.85974121,42.60473633,1,0,0,response1disk,,6,-6.749572754,-3.541107178,1,0,0,rectangle,-6.749572754,-3.541107178,1,0,0,-6.749572754,-3.541107178,1,0,0,0,143,143,73,1,,,,,,,,
,,,,,,,,,,,,,FF,,,,,,,,2.400615,,,,,,,,,,,,,,,,,,,,,,610313c21dc0b22ab21ed775,61036cfad281cbf50c8e6efa,2021-07-29_20h08.21.037,Simcolourproject_2stim_asymm_v5,2020.2.10,Linux x86_64,60,61025ae37ef11b136ea224fe,,,,,,,,,161,-27.76055908,-59.81835938,1,0,0,response5disk,,3,-1.750427246,8.177490234,1,0,0,rectangle,-1.750427246,8.177490234,1,0,0,-1.750427246,8.177490234,1,0,0,0,144,144,126,1,,,,,,,,
,,,,,,,,,,,,,FF,,,,,,,,1.733305,,,,,,,,,,,,,,,,,,,,,,610313c21dc0b22ab21ed775,61036cfad281cbf50c8e6efa,2021-07-29_20h08.21.037,Simcolourproject_2stim_asymm_v5,2020.2.10,Linux x86_64,60,61025ae37ef11b136ea224fe,,,,,,,,,216,93.25341797,52.48330688,1,0,0,response1disk,,6,-11.5526123,0.093719482,1,0,0,rectangle,-11.5526123,0.093719482,1,0,0,-11.5526123,0.093719482,1,0,0,0,145,145,20,1,,,,,,,,
,,,,,,,,,,,,,FF,,,,,,,,1.350565,,,,,,,,,,,,,,,,,,,,,,610313c21dc0b22ab21ed775,61036cfad281cbf50c8e6efa,2021-07-29_20h08.21.037,Simcolourproject_2stim_asymm_v5,2020.2.10,Linux x86_64,60,61025ae37ef11b136ea224fe,,,,,,,,,2743,53.45477295,-57.90640259,1,0,0,response3disk,,4,-3.166992188,13.1005249,1,0,0,rectangle,-3.166992188,13.1005249,1,0,0,-3.166992188,13.1005249,1,0,0,0,146,146,79,1,,,,,,,,
,,,,,,,,,,,,,FF,,,,,,,,0.8166,,,,,,,,,,,,,,,,,,,,,,610313c21dc0b22ab21ed775,61036cfad281cbf50c8e6efa,2021-07-29_20h08.21.037,Simcolourproject_2stim_asymm_v5,2020.2.10,Linux x86_64,60,61025ae37ef11b136ea224fe,,,,,,,,,1121,94.48419189,43.84664917,1,0,0,response1disk,,6,11.29669189,0.016937256,1,0,0,rectangle,11.29669189,0.016937256,1,0,0,11.29669189,0.016937256,1,0,0,0,147,147,51,1,,,,,,,,
,,,,,,,,,,,,,FF,,,,,,,,1.716405,,,,,,,,,,,,,,,,,,,,,,610313c21dc0b22ab21ed775,61036cfad281cbf50c8e6efa,2021-07-29_20h08.21.037,Simcolourproject_2stim_asymm_v5,2020.2.10,Linux x86_64,60,61025ae37ef11b136ea224fe,,,,,,,,,1909,76.81915283,-32.38708496,1,0,0,response3disk,,5,11.40362549,0.098937988,1,0,0,rectangle,11.40362549,0.098937988,1,0,0,11.40362549,0.098937988,1,0,0,0,148,148,37,1,,,,,,,,
,,,,,,,,,,,,,FF,,,,,,,,1.084185,,,,,,,,,,,,,,,,,,,,,,610313c21dc0b22ab21ed775,61036cfad281cbf50c8e6efa,2021-07-29_20h08.21.037,Simcolourproject_2stim_asymm_v5,2020.2.10,Linux x86_64,60,61025ae37ef11b136ea224fe,,,,,,,,,3414,-41.48052979,106.1809692,1,0,0,response7disk,,0,8.956298828,-11.47219849,1,0,0,rectangle,8.956298828,-11.47219849,1,0,0,8.956298828,-11.47219849,1,0,0,0,149,149,30,1,,,,,,,,
,,,,,,,,,,,,,FF,,,,,,,,0.752615,,,,,,,,,,,,,,,,,,,,,,610313c21dc0b22ab21ed775,61036cfad281cbf50c8e6efa,2021-07-29_20h08.21.037,Simcolourproject_2stim_asymm_v5,2020.2.10,Linux x86_64,60,61025ae37ef11b136ea224fe,,,,,,,,,1492,-39.18640137,78.24041748,1,0,0,response7disk,,0,-5.192443848,-4.693725586,1,0,0,rectangle,-5.192443848,-4.693725586,1,0,0,-5.192443848,-4.693725586,1,0,0,0,150,150,143,1,,,,,,,,
,,,,,,,,,,,,,FF,,,,,,,,0.88381,,,,,,,,,,,,,,,,,,,,,,610313c21dc0b22ab21ed775,61036cfad281cbf50c8e6efa,2021-07-29_20h08.21.037,Simcolourproject_2stim_asymm_v5,2020.2.10,Linux x86_64,60,61025ae37ef11b136ea224fe,,,,,,,,,1554,-33.49066162,51.47857666,1,0,0,response7disk,,0,-5.710144043,-15.2154541,1,0,0,rectangle,-5.710144043,-15.2154541,1,0,0,-5.710144043,-15.2154541,1,0,0,0,151,151,139,1,,,,,,,,
,,,,,,,,,,,,,FF,,,,,,,,0.70045,,,,,,,,,,,,,,,,,,,,,,610313c21dc0b22ab21ed775,61036cfad281cbf50c8e6efa,2021-07-29_20h08.21.037,Simcolourproject_2stim_asymm_v5,2020.2.10,Linux x86_64,60,61025ae37ef11b136ea224fe,,,,,,,,,2570,-30.59631348,45.17901611,1,0,0,response7disk,,0,-7.350585938,8.34576416,1,0,0,rectangle,-7.350585938,8.34576416,1,0,0,-7.350585938,8.34576416,1,0,0,0,152,152,84,1,,,,,,,,
,,,,,,,,,,,,,FF,,,,,,,,2.350485,,,,,,,,,,,,,,,,,,,,,,610313c21dc0b22ab21ed775,61036cfad281cbf50c8e6efa,2021-07-29_20h08.21.037,Simcolourproject_2stim_asymm_v5,2020.2.10,Linux x86_64,60,61025ae37ef11b136ea224fe,,,,,,,,,3113,50.08905029,-62.10317993,1,0,0,response3disk,,4,7.344055176,-5.371948242,1,0,0,rectangle,7.344055176,-5.371948242,1,0,0,7.344055176,-5.371948242,1,0,0,0,153,153,81,1,,,,,,,,
,,,,,,,,,,,,,FF,,,,,,,,1.318445,,,,,,,,,,,,,,,,,,,,,,610313c21dc0b22ab21ed775,61036cfad281cbf50c8e6efa,2021-07-29_20h08.21.037,Simcolourproject_2stim_asymm_v5,2020.2.10,Linux x86_64,60,61025ae37ef11b136ea224fe,,,,,,,,,771,-45.61199951,63.86904907,1,0,0,response7disk,,0,-9.019226074,-4.783599854,1,0,0,rectangle,-9.019226074,-4.783599854,1,0,0,-9.019226074,-4.783599854,1,0,0,0,154,154,94,1,,,,,,,,
,,,,,,,,,,,,,FF,,,,,,,,3.93332,,,,,,,,,,,,,,,,,,,,,,610313c21dc0b22ab21ed775,61036cfad281cbf50c8e6efa,2021-07-29_20h08.21.037,Simcolourproject_2stim_asymm_v5,2020.2.10,Linux x86_64,60,61025ae37ef11b136ea224fe,,,,,,,,,3286,-38.97851563,75.27694702,1,0,0,response7disk,,0,-9.602539063,-7.891479492,1,0,0,rectangle,-9.602539063,-7.891479492,1,0,0,-9.602539063,-7.891479492,1,0,0,0,155,155,43,1,,,,,,,,
,,,,,,,,,,,,,FF,,,,,,,,1.66693,,,,,,,,,,,,,,,,,,,,,,610313c21dc0b22ab21ed775,61036cfad281cbf50c8e6efa,2021-07-29_20h08.21.037,Simcolourproject_2stim_asymm_v5,2020.2.10,Linux x86_64,60,61025ae37ef11b136ea224fe,,,,,,,,,300,92.07141113,-48.47598267,1,0,0,response3disk,,5,4.514099121,5.14453125,1,0,0,rectangle,4.514099121,5.14453125,1,0,0,4.514099121,5.14453125,1,0,0,0,156,156,111,1,,,,,,,,
,,,,,,,,,,,,,FF,,,,,,,,1.05313,,,,,,,,,,,,,,,,,,,,,,610313c21dc0b22ab21ed775,61036cfad281cbf50c8e6efa,2021-07-29_20h08.21.037,Simcolourproject_2stim_asymm_v5,2020.2.10,Linux x86_64,60,61025ae37ef11b136ea224fe,,,,,,,,,2135,-41.36993408,91.95309448,1,0,0,response7disk,,0,-9.281005859,4.550354004,1,0,0,rectangle,-9.281005859,4.550354004,1,0,0,-9.281005859,4.550354004,1,0,0,0,157,157,120,1,,,,,,,,
,,,,,,,,,,,,,FF,,,,,,,,0.76748,,,,,,,,,,,,,,,,,,,,,,610313c21dc0b22ab21ed775,61036cfad281cbf50c8e6efa,2021-07-29_20h08.21.037,Simcolourproject_2stim_asymm_v5,2020.2.10,Linux x86_64,60,61025ae37ef11b136ea224fe,,,,,,,,,2565,-36.55352783,60.11630249,1,0,0,response7disk,,0,-3.547973633,-2.978485107,1,0,0,rectangle,-3.547973633,-2.978485107,1,0,0,-3.547973633,-2.978485107,1,0,0,0,158,158,149,1,,,,,,,,
,,,,,,,,,,,,,FF,,,,,,,,1.985645,,,,,,,,,,,,,,,,,,,,,,610313c21dc0b22ab21ed775,61036cfad281cbf50c8e6efa,2021-07-29_20h08.21.037,Simcolourproject_2stim_asymm_v5,2020.2.10,Linux x86_64,60,61025ae37ef11b136ea224fe,,,,,,,,,4206,29.62023926,-63.85681152,1,0,0,response3disk,,4,-3.448059082,2.879821777,1,0,0,rectangle,-3.448059082,2.879821777,1,0,0,-3.448059082,2.879821777,1,0,0,0,159,159,72,1,,,,,,,,
,,,,,,,,,,,,,FF,,,,,,,,2.199815,,,,,,,,,,,,,,,,,,,,,,610313c21dc0b22ab21ed775,61036cfad281cbf50c8e6efa,2021-07-29_20h08.21.037,Simcolourproject_2stim_asymm_v5,2020.2.10,Linux x86_64,60,61025ae37ef11b136ea224fe,,,,,,,,,496,-66.52514648,29.29418945,1,0,0,response7disk,,1,2.030761719,0.956207275,1,0,0,rectangle,2.030761719,0.956207275,1,0,0,2.030761719,0.956207275,1,0,0,1,0,160,8,1,,,,,,,,
,,,,,,,,,,,,,FF,,,,,,,,2.050745,,,,,,,,,,,,,,,,,,,,,,610313c21dc0b22ab21ed775,61036cfad281cbf50c8e6efa,2021-07-29_20h08.21.037,Simcolourproject_2stim_asymm_v5,2020.2.10,Linux x86_64,60,61025ae37ef11b136ea224fe,,,,,,,,,4240,27.9786377,-58.25473022,1,0,0,response3disk,,4,-4.54510498,4.825531006,1,0,0,rectangle,-4.54510498,4.825531006,1,0,0,-4.54510498,4.825531006,1,0,0,1,1,161,126,1,,,,,,,,
,,,,,,,,,,,,,FF,,,,,,,,1.186275,,,,,,,,,,,,,,,,,,,,,,610313c21dc0b22ab21ed775,61036cfad281cbf50c8e6efa,2021-07-29_20h08.21.037,Simcolourproject_2stim_asymm_v5,2020.2.10,Linux x86_64,60,61025ae37ef11b136ea224fe,,,,,,,,,2986,22.37030029,64.46655273,1,0,0,response1disk,,7,-4.082580566,8.383636475,1,0,0,rectangle,-4.082580566,8.383636475,1,0,0,-4.082580566,8.383636475,1,0,0,1,2,162,109,1,,,,,,,,
,,,,,,,,,,,,,FF,,,,,,,,6.78459,,,,,,,,,,,,,,,,,,,,,,610313c21dc0b22ab21ed775,61036cfad281cbf50c8e6efa,2021-07-29_20h08.21.037,Simcolourproject_2stim_asymm_v5,2020.2.10,Linux x86_64,60,61025ae37ef11b136ea224fe,,,,,,,,,1799,-64.30230713,35.69512939,1,0,0,response7disk,,1,-10.25793457,5.129699707,1,0,0,rectangle,-10.25793457,5.129699707,1,0,0,-10.25793457,5.129699707,1,0,0,1,3,163,19,1,,,,,,,,
,,,,,,,,,,,,,FF,,,,,,,,1.871085,,,,,,,,,,,,,,,,,,,,,,610313c21dc0b22ab21ed775,61036cfad281cbf50c8e6efa,2021-07-29_20h08.21.037,Simcolourproject_2stim_asymm_v5,2020.2.10,Linux x86_64,60,61025ae37ef11b136ea224fe,,,,,,,,,4089,-88.34814453,38.4395752,1,0,0,response7disk,,1,-2.493896484,-6.204956055,1,0,0,rectangle,-2.493896484,-6.204956055,1,0,0,-2.493896484,-6.204956055,1,0,0,1,4,164,34,1,,,,,,,,
,,,,,,,,,,,,,FF,,,,,,,,2.58495,,,,,,,,,,,,,,,,,,,,,,610313c21dc0b22ab21ed775,61036cfad281cbf50c8e6efa,2021-07-29_20h08.21.037,Simcolourproject_2stim_asymm_v5,2020.2.10,Linux x86_64,60,61025ae37ef11b136ea224fe,,,,,,,,,1869,-51.28063965,74.55337524,1,0,0,response7disk,,0,-5.376708984,3.338653564,1,0,0,rectangle,-5.376708984,3.338653564,1,0,0,-5.376708984,3.338653564,1,0,0,1,5,165,111,1,,,,,,,,
,,,,,,,,,,,,,FF,,,,,,,,1.54979,,,,,,,,,,,,,,,,,,,,,,610313c21dc0b22ab21ed775,61036cfad281cbf50c8e6efa,2021-07-29_20h08.21.037,Simcolourproject_2stim_asymm_v5,2020.2.10,Linux x86_64,60,61025ae37ef11b136ea224fe,,,,,,,,,3160,84.5222168,27.80291748,1,0,0,response1disk,,6,-14.77203369,-7.86605835,1,0,0,rectangle,-14.77203369,-7.86605835,1,0,0,-14.77203369,-7.86605835,1,0,0,1,6,166,122,1,,,,,,,,
,,,,,,,,,,,,,FF,,,,,,,,1.018895,,,,,,,,,,,,,,,,,,,,,,610313c21dc0b22ab21ed775,61036cfad281cbf50c8e6efa,2021-07-29_20h08.21.037,Simcolourproject_2stim_asymm_v5,2020.2.10,Linux x86_64,60,61025ae37ef11b136ea224fe,,,,,,,,,1901,75.38726807,52.79901123,1,0,0,response1disk,,6,-15.94030762,-6.249572754,1,0,0,rectangle,-15.94030762,-6.249572754,1,0,0,-15.94030762,-6.249572754,1,0,0,1,7,167,105,1,,,,,,,,
,,,,,,,,,,,,,FF,,,,,,,,0.81628,,,,,,,,,,,,,,,,,,,,,,610313c21dc0b22ab21ed775,61036cfad281cbf50c8e6efa,2021-07-29_20h08.21.037,Simcolourproject_2stim_asymm_v5,2020.2.10,Linux x86_64,60,61025ae37ef11b136ea224fe,,,,,,,,,1602,85.61260986,61.79104614,1,0,0,response1disk,,6,3.997924805,-0.289520264,1,0,0,rectangle,3.997924805,-0.289520264,1,0,0,3.997924805,-0.289520264,1,0,0,1,8,168,17,1,,,,,,,,
,,,,,,,,,,,,,FF,,,,,,,,1.117485,,,,,,,,,,,,,,,,,,,,,,610313c21dc0b22ab21ed775,61036cfad281cbf50c8e6efa,2021-07-29_20h08.21.037,Simcolourproject_2stim_asymm_v5,2020.2.10,Linux x86_64,60,61025ae37ef11b136ea224fe,,,,,,,,,1662,-44.58166504,99.58944702,1,0,0,response7disk,,0,-2.757019043,-0.555145264,1,0,0,rectangle,-2.757019043,-0.555145264,1,0,0,-2.757019043,-0.555145264,1,0,0,1,9,169,103,1,,,,,,,,
,,,,,,,,,,,,,FF,,,,,,,,1.33391,,,,,,,,,,,,,,,,,,,,,,610313c21dc0b22ab21ed775,61036cfad281cbf50c8e6efa,2021-07-29_20h08.21.037,Simcolourproject_2stim_asymm_v5,2020.2.10,Linux x86_64,60,61025ae37ef11b136ea224fe,,,,,,,,,848,-30.90039063,63.62860107,1,0,0,response7disk,,0,3.699951172,8.834838867,1,0,0,rectangle,3.699951172,8.834838867,1,0,0,3.699951172,8.834838867,1,0,0,1,10,170,91,1,,,,,,,,
,,,,,,,,,,,,,FF,,,,,,,,0.83376,,,,,,,,,,,,,,,,,,,,,,610313c21dc0b22ab21ed775,61036cfad281cbf50c8e6efa,2021-07-29_20h08.21.037,Simcolourproject_2stim_asymm_v5,2020.2.10,Linux x86_64,60,61025ae37ef11b136ea224fe,,,,,,,,,3834,-33.41864014,74.42059326,1,0,0,response7disk,,0,-6.129760742,-8.437316895,1,0,0,rectangle,-6.129760742,-8.437316895,1,0,0,-6.129760742,-8.437316895,1,0,0,1,11,171,77,1,,,,,,,,
,,,,,,,,,,,,,FF,,,,,,,,2.550085,,,,,,,,,,,,,,,,,,,,,,610313c21dc0b22ab21ed775,61036cfad281cbf50c8e6efa,2021-07-29_20h08.21.037,Simcolourproject_2stim_asymm_v5,2020.2.10,Linux x86_64,60,61025ae37ef11b136ea224fe,,,,,,,,,4169,-91.74468994,28.57849121,1,0,0,response7disk,,1,-20.89385986,-1.177429199,1,0,0,rectangle,-20.89385986,-1.177429199,1,0,0,-20.89385986,-1.177429199,1,0,0,1,12,172,4,1,,,,,,,,
,,,,,,,,,,,,,FF,,,,,,,,1.08921,,,,,,,,,,,,,,,,,,,,,,610313c21dc0b22ab21ed775,61036cfad281cbf50c8e6efa,2021-07-29_20h08.21.037,Simcolourproject_2stim_asymm_v5,2020.2.10,Linux x86_64,60,61025ae37ef11b136ea224fe,,,,,,,,,2225,-81.20465088,56.65994263,1,0,0,response7disk,,1,-0.092346191,4.041229248,1,0,0,rectangle,-0.092346191,4.041229248,1,0,0,-0.092346191,4.041229248,1,0,0,1,13,173,84,1,,,,,,,,
,,,,,,,,,,,,,FF,,,,,,,,1.46844,,,,,,,,,,,,,,,,,,,,,,610313c21dc0b22ab21ed775,61036cfad281cbf50c8e6efa,2021-07-29_20h08.21.037,Simcolourproject_2stim_asymm_v5,2020.2.10,Linux x86_64,60,61025ae37ef11b136ea224fe,,,,,,,,,3014,-37.89575195,65.97613525,1,0,0,response7disk,,0,-9.716552734,-1.356872559,1,0,0,rectangle,-9.716552734,-1.356872559,1,0,0,-9.716552734,-1.356872559,1,0,0,1,14,174,134,1,,,,,,,,
,,,,,,,,,,,,,FF,,,,,,,,0.800865,,,,,,,,,,,,,,,,,,,,,,610313c21dc0b22ab21ed775,61036cfad281cbf50c8e6efa,2021-07-29_20h08.21.037,Simcolourproject_2stim_asymm_v5,2020.2.10,Linux x86_64,60,61025ae37ef11b136ea224fe,,,,,,,,,2129,-78.28436279,90.43060303,1,0,0,response7disk,,0,12.64978027,6.368835449,1,0,0,rectangle,12.64978027,6.368835449,1,0,0,12.64978027,6.368835449,1,0,0,1,15,175,65,1,,,,,,,,
,,,,,,,,,,,,,FF,,,,,,,,0.95121,,,,,,,,,,,,,,,,,,,,,,610313c21dc0b22ab21ed775,61036cfad281cbf50c8e6efa,2021-07-29_20h08.21.037,Simcolourproject_2stim_asymm_v5,2020.2.10,Linux x86_64,60,61025ae37ef11b136ea224fe,,,,,,,,,1821,68.24597168,47.05648804,1,0,0,response1disk,,6,-12.56774902,0.708221436,1,0,0,rectangle,-12.56774902,0.708221436,1,0,0,-12.56774902,0.708221436,1,0,0,1,16,176,9,1,,,,,,,,
,,,,,,,,,,,,,FF,,,,,,,,0.99989,,,,,,,,,,,,,,,,,,,,,,610313c21dc0b22ab21ed775,61036cfad281cbf50c8e6efa,2021-07-29_20h08.21.037,Simcolourproject_2stim_asymm_v5,2020.2.10,Linux x86_64,60,61025ae37ef11b136ea224fe,,,,,,,,,190,77.98297119,48.05358887,1,0,0,response1disk,,6,-6.994628906,9.124420166,1,0,0,rectangle,86.51330566,-38.33001709,1,0,0,17.43634033,3.671142578,1,0,0,1,17,177,115,1,,response3disk_3,TRUE,5,5,"[233,67,71,70,219,110,107,141,2,57,111,178,136,3,310,309,23,301,34,88]",2.68423,rectangle
,,,,,,,,,,,,,FF,,,,,,,,0.92344,,,,,,,,,,,,,,,,,,,,,,610313c21dc0b22ab21ed775,61036cfad281cbf50c8e6efa,2021-07-29_20h08.21.037,Simcolourproject_2stim_asymm_v5,2020.2.10,Linux x86_64,60,61025ae37ef11b136ea224fe,,,,,,,,,1923,-50.89648438,86.84542847,1,0,0,response7disk,,0,5.070617676,11.40539551,1,0,0,rectangle,5.070617676,11.40539551,1,0,0,5.070617676,11.40539551,1,0,0,1,18,178,144,1,,,,,,,,
,,,,,,,,,,,,,FF,,,,,,,,1.26863,,,,,,,,,,,,,,,,,,,,,,610313c21dc0b22ab21ed775,61036cfad281cbf50c8e6efa,2021-07-29_20h08.21.037,Simcolourproject_2stim_asymm_v5,2020.2.10,Linux x86_64,60,61025ae37ef11b136ea224fe,,,,,,,,,2885,-115.7769165,45.23760986,1,0,0,response7disk,,1,-4.758239746,-1.407012939,1,0,0,rectangle,-4.758239746,-1.407012939,1,0,0,-4.758239746,-1.407012939,1,0,0,1,19,179,22,1,,,,,,,,
,,,,,,,,,,,,,FF,,,,,,,,0.799745,,,,,,,,,,,,,,,,,,,,,,610313c21dc0b22ab21ed775,61036cfad281cbf50c8e6efa,2021-07-29_20h08.21.037,Simcolourproject_2stim_asymm_v5,2020.2.10,Linux x86_64,60,61025ae37ef11b136ea224fe,,,,,,,,,1601,88.45733643,20.44708252,1,0,0,response1disk,,6,13.14337158,-1.368591309,1,0,0,rectangle,13.14337158,-1.368591309,1,0,0,13.14337158,-1.368591309,1,0,0,1,20,180,43,1,,,,,,,,
,,,,,,,,,,,,,FF,,,,,,,,0.83363,,,,,,,,,,,,,,,,,,,,,,610313c21dc0b22ab21ed775,61036cfad281cbf50c8e6efa,2021-07-29_20h08.21.037,Simcolourproject_2stim_asymm_v5,2020.2.10,Linux x86_64,60,61025ae37ef11b136ea224fe,,,,,,,,,3734,-30.31732178,72.54290771,1,0,0,response7disk,,0,-9.436096191,10.26571655,1,0,0,rectangle,-9.436096191,10.26571655,1,0,0,-9.436096191,10.26571655,1,0,0,1,21,181,60,1,,,,,,,,
,,,,,,,,,,,,,FF,,,,,,,,0.967355,,,,,,,,,,,,,,,,,,,,,,610313c21dc0b22ab21ed775,61036cfad281cbf50c8e6efa,2021-07-29_20h08.21.037,Simcolourproject_2stim_asymm_v5,2020.2.10,Linux x86_64,60,61025ae37ef11b136ea224fe,,,,,,,,,3326,-50.71337891,101.5915833,1,0,0,response7disk,,0,-5.042236328,5.05645752,1,0,0,rectangle,-5.042236328,5.05645752,1,0,0,-5.042236328,5.05645752,1,0,0,1,22,182,116,1,,,,,,,,
,,,,,,,,,,,,,FF,,,,,,,,1.700215,,,,,,,,,,,,,,,,,,,,,,610313c21dc0b22ab21ed775,61036cfad281cbf50c8e6efa,2021-07-29_20h08.21.037,Simcolourproject_2stim_asymm_v5,2020.2.10,Linux x86_64,60,61025ae37ef11b136ea224fe,,,,,,,,,2703,-44.12335205,48.01751709,1,0,0,response7disk,,0,-1.424560547,5.466674805,1,0,0,rectangle,-1.424560547,5.466674805,1,0,0,-1.424560547,5.466674805,1,0,0,1,23,183,6,1,,,,,,,,
,,,,,,,,,,,,,FF,,,,,,,,1.69982,,,,,,,,,,,,,,,,,,,,,,610313c21dc0b22ab21ed775,61036cfad281cbf50c8e6efa,2021-07-29_20h08.21.037,Simcolourproject_2stim_asymm_v5,2020.2.10,Linux x86_64,60,61025ae37ef11b136ea224fe,,,,,,,,,1959,91.74139404,33.70367432,1,0,0,response1disk,,6,-0.01159668,10.35238647,1,0,0,rectangle,-0.01159668,10.35238647,1,0,0,-0.01159668,10.35238647,1,0,0,1,24,184,29,1,,,,,,,,
,,,,,,,,,,,,,FF,,,,,,,,0.702555,,,,,,,,,,,,,,,,,,,,,,610313c21dc0b22ab21ed775,61036cfad281cbf50c8e6efa,2021-07-29_20h08.21.037,Simcolourproject_2stim_asymm_v5,2020.2.10,Linux x86_64,60,61025ae37ef11b136ea224fe,,,,,,,,,4110,-42.29931641,92.62475586,1,0,0,response7disk,,0,0.088989258,-2.91619873,1,0,0,rectangle,0.088989258,-2.91619873,1,0,0,0.088989258,-2.91619873,1,0,0,1,25,185,150,1,,,,,,,,
,,,,,,,,,,,,,FF,,,,,,,,0.74999,,,,,,,,,,,,,,,,,,,,,,610313c21dc0b22ab21ed775,61036cfad281cbf50c8e6efa,2021-07-29_20h08.21.037,Simcolourproject_2stim_asymm_v5,2020.2.10,Linux x86_64,60,61025ae37ef11b136ea224fe,,,,,,,,,4262,-36.75994873,105.0883179,1,0,0,response7disk,,0,4.959289551,-4.578125,1,0,0,rectangle,4.959289551,-4.578125,1,0,0,4.959289551,-4.578125,1,0,0,1,26,186,25,1,,,,,,,,
,,,,,,,,,,,,,FF,,,,,,,,0.70166,,,,,,,,,,,,,,,,,,,,,,610313c21dc0b22ab21ed775,61036cfad281cbf50c8e6efa,2021-07-29_20h08.21.037,Simcolourproject_2stim_asymm_v5,2020.2.10,Linux x86_64,60,61025ae37ef11b136ea224fe,,,,,,,,,2453,-34.22076416,66.57189941,1,0,0,response7disk,,0,-6.110290527,-0.57800293,1,0,0,rectangle,-6.110290527,-0.57800293,1,0,0,-6.110290527,-0.57800293,1,0,0,1,27,187,153,1,,,,,,,,
,,,,,,,,,,,,,FF,,,,,,,,0.60607,,,,,,,,,,,,,,,,,,,,,,610313c21dc0b22ab21ed775,61036cfad281cbf50c8e6efa,2021-07-29_20h08.21.037,Simcolourproject_2stim_asymm_v5,2020.2.10,Linux x86_64,60,61025ae37ef11b136ea224fe,,,,,,,,,1030,-59.19287109,88.47213745,1,0,0,response7disk,,0,9.898071289,6.083648682,1,0,0,rectangle,9.898071289,6.083648682,1,0,0,9.898071289,6.083648682,1,0,0,1,28,188,44,1,,,,,,,,
,,,,,,,,,,,,,FF,,,,,,,,1.6005,,,,,,,,,,,,,,,,,,,,,,610313c21dc0b22ab21ed775,61036cfad281cbf50c8e6efa,2021-07-29_20h08.21.037,Simcolourproject_2stim_asymm_v5,2020.2.10,Linux x86_64,60,61025ae37ef11b136ea224fe,,,,,,,,,818,101.8927612,39.8873291,1,0,0,response1disk,,6,0.371398926,6.525695801,1,0,0,rectangle,0.371398926,6.525695801,1,0,0,0.371398926,6.525695801,1,0,0,1,29,189,145,1,,,,,,,,
,,,,,,,,,,,,,FF,,,,,,,,1.38337,,,,,,,,,,,,,,,,,,,,,,610313c21dc0b22ab21ed775,61036cfad281cbf50c8e6efa,2021-07-29_20h08.21.037,Simcolourproject_2stim_asymm_v5,2020.2.10,Linux x86_64,60,61025ae37ef11b136ea224fe,,,,,,,,,4219,63.68829346,-26.18911743,1,0,0,response3disk,,5,19.91815186,-3.437835693,1,0,0,rectangle,19.91815186,-3.437835693,1,0,0,19.91815186,-3.437835693,1,0,0,1,30,190,26,1,,,,,,,,
,,,,,,,,,,,,,FF,,,,,,,,1.8666,,,,,,,,,,,,,,,,,,,,,,610313c21dc0b22ab21ed775,61036cfad281cbf50c8e6efa,2021-07-29_20h08.21.037,Simcolourproject_2stim_asymm_v5,2020.2.10,Linux x86_64,60,61025ae37ef11b136ea224fe,,,,,,,,,149,-46.10412598,63.98925781,1,0,0,response7disk,,0,-7.074829102,12.57781982,1,0,0,rectangle,-7.074829102,12.57781982,1,0,0,-7.074829102,12.57781982,1,0,0,1,31,191,71,1,,,,,,,,
,,,,,,,,,,,,,FF,,,,,,,,1.81923,,,,,,,,,,,,,,,,,,,,,,610313c21dc0b22ab21ed775,61036cfad281cbf50c8e6efa,2021-07-29_20h08.21.037,Simcolourproject_2stim_asymm_v5,2020.2.10,Linux x86_64,60,61025ae37ef11b136ea224fe,,,,,,,,,2307,48.82592773,-101.8598328,1,0,0,response3disk,,4,5.208374023,-1.008361816,1,0,0,rectangle,5.208374023,-1.008361816,1,0,0,5.208374023,-1.008361816,1,0,0,1,32,192,104,1,,,,,,,,
,,,,,,,,,,,,,FF,,,,,,,,2.736135,,,,,,,,,,,,,,,,,,,,,,610313c21dc0b22ab21ed775,61036cfad281cbf50c8e6efa,2021-07-29_20h08.21.037,Simcolourproject_2stim_asymm_v5,2020.2.10,Linux x86_64,60,61025ae37ef11b136ea224fe,,,,,,,,,4186,49.0078125,-73.19854736,1,0,0,response3disk,,4,11.15740967,6.850463867,1,0,0,rectangle,11.15740967,6.850463867,1,0,0,11.15740967,6.850463867,1,0,0,1,33,193,28,1,,,,,,,,
,,,,,,,,,,,,,FF,,,,,,,,1.299905,,,,,,,,,,,,,,,,,,,,,,610313c21dc0b22ab21ed775,61036cfad281cbf50c8e6efa,2021-07-29_20h08.21.037,Simcolourproject_2stim_asymm_v5,2020.2.10,Linux x86_64,60,61025ae37ef11b136ea224fe,,,,,,,,,2533,-45.2925415,92.22897339,1,0,0,response7disk,,0,-6.413879395,5.348022461,1,0,0,rectangle,-6.413879395,5.348022461,1,0,0,-6.413879395,5.348022461,1,0,0,1,34,194,159,1,,,,,,,,
,,,,,,,,,,,,,FF,,,,,,,,1.00007,,,,,,,,,,,,,,,,,,,,,,610313c21dc0b22ab21ed775,61036cfad281cbf50c8e6efa,2021-07-29_20h08.21.037,Simcolourproject_2stim_asymm_v5,2020.2.10,Linux x86_64,60,61025ae37ef11b136ea224fe,,,,,,,,,3993,48.56243896,119.729248,1,0,0,response1disk,,7,0.624084473,2.653442383,1,0,0,rectangle,0.624084473,2.653442383,1,0,0,0.624084473,2.653442383,1,0,0,1,35,195,90,1,,,,,,,,
,,,,,,,,,,,,,FF,,,,,,,,0.884335,,,,,,,,,,,,,,,,,,,,,,610313c21dc0b22ab21ed775,61036cfad281cbf50c8e6efa,2021-07-29_20h08.21.037,Simcolourproject_2stim_asymm_v5,2020.2.10,Linux x86_64,60,61025ae37ef11b136ea224fe,,,,,,,,,1309,69.44018555,43.18112183,1,0,0,response1disk,,6,4.120544434,-10.01431274,1,0,0,rectangle,4.120544434,-10.01431274,1,0,0,4.120544434,-10.01431274,1,0,0,1,36,196,78,1,,,,,,,,
,,,,,,,,,,,,,FF,,,,,,,,1.050675,,,,,,,,,,,,,,,,,,,,,,610313c21dc0b22ab21ed775,61036cfad281cbf50c8e6efa,2021-07-29_20h08.21.037,Simcolourproject_2stim_asymm_v5,2020.2.10,Linux x86_64,60,61025ae37ef11b136ea224fe,,,,,,,,,4364,62.92333984,33.8999939,1,0,0,response1disk,,6,-9.884765625,-2.932067871,1,0,0,rectangle,-9.884765625,-2.932067871,1,0,0,-9.884765625,-2.932067871,1,0,0,1,37,197,68,1,,,,,,,,
,,,,,,,,,,,,,FF,,,,,,,,1.70012,,,,,,,,,,,,,,,,,,,,,,610313c21dc0b22ab21ed775,61036cfad281cbf50c8e6efa,2021-07-29_20h08.21.037,Simcolourproject_2stim_asymm_v5,2020.2.10,Linux x86_64,60,61025ae37ef11b136ea224fe,,,,,,,,,1253,-40.36932373,57.96557617,1,0,0,response7disk,,0,-4.529602051,9.703399658,1,0,0,rectangle,-4.529602051,9.703399658,1,0,0,-4.529602051,9.703399658,1,0,0,1,38,198,149,1,,,,,,,,
,,,,,,,,,,,,,FF,,,,,,,,1.183475,,,,,,,,,,,,,,,,,,,,,,610313c21dc0b22ab21ed775,61036cfad281cbf50c8e6efa,2021-07-29_20h08.21.037,Simcolourproject_2stim_asymm_v5,2020.2.10,Linux x86_64,60,61025ae37ef11b136ea224fe,,,,,,,,,4098,-80.84210205,43.78588867,1,0,0,response7disk,,1,-6.174621582,-6.043243408,1,0,0,rectangle,-6.174621582,-6.043243408,1,0,0,-6.174621582,-6.043243408,1,0,0,1,39,199,41,1,,,,,,,,
,,,,,,,,,,,,,FF,,,,,,,,1.034265,,,,,,,,,,,,,,,,,,,,,,610313c21dc0b22ab21ed775,61036cfad281cbf50c8e6efa,2021-07-29_20h08.21.037,Simcolourproject_2stim_asymm_v5,2020.2.10,Linux x86_64,60,61025ae37ef11b136ea224fe,,,,,,,,,2408,-36.80541992,75.89605713,1,0,0,response7disk,,0,-8.405151367,5.748779297,1,0,0,rectangle,-8.405151367,5.748779297,1,0,0,-8.405151367,5.748779297,1,0,0,1,40,200,23,1,,,,,,,,
,,,,,,,,,,,,,FF,,,,,,,,2.56679,,,,,,,,,,,,,,,,,,,,,,610313c21dc0b22ab21ed775,61036cfad281cbf50c8e6efa,2021-07-29_20h08.21.037,Simcolourproject_2stim_asymm_v5,2020.2.10,Linux x86_64,60,61025ae37ef11b136ea224fe,,,,,,,,,4171,84.03686523,-68.16375732,1,0,0,response3disk,,5,9.659912109,-3.067932129,1,0,0,rectangle,9.659912109,-3.067932129,1,0,0,9.659912109,-3.067932129,1,0,0,1,41,201,89,1,,,,,,,,
,,,,,,,,,,,,,FF,,,,,,,,0.86621,,,,,,,,,,,,,,,,,,,,,,610313c21dc0b22ab21ed775,61036cfad281cbf50c8e6efa,2021-07-29_20h08.21.037,Simcolourproject_2stim_asymm_v5,2020.2.10,Linux x86_64,60,61025ae37ef11b136ea224fe,,,,,,,,,1618,84.11859131,36.0897522,1,0,0,response1disk,,6,10.40386963,2.625305176,1,0,0,rectangle,10.40386963,2.625305176,1,0,0,10.40386963,2.625305176,1,0,0,1,42,202,10,1,,,,,,,,
,,,,,,,,,,,,,FF,,,,,,,,1.983915,,,,,,,,,,,,,,,,,,,,,,610313c21dc0b22ab21ed775,61036cfad281cbf50c8e6efa,2021-07-29_20h08.21.037,Simcolourproject_2stim_asymm_v5,2020.2.10,Linux x86_64,60,61025ae37ef11b136ea224fe,,,,,,,,,3681,-62.33300781,-76.98284912,1,0,0,response5disk,,3,-22.90594482,-0.160675049,1,0,0,rectangle,-22.90594482,-0.160675049,1,0,0,-22.90594482,-0.160675049,1,0,0,1,43,203,52,1,,,,,,,,
,,,,,,,,,,,,,FF,,,,,,,,1.21639,,,,,,,,,,,,,,,,,,,,,,610313c21dc0b22ab21ed775,61036cfad281cbf50c8e6efa,2021-07-29_20h08.21.037,Simcolourproject_2stim_asymm_v5,2020.2.10,Linux x86_64,60,61025ae37ef11b136ea224fe,,,,,,,,,3754,-41.86254883,-65.08630371,1,0,0,response5disk,,3,-19.72253418,-6.859741211,1,0,0,rectangle,-19.72253418,-6.859741211,1,0,0,-19.72253418,-6.859741211,1,0,0,1,44,204,151,1,,,,,,,,
,,,,,,,,,,,,,FF,,,,,,,,1.72471,,,,,,,,,,,,,,,,,,,,,,610313c21dc0b22ab21ed775,61036cfad281cbf50c8e6efa,2021-07-29_20h08.21.037,Simcolourproject_2stim_asymm_v5,2020.2.10,Linux x86_64,60,61025ae37ef11b136ea224fe,,,,,,,,,1580,-26.40057373,-76.74002075,1,0,0,response5disk,,3,5.608276367,10.85916138,1,0,0,rectangle,5.608276367,10.85916138,1,0,0,5.608276367,10.85916138,1,0,0,1,45,205,80,1,,,,,,,,
,,,,,,,,,,,,,FF,,,,,,,,2.5008,,,,,,,,,,,,,,,,,,,,,,610313c21dc0b22ab21ed775,61036cfad281cbf50c8e6efa,2021-07-29_20h08.21.037,Simcolourproject_2stim_asymm_v5,2020.2.10,Linux x86_64,60,61025ae37ef11b136ea224fe,,,,,,,,,3394,87.26226807,56.57946777,1,0,0,response1disk,,6,4.11340332,4.732971191,1,0,0,rectangle,4.11340332,4.732971191,1,0,0,4.11340332,4.732971191,1,0,0,1,46,206,132,1,,,,,,,,
,,,,,,,,,,,,,FF,,,,,,,,0.766545,,,,,,,,,,,,,,,,,,,,,,610313c21dc0b22ab21ed775,61036cfad281cbf50c8e6efa,2021-07-29_20h08.21.037,Simcolourproject_2stim_asymm_v5,2020.2.10,Linux x86_64,60,61025ae37ef11b136ea224fe,,,,,,,,,2662,74.40533447,46.73748779,1,0,0,response1disk,,6,-3.760192871,10.10012817,1,0,0,rectangle,-3.760192871,10.10012817,1,0,0,-3.760192871,10.10012817,1,0,0,1,47,207,45,1,,,,,,,,
,,,,,,,,,,,,,FF,,,,,,,,3.26724,,,,,,,,,,,,,,,,,,,,,,610313c21dc0b22ab21ed775,61036cfad281cbf50c8e6efa,2021-07-29_20h08.21.037,Simcolourproject_2stim_asymm_v5,2020.2.10,Linux x86_64,60,61025ae37ef11b136ea224fe,,,,,,,,,1287,-111.0856323,-29.50027466,1,0,0,response5disk,,2,-21.53857422,-4.968200684,1,0,0,rectangle,-21.53857422,-4.968200684,1,0,0,-21.53857422,-4.968200684,1,0,0,1,48,208,107,1,,,,,,,,
,,,,,,,,,,,,,FF,,,,,,,,1.11718,,,,,,,,,,,,,,,,,,,,,,610313c21dc0b22ab21ed775,61036cfad281cbf50c8e6efa,2021-07-29_20h08.21.037,Simcolourproject_2stim_asymm_v5,2020.2.10,Linux x86_64,60,61025ae37ef11b136ea224fe,,,,,,,,,1848,-50.56109619,102.3549194,1,0,0,response7disk,,0,-2.727844238,12.24234009,1,0,0,rectangle,-2.727844238,12.24234009,1,0,0,-2.727844238,12.24234009,1,0,0,1,49,209,2,1,,,,,,,,
,,,,,,,,,,,,,FF,,,,,,,,0.800305,,,,,,,,,,,,,,,,,,,,,,610313c21dc0b22ab21ed775,61036cfad281cbf50c8e6efa,2021-07-29_20h08.21.037,Simcolourproject_2stim_asymm_v5,2020.2.10,Linux x86_64,60,61025ae37ef11b136ea224fe,,,,,,,,,2297,80.28265381,20.47848511,1,0,0,response1disk,,6,-13.03460693,-8.375,1,0,0,rectangle,-13.03460693,-8.375,1,0,0,-13.03460693,-8.375,1,0,0,1,50,210,125,1,,,,,,,,
,,,,,,,,,,,,,FF,,,,,,,,1.800045,,,,,,,,,,,,,,,,,,,,,,610313c21dc0b22ab21ed775,61036cfad281cbf50c8e6efa,2021-07-29_20h08.21.037,Simcolourproject_2stim_asymm_v5,2020.2.10,Linux x86_64,60,61025ae37ef11b136ea224fe,,,,,,,,,4085,81.50592041,-44.87445068,1,0,0,response3disk,,5,-2.229492188,4.830078125,1,0,0,rectangle,-2.229492188,4.830078125,1,0,0,-2.229492188,4.830078125,1,0,0,1,51,211,7,1,,,,,,,,
,,,,,,,,,,,,,FF,,,,,,,,0.916965,,,,,,,,,,,,,,,,,,,,,,610313c21dc0b22ab21ed775,61036cfad281cbf50c8e6efa,2021-07-29_20h08.21.037,Simcolourproject_2stim_asymm_v5,2020.2.10,Linux x86_64,60,61025ae37ef11b136ea224fe,,,,,,,,,3008,-26.69299316,100.5815125,1,0,0,response7disk,,0,-13.38574219,3.245178223,1,0,0,rectangle,-13.38574219,3.245178223,1,0,0,-13.38574219,3.245178223,1,0,0,1,52,212,63,1,,,,,,,,
,,,,,,,,,,,,,FF,,,,,,,,1.200655,,,,,,,,,,,,,,,,,,,,,,610313c21dc0b22ab21ed775,61036cfad281cbf50c8e6efa,2021-07-29_20h08.21.037,Simcolourproject_2stim_asymm_v5,2020.2.10,Linux x86_64,60,61025ae37ef11b136ea224fe,,,,,,,,,3654,-41.19763184,50.26055908,1,0,0,response7disk,,0,-18.28167725,-9.194030762,1,0,0,rectangle,-18.28167725,-9.194030762,1,0,0,-18.28167725,-9.194030762,1,0,0,1,53,213,11,1,,,,,,,,
,,,,,,,,,,,,,FF,,,,,,,,1.43401,,,,,,,,,,,,,,,,,,,,,,610313c21dc0b22ab21ed775,61036cfad281cbf50c8e6efa,2021-07-29_20h08.21.037,Simcolourproject_2stim_asymm_v5,2020.2.10,Linux x86_64,60,61025ae37ef11b136ea224fe,,,,,,,,,2463,-30.0880127,64.12802124,1,0,0,response7disk,,0,-6.435913086,6.46105957,1,0,0,rectangle,-6.435913086,6.46105957,1,0,0,-6.435913086,6.46105957,1,0,0,1,54,214,142,1,,,,,,,,
,,,,,,,,,,,,,FF,,,,,,,,0.89738,,,,,,,,,,,,,,,,,,,,,,610313c21dc0b22ab21ed775,61036cfad281cbf50c8e6efa,2021-07-29_20h08.21.037,Simcolourproject_2stim_asymm_v5,2020.2.10,Linux x86_64,60,61025ae37ef11b136ea224fe,,,,,,,,,3747,86.47741699,40.57064819,1,0,0,response1disk,,6,6.30657959,9.123291016,1,0,0,rectangle,6.30657959,9.123291016,1,0,0,6.30657959,9.123291016,1,0,0,1,55,215,135,1,,,,,,,,
,,,,,,,,,,,,,FF,,,,,,,,0.750515,,,,,,,,,,,,,,,,,,,,,,610313c21dc0b22ab21ed775,61036cfad281cbf50c8e6efa,2021-07-29_20h08.21.037,Simcolourproject_2stim_asymm_v5,2020.2.10,Linux x86_64,60,61025ae37ef11b136ea224fe,,,,,,,,,503,-56.28991699,112.8766479,1,0,0,response7disk,,0,-15.86950684,2.500152588,1,0,0,rectangle,-15.86950684,2.500152588,1,0,0,-15.86950684,2.500152588,1,0,0,1,56,216,15,1,,,,,,,,
,,,,,,,,,,,,,FF,,,,,,,,0.733955,,,,,,,,,,,,,,,,,,,,,,610313c21dc0b22ab21ed775,61036cfad281cbf50c8e6efa,2021-07-29_20h08.21.037,Simcolourproject_2stim_asymm_v5,2020.2.10,Linux x86_64,60,61025ae37ef11b136ea224fe,,,,,,,,,3905,-22.31085205,93.22219849,1,0,0,response7disk,,0,-15.78308105,-0.685974121,1,0,0,rectangle,-15.78308105,-0.685974121,1,0,0,-15.78308105,-0.685974121,1,0,0,1,57,217,82,1,,,,,,,,
,,,,,,,,,,,,,FF,,,,,,,,2.79992,,,,,,,,,,,,,,,,,,,,,,610313c21dc0b22ab21ed775,61036cfad281cbf50c8e6efa,2021-07-29_20h08.21.037,Simcolourproject_2stim_asymm_v5,2020.2.10,Linux x86_64,60,61025ae37ef11b136ea224fe,,,,,,,,,1620,-75.86248779,36.04733276,1,0,0,response7disk,,1,-17.14105225,8.481445313,1,0,0,rectangle,-41.73419189,88.03308105,1,0,0,0.743408203,-11.57589722,1,0,0,1,58,218,40,1,,response7disk_3,TRUE,0,0,"[233,67,71,70,219,110,107,141,2,57,111,178,136,3,310,309,23,301,34,88]",1.868045,rectangle
,,,,,,,,,,,,,FF,,,,,,,,2.39952,,,,,,,,,,,,,,,,,,,,,,610313c21dc0b22ab21ed775,61036cfad281cbf50c8e6efa,2021-07-29_20h08.21.037,Simcolourproject_2stim_asymm_v5,2020.2.10,Linux x86_64,60,61025ae37ef11b136ea224fe,,,,,,,,,234,-43.75512695,64.82244873,1,0,0,response7disk,,0,2.028137207,-6.110137939,1,0,0,rectangle,2.028137207,-6.110137939,1,0,0,2.028137207,-6.110137939,1,0,0,1,59,219,5,1,,,,,,,,
,,,,,,,,,,,,,FF,,,,,,,,0.850655,,,,,,,,,,,,,,,,,,,,,,610313c21dc0b22ab21ed775,61036cfad281cbf50c8e6efa,2021-07-29_20h08.21.037,Simcolourproject_2stim_asymm_v5,2020.2.10,Linux x86_64,60,61025ae37ef11b136ea224fe,,,,,,,,,1324,-39.8482666,69.14096069,1,0,0,response7disk,,0,-8.287658691,-3.432159424,1,0,0,rectangle,-8.287658691,-3.432159424,1,0,0,-8.287658691,-3.432159424,1,0,0,1,60,220,3,1,,,,,,,,
,,,,,,,,,,,,,FF,,,,,,,,1.118945,,,,,,,,,,,,,,,,,,,,,,610313c21dc0b22ab21ed775,61036cfad281cbf50c8e6efa,2021-07-29_20h08.21.037,Simcolourproject_2stim_asymm_v5,2020.2.10,Linux x86_64,60,61025ae37ef11b136ea224fe,,,,,,,,,3404,-49.73638916,80.54922485,1,0,0,response7disk,,0,2.75567627,3.667633057,1,0,0,rectangle,2.75567627,3.667633057,1,0,0,2.75567627,3.667633057,1,0,0,1,61,221,35,1,,,,,,,,
,,,,,,,,,,,,,FF,,,,,,,,0.75826,,,,,,,,,,,,,,,,,,,,,,610313c21dc0b22ab21ed775,61036cfad281cbf50c8e6efa,2021-07-29_20h08.21.037,Simcolourproject_2stim_asymm_v5,2020.2.10,Linux x86_64,60,61025ae37ef11b136ea224fe,,,,,,,,,685,-37.52392578,99.92843628,1,0,0,response7disk,,0,-1.08190918,-2.552215576,1,0,0,rectangle,-1.08190918,-2.552215576,1,0,0,-1.08190918,-2.552215576,1,0,0,1,62,222,101,1,,,,,,,,
,,,,,,,,,,,,,FF,,,,,,,,1.582845,,,,,,,,,,,,,,,,,,,,,,610313c21dc0b22ab21ed775,61036cfad281cbf50c8e6efa,2021-07-29_20h08.21.037,Simcolourproject_2stim_asymm_v5,2020.2.10,Linux x86_64,60,61025ae37ef11b136ea224fe,,,,,,,,,1543,78.55084229,-39.21502686,1,0,0,response3disk,,5,12.20422363,-1.690032959,1,0,0,rectangle,12.20422363,-1.690032959,1,0,0,12.20422363,-1.690032959,1,0,0,1,63,223,32,1,,,,,,,,
,,,,,,,,,,,,,FF,,,,,,,,1.767495,,,,,,,,,,,,,,,,,,,,,,610313c21dc0b22ab21ed775,61036cfad281cbf50c8e6efa,2021-07-29_20h08.21.037,Simcolourproject_2stim_asymm_v5,2020.2.10,Linux x86_64,60,61025ae37ef11b136ea224fe,,,,,,,,,1389,54.64318848,-31.24407959,1,0,0,response3disk,,5,-3.501159668,8.713378906,1,0,0,rectangle,-3.501159668,8.713378906,1,0,0,-3.501159668,8.713378906,1,0,0,1,64,224,157,1,,,,,,,,
,,,,,,,,,,,,,FF,,,,,,,,1.068625,,,,,,,,,,,,,,,,,,,,,,610313c21dc0b22ab21ed775,61036cfad281cbf50c8e6efa,2021-07-29_20h08.21.037,Simcolourproject_2stim_asymm_v5,2020.2.10,Linux x86_64,60,61025ae37ef11b136ea224fe,,,,,,,,,3178,-29.25280762,58.80264282,1,0,0,response7disk,,0,-7.868164063,-1.143432617,1,0,0,rectangle,-7.868164063,-1.143432617,1,0,0,-7.868164063,-1.143432617,1,0,0,1,65,225,73,1,,,,,,,,
,,,,,,,,,,,,,FF,,,,,,,,1.650255,,,,,,,,,,,,,,,,,,,,,,610313c21dc0b22ab21ed775,61036cfad281cbf50c8e6efa,2021-07-29_20h08.21.037,Simcolourproject_2stim_asymm_v5,2020.2.10,Linux x86_64,60,61025ae37ef11b136ea224fe,,,,,,,,,3690,-73.02801514,55.4329834,1,0,0,response7disk,,1,12.98736572,1.97177124,1,0,0,rectangle,12.98736572,1.97177124,1,0,0,12.98736572,1.97177124,1,0,0,1,66,226,154,1,,,,,,,,
,,,,,,,,,,,,,FF,,,,,,,,1.5996,,,,,,,,,,,,,,,,,,,,,,610313c21dc0b22ab21ed775,61036cfad281cbf50c8e6efa,2021-07-29_20h08.21.037,Simcolourproject_2stim_asymm_v5,2020.2.10,Linux x86_64,60,61025ae37ef11b136ea224fe,,,,,,,,,2238,75.72857666,-40.36495972,1,0,0,response3disk,,5,19.13739014,4.551818848,1,0,0,rectangle,19.13739014,4.551818848,1,0,0,19.13739014,4.551818848,1,0,0,1,67,227,88,1,,,,,,,,
,,,,,,,,,,,,,FF,,,,,,,,1.83381,,,,,,,,,,,,,,,,,,,,,,610313c21dc0b22ab21ed775,61036cfad281cbf50c8e6efa,2021-07-29_20h08.21.037,Simcolourproject_2stim_asymm_v5,2020.2.10,Linux x86_64,60,61025ae37ef11b136ea224fe,,,,,,,,,4030,-29.68225098,46.63900757,1,0,0,response7disk,,0,-11.76367188,2.9034729,1,0,0,rectangle,-11.76367188,2.9034729,1,0,0,-11.76367188,2.9034729,1,0,0,1,68,228,47,1,,,,,,,,
,,,,,,,,,,,,,FF,,,,,,,,0.950875,,,,,,,,,,,,,,,,,,,,,,610313c21dc0b22ab21ed775,61036cfad281cbf50c8e6efa,2021-07-29_20h08.21.037,Simcolourproject_2stim_asymm_v5,2020.2.10,Linux x86_64,60,61025ae37ef11b136ea224fe,,,,,,,,,452,-53.54229736,74.06994629,1,0,0,response7disk,,0,-2.640258789,7.344268799,1,0,0,rectangle,-2.640258789,7.344268799,1,0,0,-2.640258789,7.344268799,1,0,0,1,69,229,62,1,,,,,,,,
,,,,,,,,,,,,,FF,,,,,,,,2.26895,,,,,,,,,,,,,,,,,,,,,,610313c21dc0b22ab21ed775,61036cfad281cbf50c8e6efa,2021-07-29_20h08.21.037,Simcolourproject_2stim_asymm_v5,2020.2.10,Linux x86_64,60,61025ae37ef11b136ea224fe,,,,,,,,,871,34.55126953,-60.78967285,1,0,0,response3disk,,4,4.256286621,7.977050781,1,0,0,rectangle,4.256286621,7.977050781,1,0,0,4.256286621,7.977050781,1,0,0,1,70,230,97,1,,,,,,,,
,,,,,,,,,,,,,FF,,,,,,,,0.850345,,,,,,,,,,,,,,,,,,,,,,610313c21dc0b22ab21ed775,61036cfad281cbf50c8e6efa,2021-07-29_20h08.21.037,Simcolourproject_2stim_asymm_v5,2020.2.10,Linux x86_64,60,61025ae37ef11b136ea224fe,,,,,,,,,2070,-67.73162842,92.26303101,1,0,0,response7disk,,0,-23.88287354,11.22576904,1,0,0,rectangle,-23.88287354,11.22576904,1,0,0,-23.88287354,11.22576904,1,0,0,1,71,231,16,1,,,,,,,,
,,,,,,,,,,,,,FF,,,,,,,,0.984465,,,,,,,,,,,,,,,,,,,,,,610313c21dc0b22ab21ed775,61036cfad281cbf50c8e6efa,2021-07-29_20h08.21.037,Simcolourproject_2stim_asymm_v5,2020.2.10,Linux x86_64,60,61025ae37ef11b136ea224fe,,,,,,,,,1607,56.8762207,35.24316406,1,0,0,response1disk,,6,-0.03326416,-5.376861572,1,0,0,rectangle,81.86694336,-42.17648315,1,0,0,6.096679688,3.269134521,1,0,0,1,72,232,49,1,,response3disk_3,TRUE,5,5,"[233,67,71,70,219,110,107,141,2,57,111,178,136,3,310,309,23,301,34,88]",1.889475,rectangle
,,,,,,,,,,,,,FF,,,,,,,,1.26654,,,,,,,,,,,,,,,,,,,,,,610313c21dc0b22ab21ed775,61036cfad281cbf50c8e6efa,2021-07-29_20h08.21.037,Simcolourproject_2stim_asymm_v5,2020.2.10,Linux x86_64,60,61025ae37ef11b136ea224fe,,,,,,,,,2306,76.30310059,-37.22091675,1,0,0,response3disk,,5,-1.696105957,5.694549561,1,0,0,rectangle,-1.696105957,5.694549561,1,0,0,-1.696105957,5.694549561,1,0,0,1,73,233,39,1,,,,,,,,
,,,,,,,,,,,,,FF,,,,,,,,4.168,,,,,,,,,,,,,,,,,,,,,,610313c21dc0b22ab21ed775,61036cfad281cbf50c8e6efa,2021-07-29_20h08.21.037,Simcolourproject_2stim_asymm_v5,2020.2.10,Linux x86_64,60,61025ae37ef11b136ea224fe,,,,,,,,,2155,-54.0848999,77.86575317,1,0,0,response7disk,,0,-16.58319092,-2.51965332,1,0,0,rectangle,-16.58319092,-2.51965332,1,0,0,-16.58319092,-2.51965332,1,0,0,1,74,234,139,1,,,,,,,,
,,,,,,,,,,,,,FF,,,,,,,,1.1836,,,,,,,,,,,,,,,,,,,,,,610313c21dc0b22ab21ed775,61036cfad281cbf50c8e6efa,2021-07-29_20h08.21.037,Simcolourproject_2stim_asymm_v5,2020.2.10,Linux x86_64,60,61025ae37ef11b136ea224fe,,,,,,,,,285,69.29272461,29.30990601,1,0,0,response1disk,,6,-7.988708496,2.296081543,1,0,0,rectangle,-7.988708496,2.296081543,1,0,0,-7.988708496,2.296081543,1,0,0,1,75,235,127,1,,,,,,,,
,,,,,,,,,,,,,FF,,,,,,,,0.95205,,,,,,,,,,,,,,,,,,,,,,610313c21dc0b22ab21ed775,61036cfad281cbf50c8e6efa,2021-07-29_20h08.21.037,Simcolourproject_2stim_asymm_v5,2020.2.10,Linux x86_64,60,61025ae37ef11b136ea224fe,,,,,,,,,1015,-35.15643311,50.67575073,1,0,0,response7disk,,0,-20.06811523,-6.093811035,1,0,0,rectangle,-20.06811523,-6.093811035,1,0,0,-20.06811523,-6.093811035,1,0,0,1,76,236,69,1,,,,,,,,
