key_resp.keys,key_resp.rt,key_resp_14.keys,key_resp_14.rt,key_resp_15.keys,key_resp_15.rt,key_resp_17.keys,key_resp_17.rt,key_resp_9.keys,key_resp_9.rt,key_resp_10.keys,key_resp_10.rt,practice_comparison,Ecc,mouse_5.x,mouse_5.y,mouse_5.leftButton,mouse_5.midButton,mouse_5.rightButton,mouse_5.clicked_name,pracsimilarity,response_time,mouse_10.x,mouse_10.y,mouse_10.leftButton,mouse_10.midButton,mouse_10.rightButton,mouse_10.clicked_name,mouse_7.x,mouse_7.y,mouse_7.leftButton,mouse_7.midButton,mouse_7.rightButton,mouse_6.x,mouse_6.y,mouse_6.leftButton,mouse_6.midButton,mouse_6.rightButton,duringprac.thisRepN,duringprac.thisTrialN,duringprac.thisN,duringprac.thisIndex,duringprac.ran,participant,session,date,expName,psychopyVersion,OS,frameRate,study_id,mouse_7.clicked_name,catchpracsimilarity,catch_response_time,catchnumberprac,catchtrialorderprac,mouse_6.clicked_name,key_resp_22.keys,key_resp_22.rt,realcomparison,mouse.x,mouse.y,mouse.leftButton,mouse.midButton,mouse.rightButton,mouse.clicked_name,Colour2,similarity,mouse_2.x,mouse_2.y,mouse_2.leftButton,mouse_2.midButton,mouse_2.rightButton,mouse_2.clicked_name,mouse_3.x,mouse_3.y,mouse_3.leftButton,mouse_3.midButton,mouse_3.rightButton,mouse_11.x,mouse_11.y,mouse_11.leftButton,mouse_11.midButton,mouse_11.rightButton,trials_2.thisRepN,trials_2.thisTrialN,trials_2.thisN,trials_2.thisIndex,trials_2.ran,Colour1,mouse_3.clicked_name,catchornah,catchsimilarity,catchnumber,catchtrialorder,catchRT,mouse_11.clicked_name
space,0.6472,space,1.2096,space,16.9703,space,5.1379,space,1.0687,space,3.0343,41,PF,33.00390625,-65.609375,1,0,0,response3disk_5,4,7.5482,3.09765625,-1.45703125,1,0,0,rectangle_8,3.09765625,-1.45703125,1,0,0,3.09765625,-1.45703125,1,0,0,0,0,0,4,1,6103502ca40f5c646cf623ff,61036985047d57234b058b69,2021-07-29_20h01.40.315,Simcolourproject_2stim_asymm_v5,2020.2.10,MacIntel,60,61025ae37ef11b136ea224fe,,,,,,,,,,,,,,,,,,,,,,,,,,,,,,,,,,,,,,,,,,,,,,
,,,,,,,,,,,,143,FF,60.02734375,37.625,1,0,0,response1disk_5,6,3.1668,3.24609375,-9.78125,1,0,0,rectangle_8,-28.13671875,-64.2578125,1,0,0,-3.44140625,-1.77734375,1,0,0,0,1,1,0,1,6103502ca40f5c646cf623ff,61036985047d57234b058b69,2021-07-29_20h01.40.315,Simcolourproject_2stim_asymm_v5,2020.2.10,MacIntel,60,61025ae37ef11b136ea224fe,response5disk_7,3,2.404,3,"[2,5]",rectangle_4,,,,,,,,,,,,,,,,,,,,,,,,,,,,,,,,,,,,,,,,
,,,,,,,,,,,,79,PF,-25.08984375,30.2109375,1,0,0,response7disk_5,0,2.4331,0.82421875,0.58203125,1,0,0,rectangle_8,0.82421875,0.58203125,1,0,0,0.82421875,0.58203125,1,0,0,0,2,2,1,1,6103502ca40f5c646cf623ff,61036985047d57234b058b69,2021-07-29_20h01.40.315,Simcolourproject_2stim_asymm_v5,2020.2.10,MacIntel,60,61025ae37ef11b136ea224fe,,,,,,,,,,,,,,,,,,,,,,,,,,,,,,,,,,,,,,,,,,,,,,
,,,,,,,,,,,,23,PF,-18.859375,-67.26953125,1,0,0,response5disk_5,3,1.5847,2.2109375,1.89453125,1,0,0,rectangle_8,2.2109375,1.89453125,1,0,0,2.2109375,1.89453125,1,0,0,0,3,3,6,1,6103502ca40f5c646cf623ff,61036985047d57234b058b69,2021-07-29_20h01.40.315,Simcolourproject_2stim_asymm_v5,2020.2.10,MacIntel,60,61025ae37ef11b136ea224fe,,,,,,,,,,,,,,,,,,,,,,,,,,,,,,,,,,,,,,,,,,,,,,
,,,,,,,,,,,,154,PF,-23.37109375,-62.984375,1,0,0,response5disk_5,3,1.6809,-2.30859375,-4.0390625,1,0,0,rectangle_8,-23.078125,-67.99609375,1,0,0,-3.7734375,4.265625,1,0,0,0,4,4,2,1,6103502ca40f5c646cf623ff,61036985047d57234b058b69,2021-07-29_20h01.40.315,Simcolourproject_2stim_asymm_v5,2020.2.10,MacIntel,60,61025ae37ef11b136ea224fe,response5disk_7,3,2.3671,3,"[2,5]",rectangle_4,,,,,,,,,,,,,,,,,,,,,,,,,,,,,,,,,,,,,,,,
,,,,,,,,,,,,36,FF,-61.96484375,12.01953125,1,0,0,response7disk_5,1,1.399,-0.53125,-1.19140625,1,0,0,rectangle_8,-0.53125,-1.19140625,1,0,0,-0.53125,-1.19140625,1,0,0,0,5,5,5,1,6103502ca40f5c646cf623ff,61036985047d57234b058b69,2021-07-29_20h01.40.315,Simcolourproject_2stim_asymm_v5,2020.2.10,MacIntel,60,61025ae37ef11b136ea224fe,,,,,,,,,,,,,,,,,,,,,,,,,,,,,,,,,,,,,,,,,,,,,,
,,,,,,,,,,,,95,FF,38.30078125,-61.01171875,1,0,0,response3disk_5,4,1.7201,12.1953125,-0.515625,1,0,0,rectangle_8,12.1953125,-0.515625,1,0,0,12.1953125,-0.515625,1,0,0,0,6,6,3,1,6103502ca40f5c646cf623ff,61036985047d57234b058b69,2021-07-29_20h01.40.315,Simcolourproject_2stim_asymm_v5,2020.2.10,MacIntel,60,61025ae37ef11b136ea224fe,,,,,,,,,,,,,,,,,,,,,,,,,,,,,,,,,,,,,,,,,,,,,,
,,,,,,,,,,,,,FF,,,,,,,,1.3175,,,,,,,,,,,,,,,,,,,,,,6103502ca40f5c646cf623ff,61036985047d57234b058b69,2021-07-29_20h01.40.315,Simcolourproject_2stim_asymm_v5,2020.2.10,MacIntel,60,61025ae37ef11b136ea224fe,,,,,,,space,2.0413,987,55.4921875,20.16796875,1,0,0,response1disk,,6,23.10546875,0.12109375,1,0,0,rectangle,23.10546875,0.12109375,1,0,0,23.10546875,0.12109375,1,0,0,0,0,0,19,1,,,,,,,,
,,,,,,,,,,,,,FF,,,,,,,,1.2823,,,,,,,,,,,,,,,,,,,,,,6103502ca40f5c646cf623ff,61036985047d57234b058b69,2021-07-29_20h01.40.315,Simcolourproject_2stim_asymm_v5,2020.2.10,MacIntel,60,61025ae37ef11b136ea224fe,,,,,,,,,3416,-42.30078125,15.3359375,1,0,0,response7disk,,1,1.1796875,-3.93359375,1,0,0,rectangle,1.1796875,-3.93359375,1,0,0,1.1796875,-3.93359375,1,0,0,0,1,1,29,1,,,,,,,,
,,,,,,,,,,,,,FF,,,,,,,,1.0332,,,,,,,,,,,,,,,,,,,,,,6103502ca40f5c646cf623ff,61036985047d57234b058b69,2021-07-29_20h01.40.315,Simcolourproject_2stim_asymm_v5,2020.2.10,MacIntel,60,61025ae37ef11b136ea224fe,,,,,,,,,3705,25.1484375,59.21484375,1,0,0,response1disk,,7,1.1875,-9.24609375,1,0,0,rectangle,1.1875,-9.24609375,1,0,0,1.1875,-9.24609375,1,0,0,0,2,2,64,1,,,,,,,,
,,,,,,,,,,,,,FF,,,,,,,,1.1163,,,,,,,,,,,,,,,,,,,,,,6103502ca40f5c646cf623ff,61036985047d57234b058b69,2021-07-29_20h01.40.315,Simcolourproject_2stim_asymm_v5,2020.2.10,MacIntel,60,61025ae37ef11b136ea224fe,,,,,,,,,2570,-17.62109375,-35.0625,1,0,0,response5disk,,3,-3.62109375,-9.3671875,1,0,0,rectangle,-3.62109375,-9.3671875,1,0,0,-3.62109375,-9.3671875,1,0,0,0,3,3,139,1,,,,,,,,
,,,,,,,,,,,,,FF,,,,,,,,1.1655,,,,,,,,,,,,,,,,,,,,,,6103502ca40f5c646cf623ff,61036985047d57234b058b69,2021-07-29_20h01.40.315,Simcolourproject_2stim_asymm_v5,2020.2.10,MacIntel,60,61025ae37ef11b136ea224fe,,,,,,,,,2029,53.70703125,16.36328125,1,0,0,response1disk,,6,22.9140625,7.41015625,1,0,0,rectangle,22.9140625,7.41015625,1,0,0,22.9140625,7.41015625,1,0,0,0,4,4,31,1,,,,,,,,
,,,,,,,,,,,,,FF,,,,,,,,0.8991,,,,,,,,,,,,,,,,,,,,,,6103502ca40f5c646cf623ff,61036985047d57234b058b69,2021-07-29_20h01.40.315,Simcolourproject_2stim_asymm_v5,2020.2.10,MacIntel,60,61025ae37ef11b136ea224fe,,,,,,,,,1227,36.46484375,-21.9765625,1,0,0,response3disk,,5,1.92578125,-6.09765625,1,0,0,rectangle,1.92578125,-6.09765625,1,0,0,1.92578125,-6.09765625,1,0,0,0,5,5,25,1,,,,,,,,
,,,,,,,,,,,,,FF,,,,,,,,0.9034,,,,,,,,,,,,,,,,,,,,,,6103502ca40f5c646cf623ff,61036985047d57234b058b69,2021-07-29_20h01.40.315,Simcolourproject_2stim_asymm_v5,2020.2.10,MacIntel,60,61025ae37ef11b136ea224fe,,,,,,,,,2731,-21.609375,-45.34375,1,0,0,response5disk,,3,-0.3828125,-10.62109375,1,0,0,rectangle,-0.3828125,-10.62109375,1,0,0,-0.3828125,-10.62109375,1,0,0,0,6,6,65,1,,,,,,,,
,,,,,,,,,,,,,FF,,,,,,,,1.2168,,,,,,,,,,,,,,,,,,,,,,6103502ca40f5c646cf623ff,61036985047d57234b058b69,2021-07-29_20h01.40.315,Simcolourproject_2stim_asymm_v5,2020.2.10,MacIntel,60,61025ae37ef11b136ea224fe,,,,,,,,,76,60.84375,-38.63671875,1,0,0,response3disk,,5,-6.171875,-11.41796875,1,0,0,rectangle,-6.171875,-11.41796875,1,0,0,-6.171875,-11.41796875,1,0,0,0,7,7,149,1,,,,,,,,
,,,,,,,,,,,,,FF,,,,,,,,1.5165,,,,,,,,,,,,,,,,,,,,,,6103502ca40f5c646cf623ff,61036985047d57234b058b69,2021-07-29_20h01.40.315,Simcolourproject_2stim_asymm_v5,2020.2.10,MacIntel,60,61025ae37ef11b136ea224fe,,,,,,,,,3990,-17.64453125,-46.0390625,1,0,0,response5disk,,3,1.82421875,4.703125,1,0,0,rectangle,1.82421875,4.703125,1,0,0,1.82421875,4.703125,1,0,0,0,8,8,45,1,,,,,,,,
,,,,,,,,,,,,,FF,,,,,,,,1.4009,,,,,,,,,,,,,,,,,,,,,,6103502ca40f5c646cf623ff,61036985047d57234b058b69,2021-07-29_20h01.40.315,Simcolourproject_2stim_asymm_v5,2020.2.10,MacIntel,60,61025ae37ef11b136ea224fe,,,,,,,,,2393,-54.9296875,-28.68359375,1,0,0,response5disk,,2,-0.84765625,-10.69140625,1,0,0,rectangle,-0.84765625,-10.69140625,1,0,0,-0.84765625,-10.69140625,1,0,0,0,9,9,7,1,,,,,,,,
,,,,,,,,,,,,,FF,,,,,,,,1.4679,,,,,,,,,,,,,,,,,,,,,,6103502ca40f5c646cf623ff,61036985047d57234b058b69,2021-07-29_20h01.40.315,Simcolourproject_2stim_asymm_v5,2020.2.10,MacIntel,60,61025ae37ef11b136ea224fe,,,,,,,,,341,36.375,-45.09765625,1,0,0,response3disk,,4,13.94921875,-2.40625,1,0,0,rectangle,13.94921875,-2.40625,1,0,0,13.94921875,-2.40625,1,0,0,0,10,10,69,1,,,,,,,,
,,,,,,,,,,,,,FF,,,,,,,,1.1667,,,,,,,,,,,,,,,,,,,,,,6103502ca40f5c646cf623ff,61036985047d57234b058b69,2021-07-29_20h01.40.315,Simcolourproject_2stim_asymm_v5,2020.2.10,MacIntel,60,61025ae37ef11b136ea224fe,,,,,,,,,1866,-36.65234375,-20.84375,1,0,0,response5disk,,2,2.02734375,-2.52734375,1,0,0,rectangle,2.02734375,-2.52734375,1,0,0,2.02734375,-2.52734375,1,0,0,0,11,11,34,1,,,,,,,,
,,,,,,,,,,,,,FF,,,,,,,,0.8325,,,,,,,,,,,,,,,,,,,,,,6103502ca40f5c646cf623ff,61036985047d57234b058b69,2021-07-29_20h01.40.315,Simcolourproject_2stim_asymm_v5,2020.2.10,MacIntel,60,61025ae37ef11b136ea224fe,,,,,,,,,2925,-37.73828125,-28.88671875,1,0,0,response5disk,,2,-3.0390625,-0.0703125,1,0,0,rectangle,-3.0390625,-0.0703125,1,0,0,-3.0390625,-0.0703125,1,0,0,0,12,12,5,1,,,,,,,,
,,,,,,,,,,,,,FF,,,,,,,,0.7334,,,,,,,,,,,,,,,,,,,,,,6103502ca40f5c646cf623ff,61036985047d57234b058b69,2021-07-29_20h01.40.315,Simcolourproject_2stim_asymm_v5,2020.2.10,MacIntel,60,61025ae37ef11b136ea224fe,,,,,,,,,491,-60.0078125,15.56640625,1,0,0,response7disk,,1,2.48828125,7.86328125,1,0,0,rectangle,26.5625,-76.46875,1,0,0,8.59375,7.37890625,1,0,0,0,13,13,153,1,,response3disk_3,TRUE,4,4,"[276,271,188,80,47,144,94,288,79,36,172,47,18,91,305,266,210,14,19,76]",2.1358,rectangle
,,,,,,,,,,,,,FF,,,,,,,,1.0847,,,,,,,,,,,,,,,,,,,,,,6103502ca40f5c646cf623ff,61036985047d57234b058b69,2021-07-29_20h01.40.315,Simcolourproject_2stim_asymm_v5,2020.2.10,MacIntel,60,61025ae37ef11b136ea224fe,,,,,,,,,1586,-21.71484375,-56.19140625,1,0,0,response5disk,,3,-3.8125,-8.3984375,1,0,0,rectangle,-3.8125,-8.3984375,1,0,0,-3.8125,-8.3984375,1,0,0,0,14,14,42,1,,,,,,,,
,,,,,,,,,,,,,FF,,,,,,,,1.2175,,,,,,,,,,,,,,,,,,,,,,6103502ca40f5c646cf623ff,61036985047d57234b058b69,2021-07-29_20h01.40.315,Simcolourproject_2stim_asymm_v5,2020.2.10,MacIntel,60,61025ae37ef11b136ea224fe,,,,,,,,,1345,-22.390625,-41.82421875,1,0,0,response5disk,,3,5.23828125,1.90625,1,0,0,rectangle,5.23828125,1.90625,1,0,0,5.23828125,1.90625,1,0,0,0,15,15,156,1,,,,,,,,
,,,,,,,,,,,,,FF,,,,,,,,0.8009,,,,,,,,,,,,,,,,,,,,,,6103502ca40f5c646cf623ff,61036985047d57234b058b69,2021-07-29_20h01.40.315,Simcolourproject_2stim_asymm_v5,2020.2.10,MacIntel,60,61025ae37ef11b136ea224fe,,,,,,,,,389,28.07421875,-49.046875,1,0,0,response3disk,,4,2.55078125,-9.8203125,1,0,0,rectangle,2.55078125,-9.8203125,1,0,0,2.55078125,-9.8203125,1,0,0,0,16,16,134,1,,,,,,,,
,,,,,,,,,,,,,FF,,,,,,,,6.5175,,,,,,,,,,,,,,,,,,,,,,6103502ca40f5c646cf623ff,61036985047d57234b058b69,2021-07-29_20h01.40.315,Simcolourproject_2stim_asymm_v5,2020.2.10,MacIntel,60,61025ae37ef11b136ea224fe,,,,,,,,,1021,-26.90625,-39.3125,1,0,0,response5disk,,3,-5.171875,-3.8828125,1,0,0,rectangle,25.8515625,-66.72265625,1,0,0,19.19921875,6.21875,1,0,0,0,17,17,152,1,,response3disk_3,TRUE,4,4,"[276,271,188,80,47,144,94,288,79,36,172,47,18,91,305,266,210,14,19,76]",1.498,rectangle
,,,,,,,,,,,,,FF,,,,,,,,3.2998,,,,,,,,,,,,,,,,,,,,,,6103502ca40f5c646cf623ff,61036985047d57234b058b69,2021-07-29_20h01.40.315,Simcolourproject_2stim_asymm_v5,2020.2.10,MacIntel,60,61025ae37ef11b136ea224fe,,,,,,,,,1751,59.16796875,17.53125,1,0,0,response1disk,,6,10.58984375,-13.00390625,1,0,0,rectangle,-56.23828125,-19.37890625,1,0,0,4.57421875,-14.34765625,1,0,0,0,18,18,2,1,,response5disk_3,TRUE,2,2,"[276,271,188,80,47,144,94,288,79,36,172,47,18,91,305,266,210,14,19,76]",1.3825,rectangle
,,,,,,,,,,,,,FF,,,,,,,,2.2328,,,,,,,,,,,,,,,,,,,,,,6103502ca40f5c646cf623ff,61036985047d57234b058b69,2021-07-29_20h01.40.315,Simcolourproject_2stim_asymm_v5,2020.2.10,MacIntel,60,61025ae37ef11b136ea224fe,,,,,,,,,682,-32.953125,-63.390625,1,0,0,response5disk,,3,1.265625,-1.7890625,1,0,0,rectangle,1.265625,-1.7890625,1,0,0,1.265625,-1.7890625,1,0,0,0,19,19,46,1,,,,,,,,
,,,,,,,,,,,,,FF,,,,,,,,0.9194,,,,,,,,,,,,,,,,,,,,,,6103502ca40f5c646cf623ff,61036985047d57234b058b69,2021-07-29_20h01.40.315,Simcolourproject_2stim_asymm_v5,2020.2.10,MacIntel,60,61025ae37ef11b136ea224fe,,,,,,,,,895,38.1484375,-23.4140625,1,0,0,response3disk,,5,-5.26953125,-11.53125,1,0,0,rectangle,-5.26953125,-11.53125,1,0,0,-5.26953125,-11.53125,1,0,0,0,20,20,151,1,,,,,,,,
,,,,,,,,,,,,,FF,,,,,,,,0.8845,,,,,,,,,,,,,,,,,,,,,,6103502ca40f5c646cf623ff,61036985047d57234b058b69,2021-07-29_20h01.40.315,Simcolourproject_2stim_asymm_v5,2020.2.10,MacIntel,60,61025ae37ef11b136ea224fe,,,,,,,,,741,33.30078125,-30.2890625,1,0,0,response3disk,,5,14.296875,-16.671875,1,0,0,rectangle,14.296875,-16.671875,1,0,0,14.296875,-16.671875,1,0,0,0,21,21,133,1,,,,,,,,
,,,,,,,,,,,,,FF,,,,,,,,1.0327,,,,,,,,,,,,,,,,,,,,,,6103502ca40f5c646cf623ff,61036985047d57234b058b69,2021-07-29_20h01.40.315,Simcolourproject_2stim_asymm_v5,2020.2.10,MacIntel,60,61025ae37ef11b136ea224fe,,,,,,,,,3945,-44.90234375,-30.3828125,1,0,0,response5disk,,2,1.94140625,-9.23046875,1,0,0,rectangle,1.94140625,-9.23046875,1,0,0,1.94140625,-9.23046875,1,0,0,0,22,22,1,1,,,,,,,,
,,,,,,,,,,,,,FF,,,,,,,,0.6838,,,,,,,,,,,,,,,,,,,,,,6103502ca40f5c646cf623ff,61036985047d57234b058b69,2021-07-29_20h01.40.315,Simcolourproject_2stim_asymm_v5,2020.2.10,MacIntel,60,61025ae37ef11b136ea224fe,,,,,,,,,1120,25.71875,-53.11328125,1,0,0,response3disk,,4,1.765625,-13.953125,1,0,0,rectangle,1.765625,-13.953125,1,0,0,1.765625,-13.953125,1,0,0,0,23,23,32,1,,,,,,,,
,,,,,,,,,,,,,FF,,,,,,,,0.946,,,,,,,,,,,,,,,,,,,,,,6103502ca40f5c646cf623ff,61036985047d57234b058b69,2021-07-29_20h01.40.315,Simcolourproject_2stim_asymm_v5,2020.2.10,MacIntel,60,61025ae37ef11b136ea224fe,,,,,,,,,2492,-10.421875,-55.828125,1,0,0,response5disk,,3,2.1484375,-12.8828125,1,0,0,rectangle,2.1484375,-12.8828125,1,0,0,2.1484375,-12.8828125,1,0,0,0,24,24,47,1,,,,,,,,
,,,,,,,,,,,,,FF,,,,,,,,1.4006,,,,,,,,,,,,,,,,,,,,,,6103502ca40f5c646cf623ff,61036985047d57234b058b69,2021-07-29_20h01.40.315,Simcolourproject_2stim_asymm_v5,2020.2.10,MacIntel,60,61025ae37ef11b136ea224fe,,,,,,,,,1231,-19.328125,-64.68359375,1,0,0,response5disk,,3,4.4453125,8.7734375,1,0,0,rectangle,4.4453125,8.7734375,1,0,0,4.4453125,8.7734375,1,0,0,0,25,25,70,1,,,,,,,,
,,,,,,,,,,,,,FF,,,,,,,,1.1836,,,,,,,,,,,,,,,,,,,,,,6103502ca40f5c646cf623ff,61036985047d57234b058b69,2021-07-29_20h01.40.315,Simcolourproject_2stim_asymm_v5,2020.2.10,MacIntel,60,61025ae37ef11b136ea224fe,,,,,,,,,2516,-67.51953125,-36.234375,1,0,0,response5disk,,2,-8.6796875,-9.74609375,1,0,0,rectangle,-8.6796875,-9.74609375,1,0,0,-8.6796875,-9.74609375,1,0,0,0,26,26,35,1,,,,,,,,
,,,,,,,,,,,,,FF,,,,,,,,0.6838,,,,,,,,,,,,,,,,,,,,,,6103502ca40f5c646cf623ff,61036985047d57234b058b69,2021-07-29_20h01.40.315,Simcolourproject_2stim_asymm_v5,2020.2.10,MacIntel,60,61025ae37ef11b136ea224fe,,,,,,,,,2759,-42.59375,-22.03125,1,0,0,response5disk,,2,-7.72265625,-10.9765625,1,0,0,rectangle,-7.72265625,-10.9765625,1,0,0,-7.72265625,-10.9765625,1,0,0,0,27,27,147,1,,,,,,,,
,,,,,,,,,,,,,FF,,,,,,,,1.9496,,,,,,,,,,,,,,,,,,,,,,6103502ca40f5c646cf623ff,61036985047d57234b058b69,2021-07-29_20h01.40.315,Simcolourproject_2stim_asymm_v5,2020.2.10,MacIntel,60,61025ae37ef11b136ea224fe,,,,,,,,,2417,-54.44921875,-22.91015625,1,0,0,response5disk,,2,9.0546875,-6.53125,1,0,0,rectangle,9.0546875,-6.53125,1,0,0,9.0546875,-6.53125,1,0,0,0,28,28,98,1,,,,,,,,
,,,,,,,,,,,,,FF,,,,,,,,0.9513,,,,,,,,,,,,,,,,,,,,,,6103502ca40f5c646cf623ff,61036985047d57234b058b69,2021-07-29_20h01.40.315,Simcolourproject_2stim_asymm_v5,2020.2.10,MacIntel,60,61025ae37ef11b136ea224fe,,,,,,,,,878,-12.03125,-20.3203125,1,0,0,response5disk,,3,0.73046875,1.0234375,1,0,0,rectangle,0.73046875,1.0234375,1,0,0,0.73046875,1.0234375,1,0,0,0,29,29,76,1,,,,,,,,
,,,,,,,,,,,,,FF,,,,,,,,0.9519,,,,,,,,,,,,,,,,,,,,,,6103502ca40f5c646cf623ff,61036985047d57234b058b69,2021-07-29_20h01.40.315,Simcolourproject_2stim_asymm_v5,2020.2.10,MacIntel,60,61025ae37ef11b136ea224fe,,,,,,,,,1213,48.8671875,12.125,1,0,0,response1disk,,6,23.703125,11.328125,1,0,0,rectangle,23.703125,11.328125,1,0,0,23.703125,11.328125,1,0,0,0,30,30,44,1,,,,,,,,
,,,,,,,,,,,,,FF,,,,,,,,0.7494,,,,,,,,,,,,,,,,,,,,,,6103502ca40f5c646cf623ff,61036985047d57234b058b69,2021-07-29_20h01.40.315,Simcolourproject_2stim_asymm_v5,2020.2.10,MacIntel,60,61025ae37ef11b136ea224fe,,,,,,,,,3368,-46.39453125,-28.26953125,1,0,0,response5disk,,2,-12.2109375,-16.7890625,1,0,0,rectangle,-12.2109375,-16.7890625,1,0,0,-12.2109375,-16.7890625,1,0,0,0,31,31,80,1,,,,,,,,
,,,,,,,,,,,,,FF,,,,,,,,0.949,,,,,,,,,,,,,,,,,,,,,,6103502ca40f5c646cf623ff,61036985047d57234b058b69,2021-07-29_20h01.40.315,Simcolourproject_2stim_asymm_v5,2020.2.10,MacIntel,60,61025ae37ef11b136ea224fe,,,,,,,,,3678,54.16796875,-44.1015625,1,0,0,response3disk,,5,-1.796875,-7.10546875,1,0,0,rectangle,-1.796875,-7.10546875,1,0,0,-1.796875,-7.10546875,1,0,0,0,32,32,124,1,,,,,,,,
,,,,,,,,,,,,,FF,,,,,,,,0.6998,,,,,,,,,,,,,,,,,,,,,,6103502ca40f5c646cf623ff,61036985047d57234b058b69,2021-07-29_20h01.40.315,Simcolourproject_2stim_asymm_v5,2020.2.10,MacIntel,60,61025ae37ef11b136ea224fe,,,,,,,,,3837,17.66796875,-52.984375,1,0,0,response3disk,,4,3.38671875,-5.8671875,1,0,0,rectangle,3.38671875,-5.8671875,1,0,0,3.38671875,-5.8671875,1,0,0,0,33,33,107,1,,,,,,,,
,,,,,,,,,,,,,FF,,,,,,,,0.7842,,,,,,,,,,,,,,,,,,,,,,6103502ca40f5c646cf623ff,61036985047d57234b058b69,2021-07-29_20h01.40.315,Simcolourproject_2stim_asymm_v5,2020.2.10,MacIntel,60,61025ae37ef11b136ea224fe,,,,,,,,,426,-23.52734375,-51.671875,1,0,0,response5disk,,3,4.44140625,-2.82421875,1,0,0,rectangle,4.44140625,-2.82421875,1,0,0,4.44140625,-2.82421875,1,0,0,0,34,34,66,1,,,,,,,,
,,,,,,,,,,,,,FF,,,,,,,,1.064,,,,,,,,,,,,,,,,,,,,,,6103502ca40f5c646cf623ff,61036985047d57234b058b69,2021-07-29_20h01.40.315,Simcolourproject_2stim_asymm_v5,2020.2.10,MacIntel,60,61025ae37ef11b136ea224fe,,,,,,,,,3703,12.1953125,-43.01171875,1,0,0,response3disk,,4,8.40625,1.90234375,1,0,0,rectangle,63.81640625,23.02734375,1,0,0,15.8125,8.3125,1,0,0,0,35,35,140,1,,response1disk_3,TRUE,6,6,"[276,271,188,80,47,144,94,288,79,36,172,47,18,91,305,266,210,14,19,76]",1.6665,rectangle
,,,,,,,,,,,,,FF,,,,,,,,0.9808,,,,,,,,,,,,,,,,,,,,,,6103502ca40f5c646cf623ff,61036985047d57234b058b69,2021-07-29_20h01.40.315,Simcolourproject_2stim_asymm_v5,2020.2.10,MacIntel,60,61025ae37ef11b136ea224fe,,,,,,,,,3648,-48.23046875,-17.15625,1,0,0,response5disk,,2,-6.3203125,-2.5859375,1,0,0,rectangle,-6.3203125,-2.5859375,1,0,0,-6.3203125,-2.5859375,1,0,0,0,36,36,154,1,,,,,,,,
,,,,,,,,,,,,,FF,,,,,,,,0.7663,,,,,,,,,,,,,,,,,,,,,,6103502ca40f5c646cf623ff,61036985047d57234b058b69,2021-07-29_20h01.40.315,Simcolourproject_2stim_asymm_v5,2020.2.10,MacIntel,60,61025ae37ef11b136ea224fe,,,,,,,,,1701,-19.80078125,-49.04296875,1,0,0,response5disk,,3,0.03515625,-14.71484375,1,0,0,rectangle,0.03515625,-14.71484375,1,0,0,0.03515625,-14.71484375,1,0,0,0,37,37,40,1,,,,,,,,
,,,,,,,,,,,,,FF,,,,,,,,0.7681,,,,,,,,,,,,,,,,,,,,,,6103502ca40f5c646cf623ff,61036985047d57234b058b69,2021-07-29_20h01.40.315,Simcolourproject_2stim_asymm_v5,2020.2.10,MacIntel,60,61025ae37ef11b136ea224fe,,,,,,,,,1123,27.41796875,-44.171875,1,0,0,response3disk,,4,0.82421875,2.4296875,1,0,0,rectangle,0.82421875,2.4296875,1,0,0,0.82421875,2.4296875,1,0,0,0,38,38,117,1,,,,,,,,
,,,,,,,,,,,,,FF,,,,,,,,0.8026,,,,,,,,,,,,,,,,,,,,,,6103502ca40f5c646cf623ff,61036985047d57234b058b69,2021-07-29_20h01.40.315,Simcolourproject_2stim_asymm_v5,2020.2.10,MacIntel,60,61025ae37ef11b136ea224fe,,,,,,,,,3126,-69.1015625,-23.41796875,1,0,0,response5disk,,2,11.75390625,-4.98828125,1,0,0,rectangle,11.75390625,-4.98828125,1,0,0,11.75390625,-4.98828125,1,0,0,0,39,39,88,1,,,,,,,,
,,,,,,,,,,,,,FF,,,,,,,,0.9496,,,,,,,,,,,,,,,,,,,,,,6103502ca40f5c646cf623ff,61036985047d57234b058b69,2021-07-29_20h01.40.315,Simcolourproject_2stim_asymm_v5,2020.2.10,MacIntel,60,61025ae37ef11b136ea224fe,,,,,,,,,3327,-42.34765625,-21.1171875,1,0,0,response5disk,,2,-1.6171875,-17,1,0,0,rectangle,-1.6171875,-17,1,0,0,-1.6171875,-17,1,0,0,0,40,40,82,1,,,,,,,,
,,,,,,,,,,,,,FF,,,,,,,,0.8651,,,,,,,,,,,,,,,,,,,,,,6103502ca40f5c646cf623ff,61036985047d57234b058b69,2021-07-29_20h01.40.315,Simcolourproject_2stim_asymm_v5,2020.2.10,MacIntel,60,61025ae37ef11b136ea224fe,,,,,,,,,3517,67.6171875,27.6953125,1,0,0,response1disk,,6,14.72265625,8.9453125,1,0,0,rectangle,14.72265625,8.9453125,1,0,0,14.72265625,8.9453125,1,0,0,0,41,41,0,1,,,,,,,,
,,,,,,,,,,,,,FF,,,,,,,,0.9191,,,,,,,,,,,,,,,,,,,,,,6103502ca40f5c646cf623ff,61036985047d57234b058b69,2021-07-29_20h01.40.315,Simcolourproject_2stim_asymm_v5,2020.2.10,MacIntel,60,61025ae37ef11b136ea224fe,,,,,,,,,2649,-26.41796875,-37.76171875,1,0,0,response5disk,,3,5.515625,-8.9765625,1,0,0,rectangle,5.515625,-8.9765625,1,0,0,5.515625,-8.9765625,1,0,0,0,42,42,123,1,,,,,,,,
,,,,,,,,,,,,,FF,,,,,,,,0.8012,,,,,,,,,,,,,,,,,,,,,,6103502ca40f5c646cf623ff,61036985047d57234b058b69,2021-07-29_20h01.40.315,Simcolourproject_2stim_asymm_v5,2020.2.10,MacIntel,60,61025ae37ef11b136ea224fe,,,,,,,,,1907,45.99609375,-29.94140625,1,0,0,response3disk,,5,2.484375,-6.73828125,1,0,0,rectangle,2.484375,-6.73828125,1,0,0,2.484375,-6.73828125,1,0,0,0,43,43,90,1,,,,,,,,
,,,,,,,,,,,,,FF,,,,,,,,0.7668,,,,,,,,,,,,,,,,,,,,,,6103502ca40f5c646cf623ff,61036985047d57234b058b69,2021-07-29_20h01.40.315,Simcolourproject_2stim_asymm_v5,2020.2.10,MacIntel,60,61025ae37ef11b136ea224fe,,,,,,,,,2499,18.33984375,-40.4296875,1,0,0,response3disk,,4,-9.12109375,-7.09765625,1,0,0,rectangle,-9.12109375,-7.09765625,1,0,0,-9.12109375,-7.09765625,1,0,0,0,44,44,102,1,,,,,,,,
,,,,,,,,,,,,,FF,,,,,,,,0.948,,,,,,,,,,,,,,,,,,,,,,6103502ca40f5c646cf623ff,61036985047d57234b058b69,2021-07-29_20h01.40.315,Simcolourproject_2stim_asymm_v5,2020.2.10,MacIntel,60,61025ae37ef11b136ea224fe,,,,,,,,,1414,-16.62890625,-37.6953125,1,0,0,response5disk,,3,2.45703125,-11.87890625,1,0,0,rectangle,2.45703125,-11.87890625,1,0,0,2.45703125,-11.87890625,1,0,0,0,45,45,126,1,,,,,,,,
,,,,,,,,,,,,,FF,,,,,,,,0.9191,,,,,,,,,,,,,,,,,,,,,,6103502ca40f5c646cf623ff,61036985047d57234b058b69,2021-07-29_20h01.40.315,Simcolourproject_2stim_asymm_v5,2020.2.10,MacIntel,60,61025ae37ef11b136ea224fe,,,,,,,,,2515,-20.62890625,-40.44140625,1,0,0,response5disk,,3,-1.58203125,-5.49609375,1,0,0,rectangle,24.3125,-62.5546875,1,0,0,22,1.625,1,0,0,0,46,46,36,1,,response3disk_3,TRUE,4,4,"[276,271,188,80,47,144,94,288,79,36,172,47,18,91,305,266,210,14,19,76]",1.5504,rectangle
,,,,,,,,,,,,,FF,,,,,,,,1.1319,,,,,,,,,,,,,,,,,,,,,,6103502ca40f5c646cf623ff,61036985047d57234b058b69,2021-07-29_20h01.40.315,Simcolourproject_2stim_asymm_v5,2020.2.10,MacIntel,60,61025ae37ef11b136ea224fe,,,,,,,,,3101,63.14453125,22.24609375,1,0,0,response1disk,,6,12.5625,2.89453125,1,0,0,rectangle,12.5625,2.89453125,1,0,0,12.5625,2.89453125,1,0,0,0,47,47,109,1,,,,,,,,
,,,,,,,,,,,,,FF,,,,,,,,0.6838,,,,,,,,,,,,,,,,,,,,,,6103502ca40f5c646cf623ff,61036985047d57234b058b69,2021-07-29_20h01.40.315,Simcolourproject_2stim_asymm_v5,2020.2.10,MacIntel,60,61025ae37ef11b136ea224fe,,,,,,,,,472,-44.89453125,-25.8203125,1,0,0,response5disk,,2,-12.94921875,-15.55859375,1,0,0,rectangle,-12.94921875,-15.55859375,1,0,0,-12.94921875,-15.55859375,1,0,0,0,48,48,110,1,,,,,,,,
,,,,,,,,,,,,,FF,,,,,,,,0.6999,,,,,,,,,,,,,,,,,,,,,,6103502ca40f5c646cf623ff,61036985047d57234b058b69,2021-07-29_20h01.40.315,Simcolourproject_2stim_asymm_v5,2020.2.10,MacIntel,60,61025ae37ef11b136ea224fe,,,,,,,,,81,31.86328125,-28.55078125,1,0,0,response3disk,,5,-3.421875,-10.4765625,1,0,0,rectangle,-3.421875,-10.4765625,1,0,0,-3.421875,-10.4765625,1,0,0,0,49,49,96,1,,,,,,,,
,,,,,,,,,,,,,FF,,,,,,,,0.6795,,,,,,,,,,,,,,,,,,,,,,6103502ca40f5c646cf623ff,61036985047d57234b058b69,2021-07-29_20h01.40.315,Simcolourproject_2stim_asymm_v5,2020.2.10,MacIntel,60,61025ae37ef11b136ea224fe,,,,,,,,,3645,-24.67578125,-42.8984375,1,0,0,response5disk,,3,-3.53125,0.953125,1,0,0,rectangle,-3.53125,0.953125,1,0,0,-3.53125,0.953125,1,0,0,0,50,50,113,1,,,,,,,,
,,,,,,,,,,,,,FF,,,,,,,,1.8504,,,,,,,,,,,,,,,,,,,,,,6103502ca40f5c646cf623ff,61036985047d57234b058b69,2021-07-29_20h01.40.315,Simcolourproject_2stim_asymm_v5,2020.2.10,MacIntel,60,61025ae37ef11b136ea224fe,,,,,,,,,1441,59.4375,-9.7890625,1,0,0,response3disk,,5,-6.29296875,-9.42578125,1,0,0,rectangle,-6.29296875,-9.42578125,1,0,0,-6.29296875,-9.42578125,1,0,0,0,51,51,118,1,,,,,,,,
,,,,,,,,,,,,,FF,,,,,,,,0.6678,,,,,,,,,,,,,,,,,,,,,,6103502ca40f5c646cf623ff,61036985047d57234b058b69,2021-07-29_20h01.40.315,Simcolourproject_2stim_asymm_v5,2020.2.10,MacIntel,60,61025ae37ef11b136ea224fe,,,,,,,,,1030,-24.921875,-44.3515625,1,0,0,response5disk,,3,-2.3515625,-2.31640625,1,0,0,rectangle,-2.3515625,-2.31640625,1,0,0,-2.3515625,-2.31640625,1,0,0,0,52,52,125,1,,,,,,,,
,,,,,,,,,,,,,FF,,,,,,,,1.6652,,,,,,,,,,,,,,,,,,,,,,6103502ca40f5c646cf623ff,61036985047d57234b058b69,2021-07-29_20h01.40.315,Simcolourproject_2stim_asymm_v5,2020.2.10,MacIntel,60,61025ae37ef11b136ea224fe,,,,,,,,,4326,43.82421875,69.5703125,1,0,0,response1disk,,7,25.59765625,8.5625,1,0,0,rectangle,25.59765625,8.5625,1,0,0,25.59765625,8.5625,1,0,0,0,53,53,86,1,,,,,,,,
,,,,,,,,,,,,,FF,,,,,,,,0.8168,,,,,,,,,,,,,,,,,,,,,,6103502ca40f5c646cf623ff,61036985047d57234b058b69,2021-07-29_20h01.40.315,Simcolourproject_2stim_asymm_v5,2020.2.10,MacIntel,60,61025ae37ef11b136ea224fe,,,,,,,,,2567,-36.7578125,-22.6953125,1,0,0,response5disk,,2,-0.3671875,0.65625,1,0,0,rectangle,-0.3671875,0.65625,1,0,0,-0.3671875,0.65625,1,0,0,0,54,54,72,1,,,,,,,,
,,,,,,,,,,,,,FF,,,,,,,,0.8494,,,,,,,,,,,,,,,,,,,,,,6103502ca40f5c646cf623ff,61036985047d57234b058b69,2021-07-29_20h01.40.315,Simcolourproject_2stim_asymm_v5,2020.2.10,MacIntel,60,61025ae37ef11b136ea224fe,,,,,,,,,1766,56.09375,-35.90625,1,0,0,response3disk,,5,21.33984375,-15.2265625,1,0,0,rectangle,21.33984375,-15.2265625,1,0,0,21.33984375,-15.2265625,1,0,0,0,55,55,10,1,,,,,,,,
,,,,,,,,,,,,,FF,,,,,,,,0.866,,,,,,,,,,,,,,,,,,,,,,6103502ca40f5c646cf623ff,61036985047d57234b058b69,2021-07-29_20h01.40.315,Simcolourproject_2stim_asymm_v5,2020.2.10,MacIntel,60,61025ae37ef11b136ea224fe,,,,,,,,,883,18.51171875,-36.546875,1,0,0,response3disk,,4,6.96484375,-12.296875,1,0,0,rectangle,6.96484375,-12.296875,1,0,0,6.96484375,-12.296875,1,0,0,0,56,56,128,1,,,,,,,,
,,,,,,,,,,,,,FF,,,,,,,,1.4174,,,,,,,,,,,,,,,,,,,,,,6103502ca40f5c646cf623ff,61036985047d57234b058b69,2021-07-29_20h01.40.315,Simcolourproject_2stim_asymm_v5,2020.2.10,MacIntel,60,61025ae37ef11b136ea224fe,,,,,,,,,1161,-48.765625,-31.66796875,1,0,0,response5disk,,2,-7.171875,-13.42578125,1,0,0,rectangle,-7.171875,-13.42578125,1,0,0,-7.171875,-13.42578125,1,0,0,0,57,57,50,1,,,,,,,,
,,,,,,,,,,,,,FF,,,,,,,,0.9181,,,,,,,,,,,,,,,,,,,,,,6103502ca40f5c646cf623ff,61036985047d57234b058b69,2021-07-29_20h01.40.315,Simcolourproject_2stim_asymm_v5,2020.2.10,MacIntel,60,61025ae37ef11b136ea224fe,,,,,,,,,1970,53.6953125,-19.8203125,1,0,0,response3disk,,5,6.8359375,-16.49609375,1,0,0,rectangle,6.8359375,-16.49609375,1,0,0,6.8359375,-16.49609375,1,0,0,0,58,58,92,1,,,,,,,,
,,,,,,,,,,,,,FF,,,,,,,,0.7505,,,,,,,,,,,,,,,,,,,,,,6103502ca40f5c646cf623ff,61036985047d57234b058b69,2021-07-29_20h01.40.315,Simcolourproject_2stim_asymm_v5,2020.2.10,MacIntel,60,61025ae37ef11b136ea224fe,,,,,,,,,3471,52.1484375,21.80859375,1,0,0,response1disk,,6,16.95703125,7.6640625,1,0,0,rectangle,16.95703125,7.6640625,1,0,0,16.95703125,7.6640625,1,0,0,0,59,59,33,1,,,,,,,,
,,,,,,,,,,,,,FF,,,,,,,,1.4342,,,,,,,,,,,,,,,,,,,,,,6103502ca40f5c646cf623ff,61036985047d57234b058b69,2021-07-29_20h01.40.315,Simcolourproject_2stim_asymm_v5,2020.2.10,MacIntel,60,61025ae37ef11b136ea224fe,,,,,,,,,820,-15.40234375,-56.29296875,1,0,0,response5disk,,3,-5.87109375,-13.44140625,1,0,0,rectangle,-5.87109375,-13.44140625,1,0,0,-5.87109375,-13.44140625,1,0,0,0,60,60,71,1,,,,,,,,
,,,,,,,,,,,,,FF,,,,,,,,0.7,,,,,,,,,,,,,,,,,,,,,,6103502ca40f5c646cf623ff,61036985047d57234b058b69,2021-07-29_20h01.40.315,Simcolourproject_2stim_asymm_v5,2020.2.10,MacIntel,60,61025ae37ef11b136ea224fe,,,,,,,,,529,49.48046875,-21.78125,1,0,0,response3disk,,5,-4.4375,-7.56640625,1,0,0,rectangle,-4.4375,-7.56640625,1,0,0,-4.4375,-7.56640625,1,0,0,0,61,61,56,1,,,,,,,,
,,,,,,,,,,,,,FF,,,,,,,,0.7504,,,,,,,,,,,,,,,,,,,,,,6103502ca40f5c646cf623ff,61036985047d57234b058b69,2021-07-29_20h01.40.315,Simcolourproject_2stim_asymm_v5,2020.2.10,MacIntel,60,61025ae37ef11b136ea224fe,,,,,,,,,2300,60.30078125,14.625,1,0,0,response1disk,,6,9.015625,-6.18359375,1,0,0,rectangle,9.015625,-6.18359375,1,0,0,9.015625,-6.18359375,1,0,0,0,62,62,22,1,,,,,,,,
,,,,,,,,,,,,,FF,,,,,,,,0.9009,,,,,,,,,,,,,,,,,,,,,,6103502ca40f5c646cf623ff,61036985047d57234b058b69,2021-07-29_20h01.40.315,Simcolourproject_2stim_asymm_v5,2020.2.10,MacIntel,60,61025ae37ef11b136ea224fe,,,,,,,,,3286,29.609375,-56.57421875,1,0,0,response3disk,,4,27.1484375,5.1484375,1,0,0,rectangle,27.1484375,5.1484375,1,0,0,27.1484375,5.1484375,1,0,0,0,63,63,97,1,,,,,,,,
,,,,,,,,,,,,,FF,,,,,,,,1.2806,,,,,,,,,,,,,,,,,,,,,,6103502ca40f5c646cf623ff,61036985047d57234b058b69,2021-07-29_20h01.40.315,Simcolourproject_2stim_asymm_v5,2020.2.10,MacIntel,60,61025ae37ef11b136ea224fe,,,,,,,,,556,21.12109375,-63.56640625,1,0,0,response3disk,,4,8.265625,-11.43359375,1,0,0,rectangle,8.265625,-11.43359375,1,0,0,8.265625,-11.43359375,1,0,0,0,64,64,121,1,,,,,,,,
,,,,,,,,,,,,,FF,,,,,,,,0.8659,,,,,,,,,,,,,,,,,,,,,,6103502ca40f5c646cf623ff,61036985047d57234b058b69,2021-07-29_20h01.40.315,Simcolourproject_2stim_asymm_v5,2020.2.10,MacIntel,60,61025ae37ef11b136ea224fe,,,,,,,,,2127,-28.93359375,-49.19140625,1,0,0,response5disk,,3,-14.4140625,-15.296875,1,0,0,rectangle,-14.4140625,-15.296875,1,0,0,-14.4140625,-15.296875,1,0,0,0,65,65,103,1,,,,,,,,
,,,,,,,,,,,,,FF,,,,,,,,0.9331,,,,,,,,,,,,,,,,,,,,,,6103502ca40f5c646cf623ff,61036985047d57234b058b69,2021-07-29_20h01.40.315,Simcolourproject_2stim_asymm_v5,2020.2.10,MacIntel,60,61025ae37ef11b136ea224fe,,,,,,,,,747,-64.73828125,-37.375,1,0,0,response5disk,,2,-0.859375,-12.50390625,1,0,0,rectangle,-0.859375,-12.50390625,1,0,0,-0.859375,-12.50390625,1,0,0,0,66,66,157,1,,,,,,,,
,,,,,,,,,,,,,FF,,,,,,,,0.9179,,,,,,,,,,,,,,,,,,,,,,6103502ca40f5c646cf623ff,61036985047d57234b058b69,2021-07-29_20h01.40.315,Simcolourproject_2stim_asymm_v5,2020.2.10,MacIntel,60,61025ae37ef11b136ea224fe,,,,,,,,,2275,-26.328125,-61.58984375,1,0,0,response5disk,,3,-6.28515625,-13.09765625,1,0,0,rectangle,-6.28515625,-13.09765625,1,0,0,-6.28515625,-13.09765625,1,0,0,0,67,67,84,1,,,,,,,,
,,,,,,,,,,,,,FF,,,,,,,,0.7842,,,,,,,,,,,,,,,,,,,,,,6103502ca40f5c646cf623ff,61036985047d57234b058b69,2021-07-29_20h01.40.315,Simcolourproject_2stim_asymm_v5,2020.2.10,MacIntel,60,61025ae37ef11b136ea224fe,,,,,,,,,677,-30.4453125,-47.39453125,1,0,0,response5disk,,3,-0.18359375,4.609375,1,0,0,rectangle,-0.18359375,4.609375,1,0,0,-0.18359375,4.609375,1,0,0,0,68,68,49,1,,,,,,,,
,,,,,,,,,,,,,FF,,,,,,,,1.8858,,,,,,,,,,,,,,,,,,,,,,6103502ca40f5c646cf623ff,61036985047d57234b058b69,2021-07-29_20h01.40.315,Simcolourproject_2stim_asymm_v5,2020.2.10,MacIntel,60,61025ae37ef11b136ea224fe,,,,,,,,,2665,49.51171875,18.24609375,1,0,0,response1disk,,6,0.98828125,10.59765625,1,0,0,rectangle,0.98828125,10.59765625,1,0,0,0.98828125,10.59765625,1,0,0,0,69,69,21,1,,,,,,,,
,,,,,,,,,,,,,FF,,,,,,,,1.2141,,,,,,,,,,,,,,,,,,,,,,6103502ca40f5c646cf623ff,61036985047d57234b058b69,2021-07-29_20h01.40.315,Simcolourproject_2stim_asymm_v5,2020.2.10,MacIntel,60,61025ae37ef11b136ea224fe,,,,,,,,,4250,69.1484375,-27.55859375,1,0,0,response3disk,,5,11.46484375,0.34375,1,0,0,rectangle,11.46484375,0.34375,1,0,0,11.46484375,0.34375,1,0,0,0,70,70,6,1,,,,,,,,
,,,,,,,,,,,,,FF,,,,,,,,0.6662,,,,,,,,,,,,,,,,,,,,,,6103502ca40f5c646cf623ff,61036985047d57234b058b69,2021-07-29_20h01.40.315,Simcolourproject_2stim_asymm_v5,2020.2.10,MacIntel,60,61025ae37ef11b136ea224fe,,,,,,,,,1956,22.453125,51.046875,1,0,0,response1disk,,7,7.10546875,-15.5859375,1,0,0,rectangle,7.10546875,-15.5859375,1,0,0,7.10546875,-15.5859375,1,0,0,0,71,71,28,1,,,,,,,,
,,,,,,,,,,,,,FF,,,,,,,,7.9005,,,,,,,,,,,,,,,,,,,,,,6103502ca40f5c646cf623ff,61036985047d57234b058b69,2021-07-29_20h01.40.315,Simcolourproject_2stim_asymm_v5,2020.2.10,MacIntel,60,61025ae37ef11b136ea224fe,,,,,,,,,1652,-15.12890625,-64.2265625,1,0,0,response5disk,,3,8.08203125,2.1015625,1,0,0,rectangle,8.08203125,2.1015625,1,0,0,8.08203125,2.1015625,1,0,0,0,72,72,8,1,,,,,,,,
,,,,,,,,,,,,,FF,,,,,,,,1.0006,,,,,,,,,,,,,,,,,,,,,,6103502ca40f5c646cf623ff,61036985047d57234b058b69,2021-07-29_20h01.40.315,Simcolourproject_2stim_asymm_v5,2020.2.10,MacIntel,60,61025ae37ef11b136ea224fe,,,,,,,,,1659,-23.85546875,-50.80859375,1,0,0,response5disk,,3,-10.58203125,-17.67578125,1,0,0,rectangle,-10.58203125,-17.67578125,1,0,0,-10.58203125,-17.67578125,1,0,0,0,73,73,75,1,,,,,,,,
,,,,,,,,,,,,,FF,,,,,,,,0.7823,,,,,,,,,,,,,,,,,,,,,,6103502ca40f5c646cf623ff,61036985047d57234b058b69,2021-07-29_20h01.40.315,Simcolourproject_2stim_asymm_v5,2020.2.10,MacIntel,60,61025ae37ef11b136ea224fe,,,,,,,,,997,-50.93359375,-19.41796875,1,0,0,response5disk,,2,1.91015625,1.87890625,1,0,0,rectangle,1.91015625,1.87890625,1,0,0,1.91015625,1.87890625,1,0,0,0,74,74,68,1,,,,,,,,
,,,,,,,,,,,,,FF,,,,,,,,0.7673,,,,,,,,,,,,,,,,,,,,,,6103502ca40f5c646cf623ff,61036985047d57234b058b69,2021-07-29_20h01.40.315,Simcolourproject_2stim_asymm_v5,2020.2.10,MacIntel,60,61025ae37ef11b136ea224fe,,,,,,,,,1524,47.33203125,-17.4296875,1,0,0,response3disk,,5,-7.41015625,-7.21484375,1,0,0,rectangle,9.71484375,42.234375,1,0,0,-5.28515625,-4.07421875,1,0,0,0,75,75,101,1,,response1disk_3,TRUE,7,7,"[276,271,188,80,47,144,94,288,79,36,172,47,18,91,305,266,210,14,19,76]",1.7154,rectangle
,,,,,,,,,,,,,FF,,,,,,,,0.8821,,,,,,,,,,,,,,,,,,,,,,6103502ca40f5c646cf623ff,61036985047d57234b058b69,2021-07-29_20h01.40.315,Simcolourproject_2stim_asymm_v5,2020.2.10,MacIntel,60,61025ae37ef11b136ea224fe,,,,,,,,,282,42.359375,-22.296875,1,0,0,response3disk,,5,0.3359375,-11.01953125,1,0,0,rectangle,0.3359375,-11.01953125,1,0,0,0.3359375,-11.01953125,1,0,0,0,76,76,94,1,,,,,,,,
,,,,,,,,,,,,,FF,,,,,,,,0.6808,,,,,,,,,,,,,,,,,,,,,,6103502ca40f5c646cf623ff,61036985047d57234b058b69,2021-07-29_20h01.40.315,Simcolourproject_2stim_asymm_v5,2020.2.10,MacIntel,60,61025ae37ef11b136ea224fe,,,,,,,,,337,-43.75390625,-19.6484375,1,0,0,response5disk,,2,-0.7421875,-11.73046875,1,0,0,rectangle,-0.7421875,-11.73046875,1,0,0,-0.7421875,-11.73046875,1,0,0,0,77,77,9,1,,,,,,,,
,,,,,,,,,,,,,FF,,,,,,,,0.9144,,,,,,,,,,,,,,,,,,,,,,6103502ca40f5c646cf623ff,61036985047d57234b058b69,2021-07-29_20h01.40.315,Simcolourproject_2stim_asymm_v5,2020.2.10,MacIntel,60,61025ae37ef11b136ea224fe,,,,,,,,,2679,59.4453125,12.36328125,1,0,0,response1disk,,6,15.72265625,11.26171875,1,0,0,rectangle,-19.109375,62.79296875,1,0,0,-18.84375,-3.04296875,1,0,0,0,78,78,131,1,,response7disk_3,TRUE,0,0,"[276,271,188,80,47,144,94,288,79,36,172,47,18,91,305,266,210,14,19,76]",1.4482,rectangle
,,,,,,,,,,,,,FF,,,,,,,,1.0142,,,,,,,,,,,,,,,,,,,,,,6103502ca40f5c646cf623ff,61036985047d57234b058b69,2021-07-29_20h01.40.315,Simcolourproject_2stim_asymm_v5,2020.2.10,MacIntel,60,61025ae37ef11b136ea224fe,,,,,,,,,4263,-15.1171875,-32.671875,1,0,0,response5disk,,3,-7.625,-7.19140625,1,0,0,rectangle,69.66796875,13.23046875,1,0,0,19.5,4.28125,1,0,0,0,79,79,13,1,,response1disk_3,TRUE,6,6,"[276,271,188,80,47,144,94,288,79,36,172,47,18,91,305,266,210,14,19,76]",2.1001,rectangle
,,,,,,,,,,,,,FF,,,,,,,,1.4015,,,,,,,,,,,,,,,,,,,,,,6103502ca40f5c646cf623ff,61036985047d57234b058b69,2021-07-29_20h01.40.315,Simcolourproject_2stim_asymm_v5,2020.2.10,MacIntel,60,61025ae37ef11b136ea224fe,,,,,,,,,173,40.1328125,23.35546875,1,0,0,response1disk,,6,0.8046875,4.71484375,1,0,0,rectangle,0.8046875,4.71484375,1,0,0,0.8046875,4.71484375,1,0,0,0,80,80,100,1,,,,,,,,
,,,,,,,,,,,,,FF,,,,,,,,0.6165,,,,,,,,,,,,,,,,,,,,,,6103502ca40f5c646cf623ff,61036985047d57234b058b69,2021-07-29_20h01.40.315,Simcolourproject_2stim_asymm_v5,2020.2.10,MacIntel,60,61025ae37ef11b136ea224fe,,,,,,,,,1450,53.88671875,18.484375,1,0,0,response1disk,,6,13.76953125,10.7109375,1,0,0,rectangle,13.76953125,10.7109375,1,0,0,13.76953125,10.7109375,1,0,0,0,81,81,93,1,,,,,,,,
,,,,,,,,,,,,,FF,,,,,,,,0.5844,,,,,,,,,,,,,,,,,,,,,,6103502ca40f5c646cf623ff,61036985047d57234b058b69,2021-07-29_20h01.40.315,Simcolourproject_2stim_asymm_v5,2020.2.10,MacIntel,60,61025ae37ef11b136ea224fe,,,,,,,,,1670,17.30078125,47.109375,1,0,0,response1disk,,7,8.91015625,8.32421875,1,0,0,rectangle,8.91015625,8.32421875,1,0,0,8.91015625,8.32421875,1,0,0,0,82,82,159,1,,,,,,,,
,,,,,,,,,,,,,FF,,,,,,,,1.3495,,,,,,,,,,,,,,,,,,,,,,6103502ca40f5c646cf623ff,61036985047d57234b058b69,2021-07-29_20h01.40.315,Simcolourproject_2stim_asymm_v5,2020.2.10,MacIntel,60,61025ae37ef11b136ea224fe,,,,,,,,,3621,30.11328125,-59.05859375,1,0,0,response3disk,,4,10.0390625,-13.91796875,1,0,0,rectangle,10.0390625,-13.91796875,1,0,0,10.0390625,-13.91796875,1,0,0,0,83,83,155,1,,,,,,,,
,,,,,,,,,,,,,FF,,,,,,,,0.6252,,,,,,,,,,,,,,,,,,,,,,6103502ca40f5c646cf623ff,61036985047d57234b058b69,2021-07-29_20h01.40.315,Simcolourproject_2stim_asymm_v5,2020.2.10,MacIntel,60,61025ae37ef11b136ea224fe,,,,,,,,,544,28.8828125,-22.2734375,1,0,0,response3disk,,5,8.0078125,-15.578125,1,0,0,rectangle,8.0078125,-15.578125,1,0,0,8.0078125,-15.578125,1,0,0,0,84,84,16,1,,,,,,,,
,,,,,,,,,,,,,FF,,,,,,,,0.7518,,,,,,,,,,,,,,,,,,,,,,6103502ca40f5c646cf623ff,61036985047d57234b058b69,2021-07-29_20h01.40.315,Simcolourproject_2stim_asymm_v5,2020.2.10,MacIntel,60,61025ae37ef11b136ea224fe,,,,,,,,,2407,-32.94140625,-53.5546875,1,0,0,response5disk,,3,-6.3359375,-1.94140625,1,0,0,rectangle,-6.3359375,-1.94140625,1,0,0,-6.3359375,-1.94140625,1,0,0,0,85,85,85,1,,,,,,,,
,,,,,,,,,,,,,FF,,,,,,,,0.6996,,,,,,,,,,,,,,,,,,,,,,6103502ca40f5c646cf623ff,61036985047d57234b058b69,2021-07-29_20h01.40.315,Simcolourproject_2stim_asymm_v5,2020.2.10,MacIntel,60,61025ae37ef11b136ea224fe,,,,,,,,,1897,-18.359375,-38.23046875,1,0,0,response5disk,,3,5.7265625,3.66015625,1,0,0,rectangle,5.7265625,3.66015625,1,0,0,5.7265625,3.66015625,1,0,0,0,86,86,67,1,,,,,,,,
,,,,,,,,,,,,,FF,,,,,,,,0.932,,,,,,,,,,,,,,,,,,,,,,6103502ca40f5c646cf623ff,61036985047d57234b058b69,2021-07-29_20h01.40.315,Simcolourproject_2stim_asymm_v5,2020.2.10,MacIntel,60,61025ae37ef11b136ea224fe,,,,,,,,,1711,-44.203125,-19.015625,1,0,0,response5disk,,2,-2.609375,-8.11328125,1,0,0,rectangle,-2.609375,-8.11328125,1,0,0,-2.609375,-8.11328125,1,0,0,0,87,87,106,1,,,,,,,,
,,,,,,,,,,,,,FF,,,,,,,,0.769,,,,,,,,,,,,,,,,,,,,,,6103502ca40f5c646cf623ff,61036985047d57234b058b69,2021-07-29_20h01.40.315,Simcolourproject_2stim_asymm_v5,2020.2.10,MacIntel,60,61025ae37ef11b136ea224fe,,,,,,,,,11,32.03125,-52.7578125,1,0,0,response3disk,,4,1.80078125,-1.4375,1,0,0,rectangle,1.80078125,-1.4375,1,0,0,1.80078125,-1.4375,1,0,0,0,88,88,39,1,,,,,,,,
,,,,,,,,,,,,,FF,,,,,,,,0.6689,,,,,,,,,,,,,,,,,,,,,,6103502ca40f5c646cf623ff,61036985047d57234b058b69,2021-07-29_20h01.40.315,Simcolourproject_2stim_asymm_v5,2020.2.10,MacIntel,60,61025ae37ef11b136ea224fe,,,,,,,,,673,-20.828125,-41.09375,1,0,0,response5disk,,3,4.35546875,0.43359375,1,0,0,rectangle,4.35546875,0.43359375,1,0,0,4.35546875,0.43359375,1,0,0,0,89,89,11,1,,,,,,,,
,,,,,,,,,,,,,FF,,,,,,,,0.7674,,,,,,,,,,,,,,,,,,,,,,6103502ca40f5c646cf623ff,61036985047d57234b058b69,2021-07-29_20h01.40.315,Simcolourproject_2stim_asymm_v5,2020.2.10,MacIntel,60,61025ae37ef11b136ea224fe,,,,,,,,,4104,71.80078125,21.078125,1,0,0,response1disk,,6,-5.70703125,10.07421875,1,0,0,rectangle,20.65234375,-68.01953125,1,0,0,13.5,-5.99609375,1,0,0,0,90,90,59,1,,response3disk_3,TRUE,4,4,"[276,271,188,80,47,144,94,288,79,36,172,47,18,91,305,266,210,14,19,76]",1.6331,rectangle
,,,,,,,,,,,,,FF,,,,,,,,0.8496,,,,,,,,,,,,,,,,,,,,,,6103502ca40f5c646cf623ff,61036985047d57234b058b69,2021-07-29_20h01.40.315,Simcolourproject_2stim_asymm_v5,2020.2.10,MacIntel,60,61025ae37ef11b136ea224fe,,,,,,,,,2276,-15.02734375,-42.88671875,1,0,0,response5disk,,3,8.140625,7.90234375,1,0,0,rectangle,8.140625,7.90234375,1,0,0,8.140625,7.90234375,1,0,0,0,91,91,111,1,,,,,,,,
,,,,,,,,,,,,,FF,,,,,,,,8.7506,,,,,,,,,,,,,,,,,,,,,,6103502ca40f5c646cf623ff,61036985047d57234b058b69,2021-07-29_20h01.40.315,Simcolourproject_2stim_asymm_v5,2020.2.10,MacIntel,60,61025ae37ef11b136ea224fe,,,,,,,,,2367,38.5,14.2734375,1,0,0,response1disk,,6,20.9921875,-3.06640625,1,0,0,rectangle,20.9921875,-3.06640625,1,0,0,20.9921875,-3.06640625,1,0,0,0,92,92,132,1,,,,,,,,
,,,,,,,,,,,,,FF,,,,,,,,0.7822,,,,,,,,,,,,,,,,,,,,,,6103502ca40f5c646cf623ff,61036985047d57234b058b69,2021-07-29_20h01.40.315,Simcolourproject_2stim_asymm_v5,2020.2.10,MacIntel,60,61025ae37ef11b136ea224fe,,,,,,,,,3406,-22.13671875,-54.140625,1,0,0,response5disk,,3,9.45703125,2.8203125,1,0,0,rectangle,16.5546875,46.9765625,1,0,0,9.015625,-2.68359375,1,0,0,0,93,93,3,1,,response1disk_3,TRUE,7,7,"[276,271,188,80,47,144,94,288,79,36,172,47,18,91,305,266,210,14,19,76]",1.3991,rectangle
,,,,,,,,,,,,,FF,,,,,,,,3.5682,,,,,,,,,,,,,,,,,,,,,,6103502ca40f5c646cf623ff,61036985047d57234b058b69,2021-07-29_20h01.40.315,Simcolourproject_2stim_asymm_v5,2020.2.10,MacIntel,60,61025ae37ef11b136ea224fe,,,,,,,,,2443,43.92578125,-26.44921875,1,0,0,response3disk,,5,1.0234375,-7.58984375,1,0,0,rectangle,1.0234375,-7.58984375,1,0,0,1.0234375,-7.58984375,1,0,0,0,94,94,135,1,,,,,,,,
,,,,,,,,,,,,,FF,,,,,,,,9.5019,,,,,,,,,,,,,,,,,,,,,,6103502ca40f5c646cf623ff,61036985047d57234b058b69,2021-07-29_20h01.40.315,Simcolourproject_2stim_asymm_v5,2020.2.10,MacIntel,60,61025ae37ef11b136ea224fe,,,,,,,,,622,-27.21875,50.6328125,1,0,0,response7disk,,0,-6.9453125,5.40234375,1,0,0,rectangle,-6.9453125,5.40234375,1,0,0,-6.9453125,5.40234375,1,0,0,0,95,95,17,1,,,,,,,,
,,,,,,,,,,,,,FF,,,,,,,,1.8502,,,,,,,,,,,,,,,,,,,,,,6103502ca40f5c646cf623ff,61036985047d57234b058b69,2021-07-29_20h01.40.315,Simcolourproject_2stim_asymm_v5,2020.2.10,MacIntel,60,61025ae37ef11b136ea224fe,,,,,,,,,1330,-25.53125,-50.98828125,1,0,0,response5disk,,3,-5.71875,-15.15625,1,0,0,rectangle,-5.71875,-15.15625,1,0,0,-5.71875,-15.15625,1,0,0,0,96,96,38,1,,,,,,,,
,,,,,,,,,,,,,FF,,,,,,,,0.6182,,,,,,,,,,,,,,,,,,,,,,6103502ca40f5c646cf623ff,61036985047d57234b058b69,2021-07-29_20h01.40.315,Simcolourproject_2stim_asymm_v5,2020.2.10,MacIntel,60,61025ae37ef11b136ea224fe,,,,,,,,,2870,-18.04296875,-47.765625,1,0,0,response5disk,,3,5.93359375,-10.12109375,1,0,0,rectangle,5.93359375,-10.12109375,1,0,0,5.93359375,-10.12109375,1,0,0,0,97,97,143,1,,,,,,,,
,,,,,,,,,,,,,FF,,,,,,,,1.5987,,,,,,,,,,,,,,,,,,,,,,6103502ca40f5c646cf623ff,61036985047d57234b058b69,2021-07-29_20h01.40.315,Simcolourproject_2stim_asymm_v5,2020.2.10,MacIntel,60,61025ae37ef11b136ea224fe,,,,,,,,,2371,-18.61328125,-37.12890625,1,0,0,response5disk,,3,-7.5234375,-14.93359375,1,0,0,rectangle,-7.5234375,-14.93359375,1,0,0,-7.5234375,-14.93359375,1,0,0,0,98,98,91,1,,,,,,,,
,,,,,,,,,,,,,FF,,,,,,,,0.5678,,,,,,,,,,,,,,,,,,,,,,6103502ca40f5c646cf623ff,61036985047d57234b058b69,2021-07-29_20h01.40.315,Simcolourproject_2stim_asymm_v5,2020.2.10,MacIntel,60,61025ae37ef11b136ea224fe,,,,,,,,,998,32.5625,-23.6328125,1,0,0,response3disk,,5,1.41015625,-15.54296875,1,0,0,rectangle,1.41015625,-15.54296875,1,0,0,1.41015625,-15.54296875,1,0,0,0,99,99,57,1,,,,,,,,
,,,,,,,,,,,,,FF,,,,,,,,1.0811,,,,,,,,,,,,,,,,,,,,,,6103502ca40f5c646cf623ff,61036985047d57234b058b69,2021-07-29_20h01.40.315,Simcolourproject_2stim_asymm_v5,2020.2.10,MacIntel,60,61025ae37ef11b136ea224fe,,,,,,,,,1199,-49.9609375,24.51171875,1,0,0,response7disk,,1,-1.16796875,0.71484375,1,0,0,rectangle,-1.16796875,0.71484375,1,0,0,-1.16796875,0.71484375,1,0,0,0,100,100,89,1,,,,,,,,
,,,,,,,,,,,,,FF,,,,,,,,1.3859,,,,,,,,,,,,,,,,,,,,,,6103502ca40f5c646cf623ff,61036985047d57234b058b69,2021-07-29_20h01.40.315,Simcolourproject_2stim_asymm_v5,2020.2.10,MacIntel,60,61025ae37ef11b136ea224fe,,,,,,,,,3885,-46.40625,-29.1171875,1,0,0,response5disk,,2,6.56640625,-15.9921875,1,0,0,rectangle,6.56640625,-15.9921875,1,0,0,6.56640625,-15.9921875,1,0,0,0,101,101,119,1,,,,,,,,
,,,,,,,,,,,,,FF,,,,,,,,1.2805,,,,,,,,,,,,,,,,,,,,,,6103502ca40f5c646cf623ff,61036985047d57234b058b69,2021-07-29_20h01.40.315,Simcolourproject_2stim_asymm_v5,2020.2.10,MacIntel,60,61025ae37ef11b136ea224fe,,,,,,,,,319,64.53125,19.765625,1,0,0,response1disk,,6,9.171875,10.5234375,1,0,0,rectangle,9.171875,10.5234375,1,0,0,9.171875,10.5234375,1,0,0,0,102,102,79,1,,,,,,,,
,,,,,,,,,,,,,FF,,,,,,,,0.6157,,,,,,,,,,,,,,,,,,,,,,6103502ca40f5c646cf623ff,61036985047d57234b058b69,2021-07-29_20h01.40.315,Simcolourproject_2stim_asymm_v5,2020.2.10,MacIntel,60,61025ae37ef11b136ea224fe,,,,,,,,,323,59.9296875,19.2265625,1,0,0,response1disk,,6,15.046875,14.21875,1,0,0,rectangle,15.046875,14.21875,1,0,0,15.046875,14.21875,1,0,0,0,103,103,99,1,,,,,,,,
,,,,,,,,,,,,,FF,,,,,,,,0.9848,,,,,,,,,,,,,,,,,,,,,,6103502ca40f5c646cf623ff,61036985047d57234b058b69,2021-07-29_20h01.40.315,Simcolourproject_2stim_asymm_v5,2020.2.10,MacIntel,60,61025ae37ef11b136ea224fe,,,,,,,,,2661,-35.4453125,28.109375,1,0,0,response7disk,,1,-3.8828125,-7.9375,1,0,0,rectangle,-3.8828125,-7.9375,1,0,0,-3.8828125,-7.9375,1,0,0,0,104,104,55,1,,,,,,,,
,,,,,,,,,,,,,FF,,,,,,,,2.6448,,,,,,,,,,,,,,,,,,,,,,6103502ca40f5c646cf623ff,61036985047d57234b058b69,2021-07-29_20h01.40.315,Simcolourproject_2stim_asymm_v5,2020.2.10,MacIntel,60,61025ae37ef11b136ea224fe,,,,,,,,,3675,-43.9140625,19.6796875,1,0,0,response7disk,,1,7.03515625,14.34765625,1,0,0,rectangle,7.03515625,14.34765625,1,0,0,7.03515625,14.34765625,1,0,0,0,105,105,144,1,,,,,,,,
,,,,,,,,,,,,,FF,,,,,,,,0.9832,,,,,,,,,,,,,,,,,,,,,,6103502ca40f5c646cf623ff,61036985047d57234b058b69,2021-07-29_20h01.40.315,Simcolourproject_2stim_asymm_v5,2020.2.10,MacIntel,60,61025ae37ef11b136ea224fe,,,,,,,,,1722,49.07421875,-26.83984375,1,0,0,response3disk,,5,-5.484375,0.6640625,1,0,0,rectangle,-5.484375,0.6640625,1,0,0,-5.484375,0.6640625,1,0,0,0,106,106,37,1,,,,,,,,
,,,,,,,,,,,,,FF,,,,,,,,3.0518,,,,,,,,,,,,,,,,,,,,,,6103502ca40f5c646cf623ff,61036985047d57234b058b69,2021-07-29_20h01.40.315,Simcolourproject_2stim_asymm_v5,2020.2.10,MacIntel,60,61025ae37ef11b136ea224fe,,,,,,,,,1693,24.65625,-46.44921875,1,0,0,response3disk,,4,12.82421875,-8.48828125,1,0,0,rectangle,12.82421875,-8.48828125,1,0,0,12.82421875,-8.48828125,1,0,0,0,107,107,14,1,,,,,,,,
,,,,,,,,,,,,,FF,,,,,,,,0.6815,,,,,,,,,,,,,,,,,,,,,,6103502ca40f5c646cf623ff,61036985047d57234b058b69,2021-07-29_20h01.40.315,Simcolourproject_2stim_asymm_v5,2020.2.10,MacIntel,60,61025ae37ef11b136ea224fe,,,,,,,,,4102,-43.140625,19.47265625,1,0,0,response7disk,,1,-0.5703125,11.62109375,1,0,0,rectangle,-0.5703125,11.62109375,1,0,0,-0.5703125,11.62109375,1,0,0,0,108,108,87,1,,,,,,,,
,,,,,,,,,,,,,FF,,,,,,,,0.8003,,,,,,,,,,,,,,,,,,,,,,6103502ca40f5c646cf623ff,61036985047d57234b058b69,2021-07-29_20h01.40.315,Simcolourproject_2stim_asymm_v5,2020.2.10,MacIntel,60,61025ae37ef11b136ea224fe,,,,,,,,,4276,-20.41015625,-40.67578125,1,0,0,response5disk,,3,5.44921875,2.359375,1,0,0,rectangle,5.44921875,2.359375,1,0,0,5.44921875,2.359375,1,0,0,0,109,109,105,1,,,,,,,,
,,,,,,,,,,,,,FF,,,,,,,,0.901,,,,,,,,,,,,,,,,,,,,,,6103502ca40f5c646cf623ff,61036985047d57234b058b69,2021-07-29_20h01.40.315,Simcolourproject_2stim_asymm_v5,2020.2.10,MacIntel,60,61025ae37ef11b136ea224fe,,,,,,,,,3576,54.65625,-23.89453125,1,0,0,response3disk,,5,-1.9296875,-11.08203125,1,0,0,rectangle,-1.9296875,-11.08203125,1,0,0,-1.9296875,-11.08203125,1,0,0,0,110,110,53,1,,,,,,,,
,,,,,,,,,,,,,FF,,,,,,,,0.9174,,,,,,,,,,,,,,,,,,,,,,6103502ca40f5c646cf623ff,61036985047d57234b058b69,2021-07-29_20h01.40.315,Simcolourproject_2stim_asymm_v5,2020.2.10,MacIntel,60,61025ae37ef11b136ea224fe,,,,,,,,,250,-61.203125,-23.125,1,0,0,response5disk,,2,-0.1484375,0.74609375,1,0,0,rectangle,-0.1484375,0.74609375,1,0,0,-0.1484375,0.74609375,1,0,0,0,111,111,73,1,,,,,,,,
,,,,,,,,,,,,,FF,,,,,,,,3.1847,,,,,,,,,,,,,,,,,,,,,,6103502ca40f5c646cf623ff,61036985047d57234b058b69,2021-07-29_20h01.40.315,Simcolourproject_2stim_asymm_v5,2020.2.10,MacIntel,60,61025ae37ef11b136ea224fe,,,,,,,,,3192,-22.5,53.50390625,1,0,0,response7disk,,0,-5.734375,0.05859375,1,0,0,rectangle,-5.734375,0.05859375,1,0,0,-5.734375,0.05859375,1,0,0,0,112,112,145,1,,,,,,,,
,,,,,,,,,,,,,FF,,,,,,,,0.6008,,,,,,,,,,,,,,,,,,,,,,6103502ca40f5c646cf623ff,61036985047d57234b058b69,2021-07-29_20h01.40.315,Simcolourproject_2stim_asymm_v5,2020.2.10,MacIntel,60,61025ae37ef11b136ea224fe,,,,,,,,,1900,-44.95703125,17.8125,1,0,0,response7disk,,1,-5.03515625,0.86328125,1,0,0,rectangle,-5.03515625,0.86328125,1,0,0,-5.03515625,0.86328125,1,0,0,0,113,113,104,1,,,,,,,,
,,,,,,,,,,,,,FF,,,,,,,,0.8551,,,,,,,,,,,,,,,,,,,,,,6103502ca40f5c646cf623ff,61036985047d57234b058b69,2021-07-29_20h01.40.315,Simcolourproject_2stim_asymm_v5,2020.2.10,MacIntel,60,61025ae37ef11b136ea224fe,,,,,,,,,4129,-28.74609375,15.0703125,1,0,0,response7disk,,1,10.6171875,3.71484375,1,0,0,rectangle,10.6171875,3.71484375,1,0,0,10.6171875,3.71484375,1,0,0,0,114,114,48,1,,,,,,,,
,,,,,,,,,,,,,FF,,,,,,,,0.9334,,,,,,,,,,,,,,,,,,,,,,6103502ca40f5c646cf623ff,61036985047d57234b058b69,2021-07-29_20h01.40.315,Simcolourproject_2stim_asymm_v5,2020.2.10,MacIntel,60,61025ae37ef11b136ea224fe,,,,,,,,,1754,-63.203125,-25.65625,1,0,0,response5disk,,2,-11.53515625,-11.68359375,1,0,0,rectangle,-11.53515625,-11.68359375,1,0,0,-11.53515625,-11.68359375,1,0,0,0,115,115,24,1,,,,,,,,
,,,,,,,,,,,,,FF,,,,,,,,0.5999,,,,,,,,,,,,,,,,,,,,,,6103502ca40f5c646cf623ff,61036985047d57234b058b69,2021-07-29_20h01.40.315,Simcolourproject_2stim_asymm_v5,2020.2.10,MacIntel,60,61025ae37ef11b136ea224fe,,,,,,,,,2997,-38.1953125,-23.39453125,1,0,0,response5disk,,2,-8.8203125,-7.8671875,1,0,0,rectangle,-8.8203125,-7.8671875,1,0,0,-8.8203125,-7.8671875,1,0,0,0,116,116,41,1,,,,,,,,
,,,,,,,,,,,,,FF,,,,,,,,0.7996,,,,,,,,,,,,,,,,,,,,,,6103502ca40f5c646cf623ff,61036985047d57234b058b69,2021-07-29_20h01.40.315,Simcolourproject_2stim_asymm_v5,2020.2.10,MacIntel,60,61025ae37ef11b136ea224fe,,,,,,,,,332,57.69140625,-29.125,1,0,0,response3disk,,5,4.3125,4.734375,1,0,0,rectangle,4.3125,4.734375,1,0,0,4.3125,4.734375,1,0,0,0,117,117,81,1,,,,,,,,
,,,,,,,,,,,,,FF,,,,,,,,0.9323,,,,,,,,,,,,,,,,,,,,,,6103502ca40f5c646cf623ff,61036985047d57234b058b69,2021-07-29_20h01.40.315,Simcolourproject_2stim_asymm_v5,2020.2.10,MacIntel,60,61025ae37ef11b136ea224fe,,,,,,,,,2308,-21.8515625,-14.2890625,1,0,0,response5disk,,2,2.61328125,-2.515625,1,0,0,rectangle,2.61328125,-2.515625,1,0,0,2.61328125,-2.515625,1,0,0,0,118,118,78,1,,,,,,,,
,,,,,,,,,,,,,FF,,,,,,,,0.6984,,,,,,,,,,,,,,,,,,,,,,6103502ca40f5c646cf623ff,61036985047d57234b058b69,2021-07-29_20h01.40.315,Simcolourproject_2stim_asymm_v5,2020.2.10,MacIntel,60,61025ae37ef11b136ea224fe,,,,,,,,,138,47.9140625,-28.52734375,1,0,0,response3disk,,5,10.81640625,-12.4453125,1,0,0,rectangle,10.81640625,-12.4453125,1,0,0,10.81640625,-12.4453125,1,0,0,0,119,119,23,1,,,,,,,,
,,,,,,,,,,,,,FF,,,,,,,,0.8665,,,,,,,,,,,,,,,,,,,,,,6103502ca40f5c646cf623ff,61036985047d57234b058b69,2021-07-29_20h01.40.315,Simcolourproject_2stim_asymm_v5,2020.2.10,MacIntel,60,61025ae37ef11b136ea224fe,,,,,,,,,2514,53.8125,24.53125,1,0,0,response1disk,,6,-5.3515625,6.015625,1,0,0,rectangle,-5.3515625,6.015625,1,0,0,-5.3515625,6.015625,1,0,0,0,120,120,129,1,,,,,,,,
,,,,,,,,,,,,,FF,,,,,,,,1.9168,,,,,,,,,,,,,,,,,,,,,,6103502ca40f5c646cf623ff,61036985047d57234b058b69,2021-07-29_20h01.40.315,Simcolourproject_2stim_asymm_v5,2020.2.10,MacIntel,60,61025ae37ef11b136ea224fe,,,,,,,,,3597,-17.0859375,-26.55078125,1,0,0,response5disk,,3,-4.4765625,-7.6796875,1,0,0,rectangle,-4.4765625,-7.6796875,1,0,0,-4.4765625,-7.6796875,1,0,0,0,121,121,15,1,,,,,,,,
,,,,,,,,,,,,,FF,,,,,,,,0.8164,,,,,,,,,,,,,,,,,,,,,,6103502ca40f5c646cf623ff,61036985047d57234b058b69,2021-07-29_20h01.40.315,Simcolourproject_2stim_asymm_v5,2020.2.10,MacIntel,60,61025ae37ef11b136ea224fe,,,,,,,,,1452,-37.72265625,20.953125,1,0,0,response7disk,,1,5.671875,2.99609375,1,0,0,rectangle,5.671875,2.99609375,1,0,0,5.671875,2.99609375,1,0,0,0,122,122,62,1,,,,,,,,
,,,,,,,,,,,,,FF,,,,,,,,0.8389,,,,,,,,,,,,,,,,,,,,,,6103502ca40f5c646cf623ff,61036985047d57234b058b69,2021-07-29_20h01.40.315,Simcolourproject_2stim_asymm_v5,2020.2.10,MacIntel,60,61025ae37ef11b136ea224fe,,,,,,,,,29,45.1328125,11.5625,1,0,0,response1disk,,6,-5.18359375,0.9765625,1,0,0,rectangle,-5.18359375,0.9765625,1,0,0,-5.18359375,0.9765625,1,0,0,0,123,123,141,1,,,,,,,,
,,,,,,,,,,,,,FF,,,,,,,,1.9702,,,,,,,,,,,,,,,,,,,,,,6103502ca40f5c646cf623ff,61036985047d57234b058b69,2021-07-29_20h01.40.315,Simcolourproject_2stim_asymm_v5,2020.2.10,MacIntel,60,61025ae37ef11b136ea224fe,,,,,,,,,268,50.1328125,-21.53125,1,0,0,response3disk,,5,6.96484375,-6.984375,1,0,0,rectangle,6.96484375,-6.984375,1,0,0,6.96484375,-6.984375,1,0,0,0,124,124,108,1,,,,,,,,
,,,,,,,,,,,,,FF,,,,,,,,1.4669,,,,,,,,,,,,,,,,,,,,,,6103502ca40f5c646cf623ff,61036985047d57234b058b69,2021-07-29_20h01.40.315,Simcolourproject_2stim_asymm_v5,2020.2.10,MacIntel,60,61025ae37ef11b136ea224fe,,,,,,,,,949,-47.09765625,-29.6875,1,0,0,response5disk,,2,-13.0078125,-15.21484375,1,0,0,rectangle,-13.0078125,-15.21484375,1,0,0,-13.0078125,-15.21484375,1,0,0,0,125,125,63,1,,,,,,,,
,,,,,,,,,,,,,FF,,,,,,,,0.7156,,,,,,,,,,,,,,,,,,,,,,6103502ca40f5c646cf623ff,61036985047d57234b058b69,2021-07-29_20h01.40.315,Simcolourproject_2stim_asymm_v5,2020.2.10,MacIntel,60,61025ae37ef11b136ea224fe,,,,,,,,,3021,54.46484375,-30.953125,1,0,0,response3disk,,5,7.83203125,-5.0625,1,0,0,rectangle,7.83203125,-5.0625,1,0,0,7.83203125,-5.0625,1,0,0,0,126,126,158,1,,,,,,,,
,,,,,,,,,,,,,FF,,,,,,,,1.1828,,,,,,,,,,,,,,,,,,,,,,6103502ca40f5c646cf623ff,61036985047d57234b058b69,2021-07-29_20h01.40.315,Simcolourproject_2stim_asymm_v5,2020.2.10,MacIntel,60,61025ae37ef11b136ea224fe,,,,,,,,,694,20.05078125,-39.61328125,1,0,0,response3disk,,4,16.09765625,-9.6328125,1,0,0,rectangle,16.09765625,-9.6328125,1,0,0,16.09765625,-9.6328125,1,0,0,0,127,127,146,1,,,,,,,,
,,,,,,,,,,,,,FF,,,,,,,,0.652,,,,,,,,,,,,,,,,,,,,,,6103502ca40f5c646cf623ff,61036985047d57234b058b69,2021-07-29_20h01.40.315,Simcolourproject_2stim_asymm_v5,2020.2.10,MacIntel,60,61025ae37ef11b136ea224fe,,,,,,,,,3757,26.38671875,-44.234375,1,0,0,response3disk,,4,24.15234375,-14.609375,1,0,0,rectangle,24.15234375,-14.609375,1,0,0,24.15234375,-14.609375,1,0,0,0,128,128,130,1,,,,,,,,
,,,,,,,,,,,,,FF,,,,,,,,0.6341,,,,,,,,,,,,,,,,,,,,,,6103502ca40f5c646cf623ff,61036985047d57234b058b69,2021-07-29_20h01.40.315,Simcolourproject_2stim_asymm_v5,2020.2.10,MacIntel,60,61025ae37ef11b136ea224fe,,,,,,,,,2594,44.75390625,-27.54296875,1,0,0,response3disk,,5,7.15625,-6.96484375,1,0,0,rectangle,7.15625,-6.96484375,1,0,0,7.15625,-6.96484375,1,0,0,0,129,129,150,1,,,,,,,,
,,,,,,,,,,,,,FF,,,,,,,,0.9513,,,,,,,,,,,,,,,,,,,,,,6103502ca40f5c646cf623ff,61036985047d57234b058b69,2021-07-29_20h01.40.315,Simcolourproject_2stim_asymm_v5,2020.2.10,MacIntel,60,61025ae37ef11b136ea224fe,,,,,,,,,1037,44.22265625,-25.9375,1,0,0,response3disk,,5,4.859375,-9.3125,1,0,0,rectangle,4.859375,-9.3125,1,0,0,4.859375,-9.3125,1,0,0,0,130,130,122,1,,,,,,,,
,,,,,,,,,,,,,FF,,,,,,,,0.9008,,,,,,,,,,,,,,,,,,,,,,6103502ca40f5c646cf623ff,61036985047d57234b058b69,2021-07-29_20h01.40.315,Simcolourproject_2stim_asymm_v5,2020.2.10,MacIntel,60,61025ae37ef11b136ea224fe,,,,,,,,,3577,53.828125,-32.02734375,1,0,0,response3disk,,5,-1.40625,-12.73046875,1,0,0,rectangle,-1.40625,-12.73046875,1,0,0,-1.40625,-12.73046875,1,0,0,0,131,131,18,1,,,,,,,,
,,,,,,,,,,,,,FF,,,,,,,,0.6331,,,,,,,,,,,,,,,,,,,,,,6103502ca40f5c646cf623ff,61036985047d57234b058b69,2021-07-29_20h01.40.315,Simcolourproject_2stim_asymm_v5,2020.2.10,MacIntel,60,61025ae37ef11b136ea224fe,,,,,,,,,1781,-14.4921875,-34.48828125,1,0,0,response5disk,,3,-2.0390625,0.7890625,1,0,0,rectangle,-2.0390625,0.7890625,1,0,0,-2.0390625,0.7890625,1,0,0,0,132,132,51,1,,,,,,,,
,,,,,,,,,,,,,FF,,,,,,,,0.7835,,,,,,,,,,,,,,,,,,,,,,6103502ca40f5c646cf623ff,61036985047d57234b058b69,2021-07-29_20h01.40.315,Simcolourproject_2stim_asymm_v5,2020.2.10,MacIntel,60,61025ae37ef11b136ea224fe,,,,,,,,,2260,20.203125,-32.50390625,1,0,0,response3disk,,4,6.71875,8.72265625,1,0,0,rectangle,6.71875,8.72265625,1,0,0,6.71875,8.72265625,1,0,0,0,133,133,116,1,,,,,,,,
,,,,,,,,,,,,,FF,,,,,,,,1.4516,,,,,,,,,,,,,,,,,,,,,,6103502ca40f5c646cf623ff,61036985047d57234b058b69,2021-07-29_20h01.40.315,Simcolourproject_2stim_asymm_v5,2020.2.10,MacIntel,60,61025ae37ef11b136ea224fe,,,,,,,,,3009,26.234375,-34.0703125,1,0,0,response3disk,,4,2.54296875,0.75390625,1,0,0,rectangle,2.54296875,0.75390625,1,0,0,2.54296875,0.75390625,1,0,0,0,134,134,43,1,,,,,,,,
,,,,,,,,,,,,,FF,,,,,,,,0.8507,,,,,,,,,,,,,,,,,,,,,,6103502ca40f5c646cf623ff,61036985047d57234b058b69,2021-07-29_20h01.40.315,Simcolourproject_2stim_asymm_v5,2020.2.10,MacIntel,60,61025ae37ef11b136ea224fe,,,,,,,,,301,65.13671875,15.74609375,1,0,0,response1disk,,6,14.01171875,8.40625,1,0,0,rectangle,14.01171875,8.40625,1,0,0,14.01171875,8.40625,1,0,0,0,135,135,95,1,,,,,,,,
,,,,,,,,,,,,,FF,,,,,,,,1.0839,,,,,,,,,,,,,,,,,,,,,,6103502ca40f5c646cf623ff,61036985047d57234b058b69,2021-07-29_20h01.40.315,Simcolourproject_2stim_asymm_v5,2020.2.10,MacIntel,60,61025ae37ef11b136ea224fe,,,,,,,,,3114,-34.88671875,-38.51171875,1,0,0,response5disk,,3,5.88671875,-2.12890625,1,0,0,rectangle,5.88671875,-2.12890625,1,0,0,5.88671875,-2.12890625,1,0,0,0,136,136,74,1,,,,,,,,
,,,,,,,,,,,,,FF,,,,,,,,0.5688,,,,,,,,,,,,,,,,,,,,,,6103502ca40f5c646cf623ff,61036985047d57234b058b69,2021-07-29_20h01.40.315,Simcolourproject_2stim_asymm_v5,2020.2.10,MacIntel,60,61025ae37ef11b136ea224fe,,,,,,,,,1644,49.7734375,-22.52734375,1,0,0,response3disk,,5,7.2890625,-4.41015625,1,0,0,rectangle,7.2890625,-4.41015625,1,0,0,7.2890625,-4.41015625,1,0,0,0,137,137,138,1,,,,,,,,
,,,,,,,,,,,,,FF,,,,,,,,0.7158,,,,,,,,,,,,,,,,,,,,,,6103502ca40f5c646cf623ff,61036985047d57234b058b69,2021-07-29_20h01.40.315,Simcolourproject_2stim_asymm_v5,2020.2.10,MacIntel,60,61025ae37ef11b136ea224fe,,,,,,,,,1494,51.44140625,24.44140625,1,0,0,response1disk,,6,-3.8671875,16,1,0,0,rectangle,-3.8671875,16,1,0,0,-3.8671875,16,1,0,0,0,138,138,77,1,,,,,,,,
,,,,,,,,,,,,,FF,,,,,,,,1.6682,,,,,,,,,,,,,,,,,,,,,,6103502ca40f5c646cf623ff,61036985047d57234b058b69,2021-07-29_20h01.40.315,Simcolourproject_2stim_asymm_v5,2020.2.10,MacIntel,60,61025ae37ef11b136ea224fe,,,,,,,,,2078,54.72265625,-20.21875,1,0,0,response3disk,,5,-0.71875,-6.41015625,1,0,0,rectangle,-0.71875,-6.41015625,1,0,0,-0.71875,-6.41015625,1,0,0,0,139,139,127,1,,,,,,,,
,,,,,,,,,,,,,FF,,,,,,,,0.9827,,,,,,,,,,,,,,,,,,,,,,6103502ca40f5c646cf623ff,61036985047d57234b058b69,2021-07-29_20h01.40.315,Simcolourproject_2stim_asymm_v5,2020.2.10,MacIntel,60,61025ae37ef11b136ea224fe,,,,,,,,,3522,74.453125,-34.859375,1,0,0,response3disk,,5,6.5625,-4.63671875,1,0,0,rectangle,6.5625,-4.63671875,1,0,0,6.5625,-4.63671875,1,0,0,0,140,140,58,1,,,,,,,,
,,,,,,,,,,,,,FF,,,,,,,,0.8833,,,,,,,,,,,,,,,,,,,,,,6103502ca40f5c646cf623ff,61036985047d57234b058b69,2021-07-29_20h01.40.315,Simcolourproject_2stim_asymm_v5,2020.2.10,MacIntel,60,61025ae37ef11b136ea224fe,,,,,,,,,1299,-29.94921875,-19.3515625,1,0,0,response5disk,,2,5.19140625,-10.05078125,1,0,0,rectangle,5.19140625,-10.05078125,1,0,0,5.19140625,-10.05078125,1,0,0,0,141,141,112,1,,,,,,,,
,,,,,,,,,,,,,FF,,,,,,,,1.2655,,,,,,,,,,,,,,,,,,,,,,6103502ca40f5c646cf623ff,61036985047d57234b058b69,2021-07-29_20h01.40.315,Simcolourproject_2stim_asymm_v5,2020.2.10,MacIntel,60,61025ae37ef11b136ea224fe,,,,,,,,,1783,63.96875,33.75,1,0,0,response1disk,,6,4.953125,1.9453125,1,0,0,rectangle,4.953125,1.9453125,1,0,0,4.953125,1.9453125,1,0,0,0,142,142,114,1,,,,,,,,
,,,,,,,,,,,,,FF,,,,,,,,1.0164,,,,,,,,,,,,,,,,,,,,,,6103502ca40f5c646cf623ff,61036985047d57234b058b69,2021-07-29_20h01.40.315,Simcolourproject_2stim_asymm_v5,2020.2.10,MacIntel,60,61025ae37ef11b136ea224fe,,,,,,,,,1758,-41.52734375,-19.4765625,1,0,0,response5disk,,2,8.73046875,-9.9296875,1,0,0,rectangle,20.83203125,46.1484375,1,0,0,6.109375,-0.95703125,1,0,0,0,143,143,60,1,,response1disk_3,TRUE,7,7,"[276,271,188,80,47,144,94,288,79,36,172,47,18,91,305,266,210,14,19,76]",1.6159,rectangle
,,,,,,,,,,,,,FF,,,,,,,,4.6183,,,,,,,,,,,,,,,,,,,,,,6103502ca40f5c646cf623ff,61036985047d57234b058b69,2021-07-29_20h01.40.315,Simcolourproject_2stim_asymm_v5,2020.2.10,MacIntel,60,61025ae37ef11b136ea224fe,,,,,,,,,854,41.55078125,11.98046875,1,0,0,response1disk,,6,7.06640625,-14.03125,1,0,0,rectangle,7.06640625,-14.03125,1,0,0,7.06640625,-14.03125,1,0,0,0,144,144,4,1,,,,,,,,
,,,,,,,,,,,,,FF,,,,,,,,1.0476,,,,,,,,,,,,,,,,,,,,,,6103502ca40f5c646cf623ff,61036985047d57234b058b69,2021-07-29_20h01.40.315,Simcolourproject_2stim_asymm_v5,2020.2.10,MacIntel,60,61025ae37ef11b136ea224fe,,,,,,,,,3636,13.609375,-29.00390625,1,0,0,response3disk,,4,7.41796875,1.42578125,1,0,0,rectangle,7.41796875,1.42578125,1,0,0,7.41796875,1.42578125,1,0,0,0,145,145,52,1,,,,,,,,
,,,,,,,,,,,,,FF,,,,,,,,0.8541,,,,,,,,,,,,,,,,,,,,,,6103502ca40f5c646cf623ff,61036985047d57234b058b69,2021-07-29_20h01.40.315,Simcolourproject_2stim_asymm_v5,2020.2.10,MacIntel,60,61025ae37ef11b136ea224fe,,,,,,,,,4283,-16.68359375,-42.515625,1,0,0,response5disk,,3,-7.7734375,-5.68359375,1,0,0,rectangle,-7.7734375,-5.68359375,1,0,0,-7.7734375,-5.68359375,1,0,0,0,146,146,120,1,,,,,,,,
,,,,,,,,,,,,,FF,,,,,,,,0.7307,,,,,,,,,,,,,,,,,,,,,,6103502ca40f5c646cf623ff,61036985047d57234b058b69,2021-07-29_20h01.40.315,Simcolourproject_2stim_asymm_v5,2020.2.10,MacIntel,60,61025ae37ef11b136ea224fe,,,,,,,,,1830,-35.12109375,-64.23046875,1,0,0,response5disk,,3,-9.703125,-16.40625,1,0,0,rectangle,-9.703125,-16.40625,1,0,0,-9.703125,-16.40625,1,0,0,0,147,147,61,1,,,,,,,,
,,,,,,,,,,,,,FF,,,,,,,,0.6482,,,,,,,,,,,,,,,,,,,,,,6103502ca40f5c646cf623ff,61036985047d57234b058b69,2021-07-29_20h01.40.315,Simcolourproject_2stim_asymm_v5,2020.2.10,MacIntel,60,61025ae37ef11b136ea224fe,,,,,,,,,1886,-18.6484375,53.87890625,1,0,0,response7disk,,0,-5.83984375,7.6171875,1,0,0,rectangle,-5.83984375,7.6171875,1,0,0,-5.83984375,7.6171875,1,0,0,0,148,148,115,1,,,,,,,,
,,,,,,,,,,,,,FF,,,,,,,,0.8155,,,,,,,,,,,,,,,,,,,,,,6103502ca40f5c646cf623ff,61036985047d57234b058b69,2021-07-29_20h01.40.315,Simcolourproject_2stim_asymm_v5,2020.2.10,MacIntel,60,61025ae37ef11b136ea224fe,,,,,,,,,1780,46.54296875,12.38671875,1,0,0,response1disk,,6,12.67578125,-9.78125,1,0,0,rectangle,12.67578125,-9.78125,1,0,0,12.67578125,-9.78125,1,0,0,0,149,149,54,1,,,,,,,,
,,,,,,,,,,,,,FF,,,,,,,,1.3013,,,,,,,,,,,,,,,,,,,,,,6103502ca40f5c646cf623ff,61036985047d57234b058b69,2021-07-29_20h01.40.315,Simcolourproject_2stim_asymm_v5,2020.2.10,MacIntel,60,61025ae37ef11b136ea224fe,,,,,,,,,3691,-21.7109375,-44.328125,1,0,0,response5disk,,3,-5.9296875,-11.42578125,1,0,0,rectangle,-5.9296875,-11.42578125,1,0,0,-5.9296875,-11.42578125,1,0,0,0,150,150,136,1,,,,,,,,
,,,,,,,,,,,,,FF,,,,,,,,0.5698,,,,,,,,,,,,,,,,,,,,,,6103502ca40f5c646cf623ff,61036985047d57234b058b69,2021-07-29_20h01.40.315,Simcolourproject_2stim_asymm_v5,2020.2.10,MacIntel,60,61025ae37ef11b136ea224fe,,,,,,,,,3140,-27.984375,-55.609375,1,0,0,response5disk,,3,-9.28515625,-16.39453125,1,0,0,rectangle,-9.28515625,-16.39453125,1,0,0,-9.28515625,-16.39453125,1,0,0,0,151,151,27,1,,,,,,,,
,,,,,,,,,,,,,FF,,,,,,,,1.0157,,,,,,,,,,,,,,,,,,,,,,6103502ca40f5c646cf623ff,61036985047d57234b058b69,2021-07-29_20h01.40.315,Simcolourproject_2stim_asymm_v5,2020.2.10,MacIntel,60,61025ae37ef11b136ea224fe,,,,,,,,,571,21.05859375,-39.53515625,1,0,0,response3disk,,4,-4.2890625,0.7890625,1,0,0,rectangle,-4.2890625,0.7890625,1,0,0,-4.2890625,0.7890625,1,0,0,0,152,152,83,1,,,,,,,,
,,,,,,,,,,,,,FF,,,,,,,,0.8168,,,,,,,,,,,,,,,,,,,,,,6103502ca40f5c646cf623ff,61036985047d57234b058b69,2021-07-29_20h01.40.315,Simcolourproject_2stim_asymm_v5,2020.2.10,MacIntel,60,61025ae37ef11b136ea224fe,,,,,,,,,1495,52.40625,14.05078125,1,0,0,response1disk,,6,10.61328125,10.13671875,1,0,0,rectangle,10.61328125,10.13671875,1,0,0,10.61328125,10.13671875,1,0,0,0,153,153,30,1,,,,,,,,
,,,,,,,,,,,,,FF,,,,,,,,1.9851,,,,,,,,,,,,,,,,,,,,,,6103502ca40f5c646cf623ff,61036985047d57234b058b69,2021-07-29_20h01.40.315,Simcolourproject_2stim_asymm_v5,2020.2.10,MacIntel,60,61025ae37ef11b136ea224fe,,,,,,,,,4029,43.640625,-27.765625,1,0,0,response3disk,,5,-21.48046875,-11.23046875,1,0,0,rectangle,-21.48046875,-11.23046875,1,0,0,-21.48046875,-11.23046875,1,0,0,0,154,154,26,1,,,,,,,,
,,,,,,,,,,,,,FF,,,,,,,,1.3334,,,,,,,,,,,,,,,,,,,,,,6103502ca40f5c646cf623ff,61036985047d57234b058b69,2021-07-29_20h01.40.315,Simcolourproject_2stim_asymm_v5,2020.2.10,MacIntel,60,61025ae37ef11b136ea224fe,,,,,,,,,365,60.3828125,-17.37109375,1,0,0,response3disk,,5,8.72265625,-12.984375,1,0,0,rectangle,8.72265625,-12.984375,1,0,0,8.72265625,-12.984375,1,0,0,0,155,155,142,1,,,,,,,,
,,,,,,,,,,,,,FF,,,,,,,,0.8503,,,,,,,,,,,,,,,,,,,,,,6103502ca40f5c646cf623ff,61036985047d57234b058b69,2021-07-29_20h01.40.315,Simcolourproject_2stim_asymm_v5,2020.2.10,MacIntel,60,61025ae37ef11b136ea224fe,,,,,,,,,2859,46.69921875,16.9375,1,0,0,response1disk,,6,10.3984375,3.54296875,1,0,0,rectangle,10.3984375,3.54296875,1,0,0,10.3984375,3.54296875,1,0,0,0,156,156,12,1,,,,,,,,
,,,,,,,,,,,,,FF,,,,,,,,1.6178,,,,,,,,,,,,,,,,,,,,,,6103502ca40f5c646cf623ff,61036985047d57234b058b69,2021-07-29_20h01.40.315,Simcolourproject_2stim_asymm_v5,2020.2.10,MacIntel,60,61025ae37ef11b136ea224fe,,,,,,,,,3372,55.09765625,-29.48046875,1,0,0,response3disk,,5,10.4765625,-16.86328125,1,0,0,rectangle,10.4765625,-16.86328125,1,0,0,10.4765625,-16.86328125,1,0,0,0,157,157,148,1,,,,,,,,
,,,,,,,,,,,,,FF,,,,,,,,1.485,,,,,,,,,,,,,,,,,,,,,,6103502ca40f5c646cf623ff,61036985047d57234b058b69,2021-07-29_20h01.40.315,Simcolourproject_2stim_asymm_v5,2020.2.10,MacIntel,60,61025ae37ef11b136ea224fe,,,,,,,,,3753,-36.03515625,-27.39453125,1,0,0,response5disk,,2,4.8125,-3.28125,1,0,0,rectangle,4.8125,-3.28125,1,0,0,4.8125,-3.28125,1,0,0,0,158,158,20,1,,,,,,,,
,,,,,,,,,,,,,FF,,,,,,,,0.6843,,,,,,,,,,,,,,,,,,,,,,6103502ca40f5c646cf623ff,61036985047d57234b058b69,2021-07-29_20h01.40.315,Simcolourproject_2stim_asymm_v5,2020.2.10,MacIntel,60,61025ae37ef11b136ea224fe,,,,,,,,,1051,-16.95703125,32.24609375,1,0,0,response7disk,,0,0.421875,-0.64453125,1,0,0,rectangle,0.421875,-0.64453125,1,0,0,0.421875,-0.64453125,1,0,0,0,159,159,137,1,,,,,,,,
,,,,,,,,,,,,,FF,,,,,,,,1.9168,,,,,,,,,,,,,,,,,,,,,,6103502ca40f5c646cf623ff,61036985047d57234b058b69,2021-07-29_20h01.40.315,Simcolourproject_2stim_asymm_v5,2020.2.10,MacIntel,60,61025ae37ef11b136ea224fe,,,,,,,,,987,29.671875,-61.66015625,1,0,0,response3disk,,4,8.2890625,-7.16015625,1,0,0,rectangle,8.2890625,-7.16015625,1,0,0,8.2890625,-7.16015625,1,0,0,1,0,160,96,1,,,,,,,,
,,,,,,,,,,,,,FF,,,,,,,,1.0832,,,,,,,,,,,,,,,,,,,,,,6103502ca40f5c646cf623ff,61036985047d57234b058b69,2021-07-29_20h01.40.315,Simcolourproject_2stim_asymm_v5,2020.2.10,MacIntel,60,61025ae37ef11b136ea224fe,,,,,,,,,3416,42.08203125,17.11328125,1,0,0,response1disk,,6,-0.6796875,11.48828125,1,0,0,rectangle,-0.6796875,11.48828125,1,0,0,-0.6796875,11.48828125,1,0,0,1,1,161,138,1,,,,,,,,
,,,,,,,,,,,,,FF,,,,,,,,0.6649,,,,,,,,,,,,,,,,,,,,,,6103502ca40f5c646cf623ff,61036985047d57234b058b69,2021-07-29_20h01.40.315,Simcolourproject_2stim_asymm_v5,2020.2.10,MacIntel,60,61025ae37ef11b136ea224fe,,,,,,,,,3705,-23.39453125,47.59765625,1,0,0,response7disk,,0,-8.87890625,5.48828125,1,0,0,rectangle,-8.87890625,5.48828125,1,0,0,-8.87890625,5.48828125,1,0,0,1,2,162,23,1,,,,,,,,
,,,,,,,,,,,,,FF,,,,,,,,1.6334,,,,,,,,,,,,,,,,,,,,,,6103502ca40f5c646cf623ff,61036985047d57234b058b69,2021-07-29_20h01.40.315,Simcolourproject_2stim_asymm_v5,2020.2.10,MacIntel,60,61025ae37ef11b136ea224fe,,,,,,,,,2570,51.55859375,-33.51171875,1,0,0,response3disk,,5,-1.5703125,-15.40234375,1,0,0,rectangle,-1.5703125,-15.40234375,1,0,0,-1.5703125,-15.40234375,1,0,0,1,3,163,16,1,,,,,,,,
,,,,,,,,,,,,,FF,,,,,,,,0.8675,,,,,,,,,,,,,,,,,,,,,,6103502ca40f5c646cf623ff,61036985047d57234b058b69,2021-07-29_20h01.40.315,Simcolourproject_2stim_asymm_v5,2020.2.10,MacIntel,60,61025ae37ef11b136ea224fe,,,,,,,,,2029,-36.6015625,-15.25390625,1,0,0,response5disk,,2,-7.07421875,-1.171875,1,0,0,rectangle,-7.07421875,-1.171875,1,0,0,-7.07421875,-1.171875,1,0,0,1,4,164,17,1,,,,,,,,
,,,,,,,,,,,,,FF,,,,,,,,0.7832,,,,,,,,,,,,,,,,,,,,,,6103502ca40f5c646cf623ff,61036985047d57234b058b69,2021-07-29_20h01.40.315,Simcolourproject_2stim_asymm_v5,2020.2.10,MacIntel,60,61025ae37ef11b136ea224fe,,,,,,,,,1227,-23.40234375,-38.8203125,1,0,0,response5disk,,3,-18.2109375,-6.67578125,1,0,0,rectangle,-18.2109375,-6.67578125,1,0,0,-18.2109375,-6.67578125,1,0,0,1,5,165,55,1,,,,,,,,
,,,,,,,,,,,,,FF,,,,,,,,1.1018,,,,,,,,,,,,,,,,,,,,,,6103502ca40f5c646cf623ff,61036985047d57234b058b69,2021-07-29_20h01.40.315,Simcolourproject_2stim_asymm_v5,2020.2.10,MacIntel,60,61025ae37ef11b136ea224fe,,,,,,,,,2731,-27.69921875,-25.45703125,1,0,0,response5disk,,2,0.53125,-5.37890625,1,0,0,rectangle,0.53125,-5.37890625,1,0,0,0.53125,-5.37890625,1,0,0,1,6,166,74,1,,,,,,,,
,,,,,,,,,,,,,FF,,,,,,,,0.8748,,,,,,,,,,,,,,,,,,,,,,6103502ca40f5c646cf623ff,61036985047d57234b058b69,2021-07-29_20h01.40.315,Simcolourproject_2stim_asymm_v5,2020.2.10,MacIntel,60,61025ae37ef11b136ea224fe,,,,,,,,,76,-17.81640625,-35.03125,1,0,0,response5disk,,3,-15.6796875,-12.59375,1,0,0,rectangle,-15.6796875,-12.59375,1,0,0,-15.6796875,-12.59375,1,0,0,1,7,167,130,1,,,,,,,,
,,,,,,,,,,,,,FF,,,,,,,,1.0339,,,,,,,,,,,,,,,,,,,,,,6103502ca40f5c646cf623ff,61036985047d57234b058b69,2021-07-29_20h01.40.315,Simcolourproject_2stim_asymm_v5,2020.2.10,MacIntel,60,61025ae37ef11b136ea224fe,,,,,,,,,3990,23.7421875,-44.7265625,1,0,0,response3disk,,4,4.02734375,-9.09375,1,0,0,rectangle,4.02734375,-9.09375,1,0,0,4.02734375,-9.09375,1,0,0,1,8,168,135,1,,,,,,,,
,,,,,,,,,,,,,FF,,,,,,,,1.0654,,,,,,,,,,,,,,,,,,,,,,6103502ca40f5c646cf623ff,61036985047d57234b058b69,2021-07-29_20h01.40.315,Simcolourproject_2stim_asymm_v5,2020.2.10,MacIntel,60,61025ae37ef11b136ea224fe,,,,,,,,,2393,50.28125,12.2109375,1,0,0,response1disk,,6,14.1171875,8.90234375,1,0,0,rectangle,14.1171875,8.90234375,1,0,0,14.1171875,8.90234375,1,0,0,1,9,169,12,1,,,,,,,,
,,,,,,,,,,,,,FF,,,,,,,,0.6355,,,,,,,,,,,,,,,,,,,,,,6103502ca40f5c646cf623ff,61036985047d57234b058b69,2021-07-29_20h01.40.315,Simcolourproject_2stim_asymm_v5,2020.2.10,MacIntel,60,61025ae37ef11b136ea224fe,,,,,,,,,341,45.42578125,-14.42578125,1,0,0,response3disk,,5,11.82421875,-4.390625,1,0,0,rectangle,11.82421875,-4.390625,1,0,0,11.82421875,-4.390625,1,0,0,1,10,170,57,1,,,,,,,,
,,,,,,,,,,,,,FF,,,,,,,,0.9498,,,,,,,,,,,,,,,,,,,,,,6103502ca40f5c646cf623ff,61036985047d57234b058b69,2021-07-29_20h01.40.315,Simcolourproject_2stim_asymm_v5,2020.2.10,MacIntel,60,61025ae37ef11b136ea224fe,,,,,,,,,1866,28.8671875,47.0625,1,0,0,response1disk,,7,12.2421875,11.76171875,1,0,0,rectangle,-54.85546875,-24.96484375,1,0,0,-7.84375,3.61328125,1,0,0,1,11,171,92,1,,response5disk_3,TRUE,2,2,"[276,271,188,80,47,144,94,288,79,36,172,47,18,91,305,266,210,14,19,76]",1.3849,rectangle
,,,,,,,,,,,,,FF,,,,,,,,4.1825,,,,,,,,,,,,,,,,,,,,,,6103502ca40f5c646cf623ff,61036985047d57234b058b69,2021-07-29_20h01.40.315,Simcolourproject_2stim_asymm_v5,2020.2.10,MacIntel,60,61025ae37ef11b136ea224fe,,,,,,,,,2925,36.390625,-28.51953125,1,0,0,response3disk,,5,-12.91796875,-7.546875,1,0,0,rectangle,-12.91796875,-7.546875,1,0,0,-12.91796875,-7.546875,1,0,0,1,12,172,114,1,,,,,,,,
,,,,,,,,,,,,,FF,,,,,,,,0.5329,,,,,,,,,,,,,,,,,,,,,,6103502ca40f5c646cf623ff,61036985047d57234b058b69,2021-07-29_20h01.40.315,Simcolourproject_2stim_asymm_v5,2020.2.10,MacIntel,60,61025ae37ef11b136ea224fe,,,,,,,,,491,35.24609375,-24.4375,1,0,0,response3disk,,5,16.17578125,-14.5859375,1,0,0,rectangle,16.17578125,-14.5859375,1,0,0,16.17578125,-14.5859375,1,0,0,1,13,173,107,1,,,,,,,,
,,,,,,,,,,,,,FF,,,,,,,,0.7998,,,,,,,,,,,,,,,,,,,,,,6103502ca40f5c646cf623ff,61036985047d57234b058b69,2021-07-29_20h01.40.315,Simcolourproject_2stim_asymm_v5,2020.2.10,MacIntel,60,61025ae37ef11b136ea224fe,,,,,,,,,1586,15.69140625,-35.7734375,1,0,0,response3disk,,4,7.03125,-4.69140625,1,0,0,rectangle,7.03125,-4.69140625,1,0,0,7.03125,-4.69140625,1,0,0,1,14,174,70,1,,,,,,,,
,,,,,,,,,,,,,FF,,,,,,,,0.7166,,,,,,,,,,,,,,,,,,,,,,6103502ca40f5c646cf623ff,61036985047d57234b058b69,2021-07-29_20h01.40.315,Simcolourproject_2stim_asymm_v5,2020.2.10,MacIntel,60,61025ae37ef11b136ea224fe,,,,,,,,,1345,43.5859375,-20.78125,1,0,0,response3disk,,5,16.09375,-12.98828125,1,0,0,rectangle,16.09375,-12.98828125,1,0,0,16.09375,-12.98828125,1,0,0,1,15,175,35,1,,,,,,,,
,,,,,,,,,,,,,FF,,,,,,,,1.9376,,,,,,,,,,,,,,,,,,,,,,6103502ca40f5c646cf623ff,61036985047d57234b058b69,2021-07-29_20h01.40.315,Simcolourproject_2stim_asymm_v5,2020.2.10,MacIntel,60,61025ae37ef11b136ea224fe,,,,,,,,,389,17.57421875,-39.2578125,1,0,0,response3disk,,4,10.02734375,-3.53125,1,0,0,rectangle,10.02734375,-3.53125,1,0,0,10.02734375,-3.53125,1,0,0,1,16,176,51,1,,,,,,,,
,,,,,,,,,,,,,FF,,,,,,,,0.6497,,,,,,,,,,,,,,,,,,,,,,6103502ca40f5c646cf623ff,61036985047d57234b058b69,2021-07-29_20h01.40.315,Simcolourproject_2stim_asymm_v5,2020.2.10,MacIntel,60,61025ae37ef11b136ea224fe,,,,,,,,,1021,51.234375,26.078125,1,0,0,response1disk,,6,-2.515625,11.6015625,1,0,0,rectangle,-2.515625,11.6015625,1,0,0,-2.515625,11.6015625,1,0,0,1,17,177,111,1,,,,,,,,
,,,,,,,,,,,,,FF,,,,,,,,0.9129,,,,,,,,,,,,,,,,,,,,,,6103502ca40f5c646cf623ff,61036985047d57234b058b69,2021-07-29_20h01.40.315,Simcolourproject_2stim_asymm_v5,2020.2.10,MacIntel,60,61025ae37ef11b136ea224fe,,,,,,,,,1751,-24.15625,-35.76953125,1,0,0,response5disk,,3,-6.4453125,-3.38671875,1,0,0,rectangle,-6.4453125,-3.38671875,1,0,0,-6.4453125,-3.38671875,1,0,0,1,18,178,142,1,,,,,,,,
,,,,,,,,,,,,,FF,,,,,,,,0.7841,,,,,,,,,,,,,,,,,,,,,,6103502ca40f5c646cf623ff,61036985047d57234b058b69,2021-07-29_20h01.40.315,Simcolourproject_2stim_asymm_v5,2020.2.10,MacIntel,60,61025ae37ef11b136ea224fe,,,,,,,,,682,23.47265625,-46.6640625,1,0,0,response3disk,,4,12.36328125,-8.9921875,1,0,0,rectangle,12.36328125,-8.9921875,1,0,0,12.36328125,-8.9921875,1,0,0,1,19,179,131,1,,,,,,,,
,,,,,,,,,,,,,FF,,,,,,,,0.9168,,,,,,,,,,,,,,,,,,,,,,6103502ca40f5c646cf623ff,61036985047d57234b058b69,2021-07-29_20h01.40.315,Simcolourproject_2stim_asymm_v5,2020.2.10,MacIntel,60,61025ae37ef11b136ea224fe,,,,,,,,,895,-23.22265625,-46.54296875,1,0,0,response5disk,,3,2.20703125,5.3203125,1,0,0,rectangle,2.20703125,5.3203125,1,0,0,2.20703125,5.3203125,1,0,0,1,20,180,29,1,,,,,,,,
,,,,,,,,,,,,,FF,,,,,,,,0.7154,,,,,,,,,,,,,,,,,,,,,,6103502ca40f5c646cf623ff,61036985047d57234b058b69,2021-07-29_20h01.40.315,Simcolourproject_2stim_asymm_v5,2020.2.10,MacIntel,60,61025ae37ef11b136ea224fe,,,,,,,,,741,45.87890625,-26.515625,1,0,0,response3disk,,5,5.25,-3.01953125,1,0,0,rectangle,5.25,-3.01953125,1,0,0,5.25,-3.01953125,1,0,0,1,21,181,82,1,,,,,,,,
,,,,,,,,,,,,,FF,,,,,,,,0.6325,,,,,,,,,,,,,,,,,,,,,,6103502ca40f5c646cf623ff,61036985047d57234b058b69,2021-07-29_20h01.40.315,Simcolourproject_2stim_asymm_v5,2020.2.10,MacIntel,60,61025ae37ef11b136ea224fe,,,,,,,,,3945,37.71875,-18.62109375,1,0,0,response3disk,,5,-1.2734375,-15.57421875,1,0,0,rectangle,-1.2734375,-15.57421875,1,0,0,-1.2734375,-15.57421875,1,0,0,1,22,182,34,1,,,,,,,,
,,,,,,,,,,,,,FF,,,,,,,,0.7332,,,,,,,,,,,,,,,,,,,,,,6103502ca40f5c646cf623ff,61036985047d57234b058b69,2021-07-29_20h01.40.315,Simcolourproject_2stim_asymm_v5,2020.2.10,MacIntel,60,61025ae37ef11b136ea224fe,,,,,,,,,1120,25.87109375,-49.703125,1,0,0,response3disk,,4,9.34375,-9.58203125,1,0,0,rectangle,9.34375,-9.58203125,1,0,0,9.34375,-9.58203125,1,0,0,1,23,183,32,1,,,,,,,,
,,,,,,,,,,,,,FF,,,,,,,,0.6675,,,,,,,,,,,,,,,,,,,,,,6103502ca40f5c646cf623ff,61036985047d57234b058b69,2021-07-29_20h01.40.315,Simcolourproject_2stim_asymm_v5,2020.2.10,MacIntel,60,61025ae37ef11b136ea224fe,,,,,,,,,2492,47.10546875,-30.05859375,1,0,0,response3disk,,5,14.09375,-17.796875,1,0,0,rectangle,14.09375,-17.796875,1,0,0,14.09375,-17.796875,1,0,0,1,24,184,99,1,,,,,,,,
,,,,,,,,,,,,,FF,,,,,,,,0.818,,,,,,,,,,,,,,,,,,,,,,6103502ca40f5c646cf623ff,61036985047d57234b058b69,2021-07-29_20h01.40.315,Simcolourproject_2stim_asymm_v5,2020.2.10,MacIntel,60,61025ae37ef11b136ea224fe,,,,,,,,,1231,45.265625,14.9765625,1,0,0,response1disk,,6,6.92578125,5.84765625,1,0,0,rectangle,6.92578125,5.84765625,1,0,0,6.92578125,5.84765625,1,0,0,1,25,185,146,1,,,,,,,,
,,,,,,,,,,,,,FF,,,,,,,,0.798,,,,,,,,,,,,,,,,,,,,,,6103502ca40f5c646cf623ff,61036985047d57234b058b69,2021-07-29_20h01.40.315,Simcolourproject_2stim_asymm_v5,2020.2.10,MacIntel,60,61025ae37ef11b136ea224fe,,,,,,,,,2516,55.890625,27.69140625,1,0,0,response1disk,,6,0.9453125,3.54296875,1,0,0,rectangle,0.9453125,3.54296875,1,0,0,0.9453125,3.54296875,1,0,0,1,26,186,155,1,,,,,,,,
,,,,,,,,,,,,,FF,,,,,,,,0.776,,,,,,,,,,,,,,,,,,,,,,6103502ca40f5c646cf623ff,61036985047d57234b058b69,2021-07-29_20h01.40.315,Simcolourproject_2stim_asymm_v5,2020.2.10,MacIntel,60,61025ae37ef11b136ea224fe,,,,,,,,,2759,21.64453125,52.09375,1,0,0,response1disk,,7,3.22265625,9.19140625,1,0,0,rectangle,40.30859375,-51.97265625,1,0,0,18.7734375,3.84765625,1,0,0,1,27,187,87,1,,response3disk_3,TRUE,4,4,"[276,271,188,80,47,144,94,288,79,36,172,47,18,91,305,266,210,14,19,76]",1.1327,rectangle
,,,,,,,,,,,,,FF,,,,,,,,0.8656,,,,,,,,,,,,,,,,,,,,,,6103502ca40f5c646cf623ff,61036985047d57234b058b69,2021-07-29_20h01.40.315,Simcolourproject_2stim_asymm_v5,2020.2.10,MacIntel,60,61025ae37ef11b136ea224fe,,,,,,,,,2417,49.5703125,19.5546875,1,0,0,response1disk,,6,16.87109375,11.3515625,1,0,0,rectangle,16.87109375,11.3515625,1,0,0,16.87109375,11.3515625,1,0,0,1,28,188,100,1,,,,,,,,
,,,,,,,,,,,,,FF,,,,,,,,0.8151,,,,,,,,,,,,,,,,,,,,,,6103502ca40f5c646cf623ff,61036985047d57234b058b69,2021-07-29_20h01.40.315,Simcolourproject_2stim_asymm_v5,2020.2.10,MacIntel,60,61025ae37ef11b136ea224fe,,,,,,,,,878,13.19140625,49.1328125,1,0,0,response1disk,,7,-0.7890625,-7.51171875,1,0,0,rectangle,-0.7890625,-7.51171875,1,0,0,-0.7890625,-7.51171875,1,0,0,1,29,189,125,1,,,,,,,,
,,,,,,,,,,,,,FF,,,,,,,,0.8827,,,,,,,,,,,,,,,,,,,,,,6103502ca40f5c646cf623ff,61036985047d57234b058b69,2021-07-29_20h01.40.315,Simcolourproject_2stim_asymm_v5,2020.2.10,MacIntel,60,61025ae37ef11b136ea224fe,,,,,,,,,1213,-30.671875,-27.33203125,1,0,0,response5disk,,2,-5.7109375,-10.51171875,1,0,0,rectangle,-5.7109375,-10.51171875,1,0,0,-5.7109375,-10.51171875,1,0,0,1,30,190,79,1,,,,,,,,
,,,,,,,,,,,,,FF,,,,,,,,1.3838,,,,,,,,,,,,,,,,,,,,,,6103502ca40f5c646cf623ff,61036985047d57234b058b69,2021-07-29_20h01.40.315,Simcolourproject_2stim_asymm_v5,2020.2.10,MacIntel,60,61025ae37ef11b136ea224fe,,,,,,,,,3368,42.17578125,16.46484375,1,0,0,response1disk,,6,22.01953125,11.18359375,1,0,0,rectangle,22.01953125,11.18359375,1,0,0,22.01953125,11.18359375,1,0,0,1,31,191,126,1,,,,,,,,
,,,,,,,,,,,,,FF,,,,,,,,0.9156,,,,,,,,,,,,,,,,,,,,,,6103502ca40f5c646cf623ff,61036985047d57234b058b69,2021-07-29_20h01.40.315,Simcolourproject_2stim_asymm_v5,2020.2.10,MacIntel,60,61025ae37ef11b136ea224fe,,,,,,,,,3678,-11.55078125,-39.7265625,1,0,0,response5disk,,3,-1.98828125,-0.73828125,1,0,0,rectangle,-1.98828125,-0.73828125,1,0,0,-1.98828125,-0.73828125,1,0,0,1,32,192,8,1,,,,,,,,
,,,,,,,,,,,,,FF,,,,,,,,0.7666,,,,,,,,,,,,,,,,,,,,,,6103502ca40f5c646cf623ff,61036985047d57234b058b69,2021-07-29_20h01.40.315,Simcolourproject_2stim_asymm_v5,2020.2.10,MacIntel,60,61025ae37ef11b136ea224fe,,,,,,,,,3837,-25.0625,-39.1171875,1,0,0,response5disk,,3,-14.5390625,-9.1953125,1,0,0,rectangle,-14.5390625,-9.1953125,1,0,0,-14.5390625,-9.1953125,1,0,0,1,33,193,102,1,,,,,,,,
,,,,,,,,,,,,,FF,,,,,,,,1.367,,,,,,,,,,,,,,,,,,,,,,6103502ca40f5c646cf623ff,61036985047d57234b058b69,2021-07-29_20h01.40.315,Simcolourproject_2stim_asymm_v5,2020.2.10,MacIntel,60,61025ae37ef11b136ea224fe,,,,,,,,,426,48.63671875,-28.09375,1,0,0,response3disk,,5,2.59375,-6.2109375,1,0,0,rectangle,2.59375,-6.2109375,1,0,0,2.59375,-6.2109375,1,0,0,1,34,194,140,1,,,,,,,,
,,,,,,,,,,,,,FF,,,,,,,,1.3152,,,,,,,,,,,,,,,,,,,,,,6103502ca40f5c646cf623ff,61036985047d57234b058b69,2021-07-29_20h01.40.315,Simcolourproject_2stim_asymm_v5,2020.2.10,MacIntel,60,61025ae37ef11b136ea224fe,,,,,,,,,3703,67.1953125,-45.69140625,1,0,0,response3disk,,5,21.46484375,-17.56640625,1,0,0,rectangle,21.46484375,-17.56640625,1,0,0,21.46484375,-17.56640625,1,0,0,1,35,195,66,1,,,,,,,,
,,,,,,,,,,,,,FF,,,,,,,,0.8165,,,,,,,,,,,,,,,,,,,,,,6103502ca40f5c646cf623ff,61036985047d57234b058b69,2021-07-29_20h01.40.315,Simcolourproject_2stim_asymm_v5,2020.2.10,MacIntel,60,61025ae37ef11b136ea224fe,,,,,,,,,3648,33.046875,38.72265625,1,0,0,response1disk,,7,13.609375,-2.51953125,1,0,0,rectangle,13.609375,-2.51953125,1,0,0,13.609375,-2.51953125,1,0,0,1,36,196,139,1,,,,,,,,
,,,,,,,,,,,,,FF,,,,,,,,1.9337,,,,,,,,,,,,,,,,,,,,,,6103502ca40f5c646cf623ff,61036985047d57234b058b69,2021-07-29_20h01.40.315,Simcolourproject_2stim_asymm_v5,2020.2.10,MacIntel,60,61025ae37ef11b136ea224fe,,,,,,,,,1701,53.58984375,-20.828125,1,0,0,response3disk,,5,6.46875,-1.17578125,1,0,0,rectangle,6.46875,-1.17578125,1,0,0,6.46875,-1.17578125,1,0,0,1,37,197,113,1,,,,,,,,
,,,,,,,,,,,,,FF,,,,,,,,1.2532,,,,,,,,,,,,,,,,,,,,,,6103502ca40f5c646cf623ff,61036985047d57234b058b69,2021-07-29_20h01.40.315,Simcolourproject_2stim_asymm_v5,2020.2.10,MacIntel,60,61025ae37ef11b136ea224fe,,,,,,,,,1123,18.453125,-49.328125,1,0,0,response3disk,,4,3.01171875,-9.63671875,1,0,0,rectangle,3.01171875,-9.63671875,1,0,0,3.01171875,-9.63671875,1,0,0,1,38,198,38,1,,,,,,,,
,,,,,,,,,,,,,FF,,,,,,,,0.7847,,,,,,,,,,,,,,,,,,,,,,6103502ca40f5c646cf623ff,61036985047d57234b058b69,2021-07-29_20h01.40.315,Simcolourproject_2stim_asymm_v5,2020.2.10,MacIntel,60,61025ae37ef11b136ea224fe,,,,,,,,,3126,36.03515625,53.46875,1,0,0,response1disk,,7,20.07421875,2.86328125,1,0,0,rectangle,20.07421875,2.86328125,1,0,0,20.07421875,2.86328125,1,0,0,1,39,199,97,1,,,,,,,,
,,,,,,,,,,,,,FF,,,,,,,,0.9175,,,,,,,,,,,,,,,,,,,,,,6103502ca40f5c646cf623ff,61036985047d57234b058b69,2021-07-29_20h01.40.315,Simcolourproject_2stim_asymm_v5,2020.2.10,MacIntel,60,61025ae37ef11b136ea224fe,,,,,,,,,3327,59.54296875,-13.9765625,1,0,0,response3disk,,5,4.43359375,-12.78515625,1,0,0,rectangle,4.43359375,-12.78515625,1,0,0,4.43359375,-12.78515625,1,0,0,1,40,200,11,1,,,,,,,,
,,,,,,,,,,,,,FF,,,,,,,,1.651,,,,,,,,,,,,,,,,,,,,,,6103502ca40f5c646cf623ff,61036985047d57234b058b69,2021-07-29_20h01.40.315,Simcolourproject_2stim_asymm_v5,2020.2.10,MacIntel,60,61025ae37ef11b136ea224fe,,,,,,,,,3517,20.79296875,-47.87890625,1,0,0,response3disk,,4,11.19921875,0.03515625,1,0,0,rectangle,11.19921875,0.03515625,1,0,0,11.19921875,0.03515625,1,0,0,1,41,201,145,1,,,,,,,,
,,,,,,,,,,,,,FF,,,,,,,,1.7162,,,,,,,,,,,,,,,,,,,,,,6103502ca40f5c646cf623ff,61036985047d57234b058b69,2021-07-29_20h01.40.315,Simcolourproject_2stim_asymm_v5,2020.2.10,MacIntel,60,61025ae37ef11b136ea224fe,,,,,,,,,2649,50.2890625,11.59765625,1,0,0,response1disk,,6,15.96484375,-2.10546875,1,0,0,rectangle,15.96484375,-2.10546875,1,0,0,15.96484375,-2.10546875,1,0,0,1,42,202,122,1,,,,,,,,
,,,,,,,,,,,,,FF,,,,,,,,4.2495,,,,,,,,,,,,,,,,,,,,,,6103502ca40f5c646cf623ff,61036985047d57234b058b69,2021-07-29_20h01.40.315,Simcolourproject_2stim_asymm_v5,2020.2.10,MacIntel,60,61025ae37ef11b136ea224fe,,,,,,,,,1907,40.48828125,-15.1015625,1,0,0,response3disk,,5,13.89453125,-4.1640625,1,0,0,rectangle,13.89453125,-4.1640625,1,0,0,13.89453125,-4.1640625,1,0,0,1,43,203,39,1,,,,,,,,
,,,,,,,,,,,,,FF,,,,,,,,0.6327,,,,,,,,,,,,,,,,,,,,,,6103502ca40f5c646cf623ff,61036985047d57234b058b69,2021-07-29_20h01.40.315,Simcolourproject_2stim_asymm_v5,2020.2.10,MacIntel,60,61025ae37ef11b136ea224fe,,,,,,,,,2499,36.83984375,-15.234375,1,0,0,response3disk,,5,21.48828125,-14.6953125,1,0,0,rectangle,21.48828125,-14.6953125,1,0,0,21.48828125,-14.6953125,1,0,0,1,44,204,68,1,,,,,,,,
,,,,,,,,,,,,,FF,,,,,,,,0.6825,,,,,,,,,,,,,,,,,,,,,,6103502ca40f5c646cf623ff,61036985047d57234b058b69,2021-07-29_20h01.40.315,Simcolourproject_2stim_asymm_v5,2020.2.10,MacIntel,60,61025ae37ef11b136ea224fe,,,,,,,,,1414,35.02734375,-18.76953125,1,0,0,response3disk,,5,-1.40625,-14.6015625,1,0,0,rectangle,-1.40625,-14.6015625,1,0,0,-1.40625,-14.6015625,1,0,0,1,45,205,43,1,,,,,,,,
,,,,,,,,,,,,,FF,,,,,,,,0.8334,,,,,,,,,,,,,,,,,,,,,,6103502ca40f5c646cf623ff,61036985047d57234b058b69,2021-07-29_20h01.40.315,Simcolourproject_2stim_asymm_v5,2020.2.10,MacIntel,60,61025ae37ef11b136ea224fe,,,,,,,,,2515,54.7109375,24.42578125,1,0,0,response1disk,,6,4.58984375,15.09375,1,0,0,rectangle,4.58984375,15.09375,1,0,0,4.58984375,15.09375,1,0,0,1,46,206,132,1,,,,,,,,
,,,,,,,,,,,,,FF,,,,,,,,0.7836,,,,,,,,,,,,,,,,,,,,,,6103502ca40f5c646cf623ff,61036985047d57234b058b69,2021-07-29_20h01.40.315,Simcolourproject_2stim_asymm_v5,2020.2.10,MacIntel,60,61025ae37ef11b136ea224fe,,,,,,,,,3101,-32.91015625,-18.2421875,1,0,0,response5disk,,2,-2.05859375,-11.140625,1,0,0,rectangle,-2.05859375,-11.140625,1,0,0,-2.05859375,-11.140625,1,0,0,1,47,207,22,1,,,,,,,,
,,,,,,,,,,,,,FF,,,,,,,,1.7818,,,,,,,,,,,,,,,,,,,,,,6103502ca40f5c646cf623ff,61036985047d57234b058b69,2021-07-29_20h01.40.315,Simcolourproject_2stim_asymm_v5,2020.2.10,MacIntel,60,61025ae37ef11b136ea224fe,,,,,,,,,472,31.12109375,14.984375,1,0,0,response1disk,,6,10.890625,5.12890625,1,0,0,rectangle,10.890625,5.12890625,1,0,0,10.890625,5.12890625,1,0,0,1,48,208,45,1,,,,,,,,
,,,,,,,,,,,,,FF,,,,,,,,0.9679,,,,,,,,,,,,,,,,,,,,,,6103502ca40f5c646cf623ff,61036985047d57234b058b69,2021-07-29_20h01.40.315,Simcolourproject_2stim_asymm_v5,2020.2.10,MacIntel,60,61025ae37ef11b136ea224fe,,,,,,,,,81,-11.52734375,-43.99609375,1,0,0,response5disk,,3,0.6015625,-1,1,0,0,rectangle,72.0546875,25.04296875,1,0,0,23.3359375,7.5,1,0,0,1,49,209,48,1,,response1disk_3,TRUE,6,6,"[276,271,188,80,47,144,94,288,79,36,172,47,18,91,305,266,210,14,19,76]",1.4799,rectangle
,,,,,,,,,,,,,FF,,,,,,,,1.0153,,,,,,,,,,,,,,,,,,,,,,6103502ca40f5c646cf623ff,61036985047d57234b058b69,2021-07-29_20h01.40.315,Simcolourproject_2stim_asymm_v5,2020.2.10,MacIntel,60,61025ae37ef11b136ea224fe,,,,,,,,,3645,39.4140625,-21.1953125,1,0,0,response3disk,,5,2.26953125,-6.12109375,1,0,0,rectangle,2.26953125,-6.12109375,1,0,0,2.26953125,-6.12109375,1,0,0,1,50,210,103,1,,,,,,,,
,,,,,,,,,,,,,FF,,,,,,,,0.967,,,,,,,,,,,,,,,,,,,,,,6103502ca40f5c646cf623ff,61036985047d57234b058b69,2021-07-29_20h01.40.315,Simcolourproject_2stim_asymm_v5,2020.2.10,MacIntel,60,61025ae37ef11b136ea224fe,,,,,,,,,1441,-18.4921875,-31.73828125,1,0,0,response5disk,,3,-1.7109375,-8.078125,1,0,0,rectangle,-1.7109375,-8.078125,1,0,0,-1.7109375,-8.078125,1,0,0,1,51,211,129,1,,,,,,,,
,,,,,,,,,,,,,FF,,,,,,,,1.0514,,,,,,,,,,,,,,,,,,,,,,6103502ca40f5c646cf623ff,61036985047d57234b058b69,2021-07-29_20h01.40.315,Simcolourproject_2stim_asymm_v5,2020.2.10,MacIntel,60,61025ae37ef11b136ea224fe,,,,,,,,,1030,57.0703125,25.4453125,1,0,0,response1disk,,6,3.703125,13.3125,1,0,0,rectangle,3.703125,13.3125,1,0,0,3.703125,13.3125,1,0,0,1,52,212,69,1,,,,,,,,
,,,,,,,,,,,,,FF,,,,,,,,0.6366,,,,,,,,,,,,,,,,,,,,,,6103502ca40f5c646cf623ff,61036985047d57234b058b69,2021-07-29_20h01.40.315,Simcolourproject_2stim_asymm_v5,2020.2.10,MacIntel,60,61025ae37ef11b136ea224fe,,,,,,,,,4326,-17.5625,46.15625,1,0,0,response7disk,,0,-3.76953125,0.359375,1,0,0,rectangle,-3.76953125,0.359375,1,0,0,-3.76953125,0.359375,1,0,0,1,53,213,153,1,,,,,,,,
,,,,,,,,,,,,,FF,,,,,,,,0.7483,,,,,,,,,,,,,,,,,,,,,,6103502ca40f5c646cf623ff,61036985047d57234b058b69,2021-07-29_20h01.40.315,Simcolourproject_2stim_asymm_v5,2020.2.10,MacIntel,60,61025ae37ef11b136ea224fe,,,,,,,,,2567,22.17578125,-17.421875,1,0,0,response3disk,,5,2.66015625,-14.86328125,1,0,0,rectangle,2.66015625,-14.86328125,1,0,0,2.66015625,-14.86328125,1,0,0,1,54,214,143,1,,,,,,,,
,,,,,,,,,,,,,FF,,,,,,,,0.866,,,,,,,,,,,,,,,,,,,,,,6103502ca40f5c646cf623ff,61036985047d57234b058b69,2021-07-29_20h01.40.315,Simcolourproject_2stim_asymm_v5,2020.2.10,MacIntel,60,61025ae37ef11b136ea224fe,,,,,,,,,1766,-39.734375,-19.7734375,1,0,0,response5disk,,2,-7.28515625,-3.81640625,1,0,0,rectangle,-7.28515625,-3.81640625,1,0,0,-7.28515625,-3.81640625,1,0,0,1,55,215,37,1,,,,,,,,
,,,,,,,,,,,,,FF,,,,,,,,1.1006,,,,,,,,,,,,,,,,,,,,,,6103502ca40f5c646cf623ff,61036985047d57234b058b69,2021-07-29_20h01.40.315,Simcolourproject_2stim_asymm_v5,2020.2.10,MacIntel,60,61025ae37ef11b136ea224fe,,,,,,,,,883,-51.0625,10.8984375,1,0,0,response7disk,,1,4.3671875,-3.74609375,1,0,0,rectangle,4.3671875,-3.74609375,1,0,0,4.3671875,-3.74609375,1,0,0,1,56,216,86,1,,,,,,,,
,,,,,,,,,,,,,FF,,,,,,,,0.7176,,,,,,,,,,,,,,,,,,,,,,6103502ca40f5c646cf623ff,61036985047d57234b058b69,2021-07-29_20h01.40.315,Simcolourproject_2stim_asymm_v5,2020.2.10,MacIntel,60,61025ae37ef11b136ea224fe,,,,,,,,,1161,59.4140625,14.33984375,1,0,0,response1disk,,6,12.17578125,3.25390625,1,0,0,rectangle,12.17578125,3.25390625,1,0,0,12.17578125,3.25390625,1,0,0,1,57,217,30,1,,,,,,,,
,,,,,,,,,,,,,FF,,,,,,,,0.7337,,,,,,,,,,,,,,,,,,,,,,6103502ca40f5c646cf623ff,61036985047d57234b058b69,2021-07-29_20h01.40.315,Simcolourproject_2stim_asymm_v5,2020.2.10,MacIntel,60,61025ae37ef11b136ea224fe,,,,,,,,,1970,-13.0390625,-37.4921875,1,0,0,response5disk,,3,11.578125,3.17578125,1,0,0,rectangle,11.578125,3.17578125,1,0,0,11.578125,3.17578125,1,0,0,1,58,218,98,1,,,,,,,,
,,,,,,,,,,,,,FF,,,,,,,,0.8635,,,,,,,,,,,,,,,,,,,,,,6103502ca40f5c646cf623ff,61036985047d57234b058b69,2021-07-29_20h01.40.315,Simcolourproject_2stim_asymm_v5,2020.2.10,MacIntel,60,61025ae37ef11b136ea224fe,,,,,,,,,3471,-42.515625,27.62890625,1,0,0,response7disk,,1,-9.61328125,13.0078125,1,0,0,rectangle,-9.61328125,13.0078125,1,0,0,-9.61328125,13.0078125,1,0,0,1,59,219,76,1,,,,,,,,
,,,,,,,,,,,,,FF,,,,,,,,1.3512,,,,,,,,,,,,,,,,,,,,,,6103502ca40f5c646cf623ff,61036985047d57234b058b69,2021-07-29_20h01.40.315,Simcolourproject_2stim_asymm_v5,2020.2.10,MacIntel,60,61025ae37ef11b136ea224fe,,,,,,,,,820,-16.23828125,-35.9453125,1,0,0,response5disk,,3,-13.6328125,-5.5,1,0,0,rectangle,-13.6328125,-5.5,1,0,0,-13.6328125,-5.5,1,0,0,1,60,220,5,1,,,,,,,,
,,,,,,,,,,,,,FF,,,,,,,,1.3021,,,,,,,,,,,,,,,,,,,,,,6103502ca40f5c646cf623ff,61036985047d57234b058b69,2021-07-29_20h01.40.315,Simcolourproject_2stim_asymm_v5,2020.2.10,MacIntel,60,61025ae37ef11b136ea224fe,,,,,,,,,529,-33.3125,-51.95703125,1,0,0,response5disk,,3,-12.76171875,-12.83203125,1,0,0,rectangle,-12.76171875,-12.83203125,1,0,0,-12.76171875,-12.83203125,1,0,0,1,61,221,21,1,,,,,,,,
,,,,,,,,,,,,,FF,,,,,,,,1.2015,,,,,,,,,,,,,,,,,,,,,,6103502ca40f5c646cf623ff,61036985047d57234b058b69,2021-07-29_20h01.40.315,Simcolourproject_2stim_asymm_v5,2020.2.10,MacIntel,60,61025ae37ef11b136ea224fe,,,,,,,,,2300,-46.4921875,-26.41796875,1,0,0,response5disk,,2,-14.15234375,-12.828125,1,0,0,rectangle,-14.15234375,-12.828125,1,0,0,-14.15234375,-12.828125,1,0,0,1,62,222,83,1,,,,,,,,
,,,,,,,,,,,,,FF,,,,,,,,0.8332,,,,,,,,,,,,,,,,,,,,,,6103502ca40f5c646cf623ff,61036985047d57234b058b69,2021-07-29_20h01.40.315,Simcolourproject_2stim_asymm_v5,2020.2.10,MacIntel,60,61025ae37ef11b136ea224fe,,,,,,,,,3286,16.47265625,-33.98046875,1,0,0,response3disk,,4,2.34375,-8.59765625,1,0,0,rectangle,2.34375,-8.59765625,1,0,0,2.34375,-8.59765625,1,0,0,1,63,223,40,1,,,,,,,,
,,,,,,,,,,,,,FF,,,,,,,,0.5866,,,,,,,,,,,,,,,,,,,,,,6103502ca40f5c646cf623ff,61036985047d57234b058b69,2021-07-29_20h01.40.315,Simcolourproject_2stim_asymm_v5,2020.2.10,MacIntel,60,61025ae37ef11b136ea224fe,,,,,,,,,556,44.81640625,-36.08203125,1,0,0,response3disk,,5,8.671875,-14.859375,1,0,0,rectangle,8.671875,-14.859375,1,0,0,8.671875,-14.859375,1,0,0,1,64,224,127,1,,,,,,,,
,,,,,,,,,,,,,FF,,,,,,,,0.8533,,,,,,,,,,,,,,,,,,,,,,6103502ca40f5c646cf623ff,61036985047d57234b058b69,2021-07-29_20h01.40.315,Simcolourproject_2stim_asymm_v5,2020.2.10,MacIntel,60,61025ae37ef11b136ea224fe,,,,,,,,,2127,48.28125,15.79296875,1,0,0,response1disk,,6,19.39453125,7.1953125,1,0,0,rectangle,19.39453125,7.1953125,1,0,0,19.39453125,7.1953125,1,0,0,1,65,225,105,1,,,,,,,,
,,,,,,,,,,,,,FF,,,,,,,,0.666,,,,,,,,,,,,,,,,,,,,,,6103502ca40f5c646cf623ff,61036985047d57234b058b69,2021-07-29_20h01.40.315,Simcolourproject_2stim_asymm_v5,2020.2.10,MacIntel,60,61025ae37ef11b136ea224fe,,,,,,,,,747,53.6171875,17.74609375,1,0,0,response1disk,,6,20.1015625,12.078125,1,0,0,rectangle,20.1015625,12.078125,1,0,0,20.1015625,12.078125,1,0,0,1,66,226,116,1,,,,,,,,
,,,,,,,,,,,,,FF,,,,,,,,0.8352,,,,,,,,,,,,,,,,,,,,,,6103502ca40f5c646cf623ff,61036985047d57234b058b69,2021-07-29_20h01.40.315,Simcolourproject_2stim_asymm_v5,2020.2.10,MacIntel,60,61025ae37ef11b136ea224fe,,,,,,,,,2275,46.8515625,-20.171875,1,0,0,response3disk,,5,17.3984375,-11.1171875,1,0,0,rectangle,17.3984375,-11.1171875,1,0,0,17.3984375,-11.1171875,1,0,0,1,67,227,65,1,,,,,,,,
,,,,,,,,,,,,,FF,,,,,,,,0.7856,,,,,,,,,,,,,,,,,,,,,,6103502ca40f5c646cf623ff,61036985047d57234b058b69,2021-07-29_20h01.40.315,Simcolourproject_2stim_asymm_v5,2020.2.10,MacIntel,60,61025ae37ef11b136ea224fe,,,,,,,,,677,55.796875,27.02734375,1,0,0,response1disk,,6,6.58203125,6.5625,1,0,0,rectangle,6.58203125,6.5625,1,0,0,6.58203125,6.5625,1,0,0,1,68,228,134,1,,,,,,,,
,,,,,,,,,,,,,FF,,,,,,,,1.8343,,,,,,,,,,,,,,,,,,,,,,6103502ca40f5c646cf623ff,61036985047d57234b058b69,2021-07-29_20h01.40.315,Simcolourproject_2stim_asymm_v5,2020.2.10,MacIntel,60,61025ae37ef11b136ea224fe,,,,,,,,,2665,-17.59765625,-27.5546875,1,0,0,response5disk,,3,-0.91796875,-1.23046875,1,0,0,rectangle,-0.91796875,-1.23046875,1,0,0,-0.91796875,-1.23046875,1,0,0,1,69,229,94,1,,,,,,,,
,,,,,,,,,,,,,FF,,,,,,,,0.6344,,,,,,,,,,,,,,,,,,,,,,6103502ca40f5c646cf623ff,61036985047d57234b058b69,2021-07-29_20h01.40.315,Simcolourproject_2stim_asymm_v5,2020.2.10,MacIntel,60,61025ae37ef11b136ea224fe,,,,,,,,,4250,13.53515625,-31.3828125,1,0,0,response3disk,,4,11.41796875,-9.22265625,1,0,0,rectangle,11.41796875,-9.22265625,1,0,0,11.41796875,-9.22265625,1,0,0,1,70,230,27,1,,,,,,,,
,,,,,,,,,,,,,FF,,,,,,,,0.8516,,,,,,,,,,,,,,,,,,,,,,6103502ca40f5c646cf623ff,61036985047d57234b058b69,2021-07-29_20h01.40.315,Simcolourproject_2stim_asymm_v5,2020.2.10,MacIntel,60,61025ae37ef11b136ea224fe,,,,,,,,,1956,-63.0703125,17.53125,1,0,0,response7disk,,1,-11.13671875,11.640625,1,0,0,rectangle,-11.13671875,11.640625,1,0,0,-11.13671875,11.640625,1,0,0,1,71,231,2,1,,,,,,,,
,,,,,,,,,,,,,FF,,,,,,,,0.9493,,,,,,,,,,,,,,,,,,,,,,6103502ca40f5c646cf623ff,61036985047d57234b058b69,2021-07-29_20h01.40.315,Simcolourproject_2stim_asymm_v5,2020.2.10,MacIntel,60,61025ae37ef11b136ea224fe,,,,,,,,,1652,-35.83203125,-31.64453125,1,0,0,response5disk,,2,-2.82421875,-17.1875,1,0,0,rectangle,-2.82421875,-17.1875,1,0,0,-2.82421875,-17.1875,1,0,0,1,72,232,158,1,,,,,,,,
,,,,,,,,,,,,,FF,,,,,,,,0.7869,,,,,,,,,,,,,,,,,,,,,,6103502ca40f5c646cf623ff,61036985047d57234b058b69,2021-07-29_20h01.40.315,Simcolourproject_2stim_asymm_v5,2020.2.10,MacIntel,60,61025ae37ef11b136ea224fe,,,,,,,,,1659,32.82421875,-24.7578125,1,0,0,response3disk,,5,13.09375,-4.12109375,1,0,0,rectangle,13.09375,-4.12109375,1,0,0,13.09375,-4.12109375,1,0,0,1,73,233,75,1,,,,,,,,
,,,,,,,,,,,,,FF,,,,,,,,2.5667,,,,,,,,,,,,,,,,,,,,,,6103502ca40f5c646cf623ff,61036985047d57234b058b69,2021-07-29_20h01.40.315,Simcolourproject_2stim_asymm_v5,2020.2.10,MacIntel,60,61025ae37ef11b136ea224fe,,,,,,,,,997,30.88671875,-36.015625,1,0,0,response3disk,,4,20.16796875,-13.01171875,1,0,0,rectangle,20.16796875,-13.01171875,1,0,0,20.16796875,-13.01171875,1,0,0,1,74,234,120,1,,,,,,,,
,,,,,,,,,,,,,FF,,,,,,,,2.3968,,,,,,,,,,,,,,,,,,,,,,6103502ca40f5c646cf623ff,61036985047d57234b058b69,2021-07-29_20h01.40.315,Simcolourproject_2stim_asymm_v5,2020.2.10,MacIntel,60,61025ae37ef11b136ea224fe,,,,,,,,,1524,-17.79296875,-37.953125,1,0,0,response5disk,,3,-1.4765625,-10.5078125,1,0,0,rectangle,-1.4765625,-10.5078125,1,0,0,-1.4765625,-10.5078125,1,0,0,1,75,235,20,1,,,,,,,,
,,,,,,,,,,,,,FF,,,,,,,,2.633,,,,,,,,,,,,,,,,,,,,,,6103502ca40f5c646cf623ff,61036985047d57234b058b69,2021-07-29_20h01.40.315,Simcolourproject_2stim_asymm_v5,2020.2.10,MacIntel,60,61025ae37ef11b136ea224fe,,,,,,,,,282,-44.17578125,-26.73828125,1,0,0,response5disk,,2,-10.015625,-5.90234375,1,0,0,rectangle,-10.015625,-5.90234375,1,0,0,-10.015625,-5.90234375,1,0,0,1,76,236,118,1,,,,,,,,
,,,,,,,,,,,,,FF,,,,,,,,0.7351,,,,,,,,,,,,,,,,,,,,,,6103502ca40f5c646cf623ff,61036985047d57234b058b69,2021-07-29_20h01.40.315,Simcolourproject_2stim_asymm_v5,2020.2.10,MacIntel,60,61025ae37ef11b136ea224fe,,,,,,,,,337,39.78515625,-27.88671875,1,0,0,response3disk,,5,9.49609375,-9.23828125,1,0,0,rectangle,9.49609375,-9.23828125,1,0,0,9.49609375,-9.23828125,1,0,0,1,77,237,78,1,,,,,,,,
,,,,,,,,,,,,,FF,,,,,,,,0.5978,,,,,,,,,,,,,,,,,,,,,,6103502ca40f5c646cf623ff,61036985047d57234b058b69,2021-07-29_20h01.40.315,Simcolourproject_2stim_asymm_v5,2020.2.10,MacIntel,60,61025ae37ef11b136ea224fe,,,,,,,,,2679,40.91796875,-24.125,1,0,0,response3disk,,5,3.37890625,-11.2578125,1,0,0,rectangle,3.37890625,-11.2578125,1,0,0,3.37890625,-11.2578125,1,0,0,1,78,238,119,1,,,,,,,,
,,,,,,,,,,,,,FF,,,,,,,,1.2322,,,,,,,,,,,,,,,,,,,,,,6103502ca40f5c646cf623ff,61036985047d57234b058b69,2021-07-29_20h01.40.315,Simcolourproject_2stim_asymm_v5,2020.2.10,MacIntel,60,61025ae37ef11b136ea224fe,,,,,,,,,4263,55.64453125,26.7578125,1,0,0,response1disk,,6,0.24609375,13.6953125,1,0,0,rectangle,0.24609375,13.6953125,1,0,0,0.24609375,13.6953125,1,0,0,1,79,239,53,1,,,,,,,,
,,,,,,,,,,,,,FF,,,,,,,,0.7835,,,,,,,,,,,,,,,,,,,,,,6103502ca40f5c646cf623ff,61036985047d57234b058b69,2021-07-29_20h01.40.315,Simcolourproject_2stim_asymm_v5,2020.2.10,MacIntel,60,61025ae37ef11b136ea224fe,,,,,,,,,173,-15.546875,-33.65625,1,0,0,response5disk,,3,-9.47265625,-11.0390625,1,0,0,rectangle,-9.47265625,-11.0390625,1,0,0,-9.47265625,-11.0390625,1,0,0,1,80,240,152,1,,,,,,,,
,,,,,,,,,,,,,FF,,,,,,,,0.867,,,,,,,,,,,,,,,,,,,,,,6103502ca40f5c646cf623ff,61036985047d57234b058b69,2021-07-29_20h01.40.315,Simcolourproject_2stim_asymm_v5,2020.2.10,MacIntel,60,61025ae37ef11b136ea224fe,,,,,,,,,1450,-45.13671875,-19.37890625,1,0,0,response5disk,,2,-5.6875,-11.58203125,1,0,0,rectangle,-5.6875,-11.58203125,1,0,0,-5.6875,-11.58203125,1,0,0,1,81,241,150,1,,,,,,,,
,,,,,,,,,,,,,FF,,,,,,,,0.6,,,,,,,,,,,,,,,,,,,,,,6103502ca40f5c646cf623ff,61036985047d57234b058b69,2021-07-29_20h01.40.315,Simcolourproject_2stim_asymm_v5,2020.2.10,MacIntel,60,61025ae37ef11b136ea224fe,,,,,,,,,1670,-22.90234375,41.09765625,1,0,0,response7disk,,0,-5.45703125,-0.5390625,1,0,0,rectangle,-5.45703125,-0.5390625,1,0,0,-5.45703125,-0.5390625,1,0,0,1,82,242,80,1,,,,,,,,
,,,,,,,,,,,,,FF,,,,,,,,0.8203,,,,,,,,,,,,,,,,,,,,,,6103502ca40f5c646cf623ff,61036985047d57234b058b69,2021-07-29_20h01.40.315,Simcolourproject_2stim_asymm_v5,2020.2.10,MacIntel,60,61025ae37ef11b136ea224fe,,,,,,,,,3621,39.84765625,19.61328125,1,0,0,response1disk,,6,11.35546875,15.77734375,1,0,0,rectangle,11.35546875,15.77734375,1,0,0,11.35546875,15.77734375,1,0,0,1,83,243,15,1,,,,,,,,
,,,,,,,,,,,,,FF,,,,,,,,1.7511,,,,,,,,,,,,,,,,,,,,,,6103502ca40f5c646cf623ff,61036985047d57234b058b69,2021-07-29_20h01.40.315,Simcolourproject_2stim_asymm_v5,2020.2.10,MacIntel,60,61025ae37ef11b136ea224fe,,,,,,,,,544,29.078125,-41.6171875,1,0,0,response3disk,,4,16.14453125,-11.9765625,1,0,0,rectangle,16.14453125,-11.9765625,1,0,0,16.14453125,-11.9765625,1,0,0,1,84,244,81,1,,,,,,,,
,,,,,,,,,,,,,FF,,,,,,,,0.5788,,,,,,,,,,,,,,,,,,,,,,6103502ca40f5c646cf623ff,61036985047d57234b058b69,2021-07-29_20h01.40.315,Simcolourproject_2stim_asymm_v5,2020.2.10,MacIntel,60,61025ae37ef11b136ea224fe,,,,,,,,,2407,51.03515625,-24.6640625,1,0,0,response3disk,,5,8.65625,-3.70703125,1,0,0,rectangle,8.65625,-3.70703125,1,0,0,8.65625,-3.70703125,1,0,0,1,85,245,59,1,,,,,,,,
,,,,,,,,,,,,,FF,,,,,,,,1.3139,,,,,,,,,,,,,,,,,,,,,,6103502ca40f5c646cf623ff,61036985047d57234b058b69,2021-07-29_20h01.40.315,Simcolourproject_2stim_asymm_v5,2020.2.10,MacIntel,60,61025ae37ef11b136ea224fe,,,,,,,,,1897,21.69140625,-29.91796875,1,0,0,response3disk,,4,12.421875,-1.30859375,1,0,0,rectangle,12.421875,-1.30859375,1,0,0,12.421875,-1.30859375,1,0,0,1,86,246,61,1,,,,,,,,
,,,,,,,,,,,,,FF,,,,,,,,2.8835,,,,,,,,,,,,,,,,,,,,,,6103502ca40f5c646cf623ff,61036985047d57234b058b69,2021-07-29_20h01.40.315,Simcolourproject_2stim_asymm_v5,2020.2.10,MacIntel,60,61025ae37ef11b136ea224fe,,,,,,,,,1711,44.30859375,-20.26171875,1,0,0,response3disk,,5,15.7890625,-12.91015625,1,0,0,rectangle,15.7890625,-12.91015625,1,0,0,15.7890625,-12.91015625,1,0,0,1,87,247,148,1,,,,,,,,
