key_resp.keys,key_resp.rt,key_resp_14.keys,key_resp_14.rt,key_resp_15.keys,key_resp_15.rt,key_resp_17.keys,key_resp_17.rt,key_resp_9.keys,key_resp_9.rt,key_resp_10.keys,key_resp_10.rt,practice_comparison,Ecc,mouse_5.x,mouse_5.y,mouse_5.leftButton,mouse_5.midButton,mouse_5.rightButton,mouse_5.clicked_name,pracsimilarity,response_time,mouse_10.x,mouse_10.y,mouse_10.leftButton,mouse_10.midButton,mouse_10.rightButton,mouse_10.clicked_name,mouse_7.x,mouse_7.y,mouse_7.leftButton,mouse_7.midButton,mouse_7.rightButton,mouse_6.x,mouse_6.y,mouse_6.leftButton,mouse_6.midButton,mouse_6.rightButton,duringprac.thisRepN,duringprac.thisTrialN,duringprac.thisN,duringprac.thisIndex,duringprac.ran,participant,session,date,expName,psychopyVersion,OS,frameRate,study_id,mouse_7.clicked_name,catchpracsimilarity,catch_response_time,catchnumberprac,catchtrialorderprac,mouse_6.clicked_name,key_resp_22.keys,key_resp_22.rt,realcomparison,mouse.x,mouse.y,mouse.leftButton,mouse.midButton,mouse.rightButton,mouse.clicked_name,Colour2,similarity,mouse_2.x,mouse_2.y,mouse_2.leftButton,mouse_2.midButton,mouse_2.rightButton,mouse_2.clicked_name,mouse_3.x,mouse_3.y,mouse_3.leftButton,mouse_3.midButton,mouse_3.rightButton,mouse_11.x,mouse_11.y,mouse_11.leftButton,mouse_11.midButton,mouse_11.rightButton,trials_2.thisRepN,trials_2.thisTrialN,trials_2.thisN,trials_2.thisIndex,trials_2.ran,Colour1,mouse_3.clicked_name,catchornah,catchsimilarity,catchnumber,catchtrialorder,catchRT,mouse_11.clicked_name
space,1.271,space,16.534,space,20.888,space,20.657,space,4.773,space,4.518,77,PF,45,98,1,0,0,response1disk_5,7,16.423,2,-2,1,0,0,rectangle_8,2,-2,1,0,0,2,-2,1,0,0,0,0,0,4,1,610327b3d3eafd74891133fe,61036d8b8d4ce36d1951f698,2021-07-29_23h18.05.947,Simcolourproject_2stim_asymm_v5,2020.2.10,MacIntel,60,61025ae37ef11b136ea224fe,,,,,,,,,,,,,,,,,,,,,,,,,,,,,,,,,,,,,,,,,,,,,,
,,,,,,,,,,,,59,PF,-33,-100,1,0,0,response5disk_5,3,6.813,1,-8,1,0,0,rectangle_8,-40,-96,1,0,0,-2,-4,1,0,0,0,1,1,6,1,610327b3d3eafd74891133fe,61036d8b8d4ce36d1951f698,2021-07-29_23h18.05.947,Simcolourproject_2stim_asymm_v5,2020.2.10,MacIntel,60,61025ae37ef11b136ea224fe,response5disk_7,3,3.755,3,"[2,5]",rectangle_4,,,,,,,,,,,,,,,,,,,,,,,,,,,,,,,,,,,,,,,,
,,,,,,,,,,,,35,FF,85,-28,1,0,0,response3disk_5,5,3.509,-3,2,1,0,0,rectangle_8,-3,2,1,0,0,-3,2,1,0,0,0,2,2,3,1,610327b3d3eafd74891133fe,61036d8b8d4ce36d1951f698,2021-07-29_23h18.05.947,Simcolourproject_2stim_asymm_v5,2020.2.10,MacIntel,60,61025ae37ef11b136ea224fe,,,,,,,,,,,,,,,,,,,,,,,,,,,,,,,,,,,,,,,,,,,,,,
,,,,,,,,,,,,25,FF,-47,90,1,0,0,response7disk_5,0,2.001,-3,3,1,0,0,rectangle_8,-3,3,1,0,0,-3,3,1,0,0,0,3,3,0,1,610327b3d3eafd74891133fe,61036d8b8d4ce36d1951f698,2021-07-29_23h18.05.947,Simcolourproject_2stim_asymm_v5,2020.2.10,MacIntel,60,61025ae37ef11b136ea224fe,,,,,,,,,,,,,,,,,,,,,,,,,,,,,,,,,,,,,,,,,,,,,,
,,,,,,,,,,,,125,PF,47,-54,1,0,0,response3disk_5,4,2.136,-8,-2,1,0,0,rectangle_8,-31,-80,1,0,0,1,1,1,0,0,0,4,4,1,1,610327b3d3eafd74891133fe,61036d8b8d4ce36d1951f698,2021-07-29_23h18.05.947,Simcolourproject_2stim_asymm_v5,2020.2.10,MacIntel,60,61025ae37ef11b136ea224fe,response5disk_7,3,2.092,3,"[2,5]",rectangle_4,,,,,,,,,,,,,,,,,,,,,,,,,,,,,,,,,,,,,,,,
,,,,,,,,,,,,132,FF,-20,-89,1,0,0,response5disk_5,3,3.141,6,4,1,0,0,rectangle_8,6,4,1,0,0,6,4,1,0,0,0,5,5,5,1,610327b3d3eafd74891133fe,61036d8b8d4ce36d1951f698,2021-07-29_23h18.05.947,Simcolourproject_2stim_asymm_v5,2020.2.10,MacIntel,60,61025ae37ef11b136ea224fe,,,,,,,,,,,,,,,,,,,,,,,,,,,,,,,,,,,,,,,,,,,,,,
,,,,,,,,,,,,52,PF,83,-45,1,0,0,response3disk_5,5,2.118,-1,-1,1,0,0,rectangle_8,-1,-1,1,0,0,-1,-1,1,0,0,0,6,6,2,1,610327b3d3eafd74891133fe,61036d8b8d4ce36d1951f698,2021-07-29_23h18.05.947,Simcolourproject_2stim_asymm_v5,2020.2.10,MacIntel,60,61025ae37ef11b136ea224fe,,,,,,,,,,,,,,,,,,,,,,,,,,,,,,,,,,,,,,,,,,,,,,
,,,,,,,,,,,,,FF,,,,,,,,2.596,,,,,,,,,,,,,,,,,,,,,,610327b3d3eafd74891133fe,61036d8b8d4ce36d1951f698,2021-07-29_23h18.05.947,Simcolourproject_2stim_asymm_v5,2020.2.10,MacIntel,60,61025ae37ef11b136ea224fe,,,,,,,space,74.442,2534,41,-84,1,0,0,response3disk,,4,16,-7,1,0,0,rectangle,16,-7,1,0,0,16,-7,1,0,0,0,0,0,29,1,,,,,,,,
,,,,,,,,,,,,,FF,,,,,,,,1.444,,,,,,,,,,,,,,,,,,,,,,610327b3d3eafd74891133fe,61036d8b8d4ce36d1951f698,2021-07-29_23h18.05.947,Simcolourproject_2stim_asymm_v5,2020.2.10,MacIntel,60,61025ae37ef11b136ea224fe,,,,,,,,,4344,-53,83,1,0,0,response7disk,,0,-5,7,1,0,0,rectangle,-5,7,1,0,0,-5,7,1,0,0,0,1,1,137,1,,,,,,,,
,,,,,,,,,,,,,FF,,,,,,,,0.98,,,,,,,,,,,,,,,,,,,,,,610327b3d3eafd74891133fe,61036d8b8d4ce36d1951f698,2021-07-29_23h18.05.947,Simcolourproject_2stim_asymm_v5,2020.2.10,MacIntel,60,61025ae37ef11b136ea224fe,,,,,,,,,3425,-44,70,1,0,0,response7disk,,0,1,7,1,0,0,rectangle,1,7,1,0,0,1,7,1,0,0,0,2,2,150,1,,,,,,,,
,,,,,,,,,,,,,FF,,,,,,,,1.743,,,,,,,,,,,,,,,,,,,,,,610327b3d3eafd74891133fe,61036d8b8d4ce36d1951f698,2021-07-29_23h18.05.947,Simcolourproject_2stim_asymm_v5,2020.2.10,MacIntel,60,61025ae37ef11b136ea224fe,,,,,,,,,2674,60,-68,1,0,0,response3disk,,4,-8,1,1,0,0,rectangle,-8,1,1,0,0,-8,1,1,0,0,0,3,3,82,1,,,,,,,,
,,,,,,,,,,,,,FF,,,,,,,,1.4,,,,,,,,,,,,,,,,,,,,,,610327b3d3eafd74891133fe,61036d8b8d4ce36d1951f698,2021-07-29_23h18.05.947,Simcolourproject_2stim_asymm_v5,2020.2.10,MacIntel,60,61025ae37ef11b136ea224fe,,,,,,,,,3273,75,-50,1,0,0,response3disk,,5,-6,7,1,0,0,rectangle,-6,7,1,0,0,-6,7,1,0,0,0,4,4,80,1,,,,,,,,
,,,,,,,,,,,,,FF,,,,,,,,1.022,,,,,,,,,,,,,,,,,,,,,,610327b3d3eafd74891133fe,61036d8b8d4ce36d1951f698,2021-07-29_23h18.05.947,Simcolourproject_2stim_asymm_v5,2020.2.10,MacIntel,60,61025ae37ef11b136ea224fe,,,,,,,,,550,-69,35,1,0,0,response7disk,,1,-2,3,1,0,0,rectangle,-2,3,1,0,0,-2,3,1,0,0,0,5,5,84,1,,,,,,,,
,,,,,,,,,,,,,FF,,,,,,,,1.071,,,,,,,,,,,,,,,,,,,,,,610327b3d3eafd74891133fe,61036d8b8d4ce36d1951f698,2021-07-29_23h18.05.947,Simcolourproject_2stim_asymm_v5,2020.2.10,MacIntel,60,61025ae37ef11b136ea224fe,,,,,,,,,2607,-72,-35,1,0,0,response5disk,,2,8,3,1,0,0,rectangle,8,3,1,0,0,8,3,1,0,0,0,6,6,88,1,,,,,,,,
,,,,,,,,,,,,,FF,,,,,,,,0.997,,,,,,,,,,,,,,,,,,,,,,610327b3d3eafd74891133fe,61036d8b8d4ce36d1951f698,2021-07-29_23h18.05.947,Simcolourproject_2stim_asymm_v5,2020.2.10,MacIntel,60,61025ae37ef11b136ea224fe,,,,,,,,,3041,37,-57,1,0,0,response3disk,,4,3,1,1,0,0,rectangle,3,1,1,0,0,3,1,1,0,0,0,7,7,92,1,,,,,,,,
,,,,,,,,,,,,,FF,,,,,,,,1.902,,,,,,,,,,,,,,,,,,,,,,610327b3d3eafd74891133fe,61036d8b8d4ce36d1951f698,2021-07-29_23h18.05.947,Simcolourproject_2stim_asymm_v5,2020.2.10,MacIntel,60,61025ae37ef11b136ea224fe,,,,,,,,,148,68,-43,1,0,0,response3disk,,5,7,6,1,0,0,rectangle,7,6,1,0,0,7,6,1,0,0,0,8,8,46,1,,,,,,,,
,,,,,,,,,,,,,FF,,,,,,,,1.423,,,,,,,,,,,,,,,,,,,,,,610327b3d3eafd74891133fe,61036d8b8d4ce36d1951f698,2021-07-29_23h18.05.947,Simcolourproject_2stim_asymm_v5,2020.2.10,MacIntel,60,61025ae37ef11b136ea224fe,,,,,,,,,1500,81,-40,1,0,0,response3disk,,5,-2,14,1,0,0,rectangle,-2,14,1,0,0,-2,14,1,0,0,0,9,9,7,1,,,,,,,,
,,,,,,,,,,,,,FF,,,,,,,,2.013,,,,,,,,,,,,,,,,,,,,,,610327b3d3eafd74891133fe,61036d8b8d4ce36d1951f698,2021-07-29_23h18.05.947,Simcolourproject_2stim_asymm_v5,2020.2.10,MacIntel,60,61025ae37ef11b136ea224fe,,,,,,,,,854,72,-34,1,0,0,response3disk,,5,8,-8,1,0,0,rectangle,8,-8,1,0,0,8,-8,1,0,0,0,10,10,148,1,,,,,,,,
,,,,,,,,,,,,,FF,,,,,,,,1.269,,,,,,,,,,,,,,,,,,,,,,610327b3d3eafd74891133fe,61036d8b8d4ce36d1951f698,2021-07-29_23h18.05.947,Simcolourproject_2stim_asymm_v5,2020.2.10,MacIntel,60,61025ae37ef11b136ea224fe,,,,,,,,,3053,-84,-47,1,0,0,response5disk,,2,16,1,1,0,0,rectangle,16,1,1,0,0,16,1,1,0,0,0,11,11,50,1,,,,,,,,
,,,,,,,,,,,,,FF,,,,,,,,1.232,,,,,,,,,,,,,,,,,,,,,,610327b3d3eafd74891133fe,61036d8b8d4ce36d1951f698,2021-07-29_23h18.05.947,Simcolourproject_2stim_asymm_v5,2020.2.10,MacIntel,60,61025ae37ef11b136ea224fe,,,,,,,,,902,-26,-66,1,0,0,response5disk,,3,-1,4,1,0,0,rectangle,-1,4,1,0,0,-1,4,1,0,0,0,12,12,101,1,,,,,,,,
,,,,,,,,,,,,,FF,,,,,,,,4.115,,,,,,,,,,,,,,,,,,,,,,610327b3d3eafd74891133fe,61036d8b8d4ce36d1951f698,2021-07-29_23h18.05.947,Simcolourproject_2stim_asymm_v5,2020.2.10,MacIntel,60,61025ae37ef11b136ea224fe,,,,,,,,,3535,56,-63,1,0,0,response3disk,,4,-2,-11,1,0,0,rectangle,-2,-11,1,0,0,-2,-11,1,0,0,0,13,13,65,1,,,,,,,,
,,,,,,,,,,,,,FF,,,,,,,,0.85,,,,,,,,,,,,,,,,,,,,,,610327b3d3eafd74891133fe,61036d8b8d4ce36d1951f698,2021-07-29_23h18.05.947,Simcolourproject_2stim_asymm_v5,2020.2.10,MacIntel,60,61025ae37ef11b136ea224fe,,,,,,,,,898,-44,-65,1,0,0,response5disk,,3,-2,2,1,0,0,rectangle,-2,2,1,0,0,-2,2,1,0,0,0,14,14,121,1,,,,,,,,
,,,,,,,,,,,,,FF,,,,,,,,2.032,,,,,,,,,,,,,,,,,,,,,,610327b3d3eafd74891133fe,61036d8b8d4ce36d1951f698,2021-07-29_23h18.05.947,Simcolourproject_2stim_asymm_v5,2020.2.10,MacIntel,60,61025ae37ef11b136ea224fe,,,,,,,,,2171,-34,-69,1,0,0,response5disk,,3,21,3,1,0,0,rectangle,21,3,1,0,0,21,3,1,0,0,0,15,15,28,1,,,,,,,,
,,,,,,,,,,,,,FF,,,,,,,,1.51,,,,,,,,,,,,,,,,,,,,,,610327b3d3eafd74891133fe,61036d8b8d4ce36d1951f698,2021-07-29_23h18.05.947,Simcolourproject_2stim_asymm_v5,2020.2.10,MacIntel,60,61025ae37ef11b136ea224fe,,,,,,,,,3932,-48,-84,1,0,0,response5disk,,3,17,4,1,0,0,rectangle,17,4,1,0,0,17,4,1,0,0,0,16,16,126,1,,,,,,,,
,,,,,,,,,,,,,FF,,,,,,,,0.947,,,,,,,,,,,,,,,,,,,,,,610327b3d3eafd74891133fe,61036d8b8d4ce36d1951f698,2021-07-29_23h18.05.947,Simcolourproject_2stim_asymm_v5,2020.2.10,MacIntel,60,61025ae37ef11b136ea224fe,,,,,,,,,463,-82,-39,1,0,0,response5disk,,2,-1,3,1,0,0,rectangle,-1,3,1,0,0,-1,3,1,0,0,0,17,17,77,1,,,,,,,,
,,,,,,,,,,,,,FF,,,,,,,,1.939,,,,,,,,,,,,,,,,,,,,,,610327b3d3eafd74891133fe,61036d8b8d4ce36d1951f698,2021-07-29_23h18.05.947,Simcolourproject_2stim_asymm_v5,2020.2.10,MacIntel,60,61025ae37ef11b136ea224fe,,,,,,,,,2857,56,-25,1,0,0,response3disk,,5,-6,5,1,0,0,rectangle,-6,5,1,0,0,-6,5,1,0,0,0,18,18,151,1,,,,,,,,
,,,,,,,,,,,,,FF,,,,,,,,1.085,,,,,,,,,,,,,,,,,,,,,,610327b3d3eafd74891133fe,61036d8b8d4ce36d1951f698,2021-07-29_23h18.05.947,Simcolourproject_2stim_asymm_v5,2020.2.10,MacIntel,60,61025ae37ef11b136ea224fe,,,,,,,,,1760,-32,-56,1,0,0,response5disk,,3,12,12,1,0,0,rectangle,12,12,1,0,0,12,12,1,0,0,0,19,19,94,1,,,,,,,,
,,,,,,,,,,,,,FF,,,,,,,,3.23,,,,,,,,,,,,,,,,,,,,,,610327b3d3eafd74891133fe,61036d8b8d4ce36d1951f698,2021-07-29_23h18.05.947,Simcolourproject_2stim_asymm_v5,2020.2.10,MacIntel,60,61025ae37ef11b136ea224fe,,,,,,,,,2805,33,-62,1,0,0,response3disk,,4,7,-6,1,0,0,rectangle,7,-6,1,0,0,7,-6,1,0,0,0,20,20,64,1,,,,,,,,
,,,,,,,,,,,,,FF,,,,,,,,1.778,,,,,,,,,,,,,,,,,,,,,,610327b3d3eafd74891133fe,61036d8b8d4ce36d1951f698,2021-07-29_23h18.05.947,Simcolourproject_2stim_asymm_v5,2020.2.10,MacIntel,60,61025ae37ef11b136ea224fe,,,,,,,,,3808,38,-62,1,0,0,response3disk,,4,4,-4,1,0,0,rectangle,43,-81,1,0,0,0,-6,1,0,0,0,21,21,114,1,,response3disk_3,TRUE,4,4,"[77,166,220,315,144,238,63,228,120,171,99,125,304,306,197,126,22,187,96,166]",2.124,rectangle
,,,,,,,,,,,,,FF,,,,,,,,1.703,,,,,,,,,,,,,,,,,,,,,,610327b3d3eafd74891133fe,61036d8b8d4ce36d1951f698,2021-07-29_23h18.05.947,Simcolourproject_2stim_asymm_v5,2020.2.10,MacIntel,60,61025ae37ef11b136ea224fe,,,,,,,,,3537,38,-55,1,0,0,response3disk,,4,-5,3,1,0,0,rectangle,-5,3,1,0,0,-5,3,1,0,0,0,22,22,58,1,,,,,,,,
,,,,,,,,,,,,,FF,,,,,,,,1.917,,,,,,,,,,,,,,,,,,,,,,610327b3d3eafd74891133fe,61036d8b8d4ce36d1951f698,2021-07-29_23h18.05.947,Simcolourproject_2stim_asymm_v5,2020.2.10,MacIntel,60,61025ae37ef11b136ea224fe,,,,,,,,,3280,42,-54,1,0,0,response3disk,,4,2,-3,1,0,0,rectangle,2,-3,1,0,0,2,-3,1,0,0,0,23,23,72,1,,,,,,,,
,,,,,,,,,,,,,FF,,,,,,,,2.119,,,,,,,,,,,,,,,,,,,,,,610327b3d3eafd74891133fe,61036d8b8d4ce36d1951f698,2021-07-29_23h18.05.947,Simcolourproject_2stim_asymm_v5,2020.2.10,MacIntel,60,61025ae37ef11b136ea224fe,,,,,,,,,36,22,-51,1,0,0,response3disk,,4,-10,3,1,0,0,rectangle,-10,3,1,0,0,-10,3,1,0,0,0,24,24,153,1,,,,,,,,
,,,,,,,,,,,,,FF,,,,,,,,0.851,,,,,,,,,,,,,,,,,,,,,,610327b3d3eafd74891133fe,61036d8b8d4ce36d1951f698,2021-07-29_23h18.05.947,Simcolourproject_2stim_asymm_v5,2020.2.10,MacIntel,60,61025ae37ef11b136ea224fe,,,,,,,,,3875,-38,63,1,0,0,response7disk,,0,8,-2,1,0,0,rectangle,8,-2,1,0,0,8,-2,1,0,0,0,25,25,8,1,,,,,,,,
,,,,,,,,,,,,,FF,,,,,,,,1.359,,,,,,,,,,,,,,,,,,,,,,610327b3d3eafd74891133fe,61036d8b8d4ce36d1951f698,2021-07-29_23h18.05.947,Simcolourproject_2stim_asymm_v5,2020.2.10,MacIntel,60,61025ae37ef11b136ea224fe,,,,,,,,,198,-81,-28,1,0,0,response5disk,,2,-8,5,1,0,0,rectangle,-8,5,1,0,0,-8,5,1,0,0,0,26,26,69,1,,,,,,,,
,,,,,,,,,,,,,FF,,,,,,,,1.108,,,,,,,,,,,,,,,,,,,,,,610327b3d3eafd74891133fe,61036d8b8d4ce36d1951f698,2021-07-29_23h18.05.947,Simcolourproject_2stim_asymm_v5,2020.2.10,MacIntel,60,61025ae37ef11b136ea224fe,,,,,,,,,1518,70,-26,1,0,0,response3disk,,5,8,-2,1,0,0,rectangle,8,-2,1,0,0,8,-2,1,0,0,0,27,27,70,1,,,,,,,,
,,,,,,,,,,,,,FF,,,,,,,,6.428,,,,,,,,,,,,,,,,,,,,,,610327b3d3eafd74891133fe,61036d8b8d4ce36d1951f698,2021-07-29_23h18.05.947,Simcolourproject_2stim_asymm_v5,2020.2.10,MacIntel,60,61025ae37ef11b136ea224fe,,,,,,,,,1516,87,-59,1,0,0,response3disk,,5,6,15,1,0,0,rectangle,6,15,1,0,0,6,15,1,0,0,0,28,28,95,1,,,,,,,,
,,,,,,,,,,,,,FF,,,,,,,,1.722,,,,,,,,,,,,,,,,,,,,,,610327b3d3eafd74891133fe,61036d8b8d4ce36d1951f698,2021-07-29_23h18.05.947,Simcolourproject_2stim_asymm_v5,2020.2.10,MacIntel,60,61025ae37ef11b136ea224fe,,,,,,,,,2664,-42,-74,1,0,0,response5disk,,3,9,-6,1,0,0,rectangle,9,-6,1,0,0,9,-6,1,0,0,0,29,29,34,1,,,,,,,,
,,,,,,,,,,,,,FF,,,,,,,,0.921,,,,,,,,,,,,,,,,,,,,,,610327b3d3eafd74891133fe,61036d8b8d4ce36d1951f698,2021-07-29_23h18.05.947,Simcolourproject_2stim_asymm_v5,2020.2.10,MacIntel,60,61025ae37ef11b136ea224fe,,,,,,,,,1777,37,-74,1,0,0,response3disk,,4,2,-7,1,0,0,rectangle,2,-7,1,0,0,2,-7,1,0,0,0,30,30,73,1,,,,,,,,
,,,,,,,,,,,,,FF,,,,,,,,1.351,,,,,,,,,,,,,,,,,,,,,,610327b3d3eafd74891133fe,61036d8b8d4ce36d1951f698,2021-07-29_23h18.05.947,Simcolourproject_2stim_asymm_v5,2020.2.10,MacIntel,60,61025ae37ef11b136ea224fe,,,,,,,,,3933,-35,-80,1,0,0,response5disk,,3,-1,-10,1,0,0,rectangle,-1,-10,1,0,0,-1,-10,1,0,0,0,31,31,105,1,,,,,,,,
,,,,,,,,,,,,,FF,,,,,,,,1.574,,,,,,,,,,,,,,,,,,,,,,610327b3d3eafd74891133fe,61036d8b8d4ce36d1951f698,2021-07-29_23h18.05.947,Simcolourproject_2stim_asymm_v5,2020.2.10,MacIntel,60,61025ae37ef11b136ea224fe,,,,,,,,,1502,31,-62,1,0,0,response3disk,,4,0,2,1,0,0,rectangle,0,2,1,0,0,0,2,1,0,0,0,32,32,156,1,,,,,,,,
,,,,,,,,,,,,,FF,,,,,,,,1.153,,,,,,,,,,,,,,,,,,,,,,610327b3d3eafd74891133fe,61036d8b8d4ce36d1951f698,2021-07-29_23h18.05.947,Simcolourproject_2stim_asymm_v5,2020.2.10,MacIntel,60,61025ae37ef11b136ea224fe,,,,,,,,,3422,-38,-83,1,0,0,response5disk,,3,5,6,1,0,0,rectangle,5,6,1,0,0,5,6,1,0,0,0,33,33,115,1,,,,,,,,
,,,,,,,,,,,,,FF,,,,,,,,3.079,,,,,,,,,,,,,,,,,,,,,,610327b3d3eafd74891133fe,61036d8b8d4ce36d1951f698,2021-07-29_23h18.05.947,Simcolourproject_2stim_asymm_v5,2020.2.10,MacIntel,60,61025ae37ef11b136ea224fe,,,,,,,,,4001,17,-65,1,0,0,response3disk,,4,3,-13,1,0,0,rectangle,3,-13,1,0,0,3,-13,1,0,0,0,34,34,15,1,,,,,,,,
,,,,,,,,,,,,,FF,,,,,,,,2.236,,,,,,,,,,,,,,,,,,,,,,610327b3d3eafd74891133fe,61036d8b8d4ce36d1951f698,2021-07-29_23h18.05.947,Simcolourproject_2stim_asymm_v5,2020.2.10,MacIntel,60,61025ae37ef11b136ea224fe,,,,,,,,,2332,94,-36,1,0,0,response3disk,,5,-18,6,1,0,0,rectangle,-18,6,1,0,0,-18,6,1,0,0,0,35,35,45,1,,,,,,,,
,,,,,,,,,,,,,FF,,,,,,,,1.516,,,,,,,,,,,,,,,,,,,,,,610327b3d3eafd74891133fe,61036d8b8d4ce36d1951f698,2021-07-29_23h18.05.947,Simcolourproject_2stim_asymm_v5,2020.2.10,MacIntel,60,61025ae37ef11b136ea224fe,,,,,,,,,3900,-33,-85,1,0,0,response5disk,,3,5,-7,1,0,0,rectangle,5,-7,1,0,0,5,-7,1,0,0,0,36,36,122,1,,,,,,,,
,,,,,,,,,,,,,FF,,,,,,,,2.426,,,,,,,,,,,,,,,,,,,,,,610327b3d3eafd74891133fe,61036d8b8d4ce36d1951f698,2021-07-29_23h18.05.947,Simcolourproject_2stim_asymm_v5,2020.2.10,MacIntel,60,61025ae37ef11b136ea224fe,,,,,,,,,578,-45,-78,1,0,0,response5disk,,3,-2,2,1,0,0,rectangle,-2,2,1,0,0,-2,2,1,0,0,0,37,37,127,1,,,,,,,,
,,,,,,,,,,,,,FF,,,,,,,,2.072,,,,,,,,,,,,,,,,,,,,,,610327b3d3eafd74891133fe,61036d8b8d4ce36d1951f698,2021-07-29_23h18.05.947,Simcolourproject_2stim_asymm_v5,2020.2.10,MacIntel,60,61025ae37ef11b136ea224fe,,,,,,,,,3737,19,-99,1,0,0,response3disk,,4,3,0,1,0,0,rectangle,3,0,1,0,0,3,0,1,0,0,0,38,38,42,1,,,,,,,,
,,,,,,,,,,,,,FF,,,,,,,,3.6,,,,,,,,,,,,,,,,,,,,,,610327b3d3eafd74891133fe,61036d8b8d4ce36d1951f698,2021-07-29_23h18.05.947,Simcolourproject_2stim_asymm_v5,2020.2.10,MacIntel,60,61025ae37ef11b136ea224fe,,,,,,,,,1648,82,59,1,0,0,response1disk,,6,-12,1,1,0,0,rectangle,-12,1,1,0,0,-12,1,1,0,0,0,39,39,146,1,,,,,,,,
,,,,,,,,,,,,,FF,,,,,,,,3.596,,,,,,,,,,,,,,,,,,,,,,610327b3d3eafd74891133fe,61036d8b8d4ce36d1951f698,2021-07-29_23h18.05.947,Simcolourproject_2stim_asymm_v5,2020.2.10,MacIntel,60,61025ae37ef11b136ea224fe,,,,,,,,,241,26,-62,1,0,0,response3disk,,4,-10,-4,1,0,0,rectangle,-10,-4,1,0,0,-10,-4,1,0,0,0,40,40,13,1,,,,,,,,
,,,,,,,,,,,,,FF,,,,,,,,1.731,,,,,,,,,,,,,,,,,,,,,,610327b3d3eafd74891133fe,61036d8b8d4ce36d1951f698,2021-07-29_23h18.05.947,Simcolourproject_2stim_asymm_v5,2020.2.10,MacIntel,60,61025ae37ef11b136ea224fe,,,,,,,,,3377,41,-54,1,0,0,response3disk,,4,11,-5,1,0,0,rectangle,11,-5,1,0,0,11,-5,1,0,0,0,41,41,152,1,,,,,,,,
,,,,,,,,,,,,,FF,,,,,,,,2.91,,,,,,,,,,,,,,,,,,,,,,610327b3d3eafd74891133fe,61036d8b8d4ce36d1951f698,2021-07-29_23h18.05.947,Simcolourproject_2stim_asymm_v5,2020.2.10,MacIntel,60,61025ae37ef11b136ea224fe,,,,,,,,,2776,-42,-65,1,0,0,response5disk,,3,-7,0,1,0,0,rectangle,-7,0,1,0,0,-7,0,1,0,0,0,42,42,99,1,,,,,,,,
,,,,,,,,,,,,,FF,,,,,,,,2.515,,,,,,,,,,,,,,,,,,,,,,610327b3d3eafd74891133fe,61036d8b8d4ce36d1951f698,2021-07-29_23h18.05.947,Simcolourproject_2stim_asymm_v5,2020.2.10,MacIntel,60,61025ae37ef11b136ea224fe,,,,,,,,,4058,-38,-65,1,0,0,response5disk,,3,22,6,1,0,0,rectangle,22,6,1,0,0,22,6,1,0,0,0,43,43,74,1,,,,,,,,
,,,,,,,,,,,,,FF,,,,,,,,2.576,,,,,,,,,,,,,,,,,,,,,,610327b3d3eafd74891133fe,61036d8b8d4ce36d1951f698,2021-07-29_23h18.05.947,Simcolourproject_2stim_asymm_v5,2020.2.10,MacIntel,60,61025ae37ef11b136ea224fe,,,,,,,,,4286,57,-29,1,0,0,response3disk,,5,1,2,1,0,0,rectangle,1,2,1,0,0,1,2,1,0,0,0,44,44,79,1,,,,,,,,
,,,,,,,,,,,,,FF,,,,,,,,0.9,,,,,,,,,,,,,,,,,,,,,,610327b3d3eafd74891133fe,61036d8b8d4ce36d1951f698,2021-07-29_23h18.05.947,Simcolourproject_2stim_asymm_v5,2020.2.10,MacIntel,60,61025ae37ef11b136ea224fe,,,,,,,,,1212,-74,-29,1,0,0,response5disk,,2,4,-7,1,0,0,rectangle,4,-7,1,0,0,4,-7,1,0,0,0,45,45,141,1,,,,,,,,
,,,,,,,,,,,,,FF,,,,,,,,5.419,,,,,,,,,,,,,,,,,,,,,,610327b3d3eafd74891133fe,61036d8b8d4ce36d1951f698,2021-07-29_23h18.05.947,Simcolourproject_2stim_asymm_v5,2020.2.10,MacIntel,60,61025ae37ef11b136ea224fe,,,,,,,,,2407,27,-74,1,0,0,response3disk,,4,9,-5,1,0,0,rectangle,9,-5,1,0,0,9,-5,1,0,0,0,46,46,109,1,,,,,,,,
,,,,,,,,,,,,,FF,,,,,,,,4.207,,,,,,,,,,,,,,,,,,,,,,610327b3d3eafd74891133fe,61036d8b8d4ce36d1951f698,2021-07-29_23h18.05.947,Simcolourproject_2stim_asymm_v5,2020.2.10,MacIntel,60,61025ae37ef11b136ea224fe,,,,,,,,,2610,44,-26,1,0,0,response3disk,,5,13,-1,1,0,0,rectangle,13,-1,1,0,0,13,-1,1,0,0,0,47,47,76,1,,,,,,,,
,,,,,,,,,,,,,FF,,,,,,,,1.852,,,,,,,,,,,,,,,,,,,,,,610327b3d3eafd74891133fe,61036d8b8d4ce36d1951f698,2021-07-29_23h18.05.947,Simcolourproject_2stim_asymm_v5,2020.2.10,MacIntel,60,61025ae37ef11b136ea224fe,,,,,,,,,4138,25,-72,1,0,0,response3disk,,4,9,5,1,0,0,rectangle,9,5,1,0,0,9,5,1,0,0,0,48,48,23,1,,,,,,,,
,,,,,,,,,,,,,FF,,,,,,,,0.959,,,,,,,,,,,,,,,,,,,,,,610327b3d3eafd74891133fe,61036d8b8d4ce36d1951f698,2021-07-29_23h18.05.947,Simcolourproject_2stim_asymm_v5,2020.2.10,MacIntel,60,61025ae37ef11b136ea224fe,,,,,,,,,1598,-55,-71,1,0,0,response5disk,,3,-15,-7,1,0,0,rectangle,-15,-7,1,0,0,-15,-7,1,0,0,0,49,49,111,1,,,,,,,,
,,,,,,,,,,,,,FF,,,,,,,,2.489,,,,,,,,,,,,,,,,,,,,,,610327b3d3eafd74891133fe,61036d8b8d4ce36d1951f698,2021-07-29_23h18.05.947,Simcolourproject_2stim_asymm_v5,2020.2.10,MacIntel,60,61025ae37ef11b136ea224fe,,,,,,,,,2587,106,-36,1,0,0,response3disk,,5,-5,3,1,0,0,rectangle,-5,3,1,0,0,-5,3,1,0,0,0,50,50,90,1,,,,,,,,
,,,,,,,,,,,,,FF,,,,,,,,3.352,,,,,,,,,,,,,,,,,,,,,,610327b3d3eafd74891133fe,61036d8b8d4ce36d1951f698,2021-07-29_23h18.05.947,Simcolourproject_2stim_asymm_v5,2020.2.10,MacIntel,60,61025ae37ef11b136ea224fe,,,,,,,,,1935,71,-28,1,0,0,response3disk,,5,13,-2,1,0,0,rectangle,13,-2,1,0,0,13,-2,1,0,0,0,51,51,25,1,,,,,,,,
,,,,,,,,,,,,,FF,,,,,,,,3.753,,,,,,,,,,,,,,,,,,,,,,610327b3d3eafd74891133fe,61036d8b8d4ce36d1951f698,2021-07-29_23h18.05.947,Simcolourproject_2stim_asymm_v5,2020.2.10,MacIntel,60,61025ae37ef11b136ea224fe,,,,,,,,,1651,35,-47,1,0,0,response3disk,,4,-5,-4,1,0,0,rectangle,-5,-4,1,0,0,-5,-4,1,0,0,0,52,52,24,1,,,,,,,,
,,,,,,,,,,,,,FF,,,,,,,,1.829,,,,,,,,,,,,,,,,,,,,,,610327b3d3eafd74891133fe,61036d8b8d4ce36d1951f698,2021-07-29_23h18.05.947,Simcolourproject_2stim_asymm_v5,2020.2.10,MacIntel,60,61025ae37ef11b136ea224fe,,,,,,,,,4063,37,-64,1,0,0,response3disk,,4,4,8,1,0,0,rectangle,4,8,1,0,0,4,8,1,0,0,0,53,53,136,1,,,,,,,,
,,,,,,,,,,,,,FF,,,,,,,,3.469,,,,,,,,,,,,,,,,,,,,,,610327b3d3eafd74891133fe,61036d8b8d4ce36d1951f698,2021-07-29_23h18.05.947,Simcolourproject_2stim_asymm_v5,2020.2.10,MacIntel,60,61025ae37ef11b136ea224fe,,,,,,,,,2584,97,-31,1,0,0,response3disk,,5,5,-2,1,0,0,rectangle,5,-2,1,0,0,5,-2,1,0,0,0,54,54,117,1,,,,,,,,
,,,,,,,,,,,,,FF,,,,,,,,1.929,,,,,,,,,,,,,,,,,,,,,,610327b3d3eafd74891133fe,61036d8b8d4ce36d1951f698,2021-07-29_23h18.05.947,Simcolourproject_2stim_asymm_v5,2020.2.10,MacIntel,60,61025ae37ef11b136ea224fe,,,,,,,,,1787,39,-56,1,0,0,response3disk,,4,15,0,1,0,0,rectangle,15,0,1,0,0,15,0,1,0,0,0,55,55,87,1,,,,,,,,
,,,,,,,,,,,,,FF,,,,,,,,1.999,,,,,,,,,,,,,,,,,,,,,,610327b3d3eafd74891133fe,61036d8b8d4ce36d1951f698,2021-07-29_23h18.05.947,Simcolourproject_2stim_asymm_v5,2020.2.10,MacIntel,60,61025ae37ef11b136ea224fe,,,,,,,,,2739,74,29,1,0,0,response1disk,,6,-9,0,1,0,0,rectangle,-9,0,1,0,0,-9,0,1,0,0,0,56,56,52,1,,,,,,,,
,,,,,,,,,,,,,FF,,,,,,,,2.961,,,,,,,,,,,,,,,,,,,,,,610327b3d3eafd74891133fe,61036d8b8d4ce36d1951f698,2021-07-29_23h18.05.947,Simcolourproject_2stim_asymm_v5,2020.2.10,MacIntel,60,61025ae37ef11b136ea224fe,,,,,,,,,2377,47,-67,1,0,0,response3disk,,4,12,-9,1,0,0,rectangle,12,-9,1,0,0,12,-9,1,0,0,0,57,57,32,1,,,,,,,,
,,,,,,,,,,,,,FF,,,,,,,,1.492,,,,,,,,,,,,,,,,,,,,,,610327b3d3eafd74891133fe,61036d8b8d4ce36d1951f698,2021-07-29_23h18.05.947,Simcolourproject_2stim_asymm_v5,2020.2.10,MacIntel,60,61025ae37ef11b136ea224fe,,,,,,,,,415,76,36,1,0,0,response1disk,,6,1,-10,1,0,0,rectangle,1,-10,1,0,0,1,-10,1,0,0,0,58,58,128,1,,,,,,,,
,,,,,,,,,,,,,FF,,,,,,,,1.198,,,,,,,,,,,,,,,,,,,,,,610327b3d3eafd74891133fe,61036d8b8d4ce36d1951f698,2021-07-29_23h18.05.947,Simcolourproject_2stim_asymm_v5,2020.2.10,MacIntel,60,61025ae37ef11b136ea224fe,,,,,,,,,1381,-49,-72,1,0,0,response5disk,,3,-13,5,1,0,0,rectangle,-13,5,1,0,0,-13,5,1,0,0,0,59,59,142,1,,,,,,,,
,,,,,,,,,,,,,FF,,,,,,,,3.073,,,,,,,,,,,,,,,,,,,,,,610327b3d3eafd74891133fe,61036d8b8d4ce36d1951f698,2021-07-29_23h18.05.947,Simcolourproject_2stim_asymm_v5,2020.2.10,MacIntel,60,61025ae37ef11b136ea224fe,,,,,,,,,1805,70,-36,1,0,0,response3disk,,5,-10,3,1,0,0,rectangle,-10,3,1,0,0,-10,3,1,0,0,0,60,60,54,1,,,,,,,,
,,,,,,,,,,,,,FF,,,,,,,,2.143,,,,,,,,,,,,,,,,,,,,,,610327b3d3eafd74891133fe,61036d8b8d4ce36d1951f698,2021-07-29_23h18.05.947,Simcolourproject_2stim_asymm_v5,2020.2.10,MacIntel,60,61025ae37ef11b136ea224fe,,,,,,,,,2269,42,-69,1,0,0,response3disk,,4,17,-4,1,0,0,rectangle,17,-4,1,0,0,17,-4,1,0,0,0,61,61,138,1,,,,,,,,
,,,,,,,,,,,,,FF,,,,,,,,7.283,,,,,,,,,,,,,,,,,,,,,,610327b3d3eafd74891133fe,61036d8b8d4ce36d1951f698,2021-07-29_23h18.05.947,Simcolourproject_2stim_asymm_v5,2020.2.10,MacIntel,60,61025ae37ef11b136ea224fe,,,,,,,,,3634,109,-46,1,0,0,response3disk,,5,-13,-9,1,0,0,rectangle,-62,-43,1,0,0,-21,-14,1,0,0,0,62,62,12,1,,response5disk_3,TRUE,2,2,"[77,166,220,315,144,238,63,228,120,171,99,125,304,306,197,126,22,187,96,166]",1.581,rectangle
,,,,,,,,,,,,,FF,,,,,,,,3.204,,,,,,,,,,,,,,,,,,,,,,610327b3d3eafd74891133fe,61036d8b8d4ce36d1951f698,2021-07-29_23h18.05.947,Simcolourproject_2stim_asymm_v5,2020.2.10,MacIntel,60,61025ae37ef11b136ea224fe,,,,,,,,,2166,-68,17,1,0,0,response7disk,,1,7,-8,1,0,0,rectangle,7,-8,1,0,0,7,-8,1,0,0,0,63,63,53,1,,,,,,,,
,,,,,,,,,,,,,FF,,,,,,,,2.103,,,,,,,,,,,,,,,,,,,,,,610327b3d3eafd74891133fe,61036d8b8d4ce36d1951f698,2021-07-29_23h18.05.947,Simcolourproject_2stim_asymm_v5,2020.2.10,MacIntel,60,61025ae37ef11b136ea224fe,,,,,,,,,117,64,-78,1,0,0,response3disk,,4,4,-8,1,0,0,rectangle,4,-8,1,0,0,4,-8,1,0,0,0,64,64,49,1,,,,,,,,
,,,,,,,,,,,,,FF,,,,,,,,4.615,,,,,,,,,,,,,,,,,,,,,,610327b3d3eafd74891133fe,61036d8b8d4ce36d1951f698,2021-07-29_23h18.05.947,Simcolourproject_2stim_asymm_v5,2020.2.10,MacIntel,60,61025ae37ef11b136ea224fe,,,,,,,,,203,31,-51,1,0,0,response3disk,,4,-7,1,1,0,0,rectangle,-7,1,1,0,0,-7,1,1,0,0,0,65,65,61,1,,,,,,,,
,,,,,,,,,,,,,FF,,,,,,,,2.656,,,,,,,,,,,,,,,,,,,,,,610327b3d3eafd74891133fe,61036d8b8d4ce36d1951f698,2021-07-29_23h18.05.947,Simcolourproject_2stim_asymm_v5,2020.2.10,MacIntel,60,61025ae37ef11b136ea224fe,,,,,,,,,32,41,-59,1,0,0,response3disk,,4,3,-5,1,0,0,rectangle,3,-5,1,0,0,3,-5,1,0,0,0,66,66,86,1,,,,,,,,
,,,,,,,,,,,,,FF,,,,,,,,1.864,,,,,,,,,,,,,,,,,,,,,,610327b3d3eafd74891133fe,61036d8b8d4ce36d1951f698,2021-07-29_23h18.05.947,Simcolourproject_2stim_asymm_v5,2020.2.10,MacIntel,60,61025ae37ef11b136ea224fe,,,,,,,,,1523,-43,-60,1,0,0,response5disk,,3,2,-13,1,0,0,rectangle,2,-13,1,0,0,2,-13,1,0,0,0,67,67,120,1,,,,,,,,
,,,,,,,,,,,,,FF,,,,,,,,3.123,,,,,,,,,,,,,,,,,,,,,,610327b3d3eafd74891133fe,61036d8b8d4ce36d1951f698,2021-07-29_23h18.05.947,Simcolourproject_2stim_asymm_v5,2020.2.10,MacIntel,60,61025ae37ef11b136ea224fe,,,,,,,,,3878,49,-65,1,0,0,response3disk,,4,-4,-5,1,0,0,rectangle,-4,-5,1,0,0,-4,-5,1,0,0,0,68,68,144,1,,,,,,,,
,,,,,,,,,,,,,FF,,,,,,,,9.523,,,,,,,,,,,,,,,,,,,,,,610327b3d3eafd74891133fe,61036d8b8d4ce36d1951f698,2021-07-29_23h18.05.947,Simcolourproject_2stim_asymm_v5,2020.2.10,MacIntel,60,61025ae37ef11b136ea224fe,,,,,,,,,3200,104,-51,1,0,0,response3disk,,5,2,-7,1,0,0,rectangle,2,-7,1,0,0,2,-7,1,0,0,0,69,69,20,1,,,,,,,,
,,,,,,,,,,,,,FF,,,,,,,,2.951,,,,,,,,,,,,,,,,,,,,,,610327b3d3eafd74891133fe,61036d8b8d4ce36d1951f698,2021-07-29_23h18.05.947,Simcolourproject_2stim_asymm_v5,2020.2.10,MacIntel,60,61025ae37ef11b136ea224fe,,,,,,,,,1929,41,-69,1,0,0,response3disk,,4,25,5,1,0,0,rectangle,25,5,1,0,0,25,5,1,0,0,0,70,70,100,1,,,,,,,,
,,,,,,,,,,,,,FF,,,,,,,,2.05,,,,,,,,,,,,,,,,,,,,,,610327b3d3eafd74891133fe,61036d8b8d4ce36d1951f698,2021-07-29_23h18.05.947,Simcolourproject_2stim_asymm_v5,2020.2.10,MacIntel,60,61025ae37ef11b136ea224fe,,,,,,,,,1218,-93,-35,1,0,0,response5disk,,2,13,10,1,0,0,rectangle,13,10,1,0,0,13,10,1,0,0,0,71,71,159,1,,,,,,,,
,,,,,,,,,,,,,FF,,,,,,,,4.839,,,,,,,,,,,,,,,,,,,,,,610327b3d3eafd74891133fe,61036d8b8d4ce36d1951f698,2021-07-29_23h18.05.947,Simcolourproject_2stim_asymm_v5,2020.2.10,MacIntel,60,61025ae37ef11b136ea224fe,,,,,,,,,1410,111,-48,1,0,0,response3disk,,5,-11,2,1,0,0,rectangle,-11,2,1,0,0,-11,2,1,0,0,0,72,72,135,1,,,,,,,,
,,,,,,,,,,,,,FF,,,,,,,,1.085,,,,,,,,,,,,,,,,,,,,,,610327b3d3eafd74891133fe,61036d8b8d4ce36d1951f698,2021-07-29_23h18.05.947,Simcolourproject_2stim_asymm_v5,2020.2.10,MacIntel,60,61025ae37ef11b136ea224fe,,,,,,,,,1459,-81,28,1,0,0,response7disk,,1,-1,-2,1,0,0,rectangle,-1,-2,1,0,0,-1,-2,1,0,0,0,73,73,143,1,,,,,,,,
,,,,,,,,,,,,,FF,,,,,,,,0.951,,,,,,,,,,,,,,,,,,,,,,610327b3d3eafd74891133fe,61036d8b8d4ce36d1951f698,2021-07-29_23h18.05.947,Simcolourproject_2stim_asymm_v5,2020.2.10,MacIntel,60,61025ae37ef11b136ea224fe,,,,,,,,,1872,49,-71,1,0,0,response3disk,,4,18,12,1,0,0,rectangle,18,12,1,0,0,18,12,1,0,0,0,74,74,112,1,,,,,,,,
,,,,,,,,,,,,,FF,,,,,,,,1.436,,,,,,,,,,,,,,,,,,,,,,610327b3d3eafd74891133fe,61036d8b8d4ce36d1951f698,2021-07-29_23h18.05.947,Simcolourproject_2stim_asymm_v5,2020.2.10,MacIntel,60,61025ae37ef11b136ea224fe,,,,,,,,,503,80,-30,1,0,0,response3disk,,5,16,12,1,0,0,rectangle,16,12,1,0,0,16,12,1,0,0,0,75,75,107,1,,,,,,,,
,,,,,,,,,,,,,FF,,,,,,,,1.792,,,,,,,,,,,,,,,,,,,,,,610327b3d3eafd74891133fe,61036d8b8d4ce36d1951f698,2021-07-29_23h18.05.947,Simcolourproject_2stim_asymm_v5,2020.2.10,MacIntel,60,61025ae37ef11b136ea224fe,,,,,,,,,333,70,-31,1,0,0,response3disk,,5,4,6,1,0,0,rectangle,-28,67,1,0,0,9,8,1,0,0,0,76,76,85,1,,response7disk_3,TRUE,0,0,"[77,166,220,315,144,238,63,228,120,171,99,125,304,306,197,126,22,187,96,166]",2.123,rectangle
,,,,,,,,,,,,,FF,,,,,,,,1.122,,,,,,,,,,,,,,,,,,,,,,610327b3d3eafd74891133fe,61036d8b8d4ce36d1951f698,2021-07-29_23h18.05.947,Simcolourproject_2stim_asymm_v5,2020.2.10,MacIntel,60,61025ae37ef11b136ea224fe,,,,,,,,,4284,32,85,1,0,0,response1disk,,7,-1,7,1,0,0,rectangle,-1,7,1,0,0,-1,7,1,0,0,0,77,77,132,1,,,,,,,,
,,,,,,,,,,,,,FF,,,,,,,,1.827,,,,,,,,,,,,,,,,,,,,,,610327b3d3eafd74891133fe,61036d8b8d4ce36d1951f698,2021-07-29_23h18.05.947,Simcolourproject_2stim_asymm_v5,2020.2.10,MacIntel,60,61025ae37ef11b136ea224fe,,,,,,,,,11,81,-28,1,0,0,response3disk,,5,13,-2,1,0,0,rectangle,13,-2,1,0,0,13,-2,1,0,0,0,78,78,104,1,,,,,,,,
,,,,,,,,,,,,,FF,,,,,,,,1.18,,,,,,,,,,,,,,,,,,,,,,610327b3d3eafd74891133fe,61036d8b8d4ce36d1951f698,2021-07-29_23h18.05.947,Simcolourproject_2stim_asymm_v5,2020.2.10,MacIntel,60,61025ae37ef11b136ea224fe,,,,,,,,,971,-49,-65,1,0,0,response5disk,,3,-5,-2,1,0,0,rectangle,-5,-2,1,0,0,-5,-2,1,0,0,0,79,79,3,1,,,,,,,,
,,,,,,,,,,,,,FF,,,,,,,,1.684,,,,,,,,,,,,,,,,,,,,,,610327b3d3eafd74891133fe,61036d8b8d4ce36d1951f698,2021-07-29_23h18.05.947,Simcolourproject_2stim_asymm_v5,2020.2.10,MacIntel,60,61025ae37ef11b136ea224fe,,,,,,,,,2688,43,-71,1,0,0,response3disk,,4,-20,14,1,0,0,rectangle,-20,14,1,0,0,-20,14,1,0,0,0,80,80,5,1,,,,,,,,
,,,,,,,,,,,,,FF,,,,,,,,2.16,,,,,,,,,,,,,,,,,,,,,,610327b3d3eafd74891133fe,61036d8b8d4ce36d1951f698,2021-07-29_23h18.05.947,Simcolourproject_2stim_asymm_v5,2020.2.10,MacIntel,60,61025ae37ef11b136ea224fe,,,,,,,,,3773,23,-28,1,0,0,response3disk,,4,7,12,1,0,0,rectangle,7,12,1,0,0,7,12,1,0,0,0,81,81,44,1,,,,,,,,
,,,,,,,,,,,,,FF,,,,,,,,1.204,,,,,,,,,,,,,,,,,,,,,,610327b3d3eafd74891133fe,61036d8b8d4ce36d1951f698,2021-07-29_23h18.05.947,Simcolourproject_2stim_asymm_v5,2020.2.10,MacIntel,60,61025ae37ef11b136ea224fe,,,,,,,,,4203,-81,-35,1,0,0,response5disk,,2,-28,-7,1,0,0,rectangle,-28,-7,1,0,0,-28,-7,1,0,0,0,82,82,6,1,,,,,,,,
,,,,,,,,,,,,,FF,,,,,,,,1.243,,,,,,,,,,,,,,,,,,,,,,610327b3d3eafd74891133fe,61036d8b8d4ce36d1951f698,2021-07-29_23h18.05.947,Simcolourproject_2stim_asymm_v5,2020.2.10,MacIntel,60,61025ae37ef11b136ea224fe,,,,,,,,,1406,46,-29,1,0,0,response3disk,,5,14,-15,1,0,0,rectangle,14,-15,1,0,0,14,-15,1,0,0,0,83,83,106,1,,,,,,,,
,,,,,,,,,,,,,FF,,,,,,,,1.43,,,,,,,,,,,,,,,,,,,,,,610327b3d3eafd74891133fe,61036d8b8d4ce36d1951f698,2021-07-29_23h18.05.947,Simcolourproject_2stim_asymm_v5,2020.2.10,MacIntel,60,61025ae37ef11b136ea224fe,,,,,,,,,1046,77,31,1,0,0,response1disk,,6,16,14,1,0,0,rectangle,16,14,1,0,0,16,14,1,0,0,0,84,84,98,1,,,,,,,,
,,,,,,,,,,,,,FF,,,,,,,,1.05,,,,,,,,,,,,,,,,,,,,,,610327b3d3eafd74891133fe,61036d8b8d4ce36d1951f698,2021-07-29_23h18.05.947,Simcolourproject_2stim_asymm_v5,2020.2.10,MacIntel,60,61025ae37ef11b136ea224fe,,,,,,,,,3946,20,-55,1,0,0,response3disk,,4,5,-5,1,0,0,rectangle,5,-5,1,0,0,5,-5,1,0,0,0,85,85,123,1,,,,,,,,
,,,,,,,,,,,,,FF,,,,,,,,2.741,,,,,,,,,,,,,,,,,,,,,,610327b3d3eafd74891133fe,61036d8b8d4ce36d1951f698,2021-07-29_23h18.05.947,Simcolourproject_2stim_asymm_v5,2020.2.10,MacIntel,60,61025ae37ef11b136ea224fe,,,,,,,,,404,85,25,1,0,0,response1disk,,6,18,7,1,0,0,rectangle,18,7,1,0,0,18,7,1,0,0,0,86,86,11,1,,,,,,,,
,,,,,,,,,,,,,FF,,,,,,,,1.663,,,,,,,,,,,,,,,,,,,,,,610327b3d3eafd74891133fe,61036d8b8d4ce36d1951f698,2021-07-29_23h18.05.947,Simcolourproject_2stim_asymm_v5,2020.2.10,MacIntel,60,61025ae37ef11b136ea224fe,,,,,,,,,92,-47,-94,1,0,0,response5disk,,3,5,-3,1,0,0,rectangle,5,-3,1,0,0,5,-3,1,0,0,0,87,87,93,1,,,,,,,,
,,,,,,,,,,,,,FF,,,,,,,,1.336,,,,,,,,,,,,,,,,,,,,,,610327b3d3eafd74891133fe,61036d8b8d4ce36d1951f698,2021-07-29_23h18.05.947,Simcolourproject_2stim_asymm_v5,2020.2.10,MacIntel,60,61025ae37ef11b136ea224fe,,,,,,,,,4307,73,41,1,0,0,response1disk,,6,6,13,1,0,0,rectangle,6,13,1,0,0,6,13,1,0,0,0,88,88,33,1,,,,,,,,
,,,,,,,,,,,,,FF,,,,,,,,2.049,,,,,,,,,,,,,,,,,,,,,,610327b3d3eafd74891133fe,61036d8b8d4ce36d1951f698,2021-07-29_23h18.05.947,Simcolourproject_2stim_asymm_v5,2020.2.10,MacIntel,60,61025ae37ef11b136ea224fe,,,,,,,,,1018,66,-31,1,0,0,response3disk,,5,8,6,1,0,0,rectangle,8,6,1,0,0,8,6,1,0,0,0,89,89,118,1,,,,,,,,
,,,,,,,,,,,,,FF,,,,,,,,2.758,,,,,,,,,,,,,,,,,,,,,,610327b3d3eafd74891133fe,61036d8b8d4ce36d1951f698,2021-07-29_23h18.05.947,Simcolourproject_2stim_asymm_v5,2020.2.10,MacIntel,60,61025ae37ef11b136ea224fe,,,,,,,,,1923,38,-72,1,0,0,response3disk,,4,12,-9,1,0,0,rectangle,12,-9,1,0,0,12,-9,1,0,0,0,90,90,139,1,,,,,,,,
,,,,,,,,,,,,,FF,,,,,,,,1.699,,,,,,,,,,,,,,,,,,,,,,610327b3d3eafd74891133fe,61036d8b8d4ce36d1951f698,2021-07-29_23h18.05.947,Simcolourproject_2stim_asymm_v5,2020.2.10,MacIntel,60,61025ae37ef11b136ea224fe,,,,,,,,,2801,65,-71,1,0,0,response3disk,,4,21,-10,1,0,0,rectangle,21,-10,1,0,0,21,-10,1,0,0,0,91,91,16,1,,,,,,,,
,,,,,,,,,,,,,FF,,,,,,,,0.79,,,,,,,,,,,,,,,,,,,,,,610327b3d3eafd74891133fe,61036d8b8d4ce36d1951f698,2021-07-29_23h18.05.947,Simcolourproject_2stim_asymm_v5,2020.2.10,MacIntel,60,61025ae37ef11b136ea224fe,,,,,,,,,4099,-57,-88,1,0,0,response5disk,,3,-11,2,1,0,0,rectangle,-11,2,1,0,0,-11,2,1,0,0,0,92,92,47,1,,,,,,,,
,,,,,,,,,,,,,FF,,,,,,,,1.238,,,,,,,,,,,,,,,,,,,,,,610327b3d3eafd74891133fe,61036d8b8d4ce36d1951f698,2021-07-29_23h18.05.947,Simcolourproject_2stim_asymm_v5,2020.2.10,MacIntel,60,61025ae37ef11b136ea224fe,,,,,,,,,588,52,-25,1,0,0,response3disk,,5,3,2,1,0,0,rectangle,3,2,1,0,0,3,2,1,0,0,0,93,93,0,1,,,,,,,,
,,,,,,,,,,,,,FF,,,,,,,,1.38,,,,,,,,,,,,,,,,,,,,,,610327b3d3eafd74891133fe,61036d8b8d4ce36d1951f698,2021-07-29_23h18.05.947,Simcolourproject_2stim_asymm_v5,2020.2.10,MacIntel,60,61025ae37ef11b136ea224fe,,,,,,,,,1754,-79,-45,1,0,0,response5disk,,2,-13,4,1,0,0,rectangle,-13,4,1,0,0,-13,4,1,0,0,0,94,94,157,1,,,,,,,,
,,,,,,,,,,,,,FF,,,,,,,,1.534,,,,,,,,,,,,,,,,,,,,,,610327b3d3eafd74891133fe,61036d8b8d4ce36d1951f698,2021-07-29_23h18.05.947,Simcolourproject_2stim_asymm_v5,2020.2.10,MacIntel,60,61025ae37ef11b136ea224fe,,,,,,,,,880,61,-27,1,0,0,response3disk,,5,13,-2,1,0,0,rectangle,84,-43,1,0,0,12,-15,1,0,0,0,95,95,130,1,,response3disk_3,TRUE,5,5,"[77,166,220,315,144,238,63,228,120,171,99,125,304,306,197,126,22,187,96,166]",2.28,rectangle
,,,,,,,,,,,,,FF,,,,,,,,2.317,,,,,,,,,,,,,,,,,,,,,,610327b3d3eafd74891133fe,61036d8b8d4ce36d1951f698,2021-07-29_23h18.05.947,Simcolourproject_2stim_asymm_v5,2020.2.10,MacIntel,60,61025ae37ef11b136ea224fe,,,,,,,,,3608,43,-20,1,0,0,response3disk,,5,1,-4,1,0,0,rectangle,1,-4,1,0,0,1,-4,1,0,0,0,96,96,4,1,,,,,,,,
,,,,,,,,,,,,,FF,,,,,,,,1.488,,,,,,,,,,,,,,,,,,,,,,610327b3d3eafd74891133fe,61036d8b8d4ce36d1951f698,2021-07-29_23h18.05.947,Simcolourproject_2stim_asymm_v5,2020.2.10,MacIntel,60,61025ae37ef11b136ea224fe,,,,,,,,,541,96,-38,1,0,0,response3disk,,5,-12,-4,1,0,0,rectangle,-12,-4,1,0,0,-12,-4,1,0,0,0,97,97,75,1,,,,,,,,
,,,,,,,,,,,,,FF,,,,,,,,2.087,,,,,,,,,,,,,,,,,,,,,,610327b3d3eafd74891133fe,61036d8b8d4ce36d1951f698,2021-07-29_23h18.05.947,Simcolourproject_2stim_asymm_v5,2020.2.10,MacIntel,60,61025ae37ef11b136ea224fe,,,,,,,,,2620,20,-53,1,0,0,response3disk,,4,-18,1,1,0,0,rectangle,44,-23,1,0,0,19,-8,1,0,0,0,98,98,27,1,,response3disk_3,TRUE,5,5,"[77,166,220,315,144,238,63,228,120,171,99,125,304,306,197,126,22,187,96,166]",1.365,rectangle
,,,,,,,,,,,,,FF,,,,,,,,1.522,,,,,,,,,,,,,,,,,,,,,,610327b3d3eafd74891133fe,61036d8b8d4ce36d1951f698,2021-07-29_23h18.05.947,Simcolourproject_2stim_asymm_v5,2020.2.10,MacIntel,60,61025ae37ef11b136ea224fe,,,,,,,,,779,64,-27,1,0,0,response3disk,,5,8,-9,1,0,0,rectangle,8,-9,1,0,0,8,-9,1,0,0,0,99,99,147,1,,,,,,,,
,,,,,,,,,,,,,FF,,,,,,,,0.934,,,,,,,,,,,,,,,,,,,,,,610327b3d3eafd74891133fe,61036d8b8d4ce36d1951f698,2021-07-29_23h18.05.947,Simcolourproject_2stim_asymm_v5,2020.2.10,MacIntel,60,61025ae37ef11b136ea224fe,,,,,,,,,2786,30,-71,1,0,0,response3disk,,4,16,-6,1,0,0,rectangle,16,-6,1,0,0,16,-6,1,0,0,0,100,100,103,1,,,,,,,,
,,,,,,,,,,,,,FF,,,,,,,,1.381,,,,,,,,,,,,,,,,,,,,,,610327b3d3eafd74891133fe,61036d8b8d4ce36d1951f698,2021-07-29_23h18.05.947,Simcolourproject_2stim_asymm_v5,2020.2.10,MacIntel,60,61025ae37ef11b136ea224fe,,,,,,,,,3828,57,-35,1,0,0,response3disk,,5,12,-9,1,0,0,rectangle,12,-9,1,0,0,12,-9,1,0,0,0,101,101,91,1,,,,,,,,
,,,,,,,,,,,,,FF,,,,,,,,0.866,,,,,,,,,,,,,,,,,,,,,,610327b3d3eafd74891133fe,61036d8b8d4ce36d1951f698,2021-07-29_23h18.05.947,Simcolourproject_2stim_asymm_v5,2020.2.10,MacIntel,60,61025ae37ef11b136ea224fe,,,,,,,,,2887,-72,-36,1,0,0,response5disk,,2,-19,5,1,0,0,rectangle,-19,5,1,0,0,-19,5,1,0,0,0,102,102,125,1,,,,,,,,
,,,,,,,,,,,,,FF,,,,,,,,1.538,,,,,,,,,,,,,,,,,,,,,,610327b3d3eafd74891133fe,61036d8b8d4ce36d1951f698,2021-07-29_23h18.05.947,Simcolourproject_2stim_asymm_v5,2020.2.10,MacIntel,60,61025ae37ef11b136ea224fe,,,,,,,,,975,-67,43,1,0,0,response7disk,,1,-9,11,1,0,0,rectangle,-9,11,1,0,0,-9,11,1,0,0,0,103,103,17,1,,,,,,,,
,,,,,,,,,,,,,FF,,,,,,,,1.153,,,,,,,,,,,,,,,,,,,,,,610327b3d3eafd74891133fe,61036d8b8d4ce36d1951f698,2021-07-29_23h18.05.947,Simcolourproject_2stim_asymm_v5,2020.2.10,MacIntel,60,61025ae37ef11b136ea224fe,,,,,,,,,1599,-58,-38,1,0,0,response5disk,,2,7,-12,1,0,0,rectangle,7,-12,1,0,0,7,-12,1,0,0,0,104,104,19,1,,,,,,,,
,,,,,,,,,,,,,FF,,,,,,,,1.27,,,,,,,,,,,,,,,,,,,,,,610327b3d3eafd74891133fe,61036d8b8d4ce36d1951f698,2021-07-29_23h18.05.947,Simcolourproject_2stim_asymm_v5,2020.2.10,MacIntel,60,61025ae37ef11b136ea224fe,,,,,,,,,3508,29,-52,1,0,0,response3disk,,4,13,0,1,0,0,rectangle,13,0,1,0,0,13,0,1,0,0,0,105,105,124,1,,,,,,,,
,,,,,,,,,,,,,FF,,,,,,,,1.056,,,,,,,,,,,,,,,,,,,,,,610327b3d3eafd74891133fe,61036d8b8d4ce36d1951f698,2021-07-29_23h18.05.947,Simcolourproject_2stim_asymm_v5,2020.2.10,MacIntel,60,61025ae37ef11b136ea224fe,,,,,,,,,2328,89,38,1,0,0,response1disk,,6,19,8,1,0,0,rectangle,19,8,1,0,0,19,8,1,0,0,0,106,106,22,1,,,,,,,,
,,,,,,,,,,,,,FF,,,,,,,,1.073,,,,,,,,,,,,,,,,,,,,,,610327b3d3eafd74891133fe,61036d8b8d4ce36d1951f698,2021-07-29_23h18.05.947,Simcolourproject_2stim_asymm_v5,2020.2.10,MacIntel,60,61025ae37ef11b136ea224fe,,,,,,,,,435,-29,-58,1,0,0,response5disk,,3,-14,3,1,0,0,rectangle,-14,3,1,0,0,-14,3,1,0,0,0,107,107,133,1,,,,,,,,
,,,,,,,,,,,,,FF,,,,,,,,1.435,,,,,,,,,,,,,,,,,,,,,,610327b3d3eafd74891133fe,61036d8b8d4ce36d1951f698,2021-07-29_23h18.05.947,Simcolourproject_2stim_asymm_v5,2020.2.10,MacIntel,60,61025ae37ef11b136ea224fe,,,,,,,,,3767,42,85,1,0,0,response1disk,,7,-3,10,1,0,0,rectangle,-3,10,1,0,0,-3,10,1,0,0,0,108,108,158,1,,,,,,,,
,,,,,,,,,,,,,FF,,,,,,,,1.633,,,,,,,,,,,,,,,,,,,,,,610327b3d3eafd74891133fe,61036d8b8d4ce36d1951f698,2021-07-29_23h18.05.947,Simcolourproject_2stim_asymm_v5,2020.2.10,MacIntel,60,61025ae37ef11b136ea224fe,,,,,,,,,4022,-40,-78,1,0,0,response5disk,,3,7,4,1,0,0,rectangle,7,4,1,0,0,7,4,1,0,0,0,109,109,140,1,,,,,,,,
,,,,,,,,,,,,,FF,,,,,,,,0.73,,,,,,,,,,,,,,,,,,,,,,610327b3d3eafd74891133fe,61036d8b8d4ce36d1951f698,2021-07-29_23h18.05.947,Simcolourproject_2stim_asymm_v5,2020.2.10,MacIntel,60,61025ae37ef11b136ea224fe,,,,,,,,,3180,62,-32,1,0,0,response3disk,,5,5,-5,1,0,0,rectangle,5,-5,1,0,0,5,-5,1,0,0,0,110,110,35,1,,,,,,,,
,,,,,,,,,,,,,FF,,,,,,,,0.845,,,,,,,,,,,,,,,,,,,,,,610327b3d3eafd74891133fe,61036d8b8d4ce36d1951f698,2021-07-29_23h18.05.947,Simcolourproject_2stim_asymm_v5,2020.2.10,MacIntel,60,61025ae37ef11b136ea224fe,,,,,,,,,1815,-47,84,1,0,0,response7disk,,0,-20,13,1,0,0,rectangle,-20,13,1,0,0,-20,13,1,0,0,0,111,111,66,1,,,,,,,,
,,,,,,,,,,,,,FF,,,,,,,,0.902,,,,,,,,,,,,,,,,,,,,,,610327b3d3eafd74891133fe,61036d8b8d4ce36d1951f698,2021-07-29_23h18.05.947,Simcolourproject_2stim_asymm_v5,2020.2.10,MacIntel,60,61025ae37ef11b136ea224fe,,,,,,,,,1101,90,38,1,0,0,response1disk,,6,9,-5,1,0,0,rectangle,9,-5,1,0,0,9,-5,1,0,0,0,112,112,119,1,,,,,,,,
,,,,,,,,,,,,,FF,,,,,,,,0.8,,,,,,,,,,,,,,,,,,,,,,610327b3d3eafd74891133fe,61036d8b8d4ce36d1951f698,2021-07-29_23h18.05.947,Simcolourproject_2stim_asymm_v5,2020.2.10,MacIntel,60,61025ae37ef11b136ea224fe,,,,,,,,,3383,-102,-42,1,0,0,response5disk,,2,13,5,1,0,0,rectangle,13,5,1,0,0,13,5,1,0,0,0,113,113,10,1,,,,,,,,
,,,,,,,,,,,,,FF,,,,,,,,0.695,,,,,,,,,,,,,,,,,,,,,,610327b3d3eafd74891133fe,61036d8b8d4ce36d1951f698,2021-07-29_23h18.05.947,Simcolourproject_2stim_asymm_v5,2020.2.10,MacIntel,60,61025ae37ef11b136ea224fe,,,,,,,,,3658,71,-22,1,0,0,response3disk,,5,9,-9,1,0,0,rectangle,9,-9,1,0,0,9,-9,1,0,0,0,114,114,38,1,,,,,,,,
,,,,,,,,,,,,,FF,,,,,,,,1.28,,,,,,,,,,,,,,,,,,,,,,610327b3d3eafd74891133fe,61036d8b8d4ce36d1951f698,2021-07-29_23h18.05.947,Simcolourproject_2stim_asymm_v5,2020.2.10,MacIntel,60,61025ae37ef11b136ea224fe,,,,,,,,,161,60,-37,1,0,0,response3disk,,5,-24,-6,1,0,0,rectangle,-24,-6,1,0,0,-24,-6,1,0,0,0,115,115,96,1,,,,,,,,
,,,,,,,,,,,,,FF,,,,,,,,0.947,,,,,,,,,,,,,,,,,,,,,,610327b3d3eafd74891133fe,61036d8b8d4ce36d1951f698,2021-07-29_23h18.05.947,Simcolourproject_2stim_asymm_v5,2020.2.10,MacIntel,60,61025ae37ef11b136ea224fe,,,,,,,,,765,82,49,1,0,0,response1disk,,6,14,10,1,0,0,rectangle,14,10,1,0,0,14,10,1,0,0,0,116,116,81,1,,,,,,,,
,,,,,,,,,,,,,FF,,,,,,,,1.253,,,,,,,,,,,,,,,,,,,,,,610327b3d3eafd74891133fe,61036d8b8d4ce36d1951f698,2021-07-29_23h18.05.947,Simcolourproject_2stim_asymm_v5,2020.2.10,MacIntel,60,61025ae37ef11b136ea224fe,,,,,,,,,2874,26,-47,1,0,0,response3disk,,4,6,-3,1,0,0,rectangle,6,-3,1,0,0,6,-3,1,0,0,0,117,117,1,1,,,,,,,,
,,,,,,,,,,,,,FF,,,,,,,,0.798,,,,,,,,,,,,,,,,,,,,,,610327b3d3eafd74891133fe,61036d8b8d4ce36d1951f698,2021-07-29_23h18.05.947,Simcolourproject_2stim_asymm_v5,2020.2.10,MacIntel,60,61025ae37ef11b136ea224fe,,,,,,,,,3512,-55,-28,1,0,0,response5disk,,2,-16,-9,1,0,0,rectangle,-16,-9,1,0,0,-16,-9,1,0,0,0,118,118,62,1,,,,,,,,
,,,,,,,,,,,,,FF,,,,,,,,0.978,,,,,,,,,,,,,,,,,,,,,,610327b3d3eafd74891133fe,61036d8b8d4ce36d1951f698,2021-07-29_23h18.05.947,Simcolourproject_2stim_asymm_v5,2020.2.10,MacIntel,60,61025ae37ef11b136ea224fe,,,,,,,,,741,74,-31,1,0,0,response3disk,,5,3,-3,1,0,0,rectangle,-77,41,1,0,0,-2,10,1,0,0,0,119,119,78,1,,response7disk_3,TRUE,1,1,"[77,166,220,315,144,238,63,228,120,171,99,125,304,306,197,126,22,187,96,166]",1.285,rectangle
,,,,,,,,,,,,,FF,,,,,,,,3.04,,,,,,,,,,,,,,,,,,,,,,610327b3d3eafd74891133fe,61036d8b8d4ce36d1951f698,2021-07-29_23h18.05.947,Simcolourproject_2stim_asymm_v5,2020.2.10,MacIntel,60,61025ae37ef11b136ea224fe,,,,,,,,,300,40,-83,1,0,0,response3disk,,4,-20,9,1,0,0,rectangle,-20,9,1,0,0,-20,9,1,0,0,0,120,120,131,1,,,,,,,,
,,,,,,,,,,,,,FF,,,,,,,,0.814,,,,,,,,,,,,,,,,,,,,,,610327b3d3eafd74891133fe,61036d8b8d4ce36d1951f698,2021-07-29_23h18.05.947,Simcolourproject_2stim_asymm_v5,2020.2.10,MacIntel,60,61025ae37ef11b136ea224fe,,,,,,,,,3231,73,-27,1,0,0,response3disk,,5,26,-11,1,0,0,rectangle,26,-11,1,0,0,26,-11,1,0,0,0,121,121,9,1,,,,,,,,
,,,,,,,,,,,,,FF,,,,,,,,1.032,,,,,,,,,,,,,,,,,,,,,,610327b3d3eafd74891133fe,61036d8b8d4ce36d1951f698,2021-07-29_23h18.05.947,Simcolourproject_2stim_asymm_v5,2020.2.10,MacIntel,60,61025ae37ef11b136ea224fe,,,,,,,,,629,78,28,1,0,0,response1disk,,6,6,0,1,0,0,rectangle,6,0,1,0,0,6,0,1,0,0,0,122,122,145,1,,,,,,,,
,,,,,,,,,,,,,FF,,,,,,,,4.23,,,,,,,,,,,,,,,,,,,,,,610327b3d3eafd74891133fe,61036d8b8d4ce36d1951f698,2021-07-29_23h18.05.947,Simcolourproject_2stim_asymm_v5,2020.2.10,MacIntel,60,61025ae37ef11b136ea224fe,,,,,,,,,419,106,-32,1,0,0,response3disk,,5,-3,-4,1,0,0,rectangle,-3,-4,1,0,0,-3,-4,1,0,0,0,123,123,89,1,,,,,,,,
,,,,,,,,,,,,,FF,,,,,,,,3.213,,,,,,,,,,,,,,,,,,,,,,610327b3d3eafd74891133fe,61036d8b8d4ce36d1951f698,2021-07-29_23h18.05.947,Simcolourproject_2stim_asymm_v5,2020.2.10,MacIntel,60,61025ae37ef11b136ea224fe,,,,,,,,,1233,-48,-76,1,0,0,response5disk,,3,-8,8,1,0,0,rectangle,-67,31,1,0,0,-10,9,1,0,0,0,124,124,2,1,,response7disk_3,TRUE,1,1,"[77,166,220,315,144,238,63,228,120,171,99,125,304,306,197,126,22,187,96,166]",1.209,rectangle
,,,,,,,,,,,,,FF,,,,,,,,1.481,,,,,,,,,,,,,,,,,,,,,,610327b3d3eafd74891133fe,61036d8b8d4ce36d1951f698,2021-07-29_23h18.05.947,Simcolourproject_2stim_asymm_v5,2020.2.10,MacIntel,60,61025ae37ef11b136ea224fe,,,,,,,,,3619,42,-23,1,0,0,response3disk,,5,8,-9,1,0,0,rectangle,-22,-56,1,0,0,12,-2,1,0,0,0,125,125,102,1,,response5disk_3,TRUE,3,3,"[77,166,220,315,144,238,63,228,120,171,99,125,304,306,197,126,22,187,96,166]",1.258,rectangle
,,,,,,,,,,,,,FF,,,,,,,,1.22,,,,,,,,,,,,,,,,,,,,,,610327b3d3eafd74891133fe,61036d8b8d4ce36d1951f698,2021-07-29_23h18.05.947,Simcolourproject_2stim_asymm_v5,2020.2.10,MacIntel,60,61025ae37ef11b136ea224fe,,,,,,,,,4139,51,77,1,0,0,response1disk,,7,11,2,1,0,0,rectangle,11,2,1,0,0,11,2,1,0,0,0,126,126,18,1,,,,,,,,
,,,,,,,,,,,,,FF,,,,,,,,0.757,,,,,,,,,,,,,,,,,,,,,,610327b3d3eafd74891133fe,61036d8b8d4ce36d1951f698,2021-07-29_23h18.05.947,Simcolourproject_2stim_asymm_v5,2020.2.10,MacIntel,60,61025ae37ef11b136ea224fe,,,,,,,,,3106,-75,-33,1,0,0,response5disk,,2,2,-4,1,0,0,rectangle,2,-4,1,0,0,2,-4,1,0,0,0,127,127,149,1,,,,,,,,
,,,,,,,,,,,,,FF,,,,,,,,0.832,,,,,,,,,,,,,,,,,,,,,,610327b3d3eafd74891133fe,61036d8b8d4ce36d1951f698,2021-07-29_23h18.05.947,Simcolourproject_2stim_asymm_v5,2020.2.10,MacIntel,60,61025ae37ef11b136ea224fe,,,,,,,,,3153,-73,-40,1,0,0,response5disk,,2,-19,-14,1,0,0,rectangle,-19,-14,1,0,0,-19,-14,1,0,0,0,128,128,59,1,,,,,,,,
,,,,,,,,,,,,,FF,,,,,,,,0.742,,,,,,,,,,,,,,,,,,,,,,610327b3d3eafd74891133fe,61036d8b8d4ce36d1951f698,2021-07-29_23h18.05.947,Simcolourproject_2stim_asymm_v5,2020.2.10,MacIntel,60,61025ae37ef11b136ea224fe,,,,,,,,,69,55,-31,1,0,0,response3disk,,5,11,-15,1,0,0,rectangle,11,-15,1,0,0,11,-15,1,0,0,0,129,129,154,1,,,,,,,,
,,,,,,,,,,,,,FF,,,,,,,,1.089,,,,,,,,,,,,,,,,,,,,,,610327b3d3eafd74891133fe,61036d8b8d4ce36d1951f698,2021-07-29_23h18.05.947,Simcolourproject_2stim_asymm_v5,2020.2.10,MacIntel,60,61025ae37ef11b136ea224fe,,,,,,,,,2168,38,-81,1,0,0,response3disk,,4,3,-5,1,0,0,rectangle,3,-5,1,0,0,3,-5,1,0,0,0,130,130,36,1,,,,,,,,
,,,,,,,,,,,,,FF,,,,,,,,0.757,,,,,,,,,,,,,,,,,,,,,,610327b3d3eafd74891133fe,61036d8b8d4ce36d1951f698,2021-07-29_23h18.05.947,Simcolourproject_2stim_asymm_v5,2020.2.10,MacIntel,60,61025ae37ef11b136ea224fe,,,,,,,,,1263,80,-30,1,0,0,response3disk,,5,22,-6,1,0,0,rectangle,22,-6,1,0,0,22,-6,1,0,0,0,131,131,31,1,,,,,,,,
,,,,,,,,,,,,,FF,,,,,,,,0.718,,,,,,,,,,,,,,,,,,,,,,610327b3d3eafd74891133fe,61036d8b8d4ce36d1951f698,2021-07-29_23h18.05.947,Simcolourproject_2stim_asymm_v5,2020.2.10,MacIntel,60,61025ae37ef11b136ea224fe,,,,,,,,,2598,-38,-74,1,0,0,response5disk,,3,22,-5,1,0,0,rectangle,22,-5,1,0,0,22,-5,1,0,0,0,132,132,134,1,,,,,,,,
,,,,,,,,,,,,,FF,,,,,,,,0.82,,,,,,,,,,,,,,,,,,,,,,610327b3d3eafd74891133fe,61036d8b8d4ce36d1951f698,2021-07-29_23h18.05.947,Simcolourproject_2stim_asymm_v5,2020.2.10,MacIntel,60,61025ae37ef11b136ea224fe,,,,,,,,,2363,-90,-29,1,0,0,response5disk,,2,-13,-2,1,0,0,rectangle,-13,-2,1,0,0,-13,-2,1,0,0,0,133,133,14,1,,,,,,,,
,,,,,,,,,,,,,FF,,,,,,,,1.269,,,,,,,,,,,,,,,,,,,,,,610327b3d3eafd74891133fe,61036d8b8d4ce36d1951f698,2021-07-29_23h18.05.947,Simcolourproject_2stim_asymm_v5,2020.2.10,MacIntel,60,61025ae37ef11b136ea224fe,,,,,,,,,1630,65,-37,1,0,0,response3disk,,5,2,15,1,0,0,rectangle,2,15,1,0,0,2,15,1,0,0,0,134,134,71,1,,,,,,,,
,,,,,,,,,,,,,FF,,,,,,,,1.233,,,,,,,,,,,,,,,,,,,,,,610327b3d3eafd74891133fe,61036d8b8d4ce36d1951f698,2021-07-29_23h18.05.947,Simcolourproject_2stim_asymm_v5,2020.2.10,MacIntel,60,61025ae37ef11b136ea224fe,,,,,,,,,3028,81,-38,1,0,0,response3disk,,5,17,2,1,0,0,rectangle,17,2,1,0,0,17,2,1,0,0,0,135,135,30,1,,,,,,,,
,,,,,,,,,,,,,FF,,,,,,,,1.341,,,,,,,,,,,,,,,,,,,,,,610327b3d3eafd74891133fe,61036d8b8d4ce36d1951f698,2021-07-29_23h18.05.947,Simcolourproject_2stim_asymm_v5,2020.2.10,MacIntel,60,61025ae37ef11b136ea224fe,,,,,,,,,6,29,-74,1,0,0,response3disk,,4,15,-1,1,0,0,rectangle,15,-1,1,0,0,15,-1,1,0,0,0,136,136,60,1,,,,,,,,
,,,,,,,,,,,,,FF,,,,,,,,1.688,,,,,,,,,,,,,,,,,,,,,,610327b3d3eafd74891133fe,61036d8b8d4ce36d1951f698,2021-07-29_23h18.05.947,Simcolourproject_2stim_asymm_v5,2020.2.10,MacIntel,60,61025ae37ef11b136ea224fe,,,,,,,,,2972,92,47,1,0,0,response1disk,,6,9,10,1,0,0,rectangle,9,10,1,0,0,9,10,1,0,0,0,137,137,97,1,,,,,,,,
,,,,,,,,,,,,,FF,,,,,,,,1.336,,,,,,,,,,,,,,,,,,,,,,610327b3d3eafd74891133fe,61036d8b8d4ce36d1951f698,2021-07-29_23h18.05.947,Simcolourproject_2stim_asymm_v5,2020.2.10,MacIntel,60,61025ae37ef11b136ea224fe,,,,,,,,,146,74,-35,1,0,0,response3disk,,5,9,-1,1,0,0,rectangle,9,-1,1,0,0,9,-1,1,0,0,0,138,138,39,1,,,,,,,,
,,,,,,,,,,,,,FF,,,,,,,,0.824,,,,,,,,,,,,,,,,,,,,,,610327b3d3eafd74891133fe,61036d8b8d4ce36d1951f698,2021-07-29_23h18.05.947,Simcolourproject_2stim_asymm_v5,2020.2.10,MacIntel,60,61025ae37ef11b136ea224fe,,,,,,,,,416,68,-25,1,0,0,response3disk,,5,14,1,1,0,0,rectangle,14,1,1,0,0,14,1,1,0,0,0,139,139,43,1,,,,,,,,
,,,,,,,,,,,,,FF,,,,,,,,0.777,,,,,,,,,,,,,,,,,,,,,,610327b3d3eafd74891133fe,61036d8b8d4ce36d1951f698,2021-07-29_23h18.05.947,Simcolourproject_2stim_asymm_v5,2020.2.10,MacIntel,60,61025ae37ef11b136ea224fe,,,,,,,,,2230,-44,-75,1,0,0,response5disk,,3,-13,7,1,0,0,rectangle,-13,7,1,0,0,-13,7,1,0,0,0,140,140,37,1,,,,,,,,
,,,,,,,,,,,,,FF,,,,,,,,1.252,,,,,,,,,,,,,,,,,,,,,,610327b3d3eafd74891133fe,61036d8b8d4ce36d1951f698,2021-07-29_23h18.05.947,Simcolourproject_2stim_asymm_v5,2020.2.10,MacIntel,60,61025ae37ef11b136ea224fe,,,,,,,,,554,-35,-65,1,0,0,response5disk,,3,3,-1,1,0,0,rectangle,3,-1,1,0,0,3,-1,1,0,0,0,141,141,41,1,,,,,,,,
,,,,,,,,,,,,,FF,,,,,,,,1.562,,,,,,,,,,,,,,,,,,,,,,610327b3d3eafd74891133fe,61036d8b8d4ce36d1951f698,2021-07-29_23h18.05.947,Simcolourproject_2stim_asymm_v5,2020.2.10,MacIntel,60,61025ae37ef11b136ea224fe,,,,,,,,,2390,57,-28,1,0,0,response3disk,,5,-11,0,1,0,0,rectangle,-11,0,1,0,0,-11,0,1,0,0,0,142,142,56,1,,,,,,,,
,,,,,,,,,,,,,FF,,,,,,,,1.11,,,,,,,,,,,,,,,,,,,,,,610327b3d3eafd74891133fe,61036d8b8d4ce36d1951f698,2021-07-29_23h18.05.947,Simcolourproject_2stim_asymm_v5,2020.2.10,MacIntel,60,61025ae37ef11b136ea224fe,,,,,,,,,4262,53,-29,1,0,0,response3disk,,5,11,-6,1,0,0,rectangle,-81,36,1,0,0,-8,6,1,0,0,0,143,143,51,1,,response7disk_3,TRUE,1,1,"[77,166,220,315,144,238,63,228,120,171,99,125,304,306,197,126,22,187,96,166]",1.173,rectangle
,,,,,,,,,,,,,FF,,,,,,,,0.83,,,,,,,,,,,,,,,,,,,,,,610327b3d3eafd74891133fe,61036d8b8d4ce36d1951f698,2021-07-29_23h18.05.947,Simcolourproject_2stim_asymm_v5,2020.2.10,MacIntel,60,61025ae37ef11b136ea224fe,,,,,,,,,3047,-81,48,1,0,0,response7disk,,1,-23,10,1,0,0,rectangle,-23,10,1,0,0,-23,10,1,0,0,0,144,144,48,1,,,,,,,,
,,,,,,,,,,,,,FF,,,,,,,,0.879,,,,,,,,,,,,,,,,,,,,,,610327b3d3eafd74891133fe,61036d8b8d4ce36d1951f698,2021-07-29_23h18.05.947,Simcolourproject_2stim_asymm_v5,2020.2.10,MacIntel,60,61025ae37ef11b136ea224fe,,,,,,,,,2065,82,-40,1,0,0,response3disk,,5,9,-9,1,0,0,rectangle,9,-9,1,0,0,9,-9,1,0,0,0,145,145,57,1,,,,,,,,
,,,,,,,,,,,,,FF,,,,,,,,0.734,,,,,,,,,,,,,,,,,,,,,,610327b3d3eafd74891133fe,61036d8b8d4ce36d1951f698,2021-07-29_23h18.05.947,Simcolourproject_2stim_asymm_v5,2020.2.10,MacIntel,60,61025ae37ef11b136ea224fe,,,,,,,,,3384,-81,-25,1,0,0,response5disk,,2,18,4,1,0,0,rectangle,18,4,1,0,0,18,4,1,0,0,0,146,146,110,1,,,,,,,,
,,,,,,,,,,,,,FF,,,,,,,,1.082,,,,,,,,,,,,,,,,,,,,,,610327b3d3eafd74891133fe,61036d8b8d4ce36d1951f698,2021-07-29_23h18.05.947,Simcolourproject_2stim_asymm_v5,2020.2.10,MacIntel,60,61025ae37ef11b136ea224fe,,,,,,,,,341,81,33,1,0,0,response1disk,,6,8,4,1,0,0,rectangle,8,4,1,0,0,8,4,1,0,0,0,147,147,26,1,,,,,,,,
,,,,,,,,,,,,,FF,,,,,,,,1.035,,,,,,,,,,,,,,,,,,,,,,610327b3d3eafd74891133fe,61036d8b8d4ce36d1951f698,2021-07-29_23h18.05.947,Simcolourproject_2stim_asymm_v5,2020.2.10,MacIntel,60,61025ae37ef11b136ea224fe,,,,,,,,,349,-77,-44,1,0,0,response5disk,,2,13,8,1,0,0,rectangle,13,8,1,0,0,13,8,1,0,0,0,148,148,113,1,,,,,,,,
,,,,,,,,,,,,,FF,,,,,,,,0.97,,,,,,,,,,,,,,,,,,,,,,610327b3d3eafd74891133fe,61036d8b8d4ce36d1951f698,2021-07-29_23h18.05.947,Simcolourproject_2stim_asymm_v5,2020.2.10,MacIntel,60,61025ae37ef11b136ea224fe,,,,,,,,,3407,38,81,1,0,0,response1disk,,7,3,0,1,0,0,rectangle,3,0,1,0,0,3,0,1,0,0,0,149,149,63,1,,,,,,,,
,,,,,,,,,,,,,FF,,,,,,,,0.884,,,,,,,,,,,,,,,,,,,,,,610327b3d3eafd74891133fe,61036d8b8d4ce36d1951f698,2021-07-29_23h18.05.947,Simcolourproject_2stim_asymm_v5,2020.2.10,MacIntel,60,61025ae37ef11b136ea224fe,,,,,,,,,2870,70,-28,1,0,0,response3disk,,5,14,-1,1,0,0,rectangle,14,-1,1,0,0,14,-1,1,0,0,0,150,150,108,1,,,,,,,,
,,,,,,,,,,,,,FF,,,,,,,,0.962,,,,,,,,,,,,,,,,,,,,,,610327b3d3eafd74891133fe,61036d8b8d4ce36d1951f698,2021-07-29_23h18.05.947,Simcolourproject_2stim_asymm_v5,2020.2.10,MacIntel,60,61025ae37ef11b136ea224fe,,,,,,,,,1639,44,-68,1,0,0,response3disk,,4,24,-7,1,0,0,rectangle,24,-7,1,0,0,24,-7,1,0,0,0,151,151,68,1,,,,,,,,
,,,,,,,,,,,,,FF,,,,,,,,0.749,,,,,,,,,,,,,,,,,,,,,,610327b3d3eafd74891133fe,61036d8b8d4ce36d1951f698,2021-07-29_23h18.05.947,Simcolourproject_2stim_asymm_v5,2020.2.10,MacIntel,60,61025ae37ef11b136ea224fe,,,,,,,,,3630,-82,41,1,0,0,response7disk,,1,-5,8,1,0,0,rectangle,-5,8,1,0,0,-5,8,1,0,0,0,152,152,21,1,,,,,,,,
,,,,,,,,,,,,,FF,,,,,,,,0.883,,,,,,,,,,,,,,,,,,,,,,610327b3d3eafd74891133fe,61036d8b8d4ce36d1951f698,2021-07-29_23h18.05.947,Simcolourproject_2stim_asymm_v5,2020.2.10,MacIntel,60,61025ae37ef11b136ea224fe,,,,,,,,,247,83,-31,1,0,0,response3disk,,5,13,-3,1,0,0,rectangle,13,-3,1,0,0,13,-3,1,0,0,0,153,153,155,1,,,,,,,,
,,,,,,,,,,,,,FF,,,,,,,,1.921,,,,,,,,,,,,,,,,,,,,,,610327b3d3eafd74891133fe,61036d8b8d4ce36d1951f698,2021-07-29_23h18.05.947,Simcolourproject_2stim_asymm_v5,2020.2.10,MacIntel,60,61025ae37ef11b136ea224fe,,,,,,,,,2290,80,21,1,0,0,response1disk,,6,15,1,1,0,0,rectangle,15,1,1,0,0,15,1,1,0,0,0,154,154,67,1,,,,,,,,
,,,,,,,,,,,,,FF,,,,,,,,0.785,,,,,,,,,,,,,,,,,,,,,,610327b3d3eafd74891133fe,61036d8b8d4ce36d1951f698,2021-07-29_23h18.05.947,Simcolourproject_2stim_asymm_v5,2020.2.10,MacIntel,60,61025ae37ef11b136ea224fe,,,,,,,,,145,75,-49,1,0,0,response3disk,,5,8,-7,1,0,0,rectangle,8,-7,1,0,0,8,-7,1,0,0,0,155,155,40,1,,,,,,,,
,,,,,,,,,,,,,FF,,,,,,,,1.119,,,,,,,,,,,,,,,,,,,,,,610327b3d3eafd74891133fe,61036d8b8d4ce36d1951f698,2021-07-29_23h18.05.947,Simcolourproject_2stim_asymm_v5,2020.2.10,MacIntel,60,61025ae37ef11b136ea224fe,,,,,,,,,1761,48,-72,1,0,0,response3disk,,4,14,-2,1,0,0,rectangle,14,-2,1,0,0,14,-2,1,0,0,0,156,156,116,1,,,,,,,,
,,,,,,,,,,,,,FF,,,,,,,,0.845,,,,,,,,,,,,,,,,,,,,,,610327b3d3eafd74891133fe,61036d8b8d4ce36d1951f698,2021-07-29_23h18.05.947,Simcolourproject_2stim_asymm_v5,2020.2.10,MacIntel,60,61025ae37ef11b136ea224fe,,,,,,,,,3686,32,-57,1,0,0,response3disk,,4,30,4,1,0,0,rectangle,30,4,1,0,0,30,4,1,0,0,0,157,157,83,1,,,,,,,,
,,,,,,,,,,,,,FF,,,,,,,,0.819,,,,,,,,,,,,,,,,,,,,,,610327b3d3eafd74891133fe,61036d8b8d4ce36d1951f698,2021-07-29_23h18.05.947,Simcolourproject_2stim_asymm_v5,2020.2.10,MacIntel,60,61025ae37ef11b136ea224fe,,,,,,,,,3172,67,-34,1,0,0,response3disk,,5,8,-13,1,0,0,rectangle,8,-13,1,0,0,8,-13,1,0,0,0,158,158,55,1,,,,,,,,
,,,,,,,,,,,,,FF,,,,,,,,1.006,,,,,,,,,,,,,,,,,,,,,,610327b3d3eafd74891133fe,61036d8b8d4ce36d1951f698,2021-07-29_23h18.05.947,Simcolourproject_2stim_asymm_v5,2020.2.10,MacIntel,60,61025ae37ef11b136ea224fe,,,,,,,,,1615,-27,-69,1,0,0,response5disk,,3,-11,11,1,0,0,rectangle,-11,11,1,0,0,-11,11,1,0,0,0,159,159,129,1,,,,,,,,
,,,,,,,,,,,,,FF,,,,,,,,1.219,,,,,,,,,,,,,,,,,,,,,,610327b3d3eafd74891133fe,61036d8b8d4ce36d1951f698,2021-07-29_23h18.05.947,Simcolourproject_2stim_asymm_v5,2020.2.10,MacIntel,60,61025ae37ef11b136ea224fe,,,,,,,,,2534,30,-67,1,0,0,response3disk,,4,22,-3,1,0,0,rectangle,22,-3,1,0,0,22,-3,1,0,0,1,0,160,70,1,,,,,,,,
,,,,,,,,,,,,,FF,,,,,,,,0.957,,,,,,,,,,,,,,,,,,,,,,610327b3d3eafd74891133fe,61036d8b8d4ce36d1951f698,2021-07-29_23h18.05.947,Simcolourproject_2stim_asymm_v5,2020.2.10,MacIntel,60,61025ae37ef11b136ea224fe,,,,,,,,,4344,-58,89,1,0,0,response7disk,,0,-14,10,1,0,0,rectangle,-14,10,1,0,0,-14,10,1,0,0,1,1,161,34,1,,,,,,,,
,,,,,,,,,,,,,FF,,,,,,,,0.71,,,,,,,,,,,,,,,,,,,,,,610327b3d3eafd74891133fe,61036d8b8d4ce36d1951f698,2021-07-29_23h18.05.947,Simcolourproject_2stim_asymm_v5,2020.2.10,MacIntel,60,61025ae37ef11b136ea224fe,,,,,,,,,3425,-37,56,1,0,0,response7disk,,0,-13,0,1,0,0,rectangle,-13,0,1,0,0,-13,0,1,0,0,1,2,162,28,1,,,,,,,,
,,,,,,,,,,,,,FF,,,,,,,,0.817,,,,,,,,,,,,,,,,,,,,,,610327b3d3eafd74891133fe,61036d8b8d4ce36d1951f698,2021-07-29_23h18.05.947,Simcolourproject_2stim_asymm_v5,2020.2.10,MacIntel,60,61025ae37ef11b136ea224fe,,,,,,,,,2674,-56,-60,1,0,0,response5disk,,3,-10,-1,1,0,0,rectangle,-10,-1,1,0,0,-10,-1,1,0,0,1,3,163,138,1,,,,,,,,
,,,,,,,,,,,,,FF,,,,,,,,1.197,,,,,,,,,,,,,,,,,,,,,,610327b3d3eafd74891133fe,61036d8b8d4ce36d1951f698,2021-07-29_23h18.05.947,Simcolourproject_2stim_asymm_v5,2020.2.10,MacIntel,60,61025ae37ef11b136ea224fe,,,,,,,,,3273,87,33,1,0,0,response1disk,,6,14,10,1,0,0,rectangle,14,10,1,0,0,14,10,1,0,0,1,4,164,99,1,,,,,,,,
,,,,,,,,,,,,,FF,,,,,,,,0.755,,,,,,,,,,,,,,,,,,,,,,610327b3d3eafd74891133fe,61036d8b8d4ce36d1951f698,2021-07-29_23h18.05.947,Simcolourproject_2stim_asymm_v5,2020.2.10,MacIntel,60,61025ae37ef11b136ea224fe,,,,,,,,,550,-79,31,1,0,0,response7disk,,1,-18,10,1,0,0,rectangle,65,84,1,0,0,4,-4,1,0,0,1,5,165,110,1,,response1disk_3,TRUE,7,7,"[77,166,220,315,144,238,63,228,120,171,99,125,304,306,197,126,22,187,96,166]",1.237,rectangle
,,,,,,,,,,,,,FF,,,,,,,,0.927,,,,,,,,,,,,,,,,,,,,,,610327b3d3eafd74891133fe,61036d8b8d4ce36d1951f698,2021-07-29_23h18.05.947,Simcolourproject_2stim_asymm_v5,2020.2.10,MacIntel,60,61025ae37ef11b136ea224fe,,,,,,,,,2607,-68,37,1,0,0,response7disk,,1,-3,1,1,0,0,rectangle,-3,1,1,0,0,-3,1,1,0,0,1,6,166,29,1,,,,,,,,
,,,,,,,,,,,,,FF,,,,,,,,0.889,,,,,,,,,,,,,,,,,,,,,,610327b3d3eafd74891133fe,61036d8b8d4ce36d1951f698,2021-07-29_23h18.05.947,Simcolourproject_2stim_asymm_v5,2020.2.10,MacIntel,60,61025ae37ef11b136ea224fe,,,,,,,,,3041,-33,-52,1,0,0,response5disk,,3,1,0,1,0,0,rectangle,1,0,1,0,0,1,0,1,0,0,1,7,167,150,1,,,,,,,,
,,,,,,,,,,,,,FF,,,,,,,,0.888,,,,,,,,,,,,,,,,,,,,,,610327b3d3eafd74891133fe,61036d8b8d4ce36d1951f698,2021-07-29_23h18.05.947,Simcolourproject_2stim_asymm_v5,2020.2.10,MacIntel,60,61025ae37ef11b136ea224fe,,,,,,,,,148,89,41,1,0,0,response1disk,,6,22,-2,1,0,0,rectangle,22,-2,1,0,0,22,-2,1,0,0,1,8,168,101,1,,,,,,,,
,,,,,,,,,,,,,FF,,,,,,,,0.741,,,,,,,,,,,,,,,,,,,,,,610327b3d3eafd74891133fe,61036d8b8d4ce36d1951f698,2021-07-29_23h18.05.947,Simcolourproject_2stim_asymm_v5,2020.2.10,MacIntel,60,61025ae37ef11b136ea224fe,,,,,,,,,1500,77,48,1,0,0,response1disk,,6,9,-4,1,0,0,rectangle,9,-4,1,0,0,9,-4,1,0,0,1,9,169,77,1,,,,,,,,
,,,,,,,,,,,,,FF,,,,,,,,1.042,,,,,,,,,,,,,,,,,,,,,,610327b3d3eafd74891133fe,61036d8b8d4ce36d1951f698,2021-07-29_23h18.05.947,Simcolourproject_2stim_asymm_v5,2020.2.10,MacIntel,60,61025ae37ef11b136ea224fe,,,,,,,,,854,91,33,1,0,0,response1disk,,6,10,6,1,0,0,rectangle,38,-79,1,0,0,21,0,1,0,0,1,10,170,76,1,,response3disk_3,TRUE,4,4,"[77,166,220,315,144,238,63,228,120,171,99,125,304,306,197,126,22,187,96,166]",1.572,rectangle
,,,,,,,,,,,,,FF,,,,,,,,1.226,,,,,,,,,,,,,,,,,,,,,,610327b3d3eafd74891133fe,61036d8b8d4ce36d1951f698,2021-07-29_23h18.05.947,Simcolourproject_2stim_asymm_v5,2020.2.10,MacIntel,60,61025ae37ef11b136ea224fe,,,,,,,,,3053,80,-36,1,0,0,response3disk,,5,9,9,1,0,0,rectangle,9,9,1,0,0,9,9,1,0,0,1,11,171,105,1,,,,,,,,
,,,,,,,,,,,,,FF,,,,,,,,0.833,,,,,,,,,,,,,,,,,,,,,,610327b3d3eafd74891133fe,61036d8b8d4ce36d1951f698,2021-07-29_23h18.05.947,Simcolourproject_2stim_asymm_v5,2020.2.10,MacIntel,60,61025ae37ef11b136ea224fe,,,,,,,,,902,72,-37,1,0,0,response3disk,,5,16,-4,1,0,0,rectangle,16,-4,1,0,0,16,-4,1,0,0,1,12,172,51,1,,,,,,,,
,,,,,,,,,,,,,FF,,,,,,,,0.759,,,,,,,,,,,,,,,,,,,,,,610327b3d3eafd74891133fe,61036d8b8d4ce36d1951f698,2021-07-29_23h18.05.947,Simcolourproject_2stim_asymm_v5,2020.2.10,MacIntel,60,61025ae37ef11b136ea224fe,,,,,,,,,3535,78,28,1,0,0,response1disk,,6,29,4,1,0,0,rectangle,29,4,1,0,0,29,4,1,0,0,1,13,173,5,1,,,,,,,,
,,,,,,,,,,,,,FF,,,,,,,,0.768,,,,,,,,,,,,,,,,,,,,,,610327b3d3eafd74891133fe,61036d8b8d4ce36d1951f698,2021-07-29_23h18.05.947,Simcolourproject_2stim_asymm_v5,2020.2.10,MacIntel,60,61025ae37ef11b136ea224fe,,,,,,,,,898,-50,-84,1,0,0,response5disk,,3,6,2,1,0,0,rectangle,6,2,1,0,0,6,2,1,0,0,1,14,174,112,1,,,,,,,,
,,,,,,,,,,,,,FF,,,,,,,,1.119,,,,,,,,,,,,,,,,,,,,,,610327b3d3eafd74891133fe,61036d8b8d4ce36d1951f698,2021-07-29_23h18.05.947,Simcolourproject_2stim_asymm_v5,2020.2.10,MacIntel,60,61025ae37ef11b136ea224fe,,,,,,,,,2171,-67,-60,1,0,0,response5disk,,2,35,1,1,0,0,rectangle,35,1,1,0,0,35,1,1,0,0,1,15,175,24,1,,,,,,,,
,,,,,,,,,,,,,FF,,,,,,,,2.293,,,,,,,,,,,,,,,,,,,,,,610327b3d3eafd74891133fe,61036d8b8d4ce36d1951f698,2021-07-29_23h18.05.947,Simcolourproject_2stim_asymm_v5,2020.2.10,MacIntel,60,61025ae37ef11b136ea224fe,,,,,,,,,3932,58,-34,1,0,0,response3disk,,5,-3,-15,1,0,0,rectangle,-3,-15,1,0,0,-3,-15,1,0,0,1,16,176,128,1,,,,,,,,
,,,,,,,,,,,,,FF,,,,,,,,1.232,,,,,,,,,,,,,,,,,,,,,,610327b3d3eafd74891133fe,61036d8b8d4ce36d1951f698,2021-07-29_23h18.05.947,Simcolourproject_2stim_asymm_v5,2020.2.10,MacIntel,60,61025ae37ef11b136ea224fe,,,,,,,,,463,35,-85,1,0,0,response3disk,,4,11,15,1,0,0,rectangle,11,15,1,0,0,11,15,1,0,0,1,17,177,125,1,,,,,,,,
,,,,,,,,,,,,,FF,,,,,,,,0.847,,,,,,,,,,,,,,,,,,,,,,610327b3d3eafd74891133fe,61036d8b8d4ce36d1951f698,2021-07-29_23h18.05.947,Simcolourproject_2stim_asymm_v5,2020.2.10,MacIntel,60,61025ae37ef11b136ea224fe,,,,,,,,,2857,77,-36,1,0,0,response3disk,,5,6,-6,1,0,0,rectangle,6,-6,1,0,0,6,-6,1,0,0,1,18,178,88,1,,,,,,,,
,,,,,,,,,,,,,FF,,,,,,,,1.391,,,,,,,,,,,,,,,,,,,,,,610327b3d3eafd74891133fe,61036d8b8d4ce36d1951f698,2021-07-29_23h18.05.947,Simcolourproject_2stim_asymm_v5,2020.2.10,MacIntel,60,61025ae37ef11b136ea224fe,,,,,,,,,1760,37,-70,1,0,0,response3disk,,4,15,-11,1,0,0,rectangle,15,-11,1,0,0,15,-11,1,0,0,1,19,179,95,1,,,,,,,,
,,,,,,,,,,,,,FF,,,,,,,,2.147,,,,,,,,,,,,,,,,,,,,,,610327b3d3eafd74891133fe,61036d8b8d4ce36d1951f698,2021-07-29_23h18.05.947,Simcolourproject_2stim_asymm_v5,2020.2.10,MacIntel,60,61025ae37ef11b136ea224fe,,,,,,,,,2805,95,-42,1,0,0,response3disk,,5,16,-1,1,0,0,rectangle,16,-1,1,0,0,16,-1,1,0,0,1,20,180,55,1,,,,,,,,
,,,,,,,,,,,,,FF,,,,,,,,1.338,,,,,,,,,,,,,,,,,,,,,,610327b3d3eafd74891133fe,61036d8b8d4ce36d1951f698,2021-07-29_23h18.05.947,Simcolourproject_2stim_asymm_v5,2020.2.10,MacIntel,60,61025ae37ef11b136ea224fe,,,,,,,,,3808,-35,-83,1,0,0,response5disk,,3,-4,1,1,0,0,rectangle,-4,1,1,0,0,-4,1,1,0,0,1,21,181,134,1,,,,,,,,
,,,,,,,,,,,,,FF,,,,,,,,1.136,,,,,,,,,,,,,,,,,,,,,,610327b3d3eafd74891133fe,61036d8b8d4ce36d1951f698,2021-07-29_23h18.05.947,Simcolourproject_2stim_asymm_v5,2020.2.10,MacIntel,60,61025ae37ef11b136ea224fe,,,,,,,,,3537,84,-41,1,0,0,response3disk,,5,12,-16,1,0,0,rectangle,12,-16,1,0,0,12,-16,1,0,0,1,22,182,37,1,,,,,,,,
,,,,,,,,,,,,,FF,,,,,,,,1.231,,,,,,,,,,,,,,,,,,,,,,610327b3d3eafd74891133fe,61036d8b8d4ce36d1951f698,2021-07-29_23h18.05.947,Simcolourproject_2stim_asymm_v5,2020.2.10,MacIntel,60,61025ae37ef11b136ea224fe,,,,,,,,,3280,83,31,1,0,0,response1disk,,6,24,10,1,0,0,rectangle,24,10,1,0,0,24,10,1,0,0,1,23,183,109,1,,,,,,,,
,,,,,,,,,,,,,FF,,,,,,,,1.071,,,,,,,,,,,,,,,,,,,,,,610327b3d3eafd74891133fe,61036d8b8d4ce36d1951f698,2021-07-29_23h18.05.947,Simcolourproject_2stim_asymm_v5,2020.2.10,MacIntel,60,61025ae37ef11b136ea224fe,,,,,,,,,36,84,38,1,0,0,response1disk,,6,8,8,1,0,0,rectangle,8,8,1,0,0,8,8,1,0,0,1,24,184,54,1,,,,,,,,
,,,,,,,,,,,,,FF,,,,,,,,0.786,,,,,,,,,,,,,,,,,,,,,,610327b3d3eafd74891133fe,61036d8b8d4ce36d1951f698,2021-07-29_23h18.05.947,Simcolourproject_2stim_asymm_v5,2020.2.10,MacIntel,60,61025ae37ef11b136ea224fe,,,,,,,,,3875,-42,78,1,0,0,response7disk,,0,-10,5,1,0,0,rectangle,-10,5,1,0,0,-10,5,1,0,0,1,25,185,137,1,,,,,,,,
,,,,,,,,,,,,,FF,,,,,,,,0.728,,,,,,,,,,,,,,,,,,,,,,610327b3d3eafd74891133fe,61036d8b8d4ce36d1951f698,2021-07-29_23h18.05.947,Simcolourproject_2stim_asymm_v5,2020.2.10,MacIntel,60,61025ae37ef11b136ea224fe,,,,,,,,,198,73,-39,1,0,0,response3disk,,5,6,7,1,0,0,rectangle,37,-61,1,0,0,34,6,1,0,0,1,26,186,63,1,,response3disk_3,TRUE,4,4,"[77,166,220,315,144,238,63,228,120,171,99,125,304,306,197,126,22,187,96,166]",1.136,rectangle
,,,,,,,,,,,,,FF,,,,,,,,0.802,,,,,,,,,,,,,,,,,,,,,,610327b3d3eafd74891133fe,61036d8b8d4ce36d1951f698,2021-07-29_23h18.05.947,Simcolourproject_2stim_asymm_v5,2020.2.10,MacIntel,60,61025ae37ef11b136ea224fe,,,,,,,,,1518,83,-45,1,0,0,response3disk,,5,21,-7,1,0,0,rectangle,21,-7,1,0,0,21,-7,1,0,0,1,27,187,12,1,,,,,,,,
,,,,,,,,,,,,,FF,,,,,,,,1.234,,,,,,,,,,,,,,,,,,,,,,610327b3d3eafd74891133fe,61036d8b8d4ce36d1951f698,2021-07-29_23h18.05.947,Simcolourproject_2stim_asymm_v5,2020.2.10,MacIntel,60,61025ae37ef11b136ea224fe,,,,,,,,,1516,56,-35,1,0,0,response3disk,,5,0,4,1,0,0,rectangle,0,4,1,0,0,0,4,1,0,0,1,28,188,127,1,,,,,,,,
,,,,,,,,,,,,,FF,,,,,,,,0.736,,,,,,,,,,,,,,,,,,,,,,610327b3d3eafd74891133fe,61036d8b8d4ce36d1951f698,2021-07-29_23h18.05.947,Simcolourproject_2stim_asymm_v5,2020.2.10,MacIntel,60,61025ae37ef11b136ea224fe,,,,,,,,,2664,-34,-59,1,0,0,response5disk,,3,-14,-6,1,0,0,rectangle,-14,-6,1,0,0,-14,-6,1,0,0,1,29,189,21,1,,,,,,,,
,,,,,,,,,,,,,FF,,,,,,,,0.717,,,,,,,,,,,,,,,,,,,,,,610327b3d3eafd74891133fe,61036d8b8d4ce36d1951f698,2021-07-29_23h18.05.947,Simcolourproject_2stim_asymm_v5,2020.2.10,MacIntel,60,61025ae37ef11b136ea224fe,,,,,,,,,1777,45,-29,1,0,0,response3disk,,5,5,-16,1,0,0,rectangle,5,-16,1,0,0,5,-16,1,0,0,1,30,190,22,1,,,,,,,,
,,,,,,,,,,,,,FF,,,,,,,,0.823,,,,,,,,,,,,,,,,,,,,,,610327b3d3eafd74891133fe,61036d8b8d4ce36d1951f698,2021-07-29_23h18.05.947,Simcolourproject_2stim_asymm_v5,2020.2.10,MacIntel,60,61025ae37ef11b136ea224fe,,,,,,,,,3933,79,23,1,0,0,response1disk,,6,9,5,1,0,0,rectangle,9,5,1,0,0,9,5,1,0,0,1,31,191,94,1,,,,,,,,
,,,,,,,,,,,,,FF,,,,,,,,0.989,,,,,,,,,,,,,,,,,,,,,,610327b3d3eafd74891133fe,61036d8b8d4ce36d1951f698,2021-07-29_23h18.05.947,Simcolourproject_2stim_asymm_v5,2020.2.10,MacIntel,60,61025ae37ef11b136ea224fe,,,,,,,,,1502,85,44,1,0,0,response1disk,,6,11,10,1,0,0,rectangle,11,10,1,0,0,11,10,1,0,0,1,32,192,114,1,,,,,,,,
,,,,,,,,,,,,,FF,,,,,,,,0.934,,,,,,,,,,,,,,,,,,,,,,610327b3d3eafd74891133fe,61036d8b8d4ce36d1951f698,2021-07-29_23h18.05.947,Simcolourproject_2stim_asymm_v5,2020.2.10,MacIntel,60,61025ae37ef11b136ea224fe,,,,,,,,,3422,-32,-76,1,0,0,response5disk,,3,-7,-10,1,0,0,rectangle,-7,-10,1,0,0,-7,-10,1,0,0,1,33,193,83,1,,,,,,,,
,,,,,,,,,,,,,FF,,,,,,,,0.766,,,,,,,,,,,,,,,,,,,,,,610327b3d3eafd74891133fe,61036d8b8d4ce36d1951f698,2021-07-29_23h18.05.947,Simcolourproject_2stim_asymm_v5,2020.2.10,MacIntel,60,61025ae37ef11b136ea224fe,,,,,,,,,4001,-40,-61,1,0,0,response5disk,,3,2,-1,1,0,0,rectangle,2,-1,1,0,0,2,-1,1,0,0,1,34,194,40,1,,,,,,,,
,,,,,,,,,,,,,FF,,,,,,,,0.663,,,,,,,,,,,,,,,,,,,,,,610327b3d3eafd74891133fe,61036d8b8d4ce36d1951f698,2021-07-29_23h18.05.947,Simcolourproject_2stim_asymm_v5,2020.2.10,MacIntel,60,61025ae37ef11b136ea224fe,,,,,,,,,2332,76,-37,1,0,0,response3disk,,5,8,-12,1,0,0,rectangle,8,-12,1,0,0,8,-12,1,0,0,1,35,195,30,1,,,,,,,,
,,,,,,,,,,,,,FF,,,,,,,,0.828,,,,,,,,,,,,,,,,,,,,,,610327b3d3eafd74891133fe,61036d8b8d4ce36d1951f698,2021-07-29_23h18.05.947,Simcolourproject_2stim_asymm_v5,2020.2.10,MacIntel,60,61025ae37ef11b136ea224fe,,,,,,,,,3900,29,-70,1,0,0,response3disk,,4,10,-12,1,0,0,rectangle,-78,-31,1,0,0,-2,-11,1,0,0,1,36,196,2,1,,response5disk_3,TRUE,2,2,"[77,166,220,315,144,238,63,228,120,171,99,125,304,306,197,126,22,187,96,166]",1.448,rectangle
,,,,,,,,,,,,,FF,,,,,,,,1.42,,,,,,,,,,,,,,,,,,,,,,610327b3d3eafd74891133fe,61036d8b8d4ce36d1951f698,2021-07-29_23h18.05.947,Simcolourproject_2stim_asymm_v5,2020.2.10,MacIntel,60,61025ae37ef11b136ea224fe,,,,,,,,,578,67,-76,1,0,0,response3disk,,4,13,-9,1,0,0,rectangle,13,-9,1,0,0,13,-9,1,0,0,1,37,197,66,1,,,,,,,,
,,,,,,,,,,,,,FF,,,,,,,,0.648,,,,,,,,,,,,,,,,,,,,,,610327b3d3eafd74891133fe,61036d8b8d4ce36d1951f698,2021-07-29_23h18.05.947,Simcolourproject_2stim_asymm_v5,2020.2.10,MacIntel,60,61025ae37ef11b136ea224fe,,,,,,,,,3737,42,-97,1,0,0,response3disk,,4,0,5,1,0,0,rectangle,0,5,1,0,0,0,5,1,0,0,1,38,198,68,1,,,,,,,,
,,,,,,,,,,,,,FF,,,,,,,,0.985,,,,,,,,,,,,,,,,,,,,,,610327b3d3eafd74891133fe,61036d8b8d4ce36d1951f698,2021-07-29_23h18.05.947,Simcolourproject_2stim_asymm_v5,2020.2.10,MacIntel,60,61025ae37ef11b136ea224fe,,,,,,,,,1648,45,67,1,0,0,response1disk,,7,20,8,1,0,0,rectangle,20,8,1,0,0,20,8,1,0,0,1,39,199,121,1,,,,,,,,
,,,,,,,,,,,,,FF,,,,,,,,0.981,,,,,,,,,,,,,,,,,,,,,,610327b3d3eafd74891133fe,61036d8b8d4ce36d1951f698,2021-07-29_23h18.05.947,Simcolourproject_2stim_asymm_v5,2020.2.10,MacIntel,60,61025ae37ef11b136ea224fe,,,,,,,,,241,49,-78,1,0,0,response3disk,,4,19,0,1,0,0,rectangle,19,0,1,0,0,19,0,1,0,0,1,40,200,106,1,,,,,,,,
,,,,,,,,,,,,,FF,,,,,,,,0.699,,,,,,,,,,,,,,,,,,,,,,610327b3d3eafd74891133fe,61036d8b8d4ce36d1951f698,2021-07-29_23h18.05.947,Simcolourproject_2stim_asymm_v5,2020.2.10,MacIntel,60,61025ae37ef11b136ea224fe,,,,,,,,,3377,-31,-61,1,0,0,response5disk,,3,-6,-8,1,0,0,rectangle,-6,-8,1,0,0,-6,-8,1,0,0,1,41,201,86,1,,,,,,,,
,,,,,,,,,,,,,FF,,,,,,,,0.731,,,,,,,,,,,,,,,,,,,,,,610327b3d3eafd74891133fe,61036d8b8d4ce36d1951f698,2021-07-29_23h18.05.947,Simcolourproject_2stim_asymm_v5,2020.2.10,MacIntel,60,61025ae37ef11b136ea224fe,,,,,,,,,2776,-34,-70,1,0,0,response5disk,,3,-10,-16,1,0,0,rectangle,-10,-16,1,0,0,-10,-16,1,0,0,1,42,202,124,1,,,,,,,,
,,,,,,,,,,,,,FF,,,,,,,,0.87,,,,,,,,,,,,,,,,,,,,,,610327b3d3eafd74891133fe,61036d8b8d4ce36d1951f698,2021-07-29_23h18.05.947,Simcolourproject_2stim_asymm_v5,2020.2.10,MacIntel,60,61025ae37ef11b136ea224fe,,,,,,,,,4058,-39,-56,1,0,0,response5disk,,3,-24,1,1,0,0,rectangle,-24,1,1,0,0,-24,1,1,0,0,1,43,203,131,1,,,,,,,,
,,,,,,,,,,,,,FF,,,,,,,,0.998,,,,,,,,,,,,,,,,,,,,,,610327b3d3eafd74891133fe,61036d8b8d4ce36d1951f698,2021-07-29_23h18.05.947,Simcolourproject_2stim_asymm_v5,2020.2.10,MacIntel,60,61025ae37ef11b136ea224fe,,,,,,,,,4286,94,38,1,0,0,response1disk,,6,4,10,1,0,0,rectangle,4,10,1,0,0,4,10,1,0,0,1,44,204,71,1,,,,,,,,
,,,,,,,,,,,,,FF,,,,,,,,0.691,,,,,,,,,,,,,,,,,,,,,,610327b3d3eafd74891133fe,61036d8b8d4ce36d1951f698,2021-07-29_23h18.05.947,Simcolourproject_2stim_asymm_v5,2020.2.10,MacIntel,60,61025ae37ef11b136ea224fe,,,,,,,,,1212,-55,-22,1,0,0,response5disk,,2,0,4,1,0,0,rectangle,0,4,1,0,0,0,4,1,0,0,1,45,205,8,1,,,,,,,,
,,,,,,,,,,,,,FF,,,,,,,,0.607,,,,,,,,,,,,,,,,,,,,,,610327b3d3eafd74891133fe,61036d8b8d4ce36d1951f698,2021-07-29_23h18.05.947,Simcolourproject_2stim_asymm_v5,2020.2.10,MacIntel,60,61025ae37ef11b136ea224fe,,,,,,,,,2407,82,-24,1,0,0,response3disk,,5,-3,-1,1,0,0,rectangle,-3,-1,1,0,0,-3,-1,1,0,0,1,46,206,35,1,,,,,,,,
,,,,,,,,,,,,,FF,,,,,,,,0.792,,,,,,,,,,,,,,,,,,,,,,610327b3d3eafd74891133fe,61036d8b8d4ce36d1951f698,2021-07-29_23h18.05.947,Simcolourproject_2stim_asymm_v5,2020.2.10,MacIntel,60,61025ae37ef11b136ea224fe,,,,,,,,,2610,-47,-101,1,0,0,response5disk,,3,0,1,1,0,0,rectangle,0,1,1,0,0,0,1,1,0,0,1,47,207,38,1,,,,,,,,
,,,,,,,,,,,,,FF,,,,,,,,1.069,,,,,,,,,,,,,,,,,,,,,,610327b3d3eafd74891133fe,61036d8b8d4ce36d1951f698,2021-07-29_23h18.05.947,Simcolourproject_2stim_asymm_v5,2020.2.10,MacIntel,60,61025ae37ef11b136ea224fe,,,,,,,,,4138,-22,-74,1,0,0,response5disk,,3,4,8,1,0,0,rectangle,4,8,1,0,0,4,8,1,0,0,1,48,208,120,1,,,,,,,,
,,,,,,,,,,,,,FF,,,,,,,,0.641,,,,,,,,,,,,,,,,,,,,,,610327b3d3eafd74891133fe,61036d8b8d4ce36d1951f698,2021-07-29_23h18.05.947,Simcolourproject_2stim_asymm_v5,2020.2.10,MacIntel,60,61025ae37ef11b136ea224fe,,,,,,,,,1598,-39,-55,1,0,0,response5disk,,3,0,0,1,0,0,rectangle,0,0,1,0,0,0,0,1,0,0,1,49,209,50,1,,,,,,,,
,,,,,,,,,,,,,FF,,,,,,,,0.824,,,,,,,,,,,,,,,,,,,,,,610327b3d3eafd74891133fe,61036d8b8d4ce36d1951f698,2021-07-29_23h18.05.947,Simcolourproject_2stim_asymm_v5,2020.2.10,MacIntel,60,61025ae37ef11b136ea224fe,,,,,,,,,2587,63,-37,1,0,0,response3disk,,5,3,-13,1,0,0,rectangle,3,-13,1,0,0,3,-13,1,0,0,1,50,210,107,1,,,,,,,,
,,,,,,,,,,,,,FF,,,,,,,,0.927,,,,,,,,,,,,,,,,,,,,,,610327b3d3eafd74891133fe,61036d8b8d4ce36d1951f698,2021-07-29_23h18.05.947,Simcolourproject_2stim_asymm_v5,2020.2.10,MacIntel,60,61025ae37ef11b136ea224fe,,,,,,,,,1935,35,-71,1,0,0,response3disk,,4,7,5,1,0,0,rectangle,7,5,1,0,0,7,5,1,0,0,1,51,211,108,1,,,,,,,,
,,,,,,,,,,,,,FF,,,,,,,,0.627,,,,,,,,,,,,,,,,,,,,,,610327b3d3eafd74891133fe,61036d8b8d4ce36d1951f698,2021-07-29_23h18.05.947,Simcolourproject_2stim_asymm_v5,2020.2.10,MacIntel,60,61025ae37ef11b136ea224fe,,,,,,,,,1651,63,-39,1,0,0,response3disk,,5,10,-6,1,0,0,rectangle,10,-6,1,0,0,10,-6,1,0,0,1,52,212,52,1,,,,,,,,
,,,,,,,,,,,,,FF,,,,,,,,0.86,,,,,,,,,,,,,,,,,,,,,,610327b3d3eafd74891133fe,61036d8b8d4ce36d1951f698,2021-07-29_23h18.05.947,Simcolourproject_2stim_asymm_v5,2020.2.10,MacIntel,60,61025ae37ef11b136ea224fe,,,,,,,,,4063,51,-25,1,0,0,response3disk,,5,17,-2,1,0,0,rectangle,17,-2,1,0,0,17,-2,1,0,0,1,53,213,100,1,,,,,,,,
,,,,,,,,,,,,,FF,,,,,,,,1.169,,,,,,,,,,,,,,,,,,,,,,610327b3d3eafd74891133fe,61036d8b8d4ce36d1951f698,2021-07-29_23h18.05.947,Simcolourproject_2stim_asymm_v5,2020.2.10,MacIntel,60,61025ae37ef11b136ea224fe,,,,,,,,,2584,49,-30,1,0,0,response3disk,,5,-1,9,1,0,0,rectangle,-1,9,1,0,0,-1,9,1,0,0,1,54,214,48,1,,,,,,,,
,,,,,,,,,,,,,FF,,,,,,,,1.139,,,,,,,,,,,,,,,,,,,,,,610327b3d3eafd74891133fe,61036d8b8d4ce36d1951f698,2021-07-29_23h18.05.947,Simcolourproject_2stim_asymm_v5,2020.2.10,MacIntel,60,61025ae37ef11b136ea224fe,,,,,,,,,1787,32,-56,1,0,0,response3disk,,4,13,-6,1,0,0,rectangle,13,-6,1,0,0,13,-6,1,0,0,1,55,215,104,1,,,,,,,,
,,,,,,,,,,,,,FF,,,,,,,,0.796,,,,,,,,,,,,,,,,,,,,,,610327b3d3eafd74891133fe,61036d8b8d4ce36d1951f698,2021-07-29_23h18.05.947,Simcolourproject_2stim_asymm_v5,2020.2.10,MacIntel,60,61025ae37ef11b136ea224fe,,,,,,,,,2739,63,22,1,0,0,response1disk,,6,15,0,1,0,0,rectangle,15,0,1,0,0,15,0,1,0,0,1,56,216,65,1,,,,,,,,
,,,,,,,,,,,,,FF,,,,,,,,0.75,,,,,,,,,,,,,,,,,,,,,,610327b3d3eafd74891133fe,61036d8b8d4ce36d1951f698,2021-07-29_23h18.05.947,Simcolourproject_2stim_asymm_v5,2020.2.10,MacIntel,60,61025ae37ef11b136ea224fe,,,,,,,,,2377,30,-45,1,0,0,response3disk,,4,5,-7,1,0,0,rectangle,5,-7,1,0,0,5,-7,1,0,0,1,57,217,7,1,,,,,,,,
,,,,,,,,,,,,,FF,,,,,,,,0.895,,,,,,,,,,,,,,,,,,,,,,610327b3d3eafd74891133fe,61036d8b8d4ce36d1951f698,2021-07-29_23h18.05.947,Simcolourproject_2stim_asymm_v5,2020.2.10,MacIntel,60,61025ae37ef11b136ea224fe,,,,,,,,,415,56,24,1,0,0,response1disk,,6,32,-6,1,0,0,rectangle,32,-6,1,0,0,32,-6,1,0,0,1,58,218,133,1,,,,,,,,
,,,,,,,,,,,,,FF,,,,,,,,0.779,,,,,,,,,,,,,,,,,,,,,,610327b3d3eafd74891133fe,61036d8b8d4ce36d1951f698,2021-07-29_23h18.05.947,Simcolourproject_2stim_asymm_v5,2020.2.10,MacIntel,60,61025ae37ef11b136ea224fe,,,,,,,,,1381,-29,-54,1,0,0,response5disk,,3,-13,0,1,0,0,rectangle,-72,33,1,0,0,-8,11,1,0,0,1,59,219,157,1,,response7disk_3,TRUE,1,1,"[77,166,220,315,144,238,63,228,120,171,99,125,304,306,197,126,22,187,96,166]",1.093,rectangle
,,,,,,,,,,,,,FF,,,,,,,,1.204,,,,,,,,,,,,,,,,,,,,,,610327b3d3eafd74891133fe,61036d8b8d4ce36d1951f698,2021-07-29_23h18.05.947,Simcolourproject_2stim_asymm_v5,2020.2.10,MacIntel,60,61025ae37ef11b136ea224fe,,,,,,,,,1805,94,-58,1,0,0,response3disk,,5,4,-5,1,0,0,rectangle,4,-5,1,0,0,4,-5,1,0,0,1,60,220,49,1,,,,,,,,
,,,,,,,,,,,,,FF,,,,,,,,0.762,,,,,,,,,,,,,,,,,,,,,,610327b3d3eafd74891133fe,61036d8b8d4ce36d1951f698,2021-07-29_23h18.05.947,Simcolourproject_2stim_asymm_v5,2020.2.10,MacIntel,60,61025ae37ef11b136ea224fe,,,,,,,,,2269,43,-31,1,0,0,response3disk,,5,7,-13,1,0,0,rectangle,7,-13,1,0,0,7,-13,1,0,0,1,61,221,0,1,,,,,,,,
,,,,,,,,,,,,,FF,,,,,,,,0.707,,,,,,,,,,,,,,,,,,,,,,610327b3d3eafd74891133fe,61036d8b8d4ce36d1951f698,2021-07-29_23h18.05.947,Simcolourproject_2stim_asymm_v5,2020.2.10,MacIntel,60,61025ae37ef11b136ea224fe,,,,,,,,,3634,17,-60,1,0,0,response3disk,,4,0,3,1,0,0,rectangle,0,3,1,0,0,0,3,1,0,0,1,62,222,154,1,,,,,,,,
,,,,,,,,,,,,,FF,,,,,,,,0.839,,,,,,,,,,,,,,,,,,,,,,610327b3d3eafd74891133fe,61036d8b8d4ce36d1951f698,2021-07-29_23h18.05.947,Simcolourproject_2stim_asymm_v5,2020.2.10,MacIntel,60,61025ae37ef11b136ea224fe,,,,,,,,,2166,-69,45,1,0,0,response7disk,,1,-13,16,1,0,0,rectangle,-13,16,1,0,0,-13,16,1,0,0,1,63,223,6,1,,,,,,,,
,,,,,,,,,,,,,FF,,,,,,,,1.182,,,,,,,,,,,,,,,,,,,,,,610327b3d3eafd74891133fe,61036d8b8d4ce36d1951f698,2021-07-29_23h18.05.947,Simcolourproject_2stim_asymm_v5,2020.2.10,MacIntel,60,61025ae37ef11b136ea224fe,,,,,,,,,117,37,-60,1,0,0,response3disk,,4,29,-15,1,0,0,rectangle,29,-15,1,0,0,29,-15,1,0,0,1,64,224,142,1,,,,,,,,
,,,,,,,,,,,,,FF,,,,,,,,0.552,,,,,,,,,,,,,,,,,,,,,,610327b3d3eafd74891133fe,61036d8b8d4ce36d1951f698,2021-07-29_23h18.05.947,Simcolourproject_2stim_asymm_v5,2020.2.10,MacIntel,60,61025ae37ef11b136ea224fe,,,,,,,,,203,25,-50,1,0,0,response3disk,,4,4,8,1,0,0,rectangle,4,8,1,0,0,4,8,1,0,0,1,65,225,115,1,,,,,,,,
,,,,,,,,,,,,,FF,,,,,,,,0.906,,,,,,,,,,,,,,,,,,,,,,610327b3d3eafd74891133fe,61036d8b8d4ce36d1951f698,2021-07-29_23h18.05.947,Simcolourproject_2stim_asymm_v5,2020.2.10,MacIntel,60,61025ae37ef11b136ea224fe,,,,,,,,,32,51,-38,1,0,0,response3disk,,5,17,-13,1,0,0,rectangle,17,-13,1,0,0,17,-13,1,0,0,1,66,226,122,1,,,,,,,,
,,,,,,,,,,,,,FF,,,,,,,,0.763,,,,,,,,,,,,,,,,,,,,,,610327b3d3eafd74891133fe,61036d8b8d4ce36d1951f698,2021-07-29_23h18.05.947,Simcolourproject_2stim_asymm_v5,2020.2.10,MacIntel,60,61025ae37ef11b136ea224fe,,,,,,,,,1523,-79,-38,1,0,0,response5disk,,2,1,-6,1,0,0,rectangle,50,-32,1,0,0,7,16,1,0,0,1,67,227,143,1,,response3disk_3,TRUE,5,5,"[77,166,220,315,144,238,63,228,120,171,99,125,304,306,197,126,22,187,96,166]",1.189,rectangle
,,,,,,,,,,,,,FF,,,,,,,,1.027,,,,,,,,,,,,,,,,,,,,,,610327b3d3eafd74891133fe,61036d8b8d4ce36d1951f698,2021-07-29_23h18.05.947,Simcolourproject_2stim_asymm_v5,2020.2.10,MacIntel,60,61025ae37ef11b136ea224fe,,,,,,,,,3878,26,-67,1,0,0,response3disk,,4,13,-14,1,0,0,rectangle,13,-14,1,0,0,13,-14,1,0,0,1,68,228,132,1,,,,,,,,
,,,,,,,,,,,,,FF,,,,,,,,0.8,,,,,,,,,,,,,,,,,,,,,,610327b3d3eafd74891133fe,61036d8b8d4ce36d1951f698,2021-07-29_23h18.05.947,Simcolourproject_2stim_asymm_v5,2020.2.10,MacIntel,60,61025ae37ef11b136ea224fe,,,,,,,,,3200,-72,-42,1,0,0,response5disk,,2,8,-7,1,0,0,rectangle,8,-7,1,0,0,8,-7,1,0,0,1,69,229,91,1,,,,,,,,
,,,,,,,,,,,,,FF,,,,,,,,0.883,,,,,,,,,,,,,,,,,,,,,,610327b3d3eafd74891133fe,61036d8b8d4ce36d1951f698,2021-07-29_23h18.05.947,Simcolourproject_2stim_asymm_v5,2020.2.10,MacIntel,60,61025ae37ef11b136ea224fe,,,,,,,,,1929,31,-52,1,0,0,response3disk,,4,22,-8,1,0,0,rectangle,22,-8,1,0,0,22,-8,1,0,0,1,70,230,25,1,,,,,,,,
,,,,,,,,,,,,,FF,,,,,,,,0.744,,,,,,,,,,,,,,,,,,,,,,610327b3d3eafd74891133fe,61036d8b8d4ce36d1951f698,2021-07-29_23h18.05.947,Simcolourproject_2stim_asymm_v5,2020.2.10,MacIntel,60,61025ae37ef11b136ea224fe,,,,,,,,,1218,-74,41,1,0,0,response7disk,,1,-13,14,1,0,0,rectangle,-13,14,1,0,0,-13,14,1,0,0,1,71,231,119,1,,,,,,,,
,,,,,,,,,,,,,FF,,,,,,,,0.644,,,,,,,,,,,,,,,,,,,,,,610327b3d3eafd74891133fe,61036d8b8d4ce36d1951f698,2021-07-29_23h18.05.947,Simcolourproject_2stim_asymm_v5,2020.2.10,MacIntel,60,61025ae37ef11b136ea224fe,,,,,,,,,1410,50,-18,1,0,0,response3disk,,5,19,-7,1,0,0,rectangle,19,-7,1,0,0,19,-7,1,0,0,1,72,232,126,1,,,,,,,,
,,,,,,,,,,,,,FF,,,,,,,,0.792,,,,,,,,,,,,,,,,,,,,,,610327b3d3eafd74891133fe,61036d8b8d4ce36d1951f698,2021-07-29_23h18.05.947,Simcolourproject_2stim_asymm_v5,2020.2.10,MacIntel,60,61025ae37ef11b136ea224fe,,,,,,,,,1459,-87,41,1,0,0,response7disk,,1,-26,11,1,0,0,rectangle,-26,11,1,0,0,-26,11,1,0,0,1,73,233,130,1,,,,,,,,
,,,,,,,,,,,,,FF,,,,,,,,0.635,,,,,,,,,,,,,,,,,,,,,,610327b3d3eafd74891133fe,61036d8b8d4ce36d1951f698,2021-07-29_23h18.05.947,Simcolourproject_2stim_asymm_v5,2020.2.10,MacIntel,60,61025ae37ef11b136ea224fe,,,,,,,,,1872,45,42,1,0,0,response1disk,,6,-5,11,1,0,0,rectangle,-5,11,1,0,0,-5,11,1,0,0,1,74,234,141,1,,,,,,,,
,,,,,,,,,,,,,FF,,,,,,,,0.626,,,,,,,,,,,,,,,,,,,,,,610327b3d3eafd74891133fe,61036d8b8d4ce36d1951f698,2021-07-29_23h18.05.947,Simcolourproject_2stim_asymm_v5,2020.2.10,MacIntel,60,61025ae37ef11b136ea224fe,,,,,,,,,503,58,34,1,0,0,response1disk,,6,7,12,1,0,0,rectangle,7,12,1,0,0,7,12,1,0,0,1,75,235,84,1,,,,,,,,
,,,,,,,,,,,,,FF,,,,,,,,0.568,,,,,,,,,,,,,,,,,,,,,,610327b3d3eafd74891133fe,61036d8b8d4ce36d1951f698,2021-07-29_23h18.05.947,Simcolourproject_2stim_asymm_v5,2020.2.10,MacIntel,60,61025ae37ef11b136ea224fe,,,,,,,,,333,56,-43,1,0,0,response3disk,,5,-1,-18,1,0,0,rectangle,-1,-18,1,0,0,-1,-18,1,0,0,1,76,236,92,1,,,,,,,,
,,,,,,,,,,,,,FF,,,,,,,,0.718,,,,,,,,,,,,,,,,,,,,,,610327b3d3eafd74891133fe,61036d8b8d4ce36d1951f698,2021-07-29_23h18.05.947,Simcolourproject_2stim_asymm_v5,2020.2.10,MacIntel,60,61025ae37ef11b136ea224fe,,,,,,,,,4284,42,52,1,0,0,response1disk,,7,18,1,1,0,0,rectangle,-62,-45,1,0,0,2,-18,1,0,0,1,77,237,23,1,,response5disk_3,TRUE,2,2,"[77,166,220,315,144,238,63,228,120,171,99,125,304,306,197,126,22,187,96,166]",1.399,rectangle
,,,,,,,,,,,,,FF,,,,,,,,3.221,,,,,,,,,,,,,,,,,,,,,,610327b3d3eafd74891133fe,61036d8b8d4ce36d1951f698,2021-07-29_23h18.05.947,Simcolourproject_2stim_asymm_v5,2020.2.10,MacIntel,60,61025ae37ef11b136ea224fe,,,,,,,,,11,-29,-68,1,0,0,response5disk,,3,5,-5,1,0,0,rectangle,5,-5,1,0,0,5,-5,1,0,0,1,78,238,9,1,,,,,,,,
,,,,,,,,,,,,,FF,,,,,,,,0.721,,,,,,,,,,,,,,,,,,,,,,610327b3d3eafd74891133fe,61036d8b8d4ce36d1951f698,2021-07-29_23h18.05.947,Simcolourproject_2stim_asymm_v5,2020.2.10,MacIntel,60,61025ae37ef11b136ea224fe,,,,,,,,,971,-43,-68,1,0,0,response5disk,,3,5,1,1,0,0,rectangle,5,1,1,0,0,5,1,1,0,0,1,79,239,27,1,,,,,,,,
,,,,,,,,,,,,,FF,,,,,,,,1.348,,,,,,,,,,,,,,,,,,,,,,610327b3d3eafd74891133fe,61036d8b8d4ce36d1951f698,2021-07-29_23h18.05.947,Simcolourproject_2stim_asymm_v5,2020.2.10,MacIntel,60,61025ae37ef11b136ea224fe,,,,,,,,,2688,71,-40,1,0,0,response3disk,,5,10,-10,1,0,0,rectangle,10,-10,1,0,0,10,-10,1,0,0,1,80,240,159,1,,,,,,,,
,,,,,,,,,,,,,FF,,,,,,,,0.627,,,,,,,,,,,,,,,,,,,,,,610327b3d3eafd74891133fe,61036d8b8d4ce36d1951f698,2021-07-29_23h18.05.947,Simcolourproject_2stim_asymm_v5,2020.2.10,MacIntel,60,61025ae37ef11b136ea224fe,,,,,,,,,3773,24,-37,1,0,0,response3disk,,4,5,15,1,0,0,rectangle,5,15,1,0,0,5,15,1,0,0,1,81,241,85,1,,,,,,,,
,,,,,,,,,,,,,FF,,,,,,,,0.704,,,,,,,,,,,,,,,,,,,,,,610327b3d3eafd74891133fe,61036d8b8d4ce36d1951f698,2021-07-29_23h18.05.947,Simcolourproject_2stim_asymm_v5,2020.2.10,MacIntel,60,61025ae37ef11b136ea224fe,,,,,,,,,4203,-79,-30,1,0,0,response5disk,,2,0,-14,1,0,0,rectangle,0,-14,1,0,0,0,-14,1,0,0,1,82,242,79,1,,,,,,,,
,,,,,,,,,,,,,FF,,,,,,,,0.803,,,,,,,,,,,,,,,,,,,,,,610327b3d3eafd74891133fe,61036d8b8d4ce36d1951f698,2021-07-29_23h18.05.947,Simcolourproject_2stim_asymm_v5,2020.2.10,MacIntel,60,61025ae37ef11b136ea224fe,,,,,,,,,1406,73,24,1,0,0,response1disk,,6,15,1,1,0,0,rectangle,15,1,1,0,0,15,1,1,0,0,1,83,243,103,1,,,,,,,,
,,,,,,,,,,,,,FF,,,,,,,,0.585,,,,,,,,,,,,,,,,,,,,,,610327b3d3eafd74891133fe,61036d8b8d4ce36d1951f698,2021-07-29_23h18.05.947,Simcolourproject_2stim_asymm_v5,2020.2.10,MacIntel,60,61025ae37ef11b136ea224fe,,,,,,,,,1046,61,33,1,0,0,response1disk,,6,27,12,1,0,0,rectangle,27,12,1,0,0,27,12,1,0,0,1,84,244,118,1,,,,,,,,
,,,,,,,,,,,,,FF,,,,,,,,0.783,,,,,,,,,,,,,,,,,,,,,,610327b3d3eafd74891133fe,61036d8b8d4ce36d1951f698,2021-07-29_23h18.05.947,Simcolourproject_2stim_asymm_v5,2020.2.10,MacIntel,60,61025ae37ef11b136ea224fe,,,,,,,,,3946,-30,-58,1,0,0,response5disk,,3,-13,9,1,0,0,rectangle,-13,9,1,0,0,-13,9,1,0,0,1,85,245,39,1,,,,,,,,
,,,,,,,,,,,,,FF,,,,,,,,0.558,,,,,,,,,,,,,,,,,,,,,,610327b3d3eafd74891133fe,61036d8b8d4ce36d1951f698,2021-07-29_23h18.05.947,Simcolourproject_2stim_asymm_v5,2020.2.10,MacIntel,60,61025ae37ef11b136ea224fe,,,,,,,,,404,63,-30,1,0,0,response3disk,,5,9,-5,1,0,0,rectangle,9,-5,1,0,0,9,-5,1,0,0,1,86,246,43,1,,,,,,,,
,,,,,,,,,,,,,FF,,,,,,,,0.962,,,,,,,,,,,,,,,,,,,,,,610327b3d3eafd74891133fe,61036d8b8d4ce36d1951f698,2021-07-29_23h18.05.947,Simcolourproject_2stim_asymm_v5,2020.2.10,MacIntel,60,61025ae37ef11b136ea224fe,,,,,,,,,92,-27,-64,1,0,0,response5disk,,3,-14,1,1,0,0,rectangle,-14,1,1,0,0,-14,1,1,0,0,1,87,247,87,1,,,,,,,,
,,,,,,,,,,,,,FF,,,,,,,,0.63,,,,,,,,,,,,,,,,,,,,,,610327b3d3eafd74891133fe,61036d8b8d4ce36d1951f698,2021-07-29_23h18.05.947,Simcolourproject_2stim_asymm_v5,2020.2.10,MacIntel,60,61025ae37ef11b136ea224fe,,,,,,,,,4307,37,61,1,0,0,response1disk,,7,18,0,1,0,0,rectangle,18,0,1,0,0,18,0,1,0,0,1,88,248,69,1,,,,,,,,
,,,,,,,,,,,,,FF,,,,,,,,0.654,,,,,,,,,,,,,,,,,,,,,,610327b3d3eafd74891133fe,61036d8b8d4ce36d1951f698,2021-07-29_23h18.05.947,Simcolourproject_2stim_asymm_v5,2020.2.10,MacIntel,60,61025ae37ef11b136ea224fe,,,,,,,,,1018,32,51,1,0,0,response1disk,,7,24,16,1,0,0,rectangle,24,16,1,0,0,24,16,1,0,0,1,89,249,62,1,,,,,,,,
,,,,,,,,,,,,,FF,,,,,,,,0.916,,,,,,,,,,,,,,,,,,,,,,610327b3d3eafd74891133fe,61036d8b8d4ce36d1951f698,2021-07-29_23h18.05.947,Simcolourproject_2stim_asymm_v5,2020.2.10,MacIntel,60,61025ae37ef11b136ea224fe,,,,,,,,,1923,59,-27,1,0,0,response3disk,,5,-9,14,1,0,0,rectangle,-9,14,1,0,0,-9,14,1,0,0,1,90,250,111,1,,,,,,,,
,,,,,,,,,,,,,FF,,,,,,,,0.96,,,,,,,,,,,,,,,,,,,,,,610327b3d3eafd74891133fe,61036d8b8d4ce36d1951f698,2021-07-29_23h18.05.947,Simcolourproject_2stim_asymm_v5,2020.2.10,MacIntel,60,61025ae37ef11b136ea224fe,,,,,,,,,2801,83,-34,1,0,0,response3disk,,5,20,-13,1,0,0,rectangle,20,-13,1,0,0,20,-13,1,0,0,1,91,251,4,1,,,,,,,,
,,,,,,,,,,,,,FF,,,,,,,,0.715,,,,,,,,,,,,,,,,,,,,,,610327b3d3eafd74891133fe,61036d8b8d4ce36d1951f698,2021-07-29_23h18.05.947,Simcolourproject_2stim_asymm_v5,2020.2.10,MacIntel,60,61025ae37ef11b136ea224fe,,,,,,,,,4099,-30,-57,1,0,0,response5disk,,3,4,5,1,0,0,rectangle,4,5,1,0,0,4,5,1,0,0,1,92,252,102,1,,,,,,,,
,,,,,,,,,,,,,FF,,,,,,,,0.652,,,,,,,,,,,,,,,,,,,,,,610327b3d3eafd74891133fe,61036d8b8d4ce36d1951f698,2021-07-29_23h18.05.947,Simcolourproject_2stim_asymm_v5,2020.2.10,MacIntel,60,61025ae37ef11b136ea224fe,,,,,,,,,588,58,-27,1,0,0,response3disk,,5,2,2,1,0,0,rectangle,2,2,1,0,0,2,2,1,0,0,1,93,253,44,1,,,,,,,,
,,,,,,,,,,,,,FF,,,,,,,,0.945,,,,,,,,,,,,,,,,,,,,,,610327b3d3eafd74891133fe,61036d8b8d4ce36d1951f698,2021-07-29_23h18.05.947,Simcolourproject_2stim_asymm_v5,2020.2.10,MacIntel,60,61025ae37ef11b136ea224fe,,,,,,,,,1754,25,-44,1,0,0,response3disk,,4,6,13,1,0,0,rectangle,6,13,1,0,0,6,13,1,0,0,1,94,254,73,1,,,,,,,,
,,,,,,,,,,,,,FF,,,,,,,,1.148,,,,,,,,,,,,,,,,,,,,,,610327b3d3eafd74891133fe,61036d8b8d4ce36d1951f698,2021-07-29_23h18.05.947,Simcolourproject_2stim_asymm_v5,2020.2.10,MacIntel,60,61025ae37ef11b136ea224fe,,,,,,,,,880,36,-49,1,0,0,response3disk,,4,18,-3,1,0,0,rectangle,18,-3,1,0,0,18,-3,1,0,0,1,95,255,57,1,,,,,,,,
,,,,,,,,,,,,,FF,,,,,,,,1.003,,,,,,,,,,,,,,,,,,,,,,610327b3d3eafd74891133fe,61036d8b8d4ce36d1951f698,2021-07-29_23h18.05.947,Simcolourproject_2stim_asymm_v5,2020.2.10,MacIntel,60,61025ae37ef11b136ea224fe,,,,,,,,,3608,23,-34,1,0,0,response3disk,,4,13,0,1,0,0,rectangle,13,0,1,0,0,13,0,1,0,0,1,96,256,90,1,,,,,,,,
,,,,,,,,,,,,,FF,,,,,,,,0.821,,,,,,,,,,,,,,,,,,,,,,610327b3d3eafd74891133fe,61036d8b8d4ce36d1951f698,2021-07-29_23h18.05.947,Simcolourproject_2stim_asymm_v5,2020.2.10,MacIntel,60,61025ae37ef11b136ea224fe,,,,,,,,,541,27,-43,1,0,0,response3disk,,4,17,1,1,0,0,rectangle,17,1,1,0,0,17,1,1,0,0,1,97,257,98,1,,,,,,,,
,,,,,,,,,,,,,FF,,,,,,,,1.02,,,,,,,,,,,,,,,,,,,,,,610327b3d3eafd74891133fe,61036d8b8d4ce36d1951f698,2021-07-29_23h18.05.947,Simcolourproject_2stim_asymm_v5,2020.2.10,MacIntel,60,61025ae37ef11b136ea224fe,,,,,,,,,2620,-35,-55,1,0,0,response5disk,,3,0,3,1,0,0,rectangle,0,3,1,0,0,0,3,1,0,0,1,98,258,11,1,,,,,,,,
,,,,,,,,,,,,,FF,,,,,,,,1.088,,,,,,,,,,,,,,,,,,,,,,610327b3d3eafd74891133fe,61036d8b8d4ce36d1951f698,2021-07-29_23h18.05.947,Simcolourproject_2stim_asymm_v5,2020.2.10,MacIntel,60,61025ae37ef11b136ea224fe,,,,,,,,,779,63,-25,1,0,0,response3disk,,5,-12,5,1,0,0,rectangle,-12,5,1,0,0,-12,5,1,0,0,1,99,259,135,1,,,,,,,,
,,,,,,,,,,,,,FF,,,,,,,,0.676,,,,,,,,,,,,,,,,,,,,,,610327b3d3eafd74891133fe,61036d8b8d4ce36d1951f698,2021-07-29_23h18.05.947,Simcolourproject_2stim_asymm_v5,2020.2.10,MacIntel,60,61025ae37ef11b136ea224fe,,,,,,,,,2786,-41,-57,1,0,0,response5disk,,3,-8,-2,1,0,0,rectangle,-8,-2,1,0,0,-8,-2,1,0,0,1,100,260,82,1,,,,,,,,
,,,,,,,,,,,,,FF,,,,,,,,0.671,,,,,,,,,,,,,,,,,,,,,,610327b3d3eafd74891133fe,61036d8b8d4ce36d1951f698,2021-07-29_23h18.05.947,Simcolourproject_2stim_asymm_v5,2020.2.10,MacIntel,60,61025ae37ef11b136ea224fe,,,,,,,,,3828,60,31,1,0,0,response1disk,,6,11,1,1,0,0,rectangle,11,1,1,0,0,11,1,1,0,0,1,101,261,60,1,,,,,,,,
,,,,,,,,,,,,,FF,,,,,,,,0.882,,,,,,,,,,,,,,,,,,,,,,610327b3d3eafd74891133fe,61036d8b8d4ce36d1951f698,2021-07-29_23h18.05.947,Simcolourproject_2stim_asymm_v5,2020.2.10,MacIntel,60,61025ae37ef11b136ea224fe,,,,,,,,,2887,-69,38,1,0,0,response7disk,,1,-12,8,1,0,0,rectangle,-12,8,1,0,0,-12,8,1,0,0,1,102,262,13,1,,,,,,,,
,,,,,,,,,,,,,FF,,,,,,,,0.77,,,,,,,,,,,,,,,,,,,,,,610327b3d3eafd74891133fe,61036d8b8d4ce36d1951f698,2021-07-29_23h18.05.947,Simcolourproject_2stim_asymm_v5,2020.2.10,MacIntel,60,61025ae37ef11b136ea224fe,,,,,,,,,975,-38,80,1,0,0,response7disk,,0,0,-12,1,0,0,rectangle,0,-12,1,0,0,0,-12,1,0,0,1,103,263,147,1,,,,,,,,
,,,,,,,,,,,,,FF,,,,,,,,0.893,,,,,,,,,,,,,,,,,,,,,,610327b3d3eafd74891133fe,61036d8b8d4ce36d1951f698,2021-07-29_23h18.05.947,Simcolourproject_2stim_asymm_v5,2020.2.10,MacIntel,60,61025ae37ef11b136ea224fe,,,,,,,,,1599,-65,-39,1,0,0,response5disk,,2,10,-13,1,0,0,rectangle,10,-13,1,0,0,10,-13,1,0,0,1,104,264,81,1,,,,,,,,
,,,,,,,,,,,,,FF,,,,,,,,0.838,,,,,,,,,,,,,,,,,,,,,,610327b3d3eafd74891133fe,61036d8b8d4ce36d1951f698,2021-07-29_23h18.05.947,Simcolourproject_2stim_asymm_v5,2020.2.10,MacIntel,60,61025ae37ef11b136ea224fe,,,,,,,,,3508,46,-22,1,0,0,response3disk,,5,-7,4,1,0,0,rectangle,-7,4,1,0,0,-7,4,1,0,0,1,105,265,123,1,,,,,,,,
,,,,,,,,,,,,,FF,,,,,,,,0.791,,,,,,,,,,,,,,,,,,,,,,610327b3d3eafd74891133fe,61036d8b8d4ce36d1951f698,2021-07-29_23h18.05.947,Simcolourproject_2stim_asymm_v5,2020.2.10,MacIntel,60,61025ae37ef11b136ea224fe,,,,,,,,,2328,71,28,1,0,0,response1disk,,6,20,-4,1,0,0,rectangle,20,-4,1,0,0,20,-4,1,0,0,1,106,266,136,1,,,,,,,,
,,,,,,,,,,,,,FF,,,,,,,,0.801,,,,,,,,,,,,,,,,,,,,,,610327b3d3eafd74891133fe,61036d8b8d4ce36d1951f698,2021-07-29_23h18.05.947,Simcolourproject_2stim_asymm_v5,2020.2.10,MacIntel,60,61025ae37ef11b136ea224fe,,,,,,,,,435,-66,-27,1,0,0,response5disk,,2,8,12,1,0,0,rectangle,8,12,1,0,0,8,12,1,0,0,1,107,267,148,1,,,,,,,,
,,,,,,,,,,,,,FF,,,,,,,,2.78,,,,,,,,,,,,,,,,,,,,,,610327b3d3eafd74891133fe,61036d8b8d4ce36d1951f698,2021-07-29_23h18.05.947,Simcolourproject_2stim_asymm_v5,2020.2.10,MacIntel,60,61025ae37ef11b136ea224fe,,,,,,,,,3767,62,48,1,0,0,response1disk,,6,5,3,1,0,0,rectangle,5,3,1,0,0,5,3,1,0,0,1,108,268,97,1,,,,,,,,
,,,,,,,,,,,,,FF,,,,,,,,4.271,,,,,,,,,,,,,,,,,,,,,,610327b3d3eafd74891133fe,61036d8b8d4ce36d1951f698,2021-07-29_23h18.05.947,Simcolourproject_2stim_asymm_v5,2020.2.10,MacIntel,60,61025ae37ef11b136ea224fe,,,,,,,,,4022,43,-17,1,0,0,response3disk,,5,14,-14,1,0,0,rectangle,14,-14,1,0,0,14,-14,1,0,0,1,109,269,14,1,,,,,,,,
,,,,,,,,,,,,,FF,,,,,,,,0.696,,,,,,,,,,,,,,,,,,,,,,610327b3d3eafd74891133fe,61036d8b8d4ce36d1951f698,2021-07-29_23h18.05.947,Simcolourproject_2stim_asymm_v5,2020.2.10,MacIntel,60,61025ae37ef11b136ea224fe,,,,,,,,,3180,59,-32,1,0,0,response3disk,,5,17,-13,1,0,0,rectangle,17,-13,1,0,0,17,-13,1,0,0,1,110,270,33,1,,,,,,,,
,,,,,,,,,,,,,FF,,,,,,,,0.802,,,,,,,,,,,,,,,,,,,,,,610327b3d3eafd74891133fe,61036d8b8d4ce36d1951f698,2021-07-29_23h18.05.947,Simcolourproject_2stim_asymm_v5,2020.2.10,MacIntel,60,61025ae37ef11b136ea224fe,,,,,,,,,1815,-44,72,1,0,0,response7disk,,0,-16,17,1,0,0,rectangle,-16,17,1,0,0,-16,17,1,0,0,1,111,271,149,1,,,,,,,,
,,,,,,,,,,,,,FF,,,,,,,,0.69,,,,,,,,,,,,,,,,,,,,,,610327b3d3eafd74891133fe,61036d8b8d4ce36d1951f698,2021-07-29_23h18.05.947,Simcolourproject_2stim_asymm_v5,2020.2.10,MacIntel,60,61025ae37ef11b136ea224fe,,,,,,,,,1101,35,66,1,0,0,response1disk,,7,-10,-9,1,0,0,rectangle,-10,-9,1,0,0,-10,-9,1,0,0,1,112,272,31,1,,,,,,,,
,,,,,,,,,,,,,FF,,,,,,,,0.759,,,,,,,,,,,,,,,,,,,,,,610327b3d3eafd74891133fe,61036d8b8d4ce36d1951f698,2021-07-29_23h18.05.947,Simcolourproject_2stim_asymm_v5,2020.2.10,MacIntel,60,61025ae37ef11b136ea224fe,,,,,,,,,3383,-81,38,1,0,0,response7disk,,1,24,-15,1,0,0,rectangle,24,-15,1,0,0,24,-15,1,0,0,1,113,273,61,1,,,,,,,,
,,,,,,,,,,,,,FF,,,,,,,,0.921,,,,,,,,,,,,,,,,,,,,,,610327b3d3eafd74891133fe,61036d8b8d4ce36d1951f698,2021-07-29_23h18.05.947,Simcolourproject_2stim_asymm_v5,2020.2.10,MacIntel,60,61025ae37ef11b136ea224fe,,,,,,,,,3658,78,-29,1,0,0,response3disk,,5,11,-10,1,0,0,rectangle,11,-10,1,0,0,11,-10,1,0,0,1,114,274,3,1,,,,,,,,
,,,,,,,,,,,,,FF,,,,,,,,0.953,,,,,,,,,,,,,,,,,,,,,,610327b3d3eafd74891133fe,61036d8b8d4ce36d1951f698,2021-07-29_23h18.05.947,Simcolourproject_2stim_asymm_v5,2020.2.10,MacIntel,60,61025ae37ef11b136ea224fe,,,,,,,,,161,63,34,1,0,0,response1disk,,6,-14,7,1,0,0,rectangle,-14,7,1,0,0,-14,7,1,0,0,1,115,275,146,1,,,,,,,,
,,,,,,,,,,,,,FF,,,,,,,,0.838,,,,,,,,,,,,,,,,,,,,,,610327b3d3eafd74891133fe,61036d8b8d4ce36d1951f698,2021-07-29_23h18.05.947,Simcolourproject_2stim_asymm_v5,2020.2.10,MacIntel,60,61025ae37ef11b136ea224fe,,,,,,,,,765,42,78,1,0,0,response1disk,,7,10,13,1,0,0,rectangle,10,13,1,0,0,10,13,1,0,0,1,116,276,113,1,,,,,,,,
,,,,,,,,,,,,,FF,,,,,,,,0.701,,,,,,,,,,,,,,,,,,,,,,610327b3d3eafd74891133fe,61036d8b8d4ce36d1951f698,2021-07-29_23h18.05.947,Simcolourproject_2stim_asymm_v5,2020.2.10,MacIntel,60,61025ae37ef11b136ea224fe,,,,,,,,,2874,57,-19,1,0,0,response3disk,,5,14,2,1,0,0,rectangle,14,2,1,0,0,14,2,1,0,0,1,117,277,140,1,,,,,,,,
,,,,,,,,,,,,,FF,,,,,,,,0.9,,,,,,,,,,,,,,,,,,,,,,610327b3d3eafd74891133fe,61036d8b8d4ce36d1951f698,2021-07-29_23h18.05.947,Simcolourproject_2stim_asymm_v5,2020.2.10,MacIntel,60,61025ae37ef11b136ea224fe,,,,,,,,,3512,-87,-55,1,0,0,response5disk,,2,8,-14,1,0,0,rectangle,8,-14,1,0,0,8,-14,1,0,0,1,118,278,96,1,,,,,,,,
,,,,,,,,,,,,,FF,,,,,,,,0.738,,,,,,,,,,,,,,,,,,,,,,610327b3d3eafd74891133fe,61036d8b8d4ce36d1951f698,2021-07-29_23h18.05.947,Simcolourproject_2stim_asymm_v5,2020.2.10,MacIntel,60,61025ae37ef11b136ea224fe,,,,,,,,,741,33,-66,1,0,0,response3disk,,4,22,-1,1,0,0,rectangle,22,-1,1,0,0,22,-1,1,0,0,1,119,279,158,1,,,,,,,,
,,,,,,,,,,,,,FF,,,,,,,,0.785,,,,,,,,,,,,,,,,,,,,,,610327b3d3eafd74891133fe,61036d8b8d4ce36d1951f698,2021-07-29_23h18.05.947,Simcolourproject_2stim_asymm_v5,2020.2.10,MacIntel,60,61025ae37ef11b136ea224fe,,,,,,,,,300,32,72,1,0,0,response1disk,,7,21,-18,1,0,0,rectangle,21,-18,1,0,0,21,-18,1,0,0,1,120,280,56,1,,,,,,,,
,,,,,,,,,,,,,FF,,,,,,,,2.56,,,,,,,,,,,,,,,,,,,,,,610327b3d3eafd74891133fe,61036d8b8d4ce36d1951f698,2021-07-29_23h18.05.947,Simcolourproject_2stim_asymm_v5,2020.2.10,MacIntel,60,61025ae37ef11b136ea224fe,,,,,,,,,3231,75,25,1,0,0,response1disk,,6,3,12,1,0,0,rectangle,3,12,1,0,0,3,12,1,0,0,1,121,281,80,1,,,,,,,,
,,,,,,,,,,,,,FF,,,,,,,,0.614,,,,,,,,,,,,,,,,,,,,,,610327b3d3eafd74891133fe,61036d8b8d4ce36d1951f698,2021-07-29_23h18.05.947,Simcolourproject_2stim_asymm_v5,2020.2.10,MacIntel,60,61025ae37ef11b136ea224fe,,,,,,,,,629,17,51,1,0,0,response1disk,,7,7,-6,1,0,0,rectangle,7,-6,1,0,0,7,-6,1,0,0,1,122,282,117,1,,,,,,,,
,,,,,,,,,,,,,FF,,,,,,,,0.774,,,,,,,,,,,,,,,,,,,,,,610327b3d3eafd74891133fe,61036d8b8d4ce36d1951f698,2021-07-29_23h18.05.947,Simcolourproject_2stim_asymm_v5,2020.2.10,MacIntel,60,61025ae37ef11b136ea224fe,,,,,,,,,419,40,64,1,0,0,response1disk,,7,19,3,1,0,0,rectangle,19,3,1,0,0,19,3,1,0,0,1,123,283,18,1,,,,,,,,
,,,,,,,,,,,,,FF,,,,,,,,0.68,,,,,,,,,,,,,,,,,,,,,,610327b3d3eafd74891133fe,61036d8b8d4ce36d1951f698,2021-07-29_23h18.05.947,Simcolourproject_2stim_asymm_v5,2020.2.10,MacIntel,60,61025ae37ef11b136ea224fe,,,,,,,,,1233,31,-76,1,0,0,response3disk,,4,8,4,1,0,0,rectangle,8,4,1,0,0,8,4,1,0,0,1,124,284,45,1,,,,,,,,
,,,,,,,,,,,,,FF,,,,,,,,3.064,,,,,,,,,,,,,,,,,,,,,,610327b3d3eafd74891133fe,61036d8b8d4ce36d1951f698,2021-07-29_23h18.05.947,Simcolourproject_2stim_asymm_v5,2020.2.10,MacIntel,60,61025ae37ef11b136ea224fe,,,,,,,,,3619,63,-28,1,0,0,response3disk,,5,-2,-5,1,0,0,rectangle,-2,-5,1,0,0,-2,-5,1,0,0,1,125,285,153,1,,,,,,,,
,,,,,,,,,,,,,FF,,,,,,,,1.052,,,,,,,,,,,,,,,,,,,,,,610327b3d3eafd74891133fe,61036d8b8d4ce36d1951f698,2021-07-29_23h18.05.947,Simcolourproject_2stim_asymm_v5,2020.2.10,MacIntel,60,61025ae37ef11b136ea224fe,,,,,,,,,4139,75,40,1,0,0,response1disk,,6,-19,7,1,0,0,rectangle,-19,7,1,0,0,-19,7,1,0,0,1,126,286,1,1,,,,,,,,
,,,,,,,,,,,,,FF,,,,,,,,0.764,,,,,,,,,,,,,,,,,,,,,,610327b3d3eafd74891133fe,61036d8b8d4ce36d1951f698,2021-07-29_23h18.05.947,Simcolourproject_2stim_asymm_v5,2020.2.10,MacIntel,60,61025ae37ef11b136ea224fe,,,,,,,,,3106,-38,-57,1,0,0,response5disk,,3,2,-5,1,0,0,rectangle,2,-5,1,0,0,2,-5,1,0,0,1,127,287,145,1,,,,,,,,
,,,,,,,,,,,,,FF,,,,,,,,0.638,,,,,,,,,,,,,,,,,,,,,,610327b3d3eafd74891133fe,61036d8b8d4ce36d1951f698,2021-07-29_23h18.05.947,Simcolourproject_2stim_asymm_v5,2020.2.10,MacIntel,60,61025ae37ef11b136ea224fe,,,,,,,,,3153,-75,-39,1,0,0,response5disk,,2,-6,-8,1,0,0,rectangle,-6,-8,1,0,0,-6,-8,1,0,0,1,128,288,10,1,,,,,,,,
,,,,,,,,,,,,,FF,,,,,,,,0.665,,,,,,,,,,,,,,,,,,,,,,610327b3d3eafd74891133fe,61036d8b8d4ce36d1951f698,2021-07-29_23h18.05.947,Simcolourproject_2stim_asymm_v5,2020.2.10,MacIntel,60,61025ae37ef11b136ea224fe,,,,,,,,,69,74,-21,1,0,0,response3disk,,5,-1,-5,1,0,0,rectangle,-1,-5,1,0,0,-1,-5,1,0,0,1,129,289,75,1,,,,,,,,
,,,,,,,,,,,,,FF,,,,,,,,0.8,,,,,,,,,,,,,,,,,,,,,,610327b3d3eafd74891133fe,61036d8b8d4ce36d1951f698,2021-07-29_23h18.05.947,Simcolourproject_2stim_asymm_v5,2020.2.10,MacIntel,60,61025ae37ef11b136ea224fe,,,,,,,,,2168,-34,-81,1,0,0,response5disk,,3,-13,3,1,0,0,rectangle,-13,3,1,0,0,-13,3,1,0,0,1,130,290,46,1,,,,,,,,
,,,,,,,,,,,,,FF,,,,,,,,0.629,,,,,,,,,,,,,,,,,,,,,,610327b3d3eafd74891133fe,61036d8b8d4ce36d1951f698,2021-07-29_23h18.05.947,Simcolourproject_2stim_asymm_v5,2020.2.10,MacIntel,60,61025ae37ef11b136ea224fe,,,,,,,,,1263,73,33,1,0,0,response1disk,,6,4,4,1,0,0,rectangle,4,4,1,0,0,4,4,1,0,0,1,131,291,42,1,,,,,,,,
,,,,,,,,,,,,,FF,,,,,,,,1.065,,,,,,,,,,,,,,,,,,,,,,610327b3d3eafd74891133fe,61036d8b8d4ce36d1951f698,2021-07-29_23h18.05.947,Simcolourproject_2stim_asymm_v5,2020.2.10,MacIntel,60,61025ae37ef11b136ea224fe,,,,,,,,,2598,41,-73,1,0,0,response3disk,,4,4,-3,1,0,0,rectangle,4,-3,1,0,0,4,-3,1,0,0,1,132,292,89,1,,,,,,,,
,,,,,,,,,,,,,FF,,,,,,,,1.303,,,,,,,,,,,,,,,,,,,,,,610327b3d3eafd74891133fe,61036d8b8d4ce36d1951f698,2021-07-29_23h18.05.947,Simcolourproject_2stim_asymm_v5,2020.2.10,MacIntel,60,61025ae37ef11b136ea224fe,,,,,,,,,2363,-71,-43,1,0,0,response5disk,,2,-4,2,1,0,0,rectangle,-4,2,1,0,0,-4,2,1,0,0,1,133,293,41,1,,,,,,,,
,,,,,,,,,,,,,FF,,,,,,,,0.846,,,,,,,,,,,,,,,,,,,,,,610327b3d3eafd74891133fe,61036d8b8d4ce36d1951f698,2021-07-29_23h18.05.947,Simcolourproject_2stim_asymm_v5,2020.2.10,MacIntel,60,61025ae37ef11b136ea224fe,,,,,,,,,1630,41,-59,1,0,0,response3disk,,4,8,11,1,0,0,rectangle,8,11,1,0,0,8,11,1,0,0,1,134,294,129,1,,,,,,,,
,,,,,,,,,,,,,FF,,,,,,,,0.727,,,,,,,,,,,,,,,,,,,,,,610327b3d3eafd74891133fe,61036d8b8d4ce36d1951f698,2021-07-29_23h18.05.947,Simcolourproject_2stim_asymm_v5,2020.2.10,MacIntel,60,61025ae37ef11b136ea224fe,,,,,,,,,3028,62,-35,1,0,0,response3disk,,5,-6,3,1,0,0,rectangle,-6,3,1,0,0,-6,3,1,0,0,1,135,295,47,1,,,,,,,,
,,,,,,,,,,,,,FF,,,,,,,,0.963,,,,,,,,,,,,,,,,,,,,,,610327b3d3eafd74891133fe,61036d8b8d4ce36d1951f698,2021-07-29_23h18.05.947,Simcolourproject_2stim_asymm_v5,2020.2.10,MacIntel,60,61025ae37ef11b136ea224fe,,,,,,,,,6,30,-81,1,0,0,response3disk,,4,-5,16,1,0,0,rectangle,-5,16,1,0,0,-5,16,1,0,0,1,136,296,67,1,,,,,,,,
,,,,,,,,,,,,,FF,,,,,,,,0.861,,,,,,,,,,,,,,,,,,,,,,610327b3d3eafd74891133fe,61036d8b8d4ce36d1951f698,2021-07-29_23h18.05.947,Simcolourproject_2stim_asymm_v5,2020.2.10,MacIntel,60,61025ae37ef11b136ea224fe,,,,,,,,,2972,64,-38,1,0,0,response3disk,,5,-6,-3,1,0,0,rectangle,-6,-3,1,0,0,-6,-3,1,0,0,1,137,297,59,1,,,,,,,,
,,,,,,,,,,,,,FF,,,,,,,,1.065,,,,,,,,,,,,,,,,,,,,,,610327b3d3eafd74891133fe,61036d8b8d4ce36d1951f698,2021-07-29_23h18.05.947,Simcolourproject_2stim_asymm_v5,2020.2.10,MacIntel,60,61025ae37ef11b136ea224fe,,,,,,,,,146,80,-44,1,0,0,response3disk,,5,-6,-1,1,0,0,rectangle,-6,-1,1,0,0,-6,-1,1,0,0,1,138,298,78,1,,,,,,,,
,,,,,,,,,,,,,FF,,,,,,,,0.633,,,,,,,,,,,,,,,,,,,,,,610327b3d3eafd74891133fe,61036d8b8d4ce36d1951f698,2021-07-29_23h18.05.947,Simcolourproject_2stim_asymm_v5,2020.2.10,MacIntel,60,61025ae37ef11b136ea224fe,,,,,,,,,416,61,-38,1,0,0,response3disk,,5,-3,0,1,0,0,rectangle,-3,0,1,0,0,-3,0,1,0,0,1,139,299,58,1,,,,,,,,
,,,,,,,,,,,,,FF,,,,,,,,0.661,,,,,,,,,,,,,,,,,,,,,,610327b3d3eafd74891133fe,61036d8b8d4ce36d1951f698,2021-07-29_23h18.05.947,Simcolourproject_2stim_asymm_v5,2020.2.10,MacIntel,60,61025ae37ef11b136ea224fe,,,,,,,,,2230,-46,-83,1,0,0,response5disk,,3,-3,-3,1,0,0,rectangle,-3,-3,1,0,0,-3,-3,1,0,0,1,140,300,32,1,,,,,,,,
