key_resp.keys,key_resp.rt,key_resp_14.keys,key_resp_14.rt,key_resp_15.keys,key_resp_15.rt,key_resp_17.keys,key_resp_17.rt,key_resp_9.keys,key_resp_9.rt,key_resp_10.keys,key_resp_10.rt,practice_comparison,Ecc,mouse_5.x,mouse_5.y,mouse_5.leftButton,mouse_5.midButton,mouse_5.rightButton,mouse_5.clicked_name,pracsimilarity,response_time,mouse_10.x,mouse_10.y,mouse_10.leftButton,mouse_10.midButton,mouse_10.rightButton,mouse_10.clicked_name,mouse_7.x,mouse_7.y,mouse_7.leftButton,mouse_7.midButton,mouse_7.rightButton,mouse_6.x,mouse_6.y,mouse_6.leftButton,mouse_6.midButton,mouse_6.rightButton,duringprac.thisRepN,duringprac.thisTrialN,duringprac.thisN,duringprac.thisIndex,duringprac.ran,participant,session,date,expName,psychopyVersion,OS,frameRate,study_id,mouse_7.clicked_name,catchpracsimilarity,catch_response_time,catchnumberprac,catchtrialorderprac,mouse_6.clicked_name,key_resp_22.keys,key_resp_22.rt,realcomparison,mouse.x,mouse.y,mouse.leftButton,mouse.midButton,mouse.rightButton,mouse.clicked_name,Colour2,similarity,mouse_2.x,mouse_2.y,mouse_2.leftButton,mouse_2.midButton,mouse_2.rightButton,mouse_2.clicked_name,mouse_3.x,mouse_3.y,mouse_3.leftButton,mouse_3.midButton,mouse_3.rightButton,mouse_11.x,mouse_11.y,mouse_11.leftButton,mouse_11.midButton,mouse_11.rightButton,trials_2.thisRepN,trials_2.thisTrialN,trials_2.thisN,trials_2.thisIndex,trials_2.ran,Colour1,mouse_3.clicked_name,catchornah,catchsimilarity,catchnumber,catchtrialorder,catchRT,mouse_11.clicked_name
space,1.5997,space,9.748,space,18.651,space,8.89,space,1.9666,space,3.1623,37,PF,24.90234375,46.77734375,1,0,0,response1disk_5,7,6.254,-4.87109375,-4.4296875,1,0,0,rectangle_8,-4.87109375,-4.4296875,1,0,0,-4.87109375,-4.4296875,1,0,0,0,0,0,1,1,6103654d81de79ade4dba583,610369b661c29bdef29b06c4,2021-07-29_22h54.37.254,Simcolourproject_2stim_asymm_v5,2020.2.10,MacIntel,60,61025ae37ef11b136ea224fe,,,,,,,,,,,,,,,,,,,,,,,,,,,,,,,,,,,,,,,,,,,,,,
,,,,,,,,,,,,12,PF,26.30859375,-51.44140625,1,0,0,response3disk_5,4,3.0157,-7.1328125,-4.484375,1,0,0,rectangle_8,46.296875,26.890625,1,0,0,-1.0625,0.01953125,1,0,0,0,1,1,4,1,6103654d81de79ade4dba583,610369b661c29bdef29b06c4,2021-07-29_22h54.37.254,Simcolourproject_2stim_asymm_v5,2020.2.10,MacIntel,60,61025ae37ef11b136ea224fe,response1disk_7,6,3.6993,6,"[2,5]",rectangle_4,,,,,,,,,,,,,,,,,,,,,,,,,,,,,,,,,,,,,,,,
,,,,,,,,,,,,89,FF,22.77734375,-53.33203125,1,0,0,response3disk_5,4,4.6179,-5.05859375,3.03515625,1,0,0,rectangle_8,-5.05859375,3.03515625,1,0,0,-5.05859375,3.03515625,1,0,0,0,2,2,3,1,6103654d81de79ade4dba583,610369b661c29bdef29b06c4,2021-07-29_22h54.37.254,Simcolourproject_2stim_asymm_v5,2020.2.10,MacIntel,60,61025ae37ef11b136ea224fe,,,,,,,,,,,,,,,,,,,,,,,,,,,,,,,,,,,,,,,,,,,,,,
,,,,,,,,,,,,10,PF,-43.0234375,-22.9296875,1,0,0,response5disk_5,2,3.6978,-8.47265625,-0.40625,1,0,0,rectangle_8,-8.47265625,-0.40625,1,0,0,-8.47265625,-0.40625,1,0,0,0,3,3,6,1,6103654d81de79ade4dba583,610369b661c29bdef29b06c4,2021-07-29_22h54.37.254,Simcolourproject_2stim_asymm_v5,2020.2.10,MacIntel,60,61025ae37ef11b136ea224fe,,,,,,,,,,,,,,,,,,,,,,,,,,,,,,,,,,,,,,,,,,,,,,
,,,,,,,,,,,,52,FF,43.45703125,-29.1796875,1,0,0,response3disk_5,5,3.5316,13.8671875,-7.5390625,1,0,0,rectangle_8,48.33984375,23.10546875,1,0,0,-2.87890625,-2.09765625,1,0,0,0,4,4,5,1,6103654d81de79ade4dba583,610369b661c29bdef29b06c4,2021-07-29_22h54.37.254,Simcolourproject_2stim_asymm_v5,2020.2.10,MacIntel,60,61025ae37ef11b136ea224fe,response1disk_7,6,1.9336,6,"[2,5]",rectangle_4,,,,,,,,,,,,,,,,,,,,,,,,,,,,,,,,,,,,,,,,
,,,,,,,,,,,,103,PF,-28.3046875,-40.26953125,1,0,0,response5disk_5,3,1.8498,1.140625,1.66015625,1,0,0,rectangle_8,1.140625,1.66015625,1,0,0,1.140625,1.66015625,1,0,0,0,5,5,2,1,6103654d81de79ade4dba583,610369b661c29bdef29b06c4,2021-07-29_22h54.37.254,Simcolourproject_2stim_asymm_v5,2020.2.10,MacIntel,60,61025ae37ef11b136ea224fe,,,,,,,,,,,,,,,,,,,,,,,,,,,,,,,,,,,,,,,,,,,,,,
,,,,,,,,,,,,105,FF,-43.07421875,-25.1796875,1,0,0,response5disk_5,2,1.7703,-4.42578125,-4.828125,1,0,0,rectangle_8,-4.42578125,-4.828125,1,0,0,-4.42578125,-4.828125,1,0,0,0,6,6,0,1,6103654d81de79ade4dba583,610369b661c29bdef29b06c4,2021-07-29_22h54.37.254,Simcolourproject_2stim_asymm_v5,2020.2.10,MacIntel,60,61025ae37ef11b136ea224fe,,,,,,,,,,,,,,,,,,,,,,,,,,,,,,,,,,,,,,,,,,,,,,
,,,,,,,,,,,,,FF,,,,,,,,3.1331,,,,,,,,,,,,,,,,,,,,,,6103654d81de79ade4dba583,610369b661c29bdef29b06c4,2021-07-29_22h54.37.254,Simcolourproject_2stim_asymm_v5,2020.2.10,MacIntel,60,61025ae37ef11b136ea224fe,,,,,,,space,3.5648,1122,24.87890625,-53.078125,1,0,0,response3disk,,4,2.12890625,1.0859375,1,0,0,rectangle,2.12890625,1.0859375,1,0,0,2.12890625,1.0859375,1,0,0,0,0,0,92,1,,,,,,,,
,,,,,,,,,,,,,FF,,,,,,,,5.4313,,,,,,,,,,,,,,,,,,,,,,6103654d81de79ade4dba583,610369b661c29bdef29b06c4,2021-07-29_22h54.37.254,Simcolourproject_2stim_asymm_v5,2020.2.10,MacIntel,60,61025ae37ef11b136ea224fe,,,,,,,,,4158,48.17578125,-32.1484375,1,0,0,response3disk,,5,-4.0078125,-0.6328125,1,0,0,rectangle,-4.0078125,-0.6328125,1,0,0,-4.0078125,-0.6328125,1,0,0,0,1,1,60,1,,,,,,,,
,,,,,,,,,,,,,FF,,,,,,,,3.5183,,,,,,,,,,,,,,,,,,,,,,6103654d81de79ade4dba583,610369b661c29bdef29b06c4,2021-07-29_22h54.37.254,Simcolourproject_2stim_asymm_v5,2020.2.10,MacIntel,60,61025ae37ef11b136ea224fe,,,,,,,,,3580,27.3671875,-49.28125,1,0,0,response3disk,,4,3.63671875,-3.75,1,0,0,rectangle,3.63671875,-3.75,1,0,0,3.63671875,-3.75,1,0,0,0,2,2,91,1,,,,,,,,
,,,,,,,,,,,,,FF,,,,,,,,1.6167,,,,,,,,,,,,,,,,,,,,,,6103654d81de79ade4dba583,610369b661c29bdef29b06c4,2021-07-29_22h54.37.254,Simcolourproject_2stim_asymm_v5,2020.2.10,MacIntel,60,61025ae37ef11b136ea224fe,,,,,,,,,1116,-26.8515625,-45.79296875,1,0,0,response5disk,,3,-0.16015625,-2.1328125,1,0,0,rectangle,-0.16015625,-2.1328125,1,0,0,-0.16015625,-2.1328125,1,0,0,0,3,3,147,1,,,,,,,,
,,,,,,,,,,,,,FF,,,,,,,,2.119,,,,,,,,,,,,,,,,,,,,,,6103654d81de79ade4dba583,610369b661c29bdef29b06c4,2021-07-29_22h54.37.254,Simcolourproject_2stim_asymm_v5,2020.2.10,MacIntel,60,61025ae37ef11b136ea224fe,,,,,,,,,3702,23.05078125,-51.42578125,1,0,0,response3disk,,4,10.04296875,-7.03515625,1,0,0,rectangle,10.04296875,-7.03515625,1,0,0,10.04296875,-7.03515625,1,0,0,0,4,4,24,1,,,,,,,,
,,,,,,,,,,,,,FF,,,,,,,,1.2486,,,,,,,,,,,,,,,,,,,,,,6103654d81de79ade4dba583,610369b661c29bdef29b06c4,2021-07-29_22h54.37.254,Simcolourproject_2stim_asymm_v5,2020.2.10,MacIntel,60,61025ae37ef11b136ea224fe,,,,,,,,,4177,20.09765625,33.953125,1,0,0,response1disk,,7,13.2890625,-2.37890625,1,0,0,rectangle,13.2890625,-2.37890625,1,0,0,13.2890625,-2.37890625,1,0,0,0,5,5,146,1,,,,,,,,
,,,,,,,,,,,,,FF,,,,,,,,4.2183,,,,,,,,,,,,,,,,,,,,,,6103654d81de79ade4dba583,610369b661c29bdef29b06c4,2021-07-29_22h54.37.254,Simcolourproject_2stim_asymm_v5,2020.2.10,MacIntel,60,61025ae37ef11b136ea224fe,,,,,,,,,1083,13.23046875,51.33984375,1,0,0,response1disk,,7,8.66796875,-7.2109375,1,0,0,rectangle,8.66796875,-7.2109375,1,0,0,8.66796875,-7.2109375,1,0,0,0,6,6,53,1,,,,,,,,
,,,,,,,,,,,,,FF,,,,,,,,3.7834,,,,,,,,,,,,,,,,,,,,,,6103654d81de79ade4dba583,610369b661c29bdef29b06c4,2021-07-29_22h54.37.254,Simcolourproject_2stim_asymm_v5,2020.2.10,MacIntel,60,61025ae37ef11b136ea224fe,,,,,,,,,1777,31.5078125,-47.61328125,1,0,0,response3disk,,4,11.20703125,-4.453125,1,0,0,rectangle,11.20703125,-4.453125,1,0,0,11.20703125,-4.453125,1,0,0,0,7,7,152,1,,,,,,,,
,,,,,,,,,,,,,FF,,,,,,,,2.5332,,,,,,,,,,,,,,,,,,,,,,6103654d81de79ade4dba583,610369b661c29bdef29b06c4,2021-07-29_22h54.37.254,Simcolourproject_2stim_asymm_v5,2020.2.10,MacIntel,60,61025ae37ef11b136ea224fe,,,,,,,,,2266,18.765625,45.14453125,1,0,0,response1disk,,7,1.08203125,4.08984375,1,0,0,rectangle,1.08203125,4.08984375,1,0,0,1.08203125,4.08984375,1,0,0,0,8,8,111,1,,,,,,,,
,,,,,,,,,,,,,FF,,,,,,,,2.3983,,,,,,,,,,,,,,,,,,,,,,6103654d81de79ade4dba583,610369b661c29bdef29b06c4,2021-07-29_22h54.37.254,Simcolourproject_2stim_asymm_v5,2020.2.10,MacIntel,60,61025ae37ef11b136ea224fe,,,,,,,,,3065,39.8359375,-54.984375,1,0,0,response3disk,,4,16.9453125,-5.828125,1,0,0,rectangle,16.9453125,-5.828125,1,0,0,16.9453125,-5.828125,1,0,0,0,9,9,35,1,,,,,,,,
,,,,,,,,,,,,,FF,,,,,,,,1.2836,,,,,,,,,,,,,,,,,,,,,,6103654d81de79ade4dba583,610369b661c29bdef29b06c4,2021-07-29_22h54.37.254,Simcolourproject_2stim_asymm_v5,2020.2.10,MacIntel,60,61025ae37ef11b136ea224fe,,,,,,,,,2898,-50.68359375,25.0078125,1,0,0,response7disk,,1,-14.640625,7.8203125,1,0,0,rectangle,-14.640625,7.8203125,1,0,0,-14.640625,7.8203125,1,0,0,0,10,10,4,1,,,,,,,,
,,,,,,,,,,,,,FF,,,,,,,,5.0174,,,,,,,,,,,,,,,,,,,,,,6103654d81de79ade4dba583,610369b661c29bdef29b06c4,2021-07-29_22h54.37.254,Simcolourproject_2stim_asymm_v5,2020.2.10,MacIntel,60,61025ae37ef11b136ea224fe,,,,,,,,,3407,28.05078125,46.3359375,1,0,0,response1disk,,7,17.80859375,-9.125,1,0,0,rectangle,17.80859375,-9.125,1,0,0,17.80859375,-9.125,1,0,0,0,11,11,17,1,,,,,,,,
,,,,,,,,,,,,,FF,,,,,,,,1.3984,,,,,,,,,,,,,,,,,,,,,,6103654d81de79ade4dba583,610369b661c29bdef29b06c4,2021-07-29_22h54.37.254,Simcolourproject_2stim_asymm_v5,2020.2.10,MacIntel,60,61025ae37ef11b136ea224fe,,,,,,,,,1468,-43.53515625,22.3828125,1,0,0,response7disk,,1,-0.87109375,3.67578125,1,0,0,rectangle,50.62109375,-32.91796875,1,0,0,14.546875,-2.32421875,1,0,0,0,12,12,94,1,,response3disk_3,TRUE,5,5,"[138,168,222,316,239,193,56,174,117,13,207,22,146,96,158,180,136,232,89,212]",1.6697,rectangle
,,,,,,,,,,,,,FF,,,,,,,,1.9686,,,,,,,,,,,,,,,,,,,,,,6103654d81de79ade4dba583,610369b661c29bdef29b06c4,2021-07-29_22h54.37.254,Simcolourproject_2stim_asymm_v5,2020.2.10,MacIntel,60,61025ae37ef11b136ea224fe,,,,,,,,,4264,19.8046875,-52.9765625,1,0,0,response3disk,,4,12.51171875,-5.640625,1,0,0,rectangle,12.51171875,-5.640625,1,0,0,12.51171875,-5.640625,1,0,0,0,13,13,1,1,,,,,,,,
,,,,,,,,,,,,,FF,,,,,,,,0.7672,,,,,,,,,,,,,,,,,,,,,,6103654d81de79ade4dba583,610369b661c29bdef29b06c4,2021-07-29_22h54.37.254,Simcolourproject_2stim_asymm_v5,2020.2.10,MacIntel,60,61025ae37ef11b136ea224fe,,,,,,,,,3546,-45.71484375,16.96875,1,0,0,response7disk,,1,-3.80078125,11.45703125,1,0,0,rectangle,-3.80078125,11.45703125,1,0,0,-3.80078125,11.45703125,1,0,0,0,14,14,61,1,,,,,,,,
,,,,,,,,,,,,,FF,,,,,,,,1.6502,,,,,,,,,,,,,,,,,,,,,,6103654d81de79ade4dba583,610369b661c29bdef29b06c4,2021-07-29_22h54.37.254,Simcolourproject_2stim_asymm_v5,2020.2.10,MacIntel,60,61025ae37ef11b136ea224fe,,,,,,,,,340,-24.4375,-49.78515625,1,0,0,response5disk,,3,-6.25390625,4.17578125,1,0,0,rectangle,-6.25390625,4.17578125,1,0,0,-6.25390625,4.17578125,1,0,0,0,15,15,121,1,,,,,,,,
,,,,,,,,,,,,,FF,,,,,,,,1.8686,,,,,,,,,,,,,,,,,,,,,,6103654d81de79ade4dba583,610369b661c29bdef29b06c4,2021-07-29_22h54.37.254,Simcolourproject_2stim_asymm_v5,2020.2.10,MacIntel,60,61025ae37ef11b136ea224fe,,,,,,,,,823,-13.40625,-49.40234375,1,0,0,response5disk,,3,-2.98046875,-8.2578125,1,0,0,rectangle,-2.98046875,-8.2578125,1,0,0,-2.98046875,-8.2578125,1,0,0,0,16,16,32,1,,,,,,,,
,,,,,,,,,,,,,FF,,,,,,,,1.0014,,,,,,,,,,,,,,,,,,,,,,6103654d81de79ade4dba583,610369b661c29bdef29b06c4,2021-07-29_22h54.37.254,Simcolourproject_2stim_asymm_v5,2020.2.10,MacIntel,60,61025ae37ef11b136ea224fe,,,,,,,,,2472,-43.83203125,21.1015625,1,0,0,response7disk,,1,-4.53515625,0.31640625,1,0,0,rectangle,-4.53515625,0.31640625,1,0,0,-4.53515625,0.31640625,1,0,0,0,17,17,120,1,,,,,,,,
,,,,,,,,,,,,,FF,,,,,,,,1.567,,,,,,,,,,,,,,,,,,,,,,6103654d81de79ade4dba583,610369b661c29bdef29b06c4,2021-07-29_22h54.37.254,Simcolourproject_2stim_asymm_v5,2020.2.10,MacIntel,60,61025ae37ef11b136ea224fe,,,,,,,,,1700,50.37890625,-35.9609375,1,0,0,response3disk,,5,9.984375,-6.91796875,1,0,0,rectangle,9.984375,-6.91796875,1,0,0,9.984375,-6.91796875,1,0,0,0,18,18,38,1,,,,,,,,
,,,,,,,,,,,,,FF,,,,,,,,0.6997,,,,,,,,,,,,,,,,,,,,,,6103654d81de79ade4dba583,610369b661c29bdef29b06c4,2021-07-29_22h54.37.254,Simcolourproject_2stim_asymm_v5,2020.2.10,MacIntel,60,61025ae37ef11b136ea224fe,,,,,,,,,1584,-44.671875,-25.140625,1,0,0,response5disk,,2,-20.875,-6.15625,1,0,0,rectangle,-20.875,-6.15625,1,0,0,-20.875,-6.15625,1,0,0,0,19,19,149,1,,,,,,,,
,,,,,,,,,,,,,FF,,,,,,,,1.5499,,,,,,,,,,,,,,,,,,,,,,6103654d81de79ade4dba583,610369b661c29bdef29b06c4,2021-07-29_22h54.37.254,Simcolourproject_2stim_asymm_v5,2020.2.10,MacIntel,60,61025ae37ef11b136ea224fe,,,,,,,,,4290,47.08203125,15.55078125,1,0,0,response1disk,,6,15.171875,3.1328125,1,0,0,rectangle,15.171875,3.1328125,1,0,0,15.171875,3.1328125,1,0,0,0,20,20,155,1,,,,,,,,
,,,,,,,,,,,,,FF,,,,,,,,1.6081,,,,,,,,,,,,,,,,,,,,,,6103654d81de79ade4dba583,610369b661c29bdef29b06c4,2021-07-29_22h54.37.254,Simcolourproject_2stim_asymm_v5,2020.2.10,MacIntel,60,61025ae37ef11b136ea224fe,,,,,,,,,3797,52.640625,-40.1171875,1,0,0,response3disk,,5,0.9609375,1.40625,1,0,0,rectangle,-15.9296875,-50.8203125,1,0,0,-7.61328125,-4.41015625,1,0,0,0,21,21,83,1,,response5disk_3,TRUE,3,3,"[138,168,222,316,239,193,56,174,117,13,207,22,146,96,158,180,136,232,89,212]",2.2688,rectangle
,,,,,,,,,,,,,FF,,,,,,,,1.1651,,,,,,,,,,,,,,,,,,,,,,6103654d81de79ade4dba583,610369b661c29bdef29b06c4,2021-07-29_22h54.37.254,Simcolourproject_2stim_asymm_v5,2020.2.10,MacIntel,60,61025ae37ef11b136ea224fe,,,,,,,,,2145,20.390625,38.9140625,1,0,0,response1disk,,7,9.25,-5.59375,1,0,0,rectangle,9.25,-5.59375,1,0,0,9.25,-5.59375,1,0,0,0,22,22,156,1,,,,,,,,
,,,,,,,,,,,,,FF,,,,,,,,1.2158,,,,,,,,,,,,,,,,,,,,,,6103654d81de79ade4dba583,610369b661c29bdef29b06c4,2021-07-29_22h54.37.254,Simcolourproject_2stim_asymm_v5,2020.2.10,MacIntel,60,61025ae37ef11b136ea224fe,,,,,,,,,2522,53.12109375,8.0859375,1,0,0,response1disk,,6,4.9921875,-0.25390625,1,0,0,rectangle,4.9921875,-0.25390625,1,0,0,4.9921875,-0.25390625,1,0,0,0,23,23,47,1,,,,,,,,
,,,,,,,,,,,,,FF,,,,,,,,1.2484,,,,,,,,,,,,,,,,,,,,,,6103654d81de79ade4dba583,610369b661c29bdef29b06c4,2021-07-29_22h54.37.254,Simcolourproject_2stim_asymm_v5,2020.2.10,MacIntel,60,61025ae37ef11b136ea224fe,,,,,,,,,3215,27.6328125,-49.62109375,1,0,0,response3disk,,4,17.69140625,-6.140625,1,0,0,rectangle,17.69140625,-6.140625,1,0,0,17.69140625,-6.140625,1,0,0,0,24,24,67,1,,,,,,,,
,,,,,,,,,,,,,FF,,,,,,,,2.6501,,,,,,,,,,,,,,,,,,,,,,6103654d81de79ade4dba583,610369b661c29bdef29b06c4,2021-07-29_22h54.37.254,Simcolourproject_2stim_asymm_v5,2020.2.10,MacIntel,60,61025ae37ef11b136ea224fe,,,,,,,,,2167,-19.015625,51.53125,1,0,0,response7disk,,0,-17.99609375,2.87109375,1,0,0,rectangle,-17.99609375,2.87109375,1,0,0,-17.99609375,2.87109375,1,0,0,0,25,25,5,1,,,,,,,,
,,,,,,,,,,,,,FF,,,,,,,,0.8993,,,,,,,,,,,,,,,,,,,,,,6103654d81de79ade4dba583,610369b661c29bdef29b06c4,2021-07-29_22h54.37.254,Simcolourproject_2stim_asymm_v5,2020.2.10,MacIntel,60,61025ae37ef11b136ea224fe,,,,,,,,,2777,-20.9609375,42.296875,1,0,0,response7disk,,0,-16.1484375,-4.1328125,1,0,0,rectangle,-16.1484375,-4.1328125,1,0,0,-16.1484375,-4.1328125,1,0,0,0,26,26,107,1,,,,,,,,
,,,,,,,,,,,,,FF,,,,,,,,1.2649,,,,,,,,,,,,,,,,,,,,,,6103654d81de79ade4dba583,610369b661c29bdef29b06c4,2021-07-29_22h54.37.254,Simcolourproject_2stim_asymm_v5,2020.2.10,MacIntel,60,61025ae37ef11b136ea224fe,,,,,,,,,1059,22.71484375,-52.91796875,1,0,0,response3disk,,4,7.71875,3.9921875,1,0,0,rectangle,7.71875,3.9921875,1,0,0,7.71875,3.9921875,1,0,0,0,27,27,133,1,,,,,,,,
,,,,,,,,,,,,,FF,,,,,,,,1.1678,,,,,,,,,,,,,,,,,,,,,,6103654d81de79ade4dba583,610369b661c29bdef29b06c4,2021-07-29_22h54.37.254,Simcolourproject_2stim_asymm_v5,2020.2.10,MacIntel,60,61025ae37ef11b136ea224fe,,,,,,,,,3788,-43.66015625,-22.125,1,0,0,response5disk,,2,-8.76953125,-6.23828125,1,0,0,rectangle,-8.76953125,-6.23828125,1,0,0,-8.76953125,-6.23828125,1,0,0,0,28,28,143,1,,,,,,,,
,,,,,,,,,,,,,FF,,,,,,,,1.0021,,,,,,,,,,,,,,,,,,,,,,6103654d81de79ade4dba583,610369b661c29bdef29b06c4,2021-07-29_22h54.37.254,Simcolourproject_2stim_asymm_v5,2020.2.10,MacIntel,60,61025ae37ef11b136ea224fe,,,,,,,,,2912,55.7109375,25.984375,1,0,0,response1disk,,6,6.33203125,2.4921875,1,0,0,rectangle,6.33203125,2.4921875,1,0,0,6.33203125,2.4921875,1,0,0,0,29,29,90,1,,,,,,,,
,,,,,,,,,,,,,FF,,,,,,,,1.5515,,,,,,,,,,,,,,,,,,,,,,6103654d81de79ade4dba583,610369b661c29bdef29b06c4,2021-07-29_22h54.37.254,Simcolourproject_2stim_asymm_v5,2020.2.10,MacIntel,60,61025ae37ef11b136ea224fe,,,,,,,,,2349,30.109375,-51.9453125,1,0,0,response3disk,,4,-3.59765625,2.24609375,1,0,0,rectangle,-3.59765625,2.24609375,1,0,0,-3.59765625,2.24609375,1,0,0,0,30,30,15,1,,,,,,,,
,,,,,,,,,,,,,FF,,,,,,,,1.8234,,,,,,,,,,,,,,,,,,,,,,6103654d81de79ade4dba583,610369b661c29bdef29b06c4,2021-07-29_22h54.37.254,Simcolourproject_2stim_asymm_v5,2020.2.10,MacIntel,60,61025ae37ef11b136ea224fe,,,,,,,,,2378,-14.109375,-40.2109375,1,0,0,response5disk,,3,-11.72265625,-6.88671875,1,0,0,rectangle,-11.72265625,-6.88671875,1,0,0,-11.72265625,-6.88671875,1,0,0,0,31,31,46,1,,,,,,,,
,,,,,,,,,,,,,FF,,,,,,,,1.4504,,,,,,,,,,,,,,,,,,,,,,6103654d81de79ade4dba583,610369b661c29bdef29b06c4,2021-07-29_22h54.37.254,Simcolourproject_2stim_asymm_v5,2020.2.10,MacIntel,60,61025ae37ef11b136ea224fe,,,,,,,,,3634,-28.51953125,-46.03125,1,0,0,response5disk,,3,6.953125,-6.41796875,1,0,0,rectangle,6.953125,-6.41796875,1,0,0,6.953125,-6.41796875,1,0,0,0,32,32,63,1,,,,,,,,
,,,,,,,,,,,,,FF,,,,,,,,1.7002,,,,,,,,,,,,,,,,,,,,,,6103654d81de79ade4dba583,610369b661c29bdef29b06c4,2021-07-29_22h54.37.254,Simcolourproject_2stim_asymm_v5,2020.2.10,MacIntel,60,61025ae37ef11b136ea224fe,,,,,,,,,2358,-48.1484375,-22.62109375,1,0,0,response5disk,,2,-21.33203125,-11.1171875,1,0,0,rectangle,-21.33203125,-11.1171875,1,0,0,-21.33203125,-11.1171875,1,0,0,0,33,33,43,1,,,,,,,,
,,,,,,,,,,,,,FF,,,,,,,,0.867,,,,,,,,,,,,,,,,,,,,,,6103654d81de79ade4dba583,610369b661c29bdef29b06c4,2021-07-29_22h54.37.254,Simcolourproject_2stim_asymm_v5,2020.2.10,MacIntel,60,61025ae37ef11b136ea224fe,,,,,,,,,2309,26.8046875,-52.03515625,1,0,0,response3disk,,4,16.55078125,11.0703125,1,0,0,rectangle,16.55078125,11.0703125,1,0,0,16.55078125,11.0703125,1,0,0,0,34,34,96,1,,,,,,,,
,,,,,,,,,,,,,FF,,,,,,,,1.1498,,,,,,,,,,,,,,,,,,,,,,6103654d81de79ade4dba583,610369b661c29bdef29b06c4,2021-07-29_22h54.37.254,Simcolourproject_2stim_asymm_v5,2020.2.10,MacIntel,60,61025ae37ef11b136ea224fe,,,,,,,,,1796,49.0390625,22.30859375,1,0,0,response1disk,,6,28.48828125,-0.234375,1,0,0,rectangle,28.48828125,-0.234375,1,0,0,28.48828125,-0.234375,1,0,0,0,35,35,117,1,,,,,,,,
,,,,,,,,,,,,,FF,,,,,,,,1.1168,,,,,,,,,,,,,,,,,,,,,,6103654d81de79ade4dba583,610369b661c29bdef29b06c4,2021-07-29_22h54.37.254,Simcolourproject_2stim_asymm_v5,2020.2.10,MacIntel,60,61025ae37ef11b136ea224fe,,,,,,,,,4055,53.26953125,-22.609375,1,0,0,response3disk,,5,2.95703125,-7,1,0,0,rectangle,2.95703125,-7,1,0,0,2.95703125,-7,1,0,0,0,36,36,138,1,,,,,,,,
,,,,,,,,,,,,,FF,,,,,,,,2.3169,,,,,,,,,,,,,,,,,,,,,,6103654d81de79ade4dba583,610369b661c29bdef29b06c4,2021-07-29_22h54.37.254,Simcolourproject_2stim_asymm_v5,2020.2.10,MacIntel,60,61025ae37ef11b136ea224fe,,,,,,,,,1084,47.390625,16.8671875,1,0,0,response1disk,,6,9.77734375,11.3984375,1,0,0,rectangle,9.77734375,11.3984375,1,0,0,9.77734375,11.3984375,1,0,0,0,37,37,28,1,,,,,,,,
,,,,,,,,,,,,,FF,,,,,,,,3.0511,,,,,,,,,,,,,,,,,,,,,,6103654d81de79ade4dba583,610369b661c29bdef29b06c4,2021-07-29_22h54.37.254,Simcolourproject_2stim_asymm_v5,2020.2.10,MacIntel,60,61025ae37ef11b136ea224fe,,,,,,,,,3608,54.98046875,-23.51953125,1,0,0,response3disk,,5,9.078125,-8.58203125,1,0,0,rectangle,9.078125,-8.58203125,1,0,0,9.078125,-8.58203125,1,0,0,0,38,38,27,1,,,,,,,,
,,,,,,,,,,,,,FF,,,,,,,,1.201,,,,,,,,,,,,,,,,,,,,,,6103654d81de79ade4dba583,610369b661c29bdef29b06c4,2021-07-29_22h54.37.254,Simcolourproject_2stim_asymm_v5,2020.2.10,MacIntel,60,61025ae37ef11b136ea224fe,,,,,,,,,2769,-26.9921875,-45.08203125,1,0,0,response5disk,,3,-15.4921875,1.09765625,1,0,0,rectangle,-15.4921875,1.09765625,1,0,0,-15.4921875,1.09765625,1,0,0,0,39,39,33,1,,,,,,,,
,,,,,,,,,,,,,FF,,,,,,,,1.0837,,,,,,,,,,,,,,,,,,,,,,6103654d81de79ade4dba583,610369b661c29bdef29b06c4,2021-07-29_22h54.37.254,Simcolourproject_2stim_asymm_v5,2020.2.10,MacIntel,60,61025ae37ef11b136ea224fe,,,,,,,,,1454,-44.66796875,30.24609375,1,0,0,response7disk,,1,-13.73046875,-4.19140625,1,0,0,rectangle,-13.73046875,-4.19140625,1,0,0,-13.73046875,-4.19140625,1,0,0,0,40,40,99,1,,,,,,,,
,,,,,,,,,,,,,FF,,,,,,,,1.7026,,,,,,,,,,,,,,,,,,,,,,6103654d81de79ade4dba583,610369b661c29bdef29b06c4,2021-07-29_22h54.37.254,Simcolourproject_2stim_asymm_v5,2020.2.10,MacIntel,60,61025ae37ef11b136ea224fe,,,,,,,,,1537,-28.10546875,-51.8125,1,0,0,response5disk,,3,-14.9453125,-13.42578125,1,0,0,rectangle,-14.9453125,-13.42578125,1,0,0,-14.9453125,-13.42578125,1,0,0,0,41,41,73,1,,,,,,,,
,,,,,,,,,,,,,FF,,,,,,,,0.85,,,,,,,,,,,,,,,,,,,,,,6103654d81de79ade4dba583,610369b661c29bdef29b06c4,2021-07-29_22h54.37.254,Simcolourproject_2stim_asymm_v5,2020.2.10,MacIntel,60,61025ae37ef11b136ea224fe,,,,,,,,,3748,-38.9453125,18.546875,1,0,0,response7disk,,1,-16.26953125,12.53125,1,0,0,rectangle,-16.26953125,12.53125,1,0,0,-16.26953125,12.53125,1,0,0,0,42,42,144,1,,,,,,,,
,,,,,,,,,,,,,FF,,,,,,,,1.3178,,,,,,,,,,,,,,,,,,,,,,6103654d81de79ade4dba583,610369b661c29bdef29b06c4,2021-07-29_22h54.37.254,Simcolourproject_2stim_asymm_v5,2020.2.10,MacIntel,60,61025ae37ef11b136ea224fe,,,,,,,,,2052,14.80078125,-46.7421875,1,0,0,response3disk,,4,10.8046875,-6.703125,1,0,0,rectangle,10.8046875,-6.703125,1,0,0,10.8046875,-6.703125,1,0,0,0,43,43,71,1,,,,,,,,
,,,,,,,,,,,,,FF,,,,,,,,1.3005,,,,,,,,,,,,,,,,,,,,,,6103654d81de79ade4dba583,610369b661c29bdef29b06c4,2021-07-29_22h54.37.254,Simcolourproject_2stim_asymm_v5,2020.2.10,MacIntel,60,61025ae37ef11b136ea224fe,,,,,,,,,1091,49.11328125,29.2421875,1,0,0,response1disk,,6,9.953125,-0.58203125,1,0,0,rectangle,9.953125,-0.58203125,1,0,0,9.953125,-0.58203125,1,0,0,0,44,44,93,1,,,,,,,,
,,,,,,,,,,,,,FF,,,,,,,,0.8162,,,,,,,,,,,,,,,,,,,,,,6103654d81de79ade4dba583,610369b661c29bdef29b06c4,2021-07-29_22h54.37.254,Simcolourproject_2stim_asymm_v5,2020.2.10,MacIntel,60,61025ae37ef11b136ea224fe,,,,,,,,,606,-40.9453125,24.82421875,1,0,0,response7disk,,1,-24.5078125,8.16015625,1,0,0,rectangle,-24.5078125,8.16015625,1,0,0,-24.5078125,8.16015625,1,0,0,0,45,45,102,1,,,,,,,,
,,,,,,,,,,,,,FF,,,,,,,,1.0158,,,,,,,,,,,,,,,,,,,,,,6103654d81de79ade4dba583,610369b661c29bdef29b06c4,2021-07-29_22h54.37.254,Simcolourproject_2stim_asymm_v5,2020.2.10,MacIntel,60,61025ae37ef11b136ea224fe,,,,,,,,,286,-39.38671875,-22.59765625,1,0,0,response5disk,,2,-15.50390625,-4.28125,1,0,0,rectangle,-15.50390625,-4.28125,1,0,0,-15.50390625,-4.28125,1,0,0,0,46,46,85,1,,,,,,,,
,,,,,,,,,,,,,FF,,,,,,,,1.4498,,,,,,,,,,,,,,,,,,,,,,6103654d81de79ade4dba583,610369b661c29bdef29b06c4,2021-07-29_22h54.37.254,Simcolourproject_2stim_asymm_v5,2020.2.10,MacIntel,60,61025ae37ef11b136ea224fe,,,,,,,,,2714,27.8125,-53.15625,1,0,0,response3disk,,4,16.6015625,-6.87109375,1,0,0,rectangle,16.6015625,-6.87109375,1,0,0,16.6015625,-6.87109375,1,0,0,0,47,47,50,1,,,,,,,,
,,,,,,,,,,,,,FF,,,,,,,,2.6999,,,,,,,,,,,,,,,,,,,,,,6103654d81de79ade4dba583,610369b661c29bdef29b06c4,2021-07-29_22h54.37.254,Simcolourproject_2stim_asymm_v5,2020.2.10,MacIntel,60,61025ae37ef11b136ea224fe,,,,,,,,,3982,26.1484375,-50.91015625,1,0,0,response3disk,,4,9.9140625,1.5078125,1,0,0,rectangle,9.9140625,1.5078125,1,0,0,9.9140625,1.5078125,1,0,0,0,48,48,131,1,,,,,,,,
,,,,,,,,,,,,,FF,,,,,,,,0.934,,,,,,,,,,,,,,,,,,,,,,6103654d81de79ade4dba583,610369b661c29bdef29b06c4,2021-07-29_22h54.37.254,Simcolourproject_2stim_asymm_v5,2020.2.10,MacIntel,60,61025ae37ef11b136ea224fe,,,,,,,,,1377,-27.453125,-46.21875,1,0,0,response5disk,,3,-23.80859375,9.55078125,1,0,0,rectangle,-23.80859375,9.55078125,1,0,0,-23.80859375,9.55078125,1,0,0,0,49,49,108,1,,,,,,,,
,,,,,,,,,,,,,FF,,,,,,,,2.4168,,,,,,,,,,,,,,,,,,,,,,6103654d81de79ade4dba583,610369b661c29bdef29b06c4,2021-07-29_22h54.37.254,Simcolourproject_2stim_asymm_v5,2020.2.10,MacIntel,60,61025ae37ef11b136ea224fe,,,,,,,,,1665,52.0703125,-30.625,1,0,0,response3disk,,5,-9.57421875,7.63671875,1,0,0,rectangle,-9.57421875,7.63671875,1,0,0,-9.57421875,7.63671875,1,0,0,0,50,50,130,1,,,,,,,,
,,,,,,,,,,,,,FF,,,,,,,,0.9814,,,,,,,,,,,,,,,,,,,,,,6103654d81de79ade4dba583,610369b661c29bdef29b06c4,2021-07-29_22h54.37.254,Simcolourproject_2stim_asymm_v5,2020.2.10,MacIntel,60,61025ae37ef11b136ea224fe,,,,,,,,,261,-45.484375,-27.515625,1,0,0,response5disk,,2,-24.23046875,1.25,1,0,0,rectangle,-24.23046875,1.25,1,0,0,-24.23046875,1.25,1,0,0,0,51,51,54,1,,,,,,,,
,,,,,,,,,,,,,FF,,,,,,,,1.1309,,,,,,,,,,,,,,,,,,,,,,6103654d81de79ade4dba583,610369b661c29bdef29b06c4,2021-07-29_22h54.37.254,Simcolourproject_2stim_asymm_v5,2020.2.10,MacIntel,60,61025ae37ef11b136ea224fe,,,,,,,,,2417,46.00390625,-31.58984375,1,0,0,response3disk,,5,-5.1484375,-5.22265625,1,0,0,rectangle,-5.1484375,-5.22265625,1,0,0,-5.1484375,-5.22265625,1,0,0,0,52,52,103,1,,,,,,,,
,,,,,,,,,,,,,FF,,,,,,,,1.4514,,,,,,,,,,,,,,,,,,,,,,6103654d81de79ade4dba583,610369b661c29bdef29b06c4,2021-07-29_22h54.37.254,Simcolourproject_2stim_asymm_v5,2020.2.10,MacIntel,60,61025ae37ef11b136ea224fe,,,,,,,,,507,41.73828125,-29.60546875,1,0,0,response3disk,,5,0.56640625,4.9453125,1,0,0,rectangle,0.56640625,4.9453125,1,0,0,0.56640625,4.9453125,1,0,0,0,53,53,95,1,,,,,,,,
,,,,,,,,,,,,,FF,,,,,,,,0.8163,,,,,,,,,,,,,,,,,,,,,,6103654d81de79ade4dba583,610369b661c29bdef29b06c4,2021-07-29_22h54.37.254,Simcolourproject_2stim_asymm_v5,2020.2.10,MacIntel,60,61025ae37ef11b136ea224fe,,,,,,,,,1113,-26.66015625,-56.109375,1,0,0,response5disk,,3,-23.90234375,-17.875,1,0,0,rectangle,-23.90234375,-17.875,1,0,0,-23.90234375,-17.875,1,0,0,0,54,54,16,1,,,,,,,,
,,,,,,,,,,,,,FF,,,,,,,,0.9303,,,,,,,,,,,,,,,,,,,,,,6103654d81de79ade4dba583,610369b661c29bdef29b06c4,2021-07-29_22h54.37.254,Simcolourproject_2stim_asymm_v5,2020.2.10,MacIntel,60,61025ae37ef11b136ea224fe,,,,,,,,,754,44.9921875,27.5078125,1,0,0,response1disk,,6,21.60546875,-1.62890625,1,0,0,rectangle,-46.96484375,24.14453125,1,0,0,-1.296875,-2.84375,1,0,0,0,55,55,157,1,,response7disk_3,TRUE,1,1,"[138,168,222,316,239,193,56,174,117,13,207,22,146,96,158,180,136,232,89,212]",1.3176,rectangle
,,,,,,,,,,,,,FF,,,,,,,,0.933,,,,,,,,,,,,,,,,,,,,,,6103654d81de79ade4dba583,610369b661c29bdef29b06c4,2021-07-29_22h54.37.254,Simcolourproject_2stim_asymm_v5,2020.2.10,MacIntel,60,61025ae37ef11b136ea224fe,,,,,,,,,2889,-27.44140625,-55.05859375,1,0,0,response5disk,,3,-10.84765625,-5.5859375,1,0,0,rectangle,-10.84765625,-5.5859375,1,0,0,-10.84765625,-5.5859375,1,0,0,0,56,56,68,1,,,,,,,,
,,,,,,,,,,,,,FF,,,,,,,,0.6496,,,,,,,,,,,,,,,,,,,,,,6103654d81de79ade4dba583,610369b661c29bdef29b06c4,2021-07-29_22h54.37.254,Simcolourproject_2stim_asymm_v5,2020.2.10,MacIntel,60,61025ae37ef11b136ea224fe,,,,,,,,,705,27.5234375,-48.828125,1,0,0,response3disk,,4,1.28515625,2.2421875,1,0,0,rectangle,1.28515625,2.2421875,1,0,0,1.28515625,2.2421875,1,0,0,0,57,57,88,1,,,,,,,,
,,,,,,,,,,,,,FF,,,,,,,,0.7358,,,,,,,,,,,,,,,,,,,,,,6103654d81de79ade4dba583,610369b661c29bdef29b06c4,2021-07-29_22h54.37.254,Simcolourproject_2stim_asymm_v5,2020.2.10,MacIntel,60,61025ae37ef11b136ea224fe,,,,,,,,,4060,27.64453125,-56.1640625,1,0,0,response3disk,,4,13.1796875,-4.01953125,1,0,0,rectangle,13.1796875,-4.01953125,1,0,0,13.1796875,-4.01953125,1,0,0,0,58,58,14,1,,,,,,,,
,,,,,,,,,,,,,FF,,,,,,,,0.7311,,,,,,,,,,,,,,,,,,,,,,6103654d81de79ade4dba583,610369b661c29bdef29b06c4,2021-07-29_22h54.37.254,Simcolourproject_2stim_asymm_v5,2020.2.10,MacIntel,60,61025ae37ef11b136ea224fe,,,,,,,,,2991,40.15625,30.72265625,1,0,0,response1disk,,6,0.953125,-6.296875,1,0,0,rectangle,0.953125,-6.296875,1,0,0,0.953125,-6.296875,1,0,0,0,59,59,122,1,,,,,,,,
,,,,,,,,,,,,,FF,,,,,,,,1.5657,,,,,,,,,,,,,,,,,,,,,,6103654d81de79ade4dba583,610369b661c29bdef29b06c4,2021-07-29_22h54.37.254,Simcolourproject_2stim_asymm_v5,2020.2.10,MacIntel,60,61025ae37ef11b136ea224fe,,,,,,,,,2256,50.79296875,-31.7890625,1,0,0,response3disk,,5,1.33984375,-15.3046875,1,0,0,rectangle,1.33984375,-15.3046875,1,0,0,1.33984375,-15.3046875,1,0,0,0,60,60,142,1,,,,,,,,
,,,,,,,,,,,,,FF,,,,,,,,1.0332,,,,,,,,,,,,,,,,,,,,,,6103654d81de79ade4dba583,610369b661c29bdef29b06c4,2021-07-29_22h54.37.254,Simcolourproject_2stim_asymm_v5,2020.2.10,MacIntel,60,61025ae37ef11b136ea224fe,,,,,,,,,1654,45.4609375,21.20703125,1,0,0,response1disk,,6,5.01171875,-2.68359375,1,0,0,rectangle,5.01171875,-2.68359375,1,0,0,5.01171875,-2.68359375,1,0,0,0,61,61,56,1,,,,,,,,
,,,,,,,,,,,,,FF,,,,,,,,2.3683,,,,,,,,,,,,,,,,,,,,,,6103654d81de79ade4dba583,610369b661c29bdef29b06c4,2021-07-29_22h54.37.254,Simcolourproject_2stim_asymm_v5,2020.2.10,MacIntel,60,61025ae37ef11b136ea224fe,,,,,,,,,878,45.23046875,17.1796875,1,0,0,response1disk,,6,21.74609375,9.12109375,1,0,0,rectangle,21.74609375,9.12109375,1,0,0,21.74609375,9.12109375,1,0,0,0,62,62,141,1,,,,,,,,
,,,,,,,,,,,,,FF,,,,,,,,4.4526,,,,,,,,,,,,,,,,,,,,,,6103654d81de79ade4dba583,610369b661c29bdef29b06c4,2021-07-29_22h54.37.254,Simcolourproject_2stim_asymm_v5,2020.2.10,MacIntel,60,61025ae37ef11b136ea224fe,,,,,,,,,1399,48.83984375,21.2578125,1,0,0,response1disk,,6,15.27734375,9.375,1,0,0,rectangle,15.27734375,9.375,1,0,0,15.27734375,9.375,1,0,0,0,63,63,98,1,,,,,,,,
,,,,,,,,,,,,,FF,,,,,,,,4.6161,,,,,,,,,,,,,,,,,,,,,,6103654d81de79ade4dba583,610369b661c29bdef29b06c4,2021-07-29_22h54.37.254,Simcolourproject_2stim_asymm_v5,2020.2.10,MacIntel,60,61025ae37ef11b136ea224fe,,,,,,,,,730,49.8984375,-26.28125,1,0,0,response3disk,,5,17.765625,-11.5,1,0,0,rectangle,17.765625,-11.5,1,0,0,17.765625,-11.5,1,0,0,0,64,64,13,1,,,,,,,,
,,,,,,,,,,,,,FF,,,,,,,,0.948,,,,,,,,,,,,,,,,,,,,,,6103654d81de79ade4dba583,610369b661c29bdef29b06c4,2021-07-29_22h54.37.254,Simcolourproject_2stim_asymm_v5,2020.2.10,MacIntel,60,61025ae37ef11b136ea224fe,,,,,,,,,1860,24.40625,43.671875,1,0,0,response1disk,,7,22.46484375,10.09375,1,0,0,rectangle,22.46484375,10.09375,1,0,0,22.46484375,10.09375,1,0,0,0,65,65,31,1,,,,,,,,
,,,,,,,,,,,,,FF,,,,,,,,1.0834,,,,,,,,,,,,,,,,,,,,,,6103654d81de79ade4dba583,610369b661c29bdef29b06c4,2021-07-29_22h54.37.254,Simcolourproject_2stim_asymm_v5,2020.2.10,MacIntel,60,61025ae37ef11b136ea224fe,,,,,,,,,2308,32.64453125,-57.9140625,1,0,0,response3disk,,4,-19.47265625,-1.72265625,1,0,0,rectangle,-19.47265625,-1.72265625,1,0,0,-19.47265625,-1.72265625,1,0,0,0,66,66,81,1,,,,,,,,
,,,,,,,,,,,,,FF,,,,,,,,0.7668,,,,,,,,,,,,,,,,,,,,,,6103654d81de79ade4dba583,610369b661c29bdef29b06c4,2021-07-29_22h54.37.254,Simcolourproject_2stim_asymm_v5,2020.2.10,MacIntel,60,61025ae37ef11b136ea224fe,,,,,,,,,3846,-41.8203125,-25.8828125,1,0,0,response5disk,,2,-15.2265625,-0.21484375,1,0,0,rectangle,-15.2265625,-0.21484375,1,0,0,-15.2265625,-0.21484375,1,0,0,0,67,67,8,1,,,,,,,,
,,,,,,,,,,,,,FF,,,,,,,,2.7203,,,,,,,,,,,,,,,,,,,,,,6103654d81de79ade4dba583,610369b661c29bdef29b06c4,2021-07-29_22h54.37.254,Simcolourproject_2stim_asymm_v5,2020.2.10,MacIntel,60,61025ae37ef11b136ea224fe,,,,,,,,,4027,-44.16796875,-25.515625,1,0,0,response5disk,,2,-12.71484375,-8.21484375,1,0,0,rectangle,-12.71484375,-8.21484375,1,0,0,-12.71484375,-8.21484375,1,0,0,0,68,68,101,1,,,,,,,,
,,,,,,,,,,,,,FF,,,,,,,,1.2499,,,,,,,,,,,,,,,,,,,,,,6103654d81de79ade4dba583,610369b661c29bdef29b06c4,2021-07-29_22h54.37.254,Simcolourproject_2stim_asymm_v5,2020.2.10,MacIntel,60,61025ae37ef11b136ea224fe,,,,,,,,,1574,46.91796875,-14.04296875,1,0,0,response3disk,,5,6.046875,-7.8515625,1,0,0,rectangle,6.046875,-7.8515625,1,0,0,6.046875,-7.8515625,1,0,0,0,69,69,18,1,,,,,,,,
,,,,,,,,,,,,,FF,,,,,,,,0.8856,,,,,,,,,,,,,,,,,,,,,,6103654d81de79ade4dba583,610369b661c29bdef29b06c4,2021-07-29_22h54.37.254,Simcolourproject_2stim_asymm_v5,2020.2.10,MacIntel,60,61025ae37ef11b136ea224fe,,,,,,,,,458,-26.44921875,-53.94140625,1,0,0,response5disk,,3,-10.7109375,-10.02734375,1,0,0,rectangle,-10.7109375,-10.02734375,1,0,0,-10.7109375,-10.02734375,1,0,0,0,70,70,136,1,,,,,,,,
,,,,,,,,,,,,,FF,,,,,,,,1.0493,,,,,,,,,,,,,,,,,,,,,,6103654d81de79ade4dba583,610369b661c29bdef29b06c4,2021-07-29_22h54.37.254,Simcolourproject_2stim_asymm_v5,2020.2.10,MacIntel,60,61025ae37ef11b136ea224fe,,,,,,,,,2352,54.53125,18.734375,1,0,0,response1disk,,6,19.81640625,9.69140625,1,0,0,rectangle,19.81640625,9.69140625,1,0,0,19.81640625,9.69140625,1,0,0,0,71,71,114,1,,,,,,,,
,,,,,,,,,,,,,FF,,,,,,,,1.1999,,,,,,,,,,,,,,,,,,,,,,6103654d81de79ade4dba583,610369b661c29bdef29b06c4,2021-07-29_22h54.37.254,Simcolourproject_2stim_asymm_v5,2020.2.10,MacIntel,60,61025ae37ef11b136ea224fe,,,,,,,,,2797,51.7578125,-28.78125,1,0,0,response3disk,,5,9.8828125,0.61328125,1,0,0,rectangle,9.8828125,0.61328125,1,0,0,9.8828125,0.61328125,1,0,0,0,72,72,2,1,,,,,,,,
,,,,,,,,,,,,,FF,,,,,,,,2.4845,,,,,,,,,,,,,,,,,,,,,,6103654d81de79ade4dba583,610369b661c29bdef29b06c4,2021-07-29_22h54.37.254,Simcolourproject_2stim_asymm_v5,2020.2.10,MacIntel,60,61025ae37ef11b136ea224fe,,,,,,,,,1352,47.25,-25.171875,1,0,0,response3disk,,5,16.28515625,-16.79296875,1,0,0,rectangle,16.28515625,-16.79296875,1,0,0,16.28515625,-16.79296875,1,0,0,0,73,73,153,1,,,,,,,,
,,,,,,,,,,,,,FF,,,,,,,,1.764,,,,,,,,,,,,,,,,,,,,,,6103654d81de79ade4dba583,610369b661c29bdef29b06c4,2021-07-29_22h54.37.254,Simcolourproject_2stim_asymm_v5,2020.2.10,MacIntel,60,61025ae37ef11b136ea224fe,,,,,,,,,3527,48.81640625,25.00390625,1,0,0,response1disk,,6,-4.9140625,-3.6328125,1,0,0,rectangle,-4.9140625,-3.6328125,1,0,0,-4.9140625,-3.6328125,1,0,0,0,74,74,29,1,,,,,,,,
,,,,,,,,,,,,,FF,,,,,,,,1.1828,,,,,,,,,,,,,,,,,,,,,,6103654d81de79ade4dba583,610369b661c29bdef29b06c4,2021-07-29_22h54.37.254,Simcolourproject_2stim_asymm_v5,2020.2.10,MacIntel,60,61025ae37ef11b136ea224fe,,,,,,,,,2848,-50.2578125,-24.88671875,1,0,0,response5disk,,2,-7.96484375,-11.06640625,1,0,0,rectangle,-7.96484375,-11.06640625,1,0,0,-7.96484375,-11.06640625,1,0,0,0,75,75,52,1,,,,,,,,
,,,,,,,,,,,,,FF,,,,,,,,1.4022,,,,,,,,,,,,,,,,,,,,,,6103654d81de79ade4dba583,610369b661c29bdef29b06c4,2021-07-29_22h54.37.254,Simcolourproject_2stim_asymm_v5,2020.2.10,MacIntel,60,61025ae37ef11b136ea224fe,,,,,,,,,2821,44.89453125,11.49609375,1,0,0,response1disk,,6,14.01171875,-5.21875,1,0,0,rectangle,14.01171875,-5.21875,1,0,0,14.01171875,-5.21875,1,0,0,0,76,76,116,1,,,,,,,,
,,,,,,,,,,,,,FF,,,,,,,,1.5502,,,,,,,,,,,,,,,,,,,,,,6103654d81de79ade4dba583,610369b661c29bdef29b06c4,2021-07-29_22h54.37.254,Simcolourproject_2stim_asymm_v5,2020.2.10,MacIntel,60,61025ae37ef11b136ea224fe,,,,,,,,,4172,18.234375,52.9609375,1,0,0,response1disk,,7,4.35546875,5.3359375,1,0,0,rectangle,4.35546875,5.3359375,1,0,0,4.35546875,5.3359375,1,0,0,0,77,77,105,1,,,,,,,,
,,,,,,,,,,,,,FF,,,,,,,,2.5835,,,,,,,,,,,,,,,,,,,,,,6103654d81de79ade4dba583,610369b661c29bdef29b06c4,2021-07-29_22h54.37.254,Simcolourproject_2stim_asymm_v5,2020.2.10,MacIntel,60,61025ae37ef11b136ea224fe,,,,,,,,,960,65.68359375,16.89453125,1,0,0,response1disk,,6,2.11328125,11.69140625,1,0,0,rectangle,2.11328125,11.69140625,1,0,0,2.11328125,11.69140625,1,0,0,0,78,78,97,1,,,,,,,,
,,,,,,,,,,,,,FF,,,,,,,,1.4857,,,,,,,,,,,,,,,,,,,,,,6103654d81de79ade4dba583,610369b661c29bdef29b06c4,2021-07-29_22h54.37.254,Simcolourproject_2stim_asymm_v5,2020.2.10,MacIntel,60,61025ae37ef11b136ea224fe,,,,,,,,,1652,19.8359375,54.44140625,1,0,0,response1disk,,7,12.54296875,9.27734375,1,0,0,rectangle,12.54296875,9.27734375,1,0,0,12.54296875,9.27734375,1,0,0,0,79,79,69,1,,,,,,,,
,,,,,,,,,,,,,FF,,,,,,,,1.6504,,,,,,,,,,,,,,,,,,,,,,6103654d81de79ade4dba583,610369b661c29bdef29b06c4,2021-07-29_22h54.37.254,Simcolourproject_2stim_asymm_v5,2020.2.10,MacIntel,60,61025ae37ef11b136ea224fe,,,,,,,,,3697,46.171875,-16.96875,1,0,0,response3disk,,5,16.51171875,-6.03125,1,0,0,rectangle,16.51171875,-6.03125,1,0,0,16.51171875,-6.03125,1,0,0,0,80,80,70,1,,,,,,,,
,,,,,,,,,,,,,FF,,,,,,,,1.5032,,,,,,,,,,,,,,,,,,,,,,6103654d81de79ade4dba583,610369b661c29bdef29b06c4,2021-07-29_22h54.37.254,Simcolourproject_2stim_asymm_v5,2020.2.10,MacIntel,60,61025ae37ef11b136ea224fe,,,,,,,,,259,25.609375,-52.78125,1,0,0,response3disk,,4,-0.81640625,7.5625,1,0,0,rectangle,-0.81640625,7.5625,1,0,0,-0.81640625,7.5625,1,0,0,0,81,81,42,1,,,,,,,,
,,,,,,,,,,,,,FF,,,,,,,,1.8538,,,,,,,,,,,,,,,,,,,,,,6103654d81de79ade4dba583,610369b661c29bdef29b06c4,2021-07-29_22h54.37.254,Simcolourproject_2stim_asymm_v5,2020.2.10,MacIntel,60,61025ae37ef11b136ea224fe,,,,,,,,,4337,-25.38671875,-51.7265625,1,0,0,response5disk,,3,-16.171875,-1.05078125,1,0,0,rectangle,-16.171875,-1.05078125,1,0,0,-16.171875,-1.05078125,1,0,0,0,82,82,150,1,,,,,,,,
,,,,,,,,,,,,,FF,,,,,,,,1.1175,,,,,,,,,,,,,,,,,,,,,,6103654d81de79ade4dba583,610369b661c29bdef29b06c4,2021-07-29_22h54.37.254,Simcolourproject_2stim_asymm_v5,2020.2.10,MacIntel,60,61025ae37ef11b136ea224fe,,,,,,,,,3903,23.4296875,-51.38671875,1,0,0,response3disk,,4,2.5234375,-5.609375,1,0,0,rectangle,2.5234375,-5.609375,1,0,0,2.5234375,-5.609375,1,0,0,0,83,83,30,1,,,,,,,,
,,,,,,,,,,,,,FF,,,,,,,,1.3653,,,,,,,,,,,,,,,,,,,,,,6103654d81de79ade4dba583,610369b661c29bdef29b06c4,2021-07-29_22h54.37.254,Simcolourproject_2stim_asymm_v5,2020.2.10,MacIntel,60,61025ae37ef11b136ea224fe,,,,,,,,,4356,-12.640625,52.484375,1,0,0,response7disk,,0,-5.375,9.2578125,1,0,0,rectangle,-5.375,9.2578125,1,0,0,-5.375,9.2578125,1,0,0,0,84,84,9,1,,,,,,,,
,,,,,,,,,,,,,FF,,,,,,,,0.9333,,,,,,,,,,,,,,,,,,,,,,6103654d81de79ade4dba583,610369b661c29bdef29b06c4,2021-07-29_22h54.37.254,Simcolourproject_2stim_asymm_v5,2020.2.10,MacIntel,60,61025ae37ef11b136ea224fe,,,,,,,,,3250,-38.2265625,-26.82421875,1,0,0,response5disk,,2,-24.42578125,-16.5625,1,0,0,rectangle,-24.42578125,-16.5625,1,0,0,-24.42578125,-16.5625,1,0,0,0,85,85,7,1,,,,,,,,
,,,,,,,,,,,,,FF,,,,,,,,1.2173,,,,,,,,,,,,,,,,,,,,,,6103654d81de79ade4dba583,610369b661c29bdef29b06c4,2021-07-29_22h54.37.254,Simcolourproject_2stim_asymm_v5,2020.2.10,MacIntel,60,61025ae37ef11b136ea224fe,,,,,,,,,1289,45.8515625,-33.234375,1,0,0,response3disk,,5,10.171875,-9.99609375,1,0,0,rectangle,10.171875,-9.99609375,1,0,0,10.171875,-9.99609375,1,0,0,0,86,86,80,1,,,,,,,,
,,,,,,,,,,,,,FF,,,,,,,,1.3164,,,,,,,,,,,,,,,,,,,,,,6103654d81de79ade4dba583,610369b661c29bdef29b06c4,2021-07-29_22h54.37.254,Simcolourproject_2stim_asymm_v5,2020.2.10,MacIntel,60,61025ae37ef11b136ea224fe,,,,,,,,,2978,44.98046875,20.6328125,1,0,0,response1disk,,6,-8.53125,-2.35546875,1,0,0,rectangle,-8.53125,-2.35546875,1,0,0,-8.53125,-2.35546875,1,0,0,0,87,87,126,1,,,,,,,,
,,,,,,,,,,,,,FF,,,,,,,,1.2664,,,,,,,,,,,,,,,,,,,,,,6103654d81de79ade4dba583,610369b661c29bdef29b06c4,2021-07-29_22h54.37.254,Simcolourproject_2stim_asymm_v5,2020.2.10,MacIntel,60,61025ae37ef11b136ea224fe,,,,,,,,,1359,52.40625,-28.62109375,1,0,0,response3disk,,5,1.03125,1.68359375,1,0,0,rectangle,25.421875,53.35546875,1,0,0,18.5234375,-7.703125,1,0,0,0,88,88,84,1,,response1disk_3,TRUE,7,7,"[138,168,222,316,239,193,56,174,117,13,207,22,146,96,158,180,136,232,89,212]",1.9334,rectangle
,,,,,,,,,,,,,FF,,,,,,,,1.0179,,,,,,,,,,,,,,,,,,,,,,6103654d81de79ade4dba583,610369b661c29bdef29b06c4,2021-07-29_22h54.37.254,Simcolourproject_2stim_asymm_v5,2020.2.10,MacIntel,60,61025ae37ef11b136ea224fe,,,,,,,,,2532,38.63671875,17.17578125,1,0,0,response1disk,,6,11.83984375,4.0859375,1,0,0,rectangle,11.83984375,4.0859375,1,0,0,11.83984375,4.0859375,1,0,0,0,89,89,124,1,,,,,,,,
,,,,,,,,,,,,,FF,,,,,,,,0.9177,,,,,,,,,,,,,,,,,,,,,,6103654d81de79ade4dba583,610369b661c29bdef29b06c4,2021-07-29_22h54.37.254,Simcolourproject_2stim_asymm_v5,2020.2.10,MacIntel,60,61025ae37ef11b136ea224fe,,,,,,,,,1978,25.65625,-54.57421875,1,0,0,response3disk,,4,6.6953125,-12.859375,1,0,0,rectangle,6.6953125,-12.859375,1,0,0,6.6953125,-12.859375,1,0,0,0,90,90,55,1,,,,,,,,
,,,,,,,,,,,,,FF,,,,,,,,0.8177,,,,,,,,,,,,,,,,,,,,,,6103654d81de79ade4dba583,610369b661c29bdef29b06c4,2021-07-29_22h54.37.254,Simcolourproject_2stim_asymm_v5,2020.2.10,MacIntel,60,61025ae37ef11b136ea224fe,,,,,,,,,3433,-40.7109375,-17.63671875,1,0,0,response5disk,,2,-32.1875,-4.171875,1,0,0,rectangle,-32.1875,-4.171875,1,0,0,-32.1875,-4.171875,1,0,0,0,91,91,118,1,,,,,,,,
,,,,,,,,,,,,,FF,,,,,,,,0.7001,,,,,,,,,,,,,,,,,,,,,,6103654d81de79ade4dba583,610369b661c29bdef29b06c4,2021-07-29_22h54.37.254,Simcolourproject_2stim_asymm_v5,2020.2.10,MacIntel,60,61025ae37ef11b136ea224fe,,,,,,,,,3742,-52.3046875,26.171875,1,0,0,response7disk,,1,-12.5703125,-8.00390625,1,0,0,rectangle,-12.5703125,-8.00390625,1,0,0,-12.5703125,-8.00390625,1,0,0,0,92,92,66,1,,,,,,,,
,,,,,,,,,,,,,FF,,,,,,,,2.2504,,,,,,,,,,,,,,,,,,,,,,6103654d81de79ade4dba583,610369b661c29bdef29b06c4,2021-07-29_22h54.37.254,Simcolourproject_2stim_asymm_v5,2020.2.10,MacIntel,60,61025ae37ef11b136ea224fe,,,,,,,,,1727,26.5078125,34.2734375,1,0,0,response1disk,,7,24.84375,13.2578125,1,0,0,rectangle,24.84375,13.2578125,1,0,0,24.84375,13.2578125,1,0,0,0,93,93,51,1,,,,,,,,
,,,,,,,,,,,,,FF,,,,,,,,1.2835,,,,,,,,,,,,,,,,,,,,,,6103654d81de79ade4dba583,610369b661c29bdef29b06c4,2021-07-29_22h54.37.254,Simcolourproject_2stim_asymm_v5,2020.2.10,MacIntel,60,61025ae37ef11b136ea224fe,,,,,,,,,53,46.6484375,20.984375,1,0,0,response1disk,,6,16.6953125,5.390625,1,0,0,rectangle,16.6953125,5.390625,1,0,0,16.6953125,5.390625,1,0,0,0,94,94,132,1,,,,,,,,
,,,,,,,,,,,,,FF,,,,,,,,1.3353,,,,,,,,,,,,,,,,,,,,,,6103654d81de79ade4dba583,610369b661c29bdef29b06c4,2021-07-29_22h54.37.254,Simcolourproject_2stim_asymm_v5,2020.2.10,MacIntel,60,61025ae37ef11b136ea224fe,,,,,,,,,4262,40.265625,-33.8828125,1,0,0,response3disk,,5,11.60546875,-4.97265625,1,0,0,rectangle,-20.73828125,45.4140625,1,0,0,-17.8046875,5.0390625,1,0,0,0,95,95,151,1,,response7disk_3,TRUE,0,0,"[138,168,222,316,239,193,56,174,117,13,207,22,146,96,158,180,136,232,89,212]",1.7002,rectangle
,,,,,,,,,,,,,FF,,,,,,,,1.0524,,,,,,,,,,,,,,,,,,,,,,6103654d81de79ade4dba583,610369b661c29bdef29b06c4,2021-07-29_22h54.37.254,Simcolourproject_2stim_asymm_v5,2020.2.10,MacIntel,60,61025ae37ef11b136ea224fe,,,,,,,,,2169,-22.28125,-41.98828125,1,0,0,response5disk,,3,-16.65234375,-4.3125,1,0,0,rectangle,-16.65234375,-4.3125,1,0,0,-16.65234375,-4.3125,1,0,0,0,96,96,86,1,,,,,,,,
,,,,,,,,,,,,,FF,,,,,,,,0.9187,,,,,,,,,,,,,,,,,,,,,,6103654d81de79ade4dba583,610369b661c29bdef29b06c4,2021-07-29_22h54.37.254,Simcolourproject_2stim_asymm_v5,2020.2.10,MacIntel,60,61025ae37ef11b136ea224fe,,,,,,,,,1397,49.43359375,20.0546875,1,0,0,response1disk,,6,25.65234375,6.328125,1,0,0,rectangle,25.65234375,6.328125,1,0,0,25.65234375,6.328125,1,0,0,0,97,97,72,1,,,,,,,,
,,,,,,,,,,,,,FF,,,,,,,,0.8669,,,,,,,,,,,,,,,,,,,,,,6103654d81de79ade4dba583,610369b661c29bdef29b06c4,2021-07-29_22h54.37.254,Simcolourproject_2stim_asymm_v5,2020.2.10,MacIntel,60,61025ae37ef11b136ea224fe,,,,,,,,,3660,-43.0703125,8.234375,1,0,0,response7disk,,1,-12.8046875,15.19140625,1,0,0,rectangle,-12.8046875,15.19140625,1,0,0,-12.8046875,15.19140625,1,0,0,0,98,98,0,1,,,,,,,,
,,,,,,,,,,,,,FF,,,,,,,,2.0999,,,,,,,,,,,,,,,,,,,,,,6103654d81de79ade4dba583,610369b661c29bdef29b06c4,2021-07-29_22h54.37.254,Simcolourproject_2stim_asymm_v5,2020.2.10,MacIntel,60,61025ae37ef11b136ea224fe,,,,,,,,,3549,-29.8203125,-50.97265625,1,0,0,response5disk,,3,-9.64453125,-8.6171875,1,0,0,rectangle,-9.64453125,-8.6171875,1,0,0,-9.64453125,-8.6171875,1,0,0,0,99,99,135,1,,,,,,,,
,,,,,,,,,,,,,FF,,,,,,,,0.9354,,,,,,,,,,,,,,,,,,,,,,6103654d81de79ade4dba583,610369b661c29bdef29b06c4,2021-07-29_22h54.37.254,Simcolourproject_2stim_asymm_v5,2020.2.10,MacIntel,60,61025ae37ef11b136ea224fe,,,,,,,,,3979,-27.82421875,-51.6171875,1,0,0,response5disk,,3,-27.55078125,-8.703125,1,0,0,rectangle,-27.55078125,-8.703125,1,0,0,-27.55078125,-8.703125,1,0,0,0,100,100,36,1,,,,,,,,
,,,,,,,,,,,,,FF,,,,,,,,0.9349,,,,,,,,,,,,,,,,,,,,,,6103654d81de79ade4dba583,610369b661c29bdef29b06c4,2021-07-29_22h54.37.254,Simcolourproject_2stim_asymm_v5,2020.2.10,MacIntel,60,61025ae37ef11b136ea224fe,,,,,,,,,2583,25.70703125,43.67578125,1,0,0,response1disk,,7,22.93359375,15.1328125,1,0,0,rectangle,22.93359375,15.1328125,1,0,0,22.93359375,15.1328125,1,0,0,0,101,101,39,1,,,,,,,,
,,,,,,,,,,,,,FF,,,,,,,,0.9647,,,,,,,,,,,,,,,,,,,,,,6103654d81de79ade4dba583,610369b661c29bdef29b06c4,2021-07-29_22h54.37.254,Simcolourproject_2stim_asymm_v5,2020.2.10,MacIntel,60,61025ae37ef11b136ea224fe,,,,,,,,,3924,16.82421875,-47.40234375,1,0,0,response3disk,,4,1.5546875,-9.41015625,1,0,0,rectangle,1.5546875,-9.41015625,1,0,0,1.5546875,-9.41015625,1,0,0,0,102,102,59,1,,,,,,,,
,,,,,,,,,,,,,FF,,,,,,,,1.9976,,,,,,,,,,,,,,,,,,,,,,6103654d81de79ade4dba583,610369b661c29bdef29b06c4,2021-07-29_22h54.37.254,Simcolourproject_2stim_asymm_v5,2020.2.10,MacIntel,60,61025ae37ef11b136ea224fe,,,,,,,,,3809,39.671875,-28.859375,1,0,0,response3disk,,5,-4.8984375,-6.2109375,1,0,0,rectangle,-4.8984375,-6.2109375,1,0,0,-4.8984375,-6.2109375,1,0,0,0,103,103,20,1,,,,,,,,
,,,,,,,,,,,,,FF,,,,,,,,2.2331,,,,,,,,,,,,,,,,,,,,,,6103654d81de79ade4dba583,610369b661c29bdef29b06c4,2021-07-29_22h54.37.254,Simcolourproject_2stim_asymm_v5,2020.2.10,MacIntel,60,61025ae37ef11b136ea224fe,,,,,,,,,4159,46.359375,30.00390625,1,0,0,response1disk,,6,17.23828125,-3.7109375,1,0,0,rectangle,17.23828125,-3.7109375,1,0,0,17.23828125,-3.7109375,1,0,0,0,104,104,115,1,,,,,,,,
,,,,,,,,,,,,,FF,,,,,,,,0.982,,,,,,,,,,,,,,,,,,,,,,6103654d81de79ade4dba583,610369b661c29bdef29b06c4,2021-07-29_22h54.37.254,Simcolourproject_2stim_asymm_v5,2020.2.10,MacIntel,60,61025ae37ef11b136ea224fe,,,,,,,,,706,21.67578125,-57.6171875,1,0,0,response3disk,,4,1.296875,-0.87890625,1,0,0,rectangle,1.296875,-0.87890625,1,0,0,1.296875,-0.87890625,1,0,0,0,105,105,6,1,,,,,,,,
,,,,,,,,,,,,,FF,,,,,,,,1.448,,,,,,,,,,,,,,,,,,,,,,6103654d81de79ade4dba583,610369b661c29bdef29b06c4,2021-07-29_22h54.37.254,Simcolourproject_2stim_asymm_v5,2020.2.10,MacIntel,60,61025ae37ef11b136ea224fe,,,,,,,,,2611,25.2421875,-49.16015625,1,0,0,response3disk,,4,9.6640625,6.375,1,0,0,rectangle,9.6640625,6.375,1,0,0,9.6640625,6.375,1,0,0,0,106,106,140,1,,,,,,,,
,,,,,,,,,,,,,FF,,,,,,,,1.3981,,,,,,,,,,,,,,,,,,,,,,6103654d81de79ade4dba583,610369b661c29bdef29b06c4,2021-07-29_22h54.37.254,Simcolourproject_2stim_asymm_v5,2020.2.10,MacIntel,60,61025ae37ef11b136ea224fe,,,,,,,,,1789,28.37890625,35.55078125,1,0,0,response1disk,,7,23.8125,3.6015625,1,0,0,rectangle,23.8125,3.6015625,1,0,0,23.8125,3.6015625,1,0,0,0,107,107,158,1,,,,,,,,
,,,,,,,,,,,,,FF,,,,,,,,1.232,,,,,,,,,,,,,,,,,,,,,,6103654d81de79ade4dba583,610369b661c29bdef29b06c4,2021-07-29_22h54.37.254,Simcolourproject_2stim_asymm_v5,2020.2.10,MacIntel,60,61025ae37ef11b136ea224fe,,,,,,,,,2806,39.45703125,31.796875,1,0,0,response1disk,,6,7.19140625,0.71875,1,0,0,rectangle,7.19140625,0.71875,1,0,0,7.19140625,0.71875,1,0,0,0,108,108,159,1,,,,,,,,
,,,,,,,,,,,,,FF,,,,,,,,1.7553,,,,,,,,,,,,,,,,,,,,,,6103654d81de79ade4dba583,610369b661c29bdef29b06c4,2021-07-29_22h54.37.254,Simcolourproject_2stim_asymm_v5,2020.2.10,MacIntel,60,61025ae37ef11b136ea224fe,,,,,,,,,2154,41.18359375,-24.34375,1,0,0,response3disk,,5,-1.88671875,10.17578125,1,0,0,rectangle,-1.88671875,10.17578125,1,0,0,-1.88671875,10.17578125,1,0,0,0,109,109,48,1,,,,,,,,
,,,,,,,,,,,,,FF,,,,,,,,1.0155,,,,,,,,,,,,,,,,,,,,,,6103654d81de79ade4dba583,610369b661c29bdef29b06c4,2021-07-29_22h54.37.254,Simcolourproject_2stim_asymm_v5,2020.2.10,MacIntel,60,61025ae37ef11b136ea224fe,,,,,,,,,482,22.73828125,33.046875,1,0,0,response1disk,,7,22.73828125,-2.3984375,1,0,0,rectangle,22.73828125,-2.3984375,1,0,0,22.73828125,-2.3984375,1,0,0,0,110,110,119,1,,,,,,,,
,,,,,,,,,,,,,FF,,,,,,,,0.7354,,,,,,,,,,,,,,,,,,,,,,6103654d81de79ade4dba583,610369b661c29bdef29b06c4,2021-07-29_22h54.37.254,Simcolourproject_2stim_asymm_v5,2020.2.10,MacIntel,60,61025ae37ef11b136ea224fe,,,,,,,,,557,52.19140625,21.7109375,1,0,0,response1disk,,6,19.44140625,6.33203125,1,0,0,rectangle,19.44140625,6.33203125,1,0,0,19.44140625,6.33203125,1,0,0,0,111,111,76,1,,,,,,,,
,,,,,,,,,,,,,FF,,,,,,,,1.6654,,,,,,,,,,,,,,,,,,,,,,6103654d81de79ade4dba583,610369b661c29bdef29b06c4,2021-07-29_22h54.37.254,Simcolourproject_2stim_asymm_v5,2020.2.10,MacIntel,60,61025ae37ef11b136ea224fe,,,,,,,,,4187,22.9765625,-48.171875,1,0,0,response3disk,,4,10.5625,-10.23046875,1,0,0,rectangle,10.5625,-10.23046875,1,0,0,10.5625,-10.23046875,1,0,0,0,112,112,87,1,,,,,,,,
,,,,,,,,,,,,,FF,,,,,,,,1.0168,,,,,,,,,,,,,,,,,,,,,,6103654d81de79ade4dba583,610369b661c29bdef29b06c4,2021-07-29_22h54.37.254,Simcolourproject_2stim_asymm_v5,2020.2.10,MacIntel,60,61025ae37ef11b136ea224fe,,,,,,,,,271,42.5390625,15.8203125,1,0,0,response1disk,,6,4.359375,1.91796875,1,0,0,rectangle,4.359375,1.91796875,1,0,0,4.359375,1.91796875,1,0,0,0,113,113,12,1,,,,,,,,
,,,,,,,,,,,,,FF,,,,,,,,0.7495,,,,,,,,,,,,,,,,,,,,,,6103654d81de79ade4dba583,610369b661c29bdef29b06c4,2021-07-29_22h54.37.254,Simcolourproject_2stim_asymm_v5,2020.2.10,MacIntel,60,61025ae37ef11b136ea224fe,,,,,,,,,477,21.59765625,50.8828125,1,0,0,response1disk,,7,15.0390625,-1.80078125,1,0,0,rectangle,15.0390625,-1.80078125,1,0,0,15.0390625,-1.80078125,1,0,0,0,114,114,154,1,,,,,,,,
,,,,,,,,,,,,,FF,,,,,,,,1.2334,,,,,,,,,,,,,,,,,,,,,,6103654d81de79ade4dba583,610369b661c29bdef29b06c4,2021-07-29_22h54.37.254,Simcolourproject_2stim_asymm_v5,2020.2.10,MacIntel,60,61025ae37ef11b136ea224fe,,,,,,,,,527,10.79296875,-47.7734375,1,0,0,response3disk,,4,-9.07421875,-4.375,1,0,0,rectangle,-9.07421875,-4.375,1,0,0,-9.07421875,-4.375,1,0,0,0,115,115,128,1,,,,,,,,
,,,,,,,,,,,,,FF,,,,,,,,0.6322,,,,,,,,,,,,,,,,,,,,,,6103654d81de79ade4dba583,610369b661c29bdef29b06c4,2021-07-29_22h54.37.254,Simcolourproject_2stim_asymm_v5,2020.2.10,MacIntel,60,61025ae37ef11b136ea224fe,,,,,,,,,2418,-47.94921875,44.75390625,1,0,0,response7disk,,1,-17.375,1.421875,1,0,0,rectangle,51.484375,17.921875,1,0,0,3.03125,-2.796875,1,0,0,0,116,116,134,1,,response1disk_3,TRUE,6,6,"[138,168,222,316,239,193,56,174,117,13,207,22,146,96,158,180,136,232,89,212]",1.996,rectangle
,,,,,,,,,,,,,FF,,,,,,,,1.6168,,,,,,,,,,,,,,,,,,,,,,6103654d81de79ade4dba583,610369b661c29bdef29b06c4,2021-07-29_22h54.37.254,Simcolourproject_2stim_asymm_v5,2020.2.10,MacIntel,60,61025ae37ef11b136ea224fe,,,,,,,,,2057,48.14453125,24.56640625,1,0,0,response1disk,,6,11.35546875,-5.94921875,1,0,0,rectangle,11.35546875,-5.94921875,1,0,0,11.35546875,-5.94921875,1,0,0,0,117,117,106,1,,,,,,,,
,,,,,,,,,,,,,FF,,,,,,,,1.8842,,,,,,,,,,,,,,,,,,,,,,6103654d81de79ade4dba583,610369b661c29bdef29b06c4,2021-07-29_22h54.37.254,Simcolourproject_2stim_asymm_v5,2020.2.10,MacIntel,60,61025ae37ef11b136ea224fe,,,,,,,,,2525,52.734375,-32.64453125,1,0,0,response3disk,,5,2.640625,5.953125,1,0,0,rectangle,2.640625,5.953125,1,0,0,2.640625,5.953125,1,0,0,0,118,118,3,1,,,,,,,,
,,,,,,,,,,,,,FF,,,,,,,,0.8002,,,,,,,,,,,,,,,,,,,,,,6103654d81de79ade4dba583,610369b661c29bdef29b06c4,2021-07-29_22h54.37.254,Simcolourproject_2stim_asymm_v5,2020.2.10,MacIntel,60,61025ae37ef11b136ea224fe,,,,,,,,,1934,16.4921875,40.75,1,0,0,response1disk,,7,0.57421875,-1.73828125,1,0,0,rectangle,0.57421875,-1.73828125,1,0,0,0.57421875,-1.73828125,1,0,0,0,119,119,77,1,,,,,,,,
,,,,,,,,,,,,,FF,,,,,,,,0.583,,,,,,,,,,,,,,,,,,,,,,6103654d81de79ade4dba583,610369b661c29bdef29b06c4,2021-07-29_22h54.37.254,Simcolourproject_2stim_asymm_v5,2020.2.10,MacIntel,60,61025ae37ef11b136ea224fe,,,,,,,,,2451,23.91015625,35.85546875,1,0,0,response1disk,,7,21.39453125,-0.51171875,1,0,0,rectangle,21.39453125,-0.51171875,1,0,0,21.39453125,-0.51171875,1,0,0,0,120,120,82,1,,,,,,,,
,,,,,,,,,,,,,FF,,,,,,,,1.6476,,,,,,,,,,,,,,,,,,,,,,6103654d81de79ade4dba583,610369b661c29bdef29b06c4,2021-07-29_22h54.37.254,Simcolourproject_2stim_asymm_v5,2020.2.10,MacIntel,60,61025ae37ef11b136ea224fe,,,,,,,,,1177,52.76953125,15.9296875,1,0,0,response1disk,,6,11.30078125,-9.77734375,1,0,0,rectangle,11.30078125,-9.77734375,1,0,0,11.30078125,-9.77734375,1,0,0,0,121,121,21,1,,,,,,,,
,,,,,,,,,,,,,FF,,,,,,,,0.8679,,,,,,,,,,,,,,,,,,,,,,6103654d81de79ade4dba583,610369b661c29bdef29b06c4,2021-07-29_22h54.37.254,Simcolourproject_2stim_asymm_v5,2020.2.10,MacIntel,60,61025ae37ef11b136ea224fe,,,,,,,,,3452,51.72265625,-37.1953125,1,0,0,response3disk,,5,3.76953125,-0.67578125,1,0,0,rectangle,3.76953125,-0.67578125,1,0,0,3.76953125,-0.67578125,1,0,0,0,122,122,145,1,,,,,,,,
,,,,,,,,,,,,,FF,,,,,,,,2.0512,,,,,,,,,,,,,,,,,,,,,,6103654d81de79ade4dba583,610369b661c29bdef29b06c4,2021-07-29_22h54.37.254,Simcolourproject_2stim_asymm_v5,2020.2.10,MacIntel,60,61025ae37ef11b136ea224fe,,,,,,,,,321,55.20703125,-28.55859375,1,0,0,response3disk,,5,14.09375,-13.7578125,1,0,0,rectangle,14.09375,-13.7578125,1,0,0,14.09375,-13.7578125,1,0,0,0,123,123,123,1,,,,,,,,
,,,,,,,,,,,,,FF,,,,,,,,1.4841,,,,,,,,,,,,,,,,,,,,,,6103654d81de79ade4dba583,610369b661c29bdef29b06c4,2021-07-29_22h54.37.254,Simcolourproject_2stim_asymm_v5,2020.2.10,MacIntel,60,61025ae37ef11b136ea224fe,,,,,,,,,3751,24.046875,-48.91015625,1,0,0,response3disk,,4,7.62890625,-14.2265625,1,0,0,rectangle,7.62890625,-14.2265625,1,0,0,7.62890625,-14.2265625,1,0,0,0,124,124,104,1,,,,,,,,
,,,,,,,,,,,,,FF,,,,,,,,0.7833,,,,,,,,,,,,,,,,,,,,,,6103654d81de79ade4dba583,610369b661c29bdef29b06c4,2021-07-29_22h54.37.254,Simcolourproject_2stim_asymm_v5,2020.2.10,MacIntel,60,61025ae37ef11b136ea224fe,,,,,,,,,856,52.2578125,27.4296875,1,0,0,response1disk,,6,-7.109375,-15.07421875,1,0,0,rectangle,-7.109375,-15.07421875,1,0,0,-7.109375,-15.07421875,1,0,0,0,125,125,125,1,,,,,,,,
,,,,,,,,,,,,,FF,,,,,,,,1.6479,,,,,,,,,,,,,,,,,,,,,,6103654d81de79ade4dba583,610369b661c29bdef29b06c4,2021-07-29_22h54.37.254,Simcolourproject_2stim_asymm_v5,2020.2.10,MacIntel,60,61025ae37ef11b136ea224fe,,,,,,,,,1749,-37.375,-57.125,1,0,0,response5disk,,3,-19.7421875,7.4296875,1,0,0,rectangle,-19.7421875,7.4296875,1,0,0,-19.7421875,7.4296875,1,0,0,0,126,126,49,1,,,,,,,,
,,,,,,,,,,,,,FF,,,,,,,,0.7973,,,,,,,,,,,,,,,,,,,,,,6103654d81de79ade4dba583,610369b661c29bdef29b06c4,2021-07-29_22h54.37.254,Simcolourproject_2stim_asymm_v5,2020.2.10,MacIntel,60,61025ae37ef11b136ea224fe,,,,,,,,,4017,34.27734375,30.625,1,0,0,response1disk,,6,20.21875,-2.12109375,1,0,0,rectangle,20.21875,-2.12109375,1,0,0,20.21875,-2.12109375,1,0,0,0,127,127,109,1,,,,,,,,
,,,,,,,,,,,,,FF,,,,,,,,0.9189,,,,,,,,,,,,,,,,,,,,,,6103654d81de79ade4dba583,610369b661c29bdef29b06c4,2021-07-29_22h54.37.254,Simcolourproject_2stim_asymm_v5,2020.2.10,MacIntel,60,61025ae37ef11b136ea224fe,,,,,,,,,2420,-46.4140625,26.15625,1,0,0,response7disk,,1,-28.65625,5.5078125,1,0,0,rectangle,-28.65625,5.5078125,1,0,0,-28.65625,5.5078125,1,0,0,0,128,128,137,1,,,,,,,,
,,,,,,,,,,,,,FF,,,,,,,,0.7001,,,,,,,,,,,,,,,,,,,,,,6103654d81de79ade4dba583,610369b661c29bdef29b06c4,2021-07-29_22h54.37.254,Simcolourproject_2stim_asymm_v5,2020.2.10,MacIntel,60,61025ae37ef11b136ea224fe,,,,,,,,,209,35.32421875,53.7890625,1,0,0,response1disk,,7,16.70703125,8.671875,1,0,0,rectangle,16.70703125,8.671875,1,0,0,16.70703125,8.671875,1,0,0,0,129,129,37,1,,,,,,,,
,,,,,,,,,,,,,FF,,,,,,,,3.8844,,,,,,,,,,,,,,,,,,,,,,6103654d81de79ade4dba583,610369b661c29bdef29b06c4,2021-07-29_22h54.37.254,Simcolourproject_2stim_asymm_v5,2020.2.10,MacIntel,60,61025ae37ef11b136ea224fe,,,,,,,,,245,47.29296875,-19.23046875,1,0,0,response3disk,,5,4.8359375,7.16015625,1,0,0,rectangle,4.8359375,7.16015625,1,0,0,4.8359375,7.16015625,1,0,0,0,130,130,45,1,,,,,,,,
,,,,,,,,,,,,,FF,,,,,,,,1.6814,,,,,,,,,,,,,,,,,,,,,,6103654d81de79ade4dba583,610369b661c29bdef29b06c4,2021-07-29_22h54.37.254,Simcolourproject_2stim_asymm_v5,2020.2.10,MacIntel,60,61025ae37ef11b136ea224fe,,,,,,,,,4000,21.59375,-59.125,1,0,0,response3disk,,4,9.48046875,-15.91796875,1,0,0,rectangle,9.48046875,-15.91796875,1,0,0,9.48046875,-15.91796875,1,0,0,0,131,131,112,1,,,,,,,,
,,,,,,,,,,,,,FF,,,,,,,,1.0316,,,,,,,,,,,,,,,,,,,,,,6103654d81de79ade4dba583,610369b661c29bdef29b06c4,2021-07-29_22h54.37.254,Simcolourproject_2stim_asymm_v5,2020.2.10,MacIntel,60,61025ae37ef11b136ea224fe,,,,,,,,,1497,32.375,23.75390625,1,0,0,response1disk,,6,13.8984375,0.2734375,1,0,0,rectangle,13.8984375,0.2734375,1,0,0,13.8984375,0.2734375,1,0,0,0,132,132,75,1,,,,,,,,
,,,,,,,,,,,,,FF,,,,,,,,0.9643,,,,,,,,,,,,,,,,,,,,,,6103654d81de79ade4dba583,610369b661c29bdef29b06c4,2021-07-29_22h54.37.254,Simcolourproject_2stim_asymm_v5,2020.2.10,MacIntel,60,61025ae37ef11b136ea224fe,,,,,,,,,785,-24.08984375,-48.5234375,1,0,0,response5disk,,3,-6.5546875,-17.6328125,1,0,0,rectangle,-6.5546875,-17.6328125,1,0,0,-6.5546875,-17.6328125,1,0,0,0,133,133,22,1,,,,,,,,
,,,,,,,,,,,,,FF,,,,,,,,0.8318,,,,,,,,,,,,,,,,,,,,,,6103654d81de79ade4dba583,610369b661c29bdef29b06c4,2021-07-29_22h54.37.254,Simcolourproject_2stim_asymm_v5,2020.2.10,MacIntel,60,61025ae37ef11b136ea224fe,,,,,,,,,2697,27.82421875,42.2734375,1,0,0,response1disk,,7,23.53515625,-8.734375,1,0,0,rectangle,23.53515625,-8.734375,1,0,0,23.53515625,-8.734375,1,0,0,0,134,134,26,1,,,,,,,,
,,,,,,,,,,,,,FF,,,,,,,,1.4668,,,,,,,,,,,,,,,,,,,,,,6103654d81de79ade4dba583,610369b661c29bdef29b06c4,2021-07-29_22h54.37.254,Simcolourproject_2stim_asymm_v5,2020.2.10,MacIntel,60,61025ae37ef11b136ea224fe,,,,,,,,,69,45.87890625,-27.6875,1,0,0,response3disk,,5,8.1640625,-2.578125,1,0,0,rectangle,-20.3828125,40.88671875,1,0,0,-17.171875,4.7734375,1,0,0,0,135,135,11,1,,response7disk_3,TRUE,0,0,"[138,168,222,316,239,193,56,174,117,13,207,22,146,96,158,180,136,232,89,212]",1.4829,rectangle
,,,,,,,,,,,,,FF,,,,,,,,1.2004,,,,,,,,,,,,,,,,,,,,,,6103654d81de79ade4dba583,610369b661c29bdef29b06c4,2021-07-29_22h54.37.254,Simcolourproject_2stim_asymm_v5,2020.2.10,MacIntel,60,61025ae37ef11b136ea224fe,,,,,,,,,3134,47.00390625,18.5859375,1,0,0,response1disk,,6,7.265625,-1.9140625,1,0,0,rectangle,7.265625,-1.9140625,1,0,0,7.265625,-1.9140625,1,0,0,0,136,136,139,1,,,,,,,,
,,,,,,,,,,,,,FF,,,,,,,,1.3674,,,,,,,,,,,,,,,,,,,,,,6103654d81de79ade4dba583,610369b661c29bdef29b06c4,2021-07-29_22h54.37.254,Simcolourproject_2stim_asymm_v5,2020.2.10,MacIntel,60,61025ae37ef11b136ea224fe,,,,,,,,,3306,50.44140625,-36.11328125,1,0,0,response3disk,,5,16.24609375,-7.71484375,1,0,0,rectangle,18.08984375,40.35546875,1,0,0,9.44921875,-10.49609375,1,0,0,0,137,137,40,1,,response1disk_3,TRUE,7,7,"[138,168,222,316,239,193,56,174,117,13,207,22,146,96,158,180,136,232,89,212]",1.9837,rectangle
,,,,,,,,,,,,,FF,,,,,,,,1.3503,,,,,,,,,,,,,,,,,,,,,,6103654d81de79ade4dba583,610369b661c29bdef29b06c4,2021-07-29_22h54.37.254,Simcolourproject_2stim_asymm_v5,2020.2.10,MacIntel,60,61025ae37ef11b136ea224fe,,,,,,,,,2625,27.2109375,-47.24609375,1,0,0,response3disk,,4,2.77734375,13.04296875,1,0,0,rectangle,2.77734375,13.04296875,1,0,0,2.77734375,13.04296875,1,0,0,0,138,138,148,1,,,,,,,,
,,,,,,,,,,,,,FF,,,,,,,,1.5833,,,,,,,,,,,,,,,,,,,,,,6103654d81de79ade4dba583,610369b661c29bdef29b06c4,2021-07-29_22h54.37.254,Simcolourproject_2stim_asymm_v5,2020.2.10,MacIntel,60,61025ae37ef11b136ea224fe,,,,,,,,,1078,50.47265625,-26.8515625,1,0,0,response3disk,,5,25.00390625,-6.0859375,1,0,0,rectangle,25.00390625,-6.0859375,1,0,0,25.00390625,-6.0859375,1,0,0,0,139,139,25,1,,,,,,,,
,,,,,,,,,,,,,FF,,,,,,,,0.8839,,,,,,,,,,,,,,,,,,,,,,6103654d81de79ade4dba583,610369b661c29bdef29b06c4,2021-07-29_22h54.37.254,Simcolourproject_2stim_asymm_v5,2020.2.10,MacIntel,60,61025ae37ef11b136ea224fe,,,,,,,,,207,52.5625,24.953125,1,0,0,response1disk,,6,-20.54296875,-3.7890625,1,0,0,rectangle,-20.54296875,-3.7890625,1,0,0,-20.54296875,-3.7890625,1,0,0,0,140,140,127,1,,,,,,,,
,,,,,,,,,,,,,FF,,,,,,,,1.0185,,,,,,,,,,,,,,,,,,,,,,6103654d81de79ade4dba583,610369b661c29bdef29b06c4,2021-07-29_22h54.37.254,Simcolourproject_2stim_asymm_v5,2020.2.10,MacIntel,60,61025ae37ef11b136ea224fe,,,,,,,,,3385,-40.29296875,-30.421875,1,0,0,response5disk,,2,-14.0078125,-7.8125,1,0,0,rectangle,-14.0078125,-7.8125,1,0,0,-14.0078125,-7.8125,1,0,0,0,141,141,78,1,,,,,,,,
,,,,,,,,,,,,,FF,,,,,,,,0.8984,,,,,,,,,,,,,,,,,,,,,,6103654d81de79ade4dba583,610369b661c29bdef29b06c4,2021-07-29_22h54.37.254,Simcolourproject_2stim_asymm_v5,2020.2.10,MacIntel,60,61025ae37ef11b136ea224fe,,,,,,,,,1948,22.44921875,-42.98046875,1,0,0,response3disk,,4,10.109375,0.45703125,1,0,0,rectangle,10.109375,0.45703125,1,0,0,10.109375,0.45703125,1,0,0,0,142,142,64,1,,,,,,,,
,,,,,,,,,,,,,FF,,,,,,,,0.7837,,,,,,,,,,,,,,,,,,,,,,6103654d81de79ade4dba583,610369b661c29bdef29b06c4,2021-07-29_22h54.37.254,Simcolourproject_2stim_asymm_v5,2020.2.10,MacIntel,60,61025ae37ef11b136ea224fe,,,,,,,,,1097,38.73828125,46.74609375,1,0,0,response1disk,,7,29.89453125,7.98046875,1,0,0,rectangle,29.89453125,7.98046875,1,0,0,29.89453125,7.98046875,1,0,0,0,143,143,62,1,,,,,,,,
,,,,,,,,,,,,,FF,,,,,,,,1.4668,,,,,,,,,,,,,,,,,,,,,,6103654d81de79ade4dba583,610369b661c29bdef29b06c4,2021-07-29_22h54.37.254,Simcolourproject_2stim_asymm_v5,2020.2.10,MacIntel,60,61025ae37ef11b136ea224fe,,,,,,,,,1854,50.75,-30.78515625,1,0,0,response3disk,,5,30.33984375,2.15234375,1,0,0,rectangle,30.33984375,2.15234375,1,0,0,30.33984375,2.15234375,1,0,0,0,144,144,23,1,,,,,,,,
,,,,,,,,,,,,,FF,,,,,,,,1.1503,,,,,,,,,,,,,,,,,,,,,,6103654d81de79ade4dba583,610369b661c29bdef29b06c4,2021-07-29_22h54.37.254,Simcolourproject_2stim_asymm_v5,2020.2.10,MacIntel,60,61025ae37ef11b136ea224fe,,,,,,,,,1889,-26.375,-41.80078125,1,0,0,response5disk,,3,-26.1015625,-11.01953125,1,0,0,rectangle,-21.6171875,-46.63671875,1,0,0,-6.34375,-8.375,1,0,0,0,145,145,129,1,,response5disk_3,TRUE,3,3,"[138,168,222,316,239,193,56,174,117,13,207,22,146,96,158,180,136,232,89,212]",1.4528,rectangle
,,,,,,,,,,,,,FF,,,,,,,,1.1505,,,,,,,,,,,,,,,,,,,,,,6103654d81de79ade4dba583,610369b661c29bdef29b06c4,2021-07-29_22h54.37.254,Simcolourproject_2stim_asymm_v5,2020.2.10,MacIntel,60,61025ae37ef11b136ea224fe,,,,,,,,,1358,51.53125,14.921875,1,0,0,response1disk,,6,2.23046875,13.10546875,1,0,0,rectangle,2.23046875,13.10546875,1,0,0,2.23046875,13.10546875,1,0,0,0,146,146,65,1,,,,,,,,
,,,,,,,,,,,,,FF,,,,,,,,1.1849,,,,,,,,,,,,,,,,,,,,,,6103654d81de79ade4dba583,610369b661c29bdef29b06c4,2021-07-29_22h54.37.254,Simcolourproject_2stim_asymm_v5,2020.2.10,MacIntel,60,61025ae37ef11b136ea224fe,,,,,,,,,2629,29.49609375,-56.91796875,1,0,0,response3disk,,4,17.14453125,-7.46484375,1,0,0,rectangle,17.14453125,-7.46484375,1,0,0,17.14453125,-7.46484375,1,0,0,0,147,147,10,1,,,,,,,,
,,,,,,,,,,,,,FF,,,,,,,,0.9338,,,,,,,,,,,,,,,,,,,,,,6103654d81de79ade4dba583,610369b661c29bdef29b06c4,2021-07-29_22h54.37.254,Simcolourproject_2stim_asymm_v5,2020.2.10,MacIntel,60,61025ae37ef11b136ea224fe,,,,,,,,,2222,47.28125,-26.390625,1,0,0,response3disk,,5,-10.44140625,-2.00390625,1,0,0,rectangle,-10.44140625,-2.00390625,1,0,0,-10.44140625,-2.00390625,1,0,0,0,148,148,110,1,,,,,,,,
,,,,,,,,,,,,,FF,,,,,,,,0.7354,,,,,,,,,,,,,,,,,,,,,,6103654d81de79ade4dba583,610369b661c29bdef29b06c4,2021-07-29_22h54.37.254,Simcolourproject_2stim_asymm_v5,2020.2.10,MacIntel,60,61025ae37ef11b136ea224fe,,,,,,,,,1743,-25.12109375,42.87109375,1,0,0,response7disk,,0,-10.91015625,-3.046875,1,0,0,rectangle,-10.91015625,-3.046875,1,0,0,-10.91015625,-3.046875,1,0,0,0,149,149,113,1,,,,,,,,
,,,,,,,,,,,,,FF,,,,,,,,1.2982,,,,,,,,,,,,,,,,,,,,,,6103654d81de79ade4dba583,610369b661c29bdef29b06c4,2021-07-29_22h54.37.254,Simcolourproject_2stim_asymm_v5,2020.2.10,MacIntel,60,61025ae37ef11b136ea224fe,,,,,,,,,1148,35.81640625,-46.421875,1,0,0,response3disk,,4,21.5234375,-5.22265625,1,0,0,rectangle,21.5234375,-5.22265625,1,0,0,21.5234375,-5.22265625,1,0,0,0,150,150,100,1,,,,,,,,
,,,,,,,,,,,,,FF,,,,,,,,0.8503,,,,,,,,,,,,,,,,,,,,,,6103654d81de79ade4dba583,610369b661c29bdef29b06c4,2021-07-29_22h54.37.254,Simcolourproject_2stim_asymm_v5,2020.2.10,MacIntel,60,61025ae37ef11b136ea224fe,,,,,,,,,3677,-16.28125,-43.9296875,1,0,0,response5disk,,3,-6.91796875,-8.48828125,1,0,0,rectangle,-6.91796875,-8.48828125,1,0,0,-6.91796875,-8.48828125,1,0,0,0,151,151,44,1,,,,,,,,
,,,,,,,,,,,,,FF,,,,,,,,1.0838,,,,,,,,,,,,,,,,,,,,,,6103654d81de79ade4dba583,610369b661c29bdef29b06c4,2021-07-29_22h54.37.254,Simcolourproject_2stim_asymm_v5,2020.2.10,MacIntel,60,61025ae37ef11b136ea224fe,,,,,,,,,723,-42.06640625,-22.05859375,1,0,0,response5disk,,2,-12.1484375,-15.68359375,1,0,0,rectangle,-12.1484375,-15.68359375,1,0,0,-12.1484375,-15.68359375,1,0,0,0,152,152,57,1,,,,,,,,
,,,,,,,,,,,,,FF,,,,,,,,0.6991,,,,,,,,,,,,,,,,,,,,,,6103654d81de79ade4dba583,610369b661c29bdef29b06c4,2021-07-29_22h54.37.254,Simcolourproject_2stim_asymm_v5,2020.2.10,MacIntel,60,61025ae37ef11b136ea224fe,,,,,,,,,3003,56.06640625,-24.7421875,1,0,0,response3disk,,5,15.19140625,-13.3515625,1,0,0,rectangle,15.19140625,-13.3515625,1,0,0,15.19140625,-13.3515625,1,0,0,0,153,153,34,1,,,,,,,,
,,,,,,,,,,,,,FF,,,,,,,,1.3509,,,,,,,,,,,,,,,,,,,,,,6103654d81de79ade4dba583,610369b661c29bdef29b06c4,2021-07-29_22h54.37.254,Simcolourproject_2stim_asymm_v5,2020.2.10,MacIntel,60,61025ae37ef11b136ea224fe,,,,,,,,,2227,-42.8046875,-25.58203125,1,0,0,response5disk,,2,-30.359375,-0.8125,1,0,0,rectangle,-30.359375,-0.8125,1,0,0,-30.359375,-0.8125,1,0,0,0,154,154,89,1,,,,,,,,
,,,,,,,,,,,,,FF,,,,,,,,1.5665,,,,,,,,,,,,,,,,,,,,,,6103654d81de79ade4dba583,610369b661c29bdef29b06c4,2021-07-29_22h54.37.254,Simcolourproject_2stim_asymm_v5,2020.2.10,MacIntel,60,61025ae37ef11b136ea224fe,,,,,,,,,2770,17.72265625,-49.55078125,1,0,0,response3disk,,4,-4.1875,-11.17578125,1,0,0,rectangle,-4.1875,-11.17578125,1,0,0,-4.1875,-11.17578125,1,0,0,0,155,155,74,1,,,,,,,,
,,,,,,,,,,,,,FF,,,,,,,,0.6477,,,,,,,,,,,,,,,,,,,,,,6103654d81de79ade4dba583,610369b661c29bdef29b06c4,2021-07-29_22h54.37.254,Simcolourproject_2stim_asymm_v5,2020.2.10,MacIntel,60,61025ae37ef11b136ea224fe,,,,,,,,,3478,-26.46875,-49.9140625,1,0,0,response5disk,,3,-26.46875,15.47265625,1,0,0,rectangle,-26.46875,15.47265625,1,0,0,-26.46875,15.47265625,1,0,0,0,156,156,41,1,,,,,,,,
,,,,,,,,,,,,,FF,,,,,,,,0.9831,,,,,,,,,,,,,,,,,,,,,,6103654d81de79ade4dba583,610369b661c29bdef29b06c4,2021-07-29_22h54.37.254,Simcolourproject_2stim_asymm_v5,2020.2.10,MacIntel,60,61025ae37ef11b136ea224fe,,,,,,,,,1139,38.828125,14.73046875,1,0,0,response1disk,,6,12.32421875,0.26953125,1,0,0,rectangle,-21.76171875,58.38671875,1,0,0,-17.2578125,5.453125,1,0,0,0,157,157,79,1,,response7disk_3,TRUE,0,0,"[138,168,222,316,239,193,56,174,117,13,207,22,146,96,158,180,136,232,89,212]",1.2805,rectangle
,,,,,,,,,,,,,FF,,,,,,,,0.8349,,,,,,,,,,,,,,,,,,,,,,6103654d81de79ade4dba583,610369b661c29bdef29b06c4,2021-07-29_22h54.37.254,Simcolourproject_2stim_asymm_v5,2020.2.10,MacIntel,60,61025ae37ef11b136ea224fe,,,,,,,,,3945,48.95703125,-44.12890625,1,0,0,response3disk,,5,-4.1640625,-2.59375,1,0,0,rectangle,-4.1640625,-2.59375,1,0,0,-4.1640625,-2.59375,1,0,0,0,158,158,19,1,,,,,,,,
,,,,,,,,,,,,,FF,,,,,,,,0.865,,,,,,,,,,,,,,,,,,,,,,6103654d81de79ade4dba583,610369b661c29bdef29b06c4,2021-07-29_22h54.37.254,Simcolourproject_2stim_asymm_v5,2020.2.10,MacIntel,60,61025ae37ef11b136ea224fe,,,,,,,,,2293,-13.5703125,-58.46875,1,0,0,response5disk,,3,-13.0234375,-8.2421875,1,0,0,rectangle,-13.0234375,-8.2421875,1,0,0,-13.0234375,-8.2421875,1,0,0,0,159,159,58,1,,,,,,,,
,,,,,,,,,,,,,FF,,,,,,,,1.2341,,,,,,,,,,,,,,,,,,,,,,6103654d81de79ade4dba583,610369b661c29bdef29b06c4,2021-07-29_22h54.37.254,Simcolourproject_2stim_asymm_v5,2020.2.10,MacIntel,60,61025ae37ef11b136ea224fe,,,,,,,,,1122,42.45703125,-24.7265625,1,0,0,response3disk,,5,4.49609375,-0.3984375,1,0,0,rectangle,4.49609375,-0.3984375,1,0,0,4.49609375,-0.3984375,1,0,0,1,0,160,122,1,,,,,,,,
,,,,,,,,,,,,,FF,,,,,,,,1.3995,,,,,,,,,,,,,,,,,,,,,,6103654d81de79ade4dba583,610369b661c29bdef29b06c4,2021-07-29_22h54.37.254,Simcolourproject_2stim_asymm_v5,2020.2.10,MacIntel,60,61025ae37ef11b136ea224fe,,,,,,,,,4158,45.1796875,20.6796875,1,0,0,response1disk,,6,25.18359375,5.83203125,1,0,0,rectangle,25.18359375,5.83203125,1,0,0,25.18359375,5.83203125,1,0,0,1,1,161,16,1,,,,,,,,
,,,,,,,,,,,,,FF,,,,,,,,0.934,,,,,,,,,,,,,,,,,,,,,,6103654d81de79ade4dba583,610369b661c29bdef29b06c4,2021-07-29_22h54.37.254,Simcolourproject_2stim_asymm_v5,2020.2.10,MacIntel,60,61025ae37ef11b136ea224fe,,,,,,,,,3580,42.03125,38.73828125,1,0,0,response1disk,,6,22.3203125,11.37109375,1,0,0,rectangle,22.3203125,11.37109375,1,0,0,22.3203125,11.37109375,1,0,0,1,2,162,87,1,,,,,,,,
,,,,,,,,,,,,,FF,,,,,,,,1.8351,,,,,,,,,,,,,,,,,,,,,,6103654d81de79ade4dba583,610369b661c29bdef29b06c4,2021-07-29_22h54.37.254,Simcolourproject_2stim_asymm_v5,2020.2.10,MacIntel,60,61025ae37ef11b136ea224fe,,,,,,,,,1116,47.23046875,-28.2109375,1,0,0,response3disk,,5,1.66015625,9.39453125,1,0,0,rectangle,1.66015625,9.39453125,1,0,0,1.66015625,9.39453125,1,0,0,1,3,163,7,1,,,,,,,,
,,,,,,,,,,,,,FF,,,,,,,,2.2015,,,,,,,,,,,,,,,,,,,,,,6103654d81de79ade4dba583,610369b661c29bdef29b06c4,2021-07-29_22h54.37.254,Simcolourproject_2stim_asymm_v5,2020.2.10,MacIntel,60,61025ae37ef11b136ea224fe,,,,,,,,,3702,56.3984375,12.1015625,1,0,0,response1disk,,6,-11.40234375,-0.1015625,1,0,0,rectangle,-11.40234375,-0.1015625,1,0,0,-11.40234375,-0.1015625,1,0,0,1,4,164,58,1,,,,,,,,
,,,,,,,,,,,,,FF,,,,,,,,1.5644,,,,,,,,,,,,,,,,,,,,,,6103654d81de79ade4dba583,610369b661c29bdef29b06c4,2021-07-29_22h54.37.254,Simcolourproject_2stim_asymm_v5,2020.2.10,MacIntel,60,61025ae37ef11b136ea224fe,,,,,,,,,4177,17.76953125,51.08203125,1,0,0,response1disk,,7,3.6796875,8.87109375,1,0,0,rectangle,3.6796875,8.87109375,1,0,0,3.6796875,8.87109375,1,0,0,1,5,165,106,1,,,,,,,,
,,,,,,,,,,,,,FF,,,,,,,,0.9336,,,,,,,,,,,,,,,,,,,,,,6103654d81de79ade4dba583,610369b661c29bdef29b06c4,2021-07-29_22h54.37.254,Simcolourproject_2stim_asymm_v5,2020.2.10,MacIntel,60,61025ae37ef11b136ea224fe,,,,,,,,,1083,29.73828125,21.83203125,1,0,0,response1disk,,6,6.30859375,-16.96875,1,0,0,rectangle,6.30859375,-16.96875,1,0,0,6.30859375,-16.96875,1,0,0,1,6,166,134,1,,,,,,,,
,,,,,,,,,,,,,FF,,,,,,,,0.9997,,,,,,,,,,,,,,,,,,,,,,6103654d81de79ade4dba583,610369b661c29bdef29b06c4,2021-07-29_22h54.37.254,Simcolourproject_2stim_asymm_v5,2020.2.10,MacIntel,60,61025ae37ef11b136ea224fe,,,,,,,,,1777,62.328125,-27.05078125,1,0,0,response3disk,,5,16.890625,-1.765625,1,0,0,rectangle,31.828125,-43.28515625,1,0,0,9.81640625,-3.34375,1,0,0,1,7,167,65,1,,response3disk_3,TRUE,4,4,"[138,168,222,316,239,193,56,174,117,13,207,22,146,96,158,180,136,232,89,212]",1.9824,rectangle
,,,,,,,,,,,,,FF,,,,,,,,1.1,,,,,,,,,,,,,,,,,,,,,,6103654d81de79ade4dba583,610369b661c29bdef29b06c4,2021-07-29_22h54.37.254,Simcolourproject_2stim_asymm_v5,2020.2.10,MacIntel,60,61025ae37ef11b136ea224fe,,,,,,,,,2266,58.40625,20.6796875,1,0,0,response1disk,,6,2.4609375,-1.421875,1,0,0,rectangle,2.4609375,-1.421875,1,0,0,2.4609375,-1.421875,1,0,0,1,8,168,56,1,,,,,,,,
,,,,,,,,,,,,,FF,,,,,,,,4.7486,,,,,,,,,,,,,,,,,,,,,,6103654d81de79ade4dba583,610369b661c29bdef29b06c4,2021-07-29_22h54.37.254,Simcolourproject_2stim_asymm_v5,2020.2.10,MacIntel,60,61025ae37ef11b136ea224fe,,,,,,,,,3065,48.21875,19.125,1,0,0,response1disk,,6,-5.359375,-0.4375,1,0,0,rectangle,-5.359375,-0.4375,1,0,0,-5.359375,-0.4375,1,0,0,1,9,169,92,1,,,,,,,,
,,,,,,,,,,,,,FF,,,,,,,,1.287,,,,,,,,,,,,,,,,,,,,,,6103654d81de79ade4dba583,610369b661c29bdef29b06c4,2021-07-29_22h54.37.254,Simcolourproject_2stim_asymm_v5,2020.2.10,MacIntel,60,61025ae37ef11b136ea224fe,,,,,,,,,2898,23.1875,-35.5859375,1,0,0,response3disk,,4,10.25390625,-5.55078125,1,0,0,rectangle,10.25390625,-5.55078125,1,0,0,10.25390625,-5.55078125,1,0,0,1,10,170,127,1,,,,,,,,
,,,,,,,,,,,,,FF,,,,,,,,2.4524,,,,,,,,,,,,,,,,,,,,,,6103654d81de79ade4dba583,610369b661c29bdef29b06c4,2021-07-29_22h54.37.254,Simcolourproject_2stim_asymm_v5,2020.2.10,MacIntel,60,61025ae37ef11b136ea224fe,,,,,,,,,3407,50.7265625,-25.8203125,1,0,0,response3disk,,5,17.78515625,-14.26171875,1,0,0,rectangle,17.78515625,-14.26171875,1,0,0,17.78515625,-14.26171875,1,0,0,1,11,171,13,1,,,,,,,,
,,,,,,,,,,,,,FF,,,,,,,,1.2844,,,,,,,,,,,,,,,,,,,,,,6103654d81de79ade4dba583,610369b661c29bdef29b06c4,2021-07-29_22h54.37.254,Simcolourproject_2stim_asymm_v5,2020.2.10,MacIntel,60,61025ae37ef11b136ea224fe,,,,,,,,,1468,-22.671875,-41.69140625,1,0,0,response5disk,,3,-3.85546875,-5.4609375,1,0,0,rectangle,-3.85546875,-5.4609375,1,0,0,-3.85546875,-5.4609375,1,0,0,1,12,172,43,1,,,,,,,,
,,,,,,,,,,,,,FF,,,,,,,,3.3353,,,,,,,,,,,,,,,,,,,,,,6103654d81de79ade4dba583,610369b661c29bdef29b06c4,2021-07-29_22h54.37.254,Simcolourproject_2stim_asymm_v5,2020.2.10,MacIntel,60,61025ae37ef11b136ea224fe,,,,,,,,,4264,26.47265625,34.24609375,1,0,0,response1disk,,7,-9.99609375,-3.08203125,1,0,0,rectangle,17.3125,-35.6484375,1,0,0,15.8203125,-1.4140625,1,0,0,1,13,173,100,1,,response3disk_3,TRUE,4,4,"[138,168,222,316,239,193,56,174,117,13,207,22,146,96,158,180,136,232,89,212]",1.6499,rectangle
,,,,,,,,,,,,,FF,,,,,,,,1.2168,,,,,,,,,,,,,,,,,,,,,,6103654d81de79ade4dba583,610369b661c29bdef29b06c4,2021-07-29_22h54.37.254,Simcolourproject_2stim_asymm_v5,2020.2.10,MacIntel,60,61025ae37ef11b136ea224fe,,,,,,,,,3546,-12.33203125,-42.91796875,1,0,0,response5disk,,3,-2.8984375,-7.74609375,1,0,0,rectangle,-2.8984375,-7.74609375,1,0,0,-2.8984375,-7.74609375,1,0,0,1,14,174,3,1,,,,,,,,
,,,,,,,,,,,,,FF,,,,,,,,1.3846,,,,,,,,,,,,,,,,,,,,,,6103654d81de79ade4dba583,610369b661c29bdef29b06c4,2021-07-29_22h54.37.254,Simcolourproject_2stim_asymm_v5,2020.2.10,MacIntel,60,61025ae37ef11b136ea224fe,,,,,,,,,340,22.2265625,-48.95703125,1,0,0,response3disk,,4,17.23046875,-5.68359375,1,0,0,rectangle,17.23046875,-5.68359375,1,0,0,17.23046875,-5.68359375,1,0,0,1,15,175,35,1,,,,,,,,
,,,,,,,,,,,,,FF,,,,,,,,2.0498,,,,,,,,,,,,,,,,,,,,,,6103654d81de79ade4dba583,610369b661c29bdef29b06c4,2021-07-29_22h54.37.254,Simcolourproject_2stim_asymm_v5,2020.2.10,MacIntel,60,61025ae37ef11b136ea224fe,,,,,,,,,823,35.19921875,-39.40234375,1,0,0,response3disk,,4,23.84765625,-0.52734375,1,0,0,rectangle,23.84765625,-0.52734375,1,0,0,23.84765625,-0.52734375,1,0,0,1,16,176,53,1,,,,,,,,
,,,,,,,,,,,,,FF,,,,,,,,1.1348,,,,,,,,,,,,,,,,,,,,,,6103654d81de79ade4dba583,610369b661c29bdef29b06c4,2021-07-29_22h54.37.254,Simcolourproject_2stim_asymm_v5,2020.2.10,MacIntel,60,61025ae37ef11b136ea224fe,,,,,,,,,2472,38.0703125,-27.25,1,0,0,response3disk,,5,19.390625,-4.68359375,1,0,0,rectangle,19.390625,-4.68359375,1,0,0,19.390625,-4.68359375,1,0,0,1,17,177,79,1,,,,,,,,
,,,,,,,,,,,,,FF,,,,,,,,0.9836,,,,,,,,,,,,,,,,,,,,,,6103654d81de79ade4dba583,610369b661c29bdef29b06c4,2021-07-29_22h54.37.254,Simcolourproject_2stim_asymm_v5,2020.2.10,MacIntel,60,61025ae37ef11b136ea224fe,,,,,,,,,1700,56.953125,20.30859375,1,0,0,response1disk,,6,23.8671875,0.3671875,1,0,0,rectangle,23.8671875,0.3671875,1,0,0,23.8671875,0.3671875,1,0,0,1,18,178,8,1,,,,,,,,
,,,,,,,,,,,,,FF,,,,,,,,1.0835,,,,,,,,,,,,,,,,,,,,,,6103654d81de79ade4dba583,610369b661c29bdef29b06c4,2021-07-29_22h54.37.254,Simcolourproject_2stim_asymm_v5,2020.2.10,MacIntel,60,61025ae37ef11b136ea224fe,,,,,,,,,1584,39.453125,23.09375,1,0,0,response1disk,,6,23.140625,-3.8046875,1,0,0,rectangle,-29.78515625,-47.64453125,1,0,0,-20.28125,-5.671875,1,0,0,1,19,179,61,1,,response5disk_3,TRUE,3,3,"[138,168,222,316,239,193,56,174,117,13,207,22,146,96,158,180,136,232,89,212]",2.0502,rectangle
,,,,,,,,,,,,,FF,,,,,,,,0.8015,,,,,,,,,,,,,,,,,,,,,,6103654d81de79ade4dba583,610369b661c29bdef29b06c4,2021-07-29_22h54.37.254,Simcolourproject_2stim_asymm_v5,2020.2.10,MacIntel,60,61025ae37ef11b136ea224fe,,,,,,,,,4290,27.55859375,48.71484375,1,0,0,response1disk,,7,16.625,8.08203125,1,0,0,rectangle,16.625,8.08203125,1,0,0,16.625,8.08203125,1,0,0,1,20,180,143,1,,,,,,,,
,,,,,,,,,,,,,FF,,,,,,,,1.0678,,,,,,,,,,,,,,,,,,,,,,6103654d81de79ade4dba583,610369b661c29bdef29b06c4,2021-07-29_22h54.37.254,Simcolourproject_2stim_asymm_v5,2020.2.10,MacIntel,60,61025ae37ef11b136ea224fe,,,,,,,,,3797,42.8828125,-30.83984375,1,0,0,response3disk,,5,20.10546875,-14.03125,1,0,0,rectangle,20.10546875,-14.03125,1,0,0,20.10546875,-14.03125,1,0,0,1,21,181,15,1,,,,,,,,
,,,,,,,,,,,,,FF,,,,,,,,0.8651,,,,,,,,,,,,,,,,,,,,,,6103654d81de79ade4dba583,610369b661c29bdef29b06c4,2021-07-29_22h54.37.254,Simcolourproject_2stim_asymm_v5,2020.2.10,MacIntel,60,61025ae37ef11b136ea224fe,,,,,,,,,2145,43.66796875,22.84765625,1,0,0,response1disk,,6,0.453125,-9.16796875,1,0,0,rectangle,0.453125,-9.16796875,1,0,0,0.453125,-9.16796875,1,0,0,1,22,182,19,1,,,,,,,,
,,,,,,,,,,,,,FF,,,,,,,,0.7155,,,,,,,,,,,,,,,,,,,,,,6103654d81de79ade4dba583,610369b661c29bdef29b06c4,2021-07-29_22h54.37.254,Simcolourproject_2stim_asymm_v5,2020.2.10,MacIntel,60,61025ae37ef11b136ea224fe,,,,,,,,,2522,51.359375,35.3515625,1,0,0,response1disk,,6,13.640625,9.65625,1,0,0,rectangle,13.640625,9.65625,1,0,0,13.640625,9.65625,1,0,0,1,23,183,6,1,,,,,,,,
,,,,,,,,,,,,,FF,,,,,,,,1.6867,,,,,,,,,,,,,,,,,,,,,,6103654d81de79ade4dba583,610369b661c29bdef29b06c4,2021-07-29_22h54.37.254,Simcolourproject_2stim_asymm_v5,2020.2.10,MacIntel,60,61025ae37ef11b136ea224fe,,,,,,,,,3215,43.3984375,23.05859375,1,0,0,response1disk,,6,9.28125,-2.0078125,1,0,0,rectangle,9.28125,-2.0078125,1,0,0,9.28125,-2.0078125,1,0,0,1,24,184,55,1,,,,,,,,
,,,,,,,,,,,,,FF,,,,,,,,1.1844,,,,,,,,,,,,,,,,,,,,,,6103654d81de79ade4dba583,610369b661c29bdef29b06c4,2021-07-29_22h54.37.254,Simcolourproject_2stim_asymm_v5,2020.2.10,MacIntel,60,61025ae37ef11b136ea224fe,,,,,,,,,2167,-33.43359375,-20.49609375,1,0,0,response5disk,,2,-11.53125,-0.671875,1,0,0,rectangle,-11.53125,-0.671875,1,0,0,-11.53125,-0.671875,1,0,0,1,25,185,37,1,,,,,,,,
,,,,,,,,,,,,,FF,,,,,,,,1.2162,,,,,,,,,,,,,,,,,,,,,,6103654d81de79ade4dba583,610369b661c29bdef29b06c4,2021-07-29_22h54.37.254,Simcolourproject_2stim_asymm_v5,2020.2.10,MacIntel,60,61025ae37ef11b136ea224fe,,,,,,,,,2777,-43.3515625,-12.46875,1,0,0,response5disk,,2,-11.29296875,-4.92578125,1,0,0,rectangle,-11.29296875,-4.92578125,1,0,0,-11.29296875,-4.92578125,1,0,0,1,26,186,21,1,,,,,,,,
,,,,,,,,,,,,,FF,,,,,,,,2.1177,,,,,,,,,,,,,,,,,,,,,,6103654d81de79ade4dba583,610369b661c29bdef29b06c4,2021-07-29_22h54.37.254,Simcolourproject_2stim_asymm_v5,2020.2.10,MacIntel,60,61025ae37ef11b136ea224fe,,,,,,,,,1059,30.3359375,-39.94921875,1,0,0,response3disk,,4,6.25390625,-1.51171875,1,0,0,rectangle,6.25390625,-1.51171875,1,0,0,6.25390625,-1.51171875,1,0,0,1,27,187,84,1,,,,,,,,
,,,,,,,,,,,,,FF,,,,,,,,1.251,,,,,,,,,,,,,,,,,,,,,,6103654d81de79ade4dba583,610369b661c29bdef29b06c4,2021-07-29_22h54.37.254,Simcolourproject_2stim_asymm_v5,2020.2.10,MacIntel,60,61025ae37ef11b136ea224fe,,,,,,,,,3788,-39.15625,-48.125,1,0,0,response5disk,,3,-19.203125,7.49609375,1,0,0,rectangle,-19.203125,7.49609375,1,0,0,-19.203125,7.49609375,1,0,0,1,28,188,60,1,,,,,,,,
,,,,,,,,,,,,,FF,,,,,,,,1.1668,,,,,,,,,,,,,,,,,,,,,,6103654d81de79ade4dba583,610369b661c29bdef29b06c4,2021-07-29_22h54.37.254,Simcolourproject_2stim_asymm_v5,2020.2.10,MacIntel,60,61025ae37ef11b136ea224fe,,,,,,,,,2912,41.65625,22.5625,1,0,0,response1disk,,6,15.75,2.75,1,0,0,rectangle,15.75,2.75,1,0,0,15.75,2.75,1,0,0,1,29,189,119,1,,,,,,,,
,,,,,,,,,,,,,FF,,,,,,,,1.3339,,,,,,,,,,,,,,,,,,,,,,6103654d81de79ade4dba583,610369b661c29bdef29b06c4,2021-07-29_22h54.37.254,Simcolourproject_2stim_asymm_v5,2020.2.10,MacIntel,60,61025ae37ef11b136ea224fe,,,,,,,,,2349,36.55078125,16.3125,1,0,0,response1disk,,6,4.421875,-11.1015625,1,0,0,rectangle,4.421875,-11.1015625,1,0,0,4.421875,-11.1015625,1,0,0,1,30,190,148,1,,,,,,,,
,,,,,,,,,,,,,FF,,,,,,,,1.2335,,,,,,,,,,,,,,,,,,,,,,6103654d81de79ade4dba583,610369b661c29bdef29b06c4,2021-07-29_22h54.37.254,Simcolourproject_2stim_asymm_v5,2020.2.10,MacIntel,60,61025ae37ef11b136ea224fe,,,,,,,,,2378,49.68359375,-15.8671875,1,0,0,response3disk,,5,15.19140625,-4.6171875,1,0,0,rectangle,15.19140625,-4.6171875,1,0,0,15.19140625,-4.6171875,1,0,0,1,31,191,152,1,,,,,,,,
,,,,,,,,,,,,,FF,,,,,,,,2.5679,,,,,,,,,,,,,,,,,,,,,,6103654d81de79ade4dba583,610369b661c29bdef29b06c4,2021-07-29_22h54.37.254,Simcolourproject_2stim_asymm_v5,2020.2.10,MacIntel,60,61025ae37ef11b136ea224fe,,,,,,,,,3634,49.35546875,-28.85546875,1,0,0,response3disk,,5,3.15234375,2.765625,1,0,0,rectangle,-22.33203125,45.54296875,1,0,0,-1.7265625,0.8671875,1,0,0,1,32,192,2,1,,response7disk_3,TRUE,0,0,"[138,168,222,316,239,193,56,174,117,13,207,22,146,96,158,180,136,232,89,212]",2.2841,rectangle
,,,,,,,,,,,,,FF,,,,,,,,2.6662,,,,,,,,,,,,,,,,,,,,,,6103654d81de79ade4dba583,610369b661c29bdef29b06c4,2021-07-29_22h54.37.254,Simcolourproject_2stim_asymm_v5,2020.2.10,MacIntel,60,61025ae37ef11b136ea224fe,,,,,,,,,2358,-14.421875,-44.45703125,1,0,0,response5disk,,3,8.55859375,2.15625,1,0,0,rectangle,8.55859375,2.15625,1,0,0,8.55859375,2.15625,1,0,0,1,33,193,116,1,,,,,,,,
,,,,,,,,,,,,,FF,,,,,,,,0.9833,,,,,,,,,,,,,,,,,,,,,,6103654d81de79ade4dba583,610369b661c29bdef29b06c4,2021-07-29_22h54.37.254,Simcolourproject_2stim_asymm_v5,2020.2.10,MacIntel,60,61025ae37ef11b136ea224fe,,,,,,,,,2309,25.75,-34.8046875,1,0,0,response3disk,,4,7.8515625,9.34375,1,0,0,rectangle,7.8515625,9.34375,1,0,0,7.8515625,9.34375,1,0,0,1,34,194,78,1,,,,,,,,
,,,,,,,,,,,,,FF,,,,,,,,0.8999,,,,,,,,,,,,,,,,,,,,,,6103654d81de79ade4dba583,610369b661c29bdef29b06c4,2021-07-29_22h54.37.254,Simcolourproject_2stim_asymm_v5,2020.2.10,MacIntel,60,61025ae37ef11b136ea224fe,,,,,,,,,1796,48,15.765625,1,0,0,response1disk,,6,-12.546875,4.7265625,1,0,0,rectangle,-12.546875,4.7265625,1,0,0,-12.546875,4.7265625,1,0,0,1,35,195,117,1,,,,,,,,
,,,,,,,,,,,,,FF,,,,,,,,0.7161,,,,,,,,,,,,,,,,,,,,,,6103654d81de79ade4dba583,610369b661c29bdef29b06c4,2021-07-29_22h54.37.254,Simcolourproject_2stim_asymm_v5,2020.2.10,MacIntel,60,61025ae37ef11b136ea224fe,,,,,,,,,4055,46.58203125,-21.44140625,1,0,0,response3disk,,5,9.984375,-9.59765625,1,0,0,rectangle,9.984375,-9.59765625,1,0,0,9.984375,-9.59765625,1,0,0,1,36,196,73,1,,,,,,,,
,,,,,,,,,,,,,FF,,,,,,,,0.7525,,,,,,,,,,,,,,,,,,,,,,6103654d81de79ade4dba583,610369b661c29bdef29b06c4,2021-07-29_22h54.37.254,Simcolourproject_2stim_asymm_v5,2020.2.10,MacIntel,60,61025ae37ef11b136ea224fe,,,,,,,,,1084,48.0859375,20.09375,1,0,0,response1disk,,6,14.734375,4.28125,1,0,0,rectangle,14.734375,4.28125,1,0,0,14.734375,4.28125,1,0,0,1,37,197,96,1,,,,,,,,
,,,,,,,,,,,,,FF,,,,,,,,0.8171,,,,,,,,,,,,,,,,,,,,,,6103654d81de79ade4dba583,610369b661c29bdef29b06c4,2021-07-29_22h54.37.254,Simcolourproject_2stim_asymm_v5,2020.2.10,MacIntel,60,61025ae37ef11b136ea224fe,,,,,,,,,3608,15.29296875,38.25,1,0,0,response1disk,,7,21.5,1.52734375,1,0,0,rectangle,21.5,1.52734375,1,0,0,21.5,1.52734375,1,0,0,1,38,198,39,1,,,,,,,,
,,,,,,,,,,,,,FF,,,,,,,,1.2353,,,,,,,,,,,,,,,,,,,,,,6103654d81de79ade4dba583,610369b661c29bdef29b06c4,2021-07-29_22h54.37.254,Simcolourproject_2stim_asymm_v5,2020.2.10,MacIntel,60,61025ae37ef11b136ea224fe,,,,,,,,,2769,54.5078125,14.28125,1,0,0,response1disk,,6,-12.51953125,8.3046875,1,0,0,rectangle,-12.51953125,8.3046875,1,0,0,-12.51953125,8.3046875,1,0,0,1,39,199,114,1,,,,,,,,
,,,,,,,,,,,,,FF,,,,,,,,0.8498,,,,,,,,,,,,,,,,,,,,,,6103654d81de79ade4dba583,610369b661c29bdef29b06c4,2021-07-29_22h54.37.254,Simcolourproject_2stim_asymm_v5,2020.2.10,MacIntel,60,61025ae37ef11b136ea224fe,,,,,,,,,1454,-39.6796875,24.30078125,1,0,0,response7disk,,1,3.12890625,-2.19140625,1,0,0,rectangle,3.12890625,-2.19140625,1,0,0,3.12890625,-2.19140625,1,0,0,1,40,200,115,1,,,,,,,,
,,,,,,,,,,,,,FF,,,,,,,,0.7332,,,,,,,,,,,,,,,,,,,,,,6103654d81de79ade4dba583,610369b661c29bdef29b06c4,2021-07-29_22h54.37.254,Simcolourproject_2stim_asymm_v5,2020.2.10,MacIntel,60,61025ae37ef11b136ea224fe,,,,,,,,,1537,-14.578125,-37.7578125,1,0,0,response5disk,,3,6.1015625,-5.85546875,1,0,0,rectangle,6.1015625,-5.85546875,1,0,0,6.1015625,-5.85546875,1,0,0,1,41,201,102,1,,,,,,,,
,,,,,,,,,,,,,FF,,,,,,,,0.9662,,,,,,,,,,,,,,,,,,,,,,6103654d81de79ade4dba583,610369b661c29bdef29b06c4,2021-07-29_22h54.37.254,Simcolourproject_2stim_asymm_v5,2020.2.10,MacIntel,60,61025ae37ef11b136ea224fe,,,,,,,,,3748,-57.49609375,-24.8515625,1,0,0,response5disk,,2,-11.8984375,-6.21875,1,0,0,rectangle,-11.8984375,-6.21875,1,0,0,-11.8984375,-6.21875,1,0,0,1,42,202,28,1,,,,,,,,
,,,,,,,,,,,,,FF,,,,,,,,0.6505,,,,,,,,,,,,,,,,,,,,,,6103654d81de79ade4dba583,610369b661c29bdef29b06c4,2021-07-29_22h54.37.254,Simcolourproject_2stim_asymm_v5,2020.2.10,MacIntel,60,61025ae37ef11b136ea224fe,,,,,,,,,2052,45.66796875,-17.34765625,1,0,0,response3disk,,5,10.1796875,-13.05078125,1,0,0,rectangle,10.1796875,-13.05078125,1,0,0,10.1796875,-13.05078125,1,0,0,1,43,203,52,1,,,,,,,,
,,,,,,,,,,,,,FF,,,,,,,,0.8821,,,,,,,,,,,,,,,,,,,,,,6103654d81de79ade4dba583,610369b661c29bdef29b06c4,2021-07-29_22h54.37.254,Simcolourproject_2stim_asymm_v5,2020.2.10,MacIntel,60,61025ae37ef11b136ea224fe,,,,,,,,,1091,34.62109375,42.23828125,1,0,0,response1disk,,7,21.79296875,-1.3359375,1,0,0,rectangle,21.79296875,-1.3359375,1,0,0,21.79296875,-1.3359375,1,0,0,1,44,204,24,1,,,,,,,,
,,,,,,,,,,,,,FF,,,,,,,,1.0167,,,,,,,,,,,,,,,,,,,,,,6103654d81de79ade4dba583,610369b661c29bdef29b06c4,2021-07-29_22h54.37.254,Simcolourproject_2stim_asymm_v5,2020.2.10,MacIntel,60,61025ae37ef11b136ea224fe,,,,,,,,,606,-36.62890625,-20.74609375,1,0,0,response5disk,,2,-18.296875,-8.8125,1,0,0,rectangle,-18.296875,-8.8125,1,0,0,-18.296875,-8.8125,1,0,0,1,45,205,81,1,,,,,,,,
,,,,,,,,,,,,,FF,,,,,,,,0.8845,,,,,,,,,,,,,,,,,,,,,,6103654d81de79ade4dba583,610369b661c29bdef29b06c4,2021-07-29_22h54.37.254,Simcolourproject_2stim_asymm_v5,2020.2.10,MacIntel,60,61025ae37ef11b136ea224fe,,,,,,,,,286,-9.5390625,-40.91015625,1,0,0,response5disk,,3,19.203125,2.34375,1,0,0,rectangle,24.9765625,46.67578125,1,0,0,12.57421875,3.2109375,1,0,0,1,46,206,38,1,,response1disk_3,TRUE,7,7,"[138,168,222,316,239,193,56,174,117,13,207,22,146,96,158,180,136,232,89,212]",1.8827,rectangle
,,,,,,,,,,,,,FF,,,,,,,,1.9674,,,,,,,,,,,,,,,,,,,,,,6103654d81de79ade4dba583,610369b661c29bdef29b06c4,2021-07-29_22h54.37.254,Simcolourproject_2stim_asymm_v5,2020.2.10,MacIntel,60,61025ae37ef11b136ea224fe,,,,,,,,,2714,43.12109375,-25.47265625,1,0,0,response3disk,,5,-13.73046875,-3.5,1,0,0,rectangle,-13.73046875,-3.5,1,0,0,-13.73046875,-3.5,1,0,0,1,47,207,90,1,,,,,,,,
,,,,,,,,,,,,,FF,,,,,,,,0.8984,,,,,,,,,,,,,,,,,,,,,,6103654d81de79ade4dba583,610369b661c29bdef29b06c4,2021-07-29_22h54.37.254,Simcolourproject_2stim_asymm_v5,2020.2.10,MacIntel,60,61025ae37ef11b136ea224fe,,,,,,,,,3982,40.03125,-20.95703125,1,0,0,response3disk,,5,-8.94921875,-14.71875,1,0,0,rectangle,-8.94921875,-14.71875,1,0,0,-8.94921875,-14.71875,1,0,0,1,48,208,4,1,,,,,,,,
,,,,,,,,,,,,,FF,,,,,,,,0.9682,,,,,,,,,,,,,,,,,,,,,,6103654d81de79ade4dba583,610369b661c29bdef29b06c4,2021-07-29_22h54.37.254,Simcolourproject_2stim_asymm_v5,2020.2.10,MacIntel,60,61025ae37ef11b136ea224fe,,,,,,,,,1377,-38.921875,-22.67578125,1,0,0,response5disk,,2,-19.66015625,-6.5546875,1,0,0,rectangle,-19.66015625,-6.5546875,1,0,0,-19.66015625,-6.5546875,1,0,0,1,49,209,68,1,,,,,,,,
,,,,,,,,,,,,,FF,,,,,,,,2.0499,,,,,,,,,,,,,,,,,,,,,,6103654d81de79ade4dba583,610369b661c29bdef29b06c4,2021-07-29_22h54.37.254,Simcolourproject_2stim_asymm_v5,2020.2.10,MacIntel,60,61025ae37ef11b136ea224fe,,,,,,,,,1665,41.87890625,30.39453125,1,0,0,response1disk,,6,17.83203125,6.25,1,0,0,rectangle,17.83203125,6.25,1,0,0,17.83203125,6.25,1,0,0,1,50,210,33,1,,,,,,,,
,,,,,,,,,,,,,FF,,,,,,,,0.9166,,,,,,,,,,,,,,,,,,,,,,6103654d81de79ade4dba583,610369b661c29bdef29b06c4,2021-07-29_22h54.37.254,Simcolourproject_2stim_asymm_v5,2020.2.10,MacIntel,60,61025ae37ef11b136ea224fe,,,,,,,,,261,-36.296875,13.71484375,1,0,0,response7disk,,1,-13.86328125,11.37109375,1,0,0,rectangle,53.3203125,-17.35546875,1,0,0,22.390625,-14.23046875,1,0,0,1,51,211,141,1,,response3disk_3,TRUE,5,5,"[138,168,222,316,239,193,56,174,117,13,207,22,146,96,158,180,136,232,89,212]",1.5672,rectangle
,,,,,,,,,,,,,FF,,,,,,,,1.9527,,,,,,,,,,,,,,,,,,,,,,6103654d81de79ade4dba583,610369b661c29bdef29b06c4,2021-07-29_22h54.37.254,Simcolourproject_2stim_asymm_v5,2020.2.10,MacIntel,60,61025ae37ef11b136ea224fe,,,,,,,,,2417,38.7265625,14.67578125,1,0,0,response1disk,,6,13.9921875,-0.28125,1,0,0,rectangle,13.9921875,-0.28125,1,0,0,13.9921875,-0.28125,1,0,0,1,52,212,11,1,,,,,,,,
,,,,,,,,,,,,,FF,,,,,,,,1.7824,,,,,,,,,,,,,,,,,,,,,,6103654d81de79ade4dba583,610369b661c29bdef29b06c4,2021-07-29_22h54.37.254,Simcolourproject_2stim_asymm_v5,2020.2.10,MacIntel,60,61025ae37ef11b136ea224fe,,,,,,,,,507,47.828125,19.62890625,1,0,0,response1disk,,6,1.12890625,15.6640625,1,0,0,rectangle,1.12890625,15.6640625,1,0,0,1.12890625,15.6640625,1,0,0,1,53,213,128,1,,,,,,,,
,,,,,,,,,,,,,FF,,,,,,,,1.0833,,,,,,,,,,,,,,,,,,,,,,6103654d81de79ade4dba583,610369b661c29bdef29b06c4,2021-07-29_22h54.37.254,Simcolourproject_2stim_asymm_v5,2020.2.10,MacIntel,60,61025ae37ef11b136ea224fe,,,,,,,,,1113,21.31640625,-41.9765625,1,0,0,response3disk,,4,9.90234375,-6.25390625,1,0,0,rectangle,9.90234375,-6.25390625,1,0,0,9.90234375,-6.25390625,1,0,0,1,54,214,22,1,,,,,,,,
,,,,,,,,,,,,,FF,,,,,,,,1.0166,,,,,,,,,,,,,,,,,,,,,,6103654d81de79ade4dba583,610369b661c29bdef29b06c4,2021-07-29_22h54.37.254,Simcolourproject_2stim_asymm_v5,2020.2.10,MacIntel,60,61025ae37ef11b136ea224fe,,,,,,,,,754,58.66796875,17.73828125,1,0,0,response1disk,,6,-13.0390625,17.73828125,1,0,0,rectangle,-13.0390625,17.73828125,1,0,0,-13.0390625,17.73828125,1,0,0,1,55,215,14,1,,,,,,,,
,,,,,,,,,,,,,FF,,,,,,,,1.2003,,,,,,,,,,,,,,,,,,,,,,6103654d81de79ade4dba583,610369b661c29bdef29b06c4,2021-07-29_22h54.37.254,Simcolourproject_2stim_asymm_v5,2020.2.10,MacIntel,60,61025ae37ef11b136ea224fe,,,,,,,,,2889,19.734375,-35.13671875,1,0,0,response3disk,,4,12.55078125,16.46875,1,0,0,rectangle,12.55078125,16.46875,1,0,0,12.55078125,16.46875,1,0,0,1,56,216,144,1,,,,,,,,
,,,,,,,,,,,,,FF,,,,,,,,1.198,,,,,,,,,,,,,,,,,,,,,,6103654d81de79ade4dba583,610369b661c29bdef29b06c4,2021-07-29_22h54.37.254,Simcolourproject_2stim_asymm_v5,2020.2.10,MacIntel,60,61025ae37ef11b136ea224fe,,,,,,,,,705,56.4140625,-17.70703125,1,0,0,response3disk,,5,17.37890625,-9.82421875,1,0,0,rectangle,17.37890625,-9.82421875,1,0,0,17.37890625,-9.82421875,1,0,0,1,57,217,110,1,,,,,,,,
,,,,,,,,,,,,,FF,,,,,,,,0.887,,,,,,,,,,,,,,,,,,,,,,6103654d81de79ade4dba583,610369b661c29bdef29b06c4,2021-07-29_22h54.37.254,Simcolourproject_2stim_asymm_v5,2020.2.10,MacIntel,60,61025ae37ef11b136ea224fe,,,,,,,,,4060,36.2734375,-13.25390625,1,0,0,response3disk,,5,22.96875,-2.2421875,1,0,0,rectangle,22.96875,-2.2421875,1,0,0,22.96875,-2.2421875,1,0,0,1,58,218,23,1,,,,,,,,
,,,,,,,,,,,,,FF,,,,,,,,1.8334,,,,,,,,,,,,,,,,,,,,,,6103654d81de79ade4dba583,610369b661c29bdef29b06c4,2021-07-29_22h54.37.254,Simcolourproject_2stim_asymm_v5,2020.2.10,MacIntel,60,61025ae37ef11b136ea224fe,,,,,,,,,2991,49.91796875,22.46484375,1,0,0,response1disk,,6,10.796875,11.8046875,1,0,0,rectangle,10.796875,11.8046875,1,0,0,10.796875,11.8046875,1,0,0,1,59,219,18,1,,,,,,,,
,,,,,,,,,,,,,FF,,,,,,,,1.6519,,,,,,,,,,,,,,,,,,,,,,6103654d81de79ade4dba583,610369b661c29bdef29b06c4,2021-07-29_22h54.37.254,Simcolourproject_2stim_asymm_v5,2020.2.10,MacIntel,60,61025ae37ef11b136ea224fe,,,,,,,,,2256,30.1171875,40.83203125,1,0,0,response1disk,,7,15.171875,-4.5859375,1,0,0,rectangle,15.171875,-4.5859375,1,0,0,15.171875,-4.5859375,1,0,0,1,60,220,40,1,,,,,,,,
,,,,,,,,,,,,,FF,,,,,,,,1.2181,,,,,,,,,,,,,,,,,,,,,,6103654d81de79ade4dba583,610369b661c29bdef29b06c4,2021-07-29_22h54.37.254,Simcolourproject_2stim_asymm_v5,2020.2.10,MacIntel,60,61025ae37ef11b136ea224fe,,,,,,,,,1654,21.203125,45.0703125,1,0,0,response1disk,,7,12.7421875,-0.6171875,1,0,0,rectangle,25.97265625,51.53515625,1,0,0,19.96875,8.73828125,1,0,0,1,61,221,135,1,,response1disk_3,TRUE,7,7,"[138,168,222,316,239,193,56,174,117,13,207,22,146,96,158,180,136,232,89,212]",1.2353,rectangle
,,,,,,,,,,,,,FF,,,,,,,,1.2499,,,,,,,,,,,,,,,,,,,,,,6103654d81de79ade4dba583,610369b661c29bdef29b06c4,2021-07-29_22h54.37.254,Simcolourproject_2stim_asymm_v5,2020.2.10,MacIntel,60,61025ae37ef11b136ea224fe,,,,,,,,,878,24.640625,37.17578125,1,0,0,response1disk,,7,24.640625,0.78515625,1,0,0,rectangle,24.640625,0.78515625,1,0,0,24.640625,0.78515625,1,0,0,1,62,222,120,1,,,,,,,,
,,,,,,,,,,,,,FF,,,,,,,,2.4166,,,,,,,,,,,,,,,,,,,,,,6103654d81de79ade4dba583,610369b661c29bdef29b06c4,2021-07-29_22h54.37.254,Simcolourproject_2stim_asymm_v5,2020.2.10,MacIntel,60,61025ae37ef11b136ea224fe,,,,,,,,,1399,46.07421875,16.5234375,1,0,0,response1disk,,6,15.15234375,14.41015625,1,0,0,rectangle,15.15234375,14.41015625,1,0,0,15.15234375,14.41015625,1,0,0,1,63,223,29,1,,,,,,,,
,,,,,,,,,,,,,FF,,,,,,,,1.1668,,,,,,,,,,,,,,,,,,,,,,6103654d81de79ade4dba583,610369b661c29bdef29b06c4,2021-07-29_22h54.37.254,Simcolourproject_2stim_asymm_v5,2020.2.10,MacIntel,60,61025ae37ef11b136ea224fe,,,,,,,,,730,26.67578125,42.546875,1,0,0,response1disk,,7,22.12890625,-2.48046875,1,0,0,rectangle,22.12890625,-2.48046875,1,0,0,22.12890625,-2.48046875,1,0,0,1,64,224,51,1,,,,,,,,
,,,,,,,,,,,,,FF,,,,,,,,0.9981,,,,,,,,,,,,,,,,,,,,,,6103654d81de79ade4dba583,610369b661c29bdef29b06c4,2021-07-29_22h54.37.254,Simcolourproject_2stim_asymm_v5,2020.2.10,MacIntel,60,61025ae37ef11b136ea224fe,,,,,,,,,1860,17.6875,46.6953125,1,0,0,response1disk,,7,13.7890625,-2.67578125,1,0,0,rectangle,13.7890625,-2.67578125,1,0,0,13.7890625,-2.67578125,1,0,0,1,65,225,95,1,,,,,,,,
,,,,,,,,,,,,,FF,,,,,,,,1.3183,,,,,,,,,,,,,,,,,,,,,,6103654d81de79ade4dba583,610369b661c29bdef29b06c4,2021-07-29_22h54.37.254,Simcolourproject_2stim_asymm_v5,2020.2.10,MacIntel,60,61025ae37ef11b136ea224fe,,,,,,,,,2308,26.8125,-43,1,0,0,response3disk,,4,19.55078125,1.80078125,1,0,0,rectangle,19.55078125,1.80078125,1,0,0,19.55078125,1.80078125,1,0,0,1,66,226,74,1,,,,,,,,
,,,,,,,,,,,,,FF,,,,,,,,1.351,,,,,,,,,,,,,,,,,,,,,,6103654d81de79ade4dba583,610369b661c29bdef29b06c4,2021-07-29_22h54.37.254,Simcolourproject_2stim_asymm_v5,2020.2.10,MacIntel,60,61025ae37ef11b136ea224fe,,,,,,,,,3846,-48.15234375,9.7734375,1,0,0,response7disk,,1,-19.96875,4.84375,1,0,0,rectangle,-19.96875,4.84375,1,0,0,-19.96875,4.84375,1,0,0,1,67,227,30,1,,,,,,,,
,,,,,,,,,,,,,FF,,,,,,,,0.5521,,,,,,,,,,,,,,,,,,,,,,6103654d81de79ade4dba583,610369b661c29bdef29b06c4,2021-07-29_22h54.37.254,Simcolourproject_2stim_asymm_v5,2020.2.10,MacIntel,60,61025ae37ef11b136ea224fe,,,,,,,,,4027,-43.51171875,24.83984375,1,0,0,response7disk,,1,-15.4296875,8.17578125,1,0,0,rectangle,-15.4296875,8.17578125,1,0,0,-15.4296875,8.17578125,1,0,0,1,68,228,47,1,,,,,,,,
,,,,,,,,,,,,,FF,,,,,,,,2.3844,,,,,,,,,,,,,,,,,,,,,,6103654d81de79ade4dba583,610369b661c29bdef29b06c4,2021-07-29_22h54.37.254,Simcolourproject_2stim_asymm_v5,2020.2.10,MacIntel,60,61025ae37ef11b136ea224fe,,,,,,,,,1574,57.734375,33.03515625,1,0,0,response1disk,,6,13.8515625,-3.96484375,1,0,0,rectangle,13.8515625,-3.96484375,1,0,0,13.8515625,-3.96484375,1,0,0,1,69,229,113,1,,,,,,,,
,,,,,,,,,,,,,FF,,,,,,,,0.9658,,,,,,,,,,,,,,,,,,,,,,6103654d81de79ade4dba583,610369b661c29bdef29b06c4,2021-07-29_22h54.37.254,Simcolourproject_2stim_asymm_v5,2020.2.10,MacIntel,60,61025ae37ef11b136ea224fe,,,,,,,,,458,45.2109375,-25.6640625,1,0,0,response3disk,,5,-6.1640625,-12.61328125,1,0,0,rectangle,-6.1640625,-12.61328125,1,0,0,-6.1640625,-12.61328125,1,0,0,1,70,230,149,1,,,,,,,,
,,,,,,,,,,,,,FF,,,,,,,,1.0172,,,,,,,,,,,,,,,,,,,,,,6103654d81de79ade4dba583,610369b661c29bdef29b06c4,2021-07-29_22h54.37.254,Simcolourproject_2stim_asymm_v5,2020.2.10,MacIntel,60,61025ae37ef11b136ea224fe,,,,,,,,,2352,46.8203125,14.74609375,1,0,0,response1disk,,6,-2.25,11.54296875,1,0,0,rectangle,21.13671875,56.015625,1,0,0,5.62890625,0.859375,1,0,0,1,71,231,72,1,,response1disk_3,TRUE,7,7,"[138,168,222,316,239,193,56,174,117,13,207,22,146,96,158,180,136,232,89,212]",1.0148,rectangle
,,,,,,,,,,,,,FF,,,,,,,,1.8679,,,,,,,,,,,,,,,,,,,,,,6103654d81de79ade4dba583,610369b661c29bdef29b06c4,2021-07-29_22h54.37.254,Simcolourproject_2stim_asymm_v5,2020.2.10,MacIntel,60,61025ae37ef11b136ea224fe,,,,,,,,,2797,46.0390625,-25.46875,1,0,0,response3disk,,5,11.4375,4.87890625,1,0,0,rectangle,11.4375,4.87890625,1,0,0,11.4375,4.87890625,1,0,0,1,72,232,49,1,,,,,,,,
,,,,,,,,,,,,,FF,,,,,,,,0.7234,,,,,,,,,,,,,,,,,,,,,,6103654d81de79ade4dba583,610369b661c29bdef29b06c4,2021-07-29_22h54.37.254,Simcolourproject_2stim_asymm_v5,2020.2.10,MacIntel,60,61025ae37ef11b136ea224fe,,,,,,,,,1352,26.15234375,32.828125,1,0,0,response1disk,,7,16.234375,-9.58984375,1,0,0,rectangle,16.234375,-9.58984375,1,0,0,16.234375,-9.58984375,1,0,0,1,73,233,45,1,,,,,,,,
,,,,,,,,,,,,,FF,,,,,,,,1.3649,,,,,,,,,,,,,,,,,,,,,,6103654d81de79ade4dba583,610369b661c29bdef29b06c4,2021-07-29_22h54.37.254,Simcolourproject_2stim_asymm_v5,2020.2.10,MacIntel,60,61025ae37ef11b136ea224fe,,,,,,,,,3527,56.0703125,-34.02734375,1,0,0,response3disk,,5,11.1953125,-16.35546875,1,0,0,rectangle,11.1953125,-16.35546875,1,0,0,11.1953125,-16.35546875,1,0,0,1,74,234,83,1,,,,,,,,
,,,,,,,,,,,,,FF,,,,,,,,0.8671,,,,,,,,,,,,,,,,,,,,,,6103654d81de79ade4dba583,610369b661c29bdef29b06c4,2021-07-29_22h54.37.254,Simcolourproject_2stim_asymm_v5,2020.2.10,MacIntel,60,61025ae37ef11b136ea224fe,,,,,,,,,2848,-34.0078125,-23.83203125,1,0,0,response5disk,,2,-10.6953125,2.671875,1,0,0,rectangle,-10.6953125,2.671875,1,0,0,-10.6953125,2.671875,1,0,0,1,75,235,109,1,,,,,,,,
,,,,,,,,,,,,,FF,,,,,,,,0.7644,,,,,,,,,,,,,,,,,,,,,,6103654d81de79ade4dba583,610369b661c29bdef29b06c4,2021-07-29_22h54.37.254,Simcolourproject_2stim_asymm_v5,2020.2.10,MacIntel,60,61025ae37ef11b136ea224fe,,,,,,,,,2821,58.3828125,20.546875,1,0,0,response1disk,,6,1.4296875,-2.8359375,1,0,0,rectangle,1.4296875,-2.8359375,1,0,0,1.4296875,-2.8359375,1,0,0,1,76,236,48,1,,,,,,,,
,,,,,,,,,,,,,FF,,,,,,,,0.6314,,,,,,,,,,,,,,,,,,,,,,6103654d81de79ade4dba583,610369b661c29bdef29b06c4,2021-07-29_22h54.37.254,Simcolourproject_2stim_asymm_v5,2020.2.10,MacIntel,60,61025ae37ef11b136ea224fe,,,,,,,,,4172,19.9921875,42.5078125,1,0,0,response1disk,,7,5.33203125,3.16015625,1,0,0,rectangle,5.33203125,3.16015625,1,0,0,5.33203125,3.16015625,1,0,0,1,77,237,142,1,,,,,,,,
,,,,,,,,,,,,,FF,,,,,,,,0.8152,,,,,,,,,,,,,,,,,,,,,,6103654d81de79ade4dba583,610369b661c29bdef29b06c4,2021-07-29_22h54.37.254,Simcolourproject_2stim_asymm_v5,2020.2.10,MacIntel,60,61025ae37ef11b136ea224fe,,,,,,,,,960,39.8203125,25.38671875,1,0,0,response1disk,,6,-15.25,-8.859375,1,0,0,rectangle,52.8203125,12.59375,1,0,0,-0.6015625,12.05078125,1,0,0,1,78,238,121,1,,response1disk_3,TRUE,6,6,"[138,168,222,316,239,193,56,174,117,13,207,22,146,96,158,180,136,232,89,212]",1.2001,rectangle
,,,,,,,,,,,,,FF,,,,,,,,0.8841,,,,,,,,,,,,,,,,,,,,,,6103654d81de79ade4dba583,610369b661c29bdef29b06c4,2021-07-29_22h54.37.254,Simcolourproject_2stim_asymm_v5,2020.2.10,MacIntel,60,61025ae37ef11b136ea224fe,,,,,,,,,1652,27.5078125,47.69921875,1,0,0,response1disk,,7,10.4609375,12.13671875,1,0,0,rectangle,10.4609375,12.13671875,1,0,0,10.4609375,12.13671875,1,0,0,1,79,239,63,1,,,,,,,,
,,,,,,,,,,,,,FF,,,,,,,,1.017,,,,,,,,,,,,,,,,,,,,,,6103654d81de79ade4dba583,610369b661c29bdef29b06c4,2021-07-29_22h54.37.254,Simcolourproject_2stim_asymm_v5,2020.2.10,MacIntel,60,61025ae37ef11b136ea224fe,,,,,,,,,3697,47.7734375,-29.66015625,1,0,0,response3disk,,5,13.15625,-2.375,1,0,0,rectangle,13.15625,-2.375,1,0,0,13.15625,-2.375,1,0,0,1,80,240,76,1,,,,,,,,
,,,,,,,,,,,,,FF,,,,,,,,1.3001,,,,,,,,,,,,,,,,,,,,,,6103654d81de79ade4dba583,610369b661c29bdef29b06c4,2021-07-29_22h54.37.254,Simcolourproject_2stim_asymm_v5,2020.2.10,MacIntel,60,61025ae37ef11b136ea224fe,,,,,,,,,259,24.25390625,-41.42578125,1,0,0,response3disk,,4,15.31640625,2.171875,1,0,0,rectangle,15.31640625,2.171875,1,0,0,15.31640625,2.171875,1,0,0,1,81,241,103,1,,,,,,,,
,,,,,,,,,,,,,FF,,,,,,,,2.4831,,,,,,,,,,,,,,,,,,,,,,6103654d81de79ade4dba583,610369b661c29bdef29b06c4,2021-07-29_22h54.37.254,Simcolourproject_2stim_asymm_v5,2020.2.10,MacIntel,60,61025ae37ef11b136ea224fe,,,,,,,,,4337,-27.96484375,-38.0859375,1,0,0,response5disk,,3,-18.24609375,-1.3125,1,0,0,rectangle,-18.24609375,-1.3125,1,0,0,-18.24609375,-1.3125,1,0,0,1,82,242,12,1,,,,,,,,
,,,,,,,,,,,,,FF,,,,,,,,1.1843,,,,,,,,,,,,,,,,,,,,,,6103654d81de79ade4dba583,610369b661c29bdef29b06c4,2021-07-29_22h54.37.254,Simcolourproject_2stim_asymm_v5,2020.2.10,MacIntel,60,61025ae37ef11b136ea224fe,,,,,,,,,3903,53.26953125,13.28125,1,0,0,response1disk,,6,6.5,-2.80078125,1,0,0,rectangle,6.5,-2.80078125,1,0,0,6.5,-2.80078125,1,0,0,1,83,243,124,1,,,,,,,,
,,,,,,,,,,,,,FF,,,,,,,,1.0497,,,,,,,,,,,,,,,,,,,,,,6103654d81de79ade4dba583,610369b661c29bdef29b06c4,2021-07-29_22h54.37.254,Simcolourproject_2stim_asymm_v5,2020.2.10,MacIntel,60,61025ae37ef11b136ea224fe,,,,,,,,,4356,-21.8203125,36.3515625,1,0,0,response7disk,,0,-17.48046875,5.3046875,1,0,0,rectangle,-17.48046875,5.3046875,1,0,0,-17.48046875,5.3046875,1,0,0,1,84,244,105,1,,,,,,,,
,,,,,,,,,,,,,FF,,,,,,,,1.1484,,,,,,,,,,,,,,,,,,,,,,6103654d81de79ade4dba583,610369b661c29bdef29b06c4,2021-07-29_22h54.37.254,Simcolourproject_2stim_asymm_v5,2020.2.10,MacIntel,60,61025ae37ef11b136ea224fe,,,,,,,,,3250,-42.8515625,-18.93359375,1,0,0,response5disk,,2,-12.296875,-6.40625,1,0,0,rectangle,-12.296875,-6.40625,1,0,0,-12.296875,-6.40625,1,0,0,1,85,245,64,1,,,,,,,,
,,,,,,,,,,,,,FF,,,,,,,,1.5504,,,,,,,,,,,,,,,,,,,,,,6103654d81de79ade4dba583,610369b661c29bdef29b06c4,2021-07-29_22h54.37.254,Simcolourproject_2stim_asymm_v5,2020.2.10,MacIntel,60,61025ae37ef11b136ea224fe,,,,,,,,,1289,24.44921875,-37.8671875,1,0,0,response3disk,,4,21.57421875,-9.82421875,1,0,0,rectangle,21.57421875,-9.82421875,1,0,0,21.57421875,-9.82421875,1,0,0,1,86,246,46,1,,,,,,,,
