key_resp.keys,key_resp.rt,key_resp_14.keys,key_resp_14.rt,key_resp_15.keys,key_resp_15.rt,key_resp_17.keys,key_resp_17.rt,key_resp_9.keys,key_resp_9.rt,key_resp_10.keys,key_resp_10.rt,practice_comparison,Ecc,mouse_5.x,mouse_5.y,mouse_5.leftButton,mouse_5.midButton,mouse_5.rightButton,mouse_5.clicked_name,pracsimilarity,response_time,mouse_10.x,mouse_10.y,mouse_10.leftButton,mouse_10.midButton,mouse_10.rightButton,mouse_10.clicked_name,mouse_7.x,mouse_7.y,mouse_7.leftButton,mouse_7.midButton,mouse_7.rightButton,mouse_6.x,mouse_6.y,mouse_6.leftButton,mouse_6.midButton,mouse_6.rightButton,duringprac.thisRepN,duringprac.thisTrialN,duringprac.thisN,duringprac.thisIndex,duringprac.ran,participant,session,date,expName,psychopyVersion,OS,frameRate,study_id,mouse_7.clicked_name,catchpracsimilarity,catch_response_time,catchnumberprac,catchtrialorderprac,mouse_6.clicked_name,key_resp_22.keys,key_resp_22.rt,realcomparison,mouse.x,mouse.y,mouse.leftButton,mouse.midButton,mouse.rightButton,mouse.clicked_name,Colour2,similarity,mouse_2.x,mouse_2.y,mouse_2.leftButton,mouse_2.midButton,mouse_2.rightButton,mouse_2.clicked_name,mouse_3.x,mouse_3.y,mouse_3.leftButton,mouse_3.midButton,mouse_3.rightButton,mouse_3.clicked_name,catchornah,catchsimilarity,catchnumber,catchtrialorder,catchRT,mouse_11.x,mouse_11.y,mouse_11.leftButton,mouse_11.midButton,mouse_11.rightButton,mouse_11.clicked_name,trials_2.thisRepN,trials_2.thisTrialN,trials_2.thisN,trials_2.thisIndex,trials_2.ran,Colour1
space,1.8997,space,20.3828,space,40.859,space,13.3804,space,6.3163,space,7.6947,57,PF,-51,-130,1,0,0,response5disk_5,3,8.272,-2,2,1,0,0,rectangle_8,-2,2,1,0,0,-2,2,1,0,0,0,0,0,2,1,610368480b2860d0f7e744be,61036eccd34988d5298eee7d,2021-07-29_23h16.07.578,Simcolourproject_2stim_asymm_v5,2020.2.10,Win32,60,61025ae37ef11b136ea224fe,,,,,,,,,,,,,,,,,,,,,,,,,,,,,,,,,,,,,,,,,,,,,,
,,,,,,,,,,,,40,FF,-117,-51,1,0,0,response5disk_5,2,8.3781,2,3,1,0,0,rectangle_8,54,133,1,0,0,-4,-11,1,0,0,0,1,1,3,1,610368480b2860d0f7e744be,61036eccd34988d5298eee7d,2021-07-29_23h16.07.578,Simcolourproject_2stim_asymm_v5,2020.2.10,Win32,60,61025ae37ef11b136ea224fe,response1disk_7,7,2.6726,7,"[2,5]",rectangle_4,,,,,,,,,,,,,,,,,,,,,,,,,,,,,,,,,,,,,,,,
,,,,,,,,,,,,100,FF,58,-128,1,0,0,response3disk_5,4,2.3006,-7,3,1,0,0,rectangle_8,-7,3,1,0,0,-7,3,1,0,0,0,2,2,5,1,610368480b2860d0f7e744be,61036eccd34988d5298eee7d,2021-07-29_23h16.07.578,Simcolourproject_2stim_asymm_v5,2020.2.10,Win32,60,61025ae37ef11b136ea224fe,,,,,,,,,,,,,,,,,,,,,,,,,,,,,,,,,,,,,,,,,,,,,,
,,,,,,,,,,,,137,PF,-60,106,1,0,0,response7disk_5,0,3.2337,2,7,1,0,0,rectangle_8,2,7,1,0,0,2,7,1,0,0,0,3,3,4,1,610368480b2860d0f7e744be,61036eccd34988d5298eee7d,2021-07-29_23h16.07.578,Simcolourproject_2stim_asymm_v5,2020.2.10,Win32,60,61025ae37ef11b136ea224fe,,,,,,,,,,,,,,,,,,,,,,,,,,,,,,,,,,,,,,,,,,,,,,
,,,,,,,,,,,,39,FF,101,-40,1,0,0,response3disk_5,5,1.5001,2,1,1,0,0,rectangle_8,62,131,1,0,0,-1,3,1,0,0,0,4,4,0,1,610368480b2860d0f7e744be,61036eccd34988d5298eee7d,2021-07-29_23h16.07.578,Simcolourproject_2stim_asymm_v5,2020.2.10,Win32,60,61025ae37ef11b136ea224fe,response1disk_7,7,2.4329,7,"[2,5]",rectangle_4,,,,,,,,,,,,,,,,,,,,,,,,,,,,,,,,,,,,,,,,
,,,,,,,,,,,,147,PF,70,-129,1,0,0,response3disk_5,4,2.5168,-10,13,1,0,0,rectangle_8,-10,13,1,0,0,-10,13,1,0,0,0,5,5,1,1,610368480b2860d0f7e744be,61036eccd34988d5298eee7d,2021-07-29_23h16.07.578,Simcolourproject_2stim_asymm_v5,2020.2.10,Win32,60,61025ae37ef11b136ea224fe,,,,,,,,,,,,,,,,,,,,,,,,,,,,,,,,,,,,,,,,,,,,,,
,,,,,,,,,,,,111,PF,-111,-57,1,0,0,response5disk_5,2,1.4666,-4,1,1,0,0,rectangle_8,-4,1,1,0,0,-4,1,1,0,0,0,6,6,6,1,610368480b2860d0f7e744be,61036eccd34988d5298eee7d,2021-07-29_23h16.07.578,Simcolourproject_2stim_asymm_v5,2020.2.10,Win32,60,61025ae37ef11b136ea224fe,,,,,,,,,,,,,,,,,,,,,,,,,,,,,,,,,,,,,,,,,,,,,,
,,,,,,,,,,,,,FF,,,,,,,,3.7194,,,,,,,,,,,,,,,,,,,,,,610368480b2860d0f7e744be,61036eccd34988d5298eee7d,2021-07-29_23h16.07.578,Simcolourproject_2stim_asymm_v5,2020.2.10,Win32,60,61025ae37ef11b136ea224fe,,,,,,,space,5.1973,1931,-43,115,1,0,0,response7disk,,0,6,-10,1,0,0,rectangle,59,-143,1,0,0,response3disk_3,TRUE,4,4,"[109,1,17,45,277,55,306,253,95,95,30,215,110,123,19,211,17,175,244,302]",1.9515,-7,5,1,0,0,rectangle,0,0,0,153,1,
,,,,,,,,,,,,,FF,,,,,,,,3.9836,,,,,,,,,,,,,,,,,,,,,,610368480b2860d0f7e744be,61036eccd34988d5298eee7d,2021-07-29_23h16.07.578,Simcolourproject_2stim_asymm_v5,2020.2.10,Win32,60,61025ae37ef11b136ea224fe,,,,,,,,,1729,-58,-138,1,0,0,response5disk,,3,11,15,1,0,0,rectangle,11,15,1,0,0,,,,,,,11,15,1,0,0,,0,1,1,32,1,
,,,,,,,,,,,,,FF,,,,,,,,1.65,,,,,,,,,,,,,,,,,,,,,,610368480b2860d0f7e744be,61036eccd34988d5298eee7d,2021-07-29_23h16.07.578,Simcolourproject_2stim_asymm_v5,2020.2.10,Win32,60,61025ae37ef11b136ea224fe,,,,,,,,,2899,114,-66,1,0,0,response3disk,,5,-10,0,1,0,0,rectangle,-10,0,1,0,0,,,,,,,-10,0,1,0,0,,0,2,2,57,1,
,,,,,,,,,,,,,FF,,,,,,,,2.0335,,,,,,,,,,,,,,,,,,,,,,610368480b2860d0f7e744be,61036eccd34988d5298eee7d,2021-07-29_23h16.07.578,Simcolourproject_2stim_asymm_v5,2020.2.10,Win32,60,61025ae37ef11b136ea224fe,,,,,,,,,3648,-62,104,1,0,0,response7disk,,0,4,3,1,0,0,rectangle,4,3,1,0,0,,,,,,,4,3,1,0,0,,0,3,3,128,1,
,,,,,,,,,,,,,FF,,,,,,,,1.5163,,,,,,,,,,,,,,,,,,,,,,610368480b2860d0f7e744be,61036eccd34988d5298eee7d,2021-07-29_23h16.07.578,Simcolourproject_2stim_asymm_v5,2020.2.10,Win32,60,61025ae37ef11b136ea224fe,,,,,,,,,2228,138,66,1,0,0,response1disk,,6,-11,-1,1,0,0,rectangle,-11,-1,1,0,0,,,,,,,-11,-1,1,0,0,,0,4,4,62,1,
,,,,,,,,,,,,,FF,,,,,,,,1.6003,,,,,,,,,,,,,,,,,,,,,,610368480b2860d0f7e744be,61036eccd34988d5298eee7d,2021-07-29_23h16.07.578,Simcolourproject_2stim_asymm_v5,2020.2.10,Win32,60,61025ae37ef11b136ea224fe,,,,,,,,,1336,-114,54,1,0,0,response7disk,,1,-8,6,1,0,0,rectangle,-8,6,1,0,0,,,,,,,-8,6,1,0,0,,0,5,5,104,1,
,,,,,,,,,,,,,FF,,,,,,,,3.4835,,,,,,,,,,,,,,,,,,,,,,610368480b2860d0f7e744be,61036eccd34988d5298eee7d,2021-07-29_23h16.07.578,Simcolourproject_2stim_asymm_v5,2020.2.10,Win32,60,61025ae37ef11b136ea224fe,,,,,,,,,277,139,52,1,0,0,response1disk,,6,-9,-11,1,0,0,rectangle,-9,-11,1,0,0,,,,,,,-9,-11,1,0,0,,0,6,6,21,1,
,,,,,,,,,,,,,FF,,,,,,,,1.2334,,,,,,,,,,,,,,,,,,,,,,610368480b2860d0f7e744be,61036eccd34988d5298eee7d,2021-07-29_23h16.07.578,Simcolourproject_2stim_asymm_v5,2020.2.10,Win32,60,61025ae37ef11b136ea224fe,,,,,,,,,3162,106,-60,1,0,0,response3disk,,5,3,-4,1,0,0,rectangle,3,-4,1,0,0,,,,,,,3,-4,1,0,0,,0,7,7,105,1,
,,,,,,,,,,,,,FF,,,,,,,,1.3327,,,,,,,,,,,,,,,,,,,,,,610368480b2860d0f7e744be,61036eccd34988d5298eee7d,2021-07-29_23h16.07.578,Simcolourproject_2stim_asymm_v5,2020.2.10,Win32,60,61025ae37ef11b136ea224fe,,,,,,,,,3958,-53,-123,1,0,0,response5disk,,3,-25,11,1,0,0,rectangle,-25,11,1,0,0,,,,,,,-25,11,1,0,0,,0,8,8,142,1,
,,,,,,,,,,,,,FF,,,,,,,,1.9003,,,,,,,,,,,,,,,,,,,,,,610368480b2860d0f7e744be,61036eccd34988d5298eee7d,2021-07-29_23h16.07.578,Simcolourproject_2stim_asymm_v5,2020.2.10,Win32,60,61025ae37ef11b136ea224fe,,,,,,,,,1304,41,-133,1,0,0,response3disk,,4,-3,4,1,0,0,rectangle,-3,4,1,0,0,,,,,,,-3,4,1,0,0,,0,9,9,147,1,
,,,,,,,,,,,,,FF,,,,,,,,1.5335,,,,,,,,,,,,,,,,,,,,,,610368480b2860d0f7e744be,61036eccd34988d5298eee7d,2021-07-29_23h16.07.578,Simcolourproject_2stim_asymm_v5,2020.2.10,Win32,60,61025ae37ef11b136ea224fe,,,,,,,,,639,45,-137,1,0,0,response3disk,,4,-5,18,1,0,0,rectangle,-5,18,1,0,0,,,,,,,-5,18,1,0,0,,0,10,10,61,1,
,,,,,,,,,,,,,FF,,,,,,,,1.5831,,,,,,,,,,,,,,,,,,,,,,610368480b2860d0f7e744be,61036eccd34988d5298eee7d,2021-07-29_23h16.07.578,Simcolourproject_2stim_asymm_v5,2020.2.10,Win32,60,61025ae37ef11b136ea224fe,,,,,,,,,2157,-118,50,1,0,0,response7disk,,1,14,6,1,0,0,rectangle,14,6,1,0,0,,,,,,,14,6,1,0,0,,0,11,11,59,1,
,,,,,,,,,,,,,FF,,,,,,,,9.9169,,,,,,,,,,,,,,,,,,,,,,610368480b2860d0f7e744be,61036eccd34988d5298eee7d,2021-07-29_23h16.07.578,Simcolourproject_2stim_asymm_v5,2020.2.10,Win32,60,61025ae37ef11b136ea224fe,,,,,,,,,2212,64,101,1,0,0,response1disk,,7,5,6,1,0,0,rectangle,5,6,1,0,0,,,,,,,5,6,1,0,0,,0,12,12,70,1,
,,,,,,,,,,,,,FF,,,,,,,,3.3669,,,,,,,,,,,,,,,,,,,,,,610368480b2860d0f7e744be,61036eccd34988d5298eee7d,2021-07-29_23h16.07.578,Simcolourproject_2stim_asymm_v5,2020.2.10,Win32,60,61025ae37ef11b136ea224fe,,,,,,,,,3122,55,-144,1,0,0,response3disk,,4,-7,5,1,0,0,rectangle,-7,5,1,0,0,,,,,,,-7,5,1,0,0,,0,13,13,125,1,
,,,,,,,,,,,,,FF,,,,,,,,2.567,,,,,,,,,,,,,,,,,,,,,,610368480b2860d0f7e744be,61036eccd34988d5298eee7d,2021-07-29_23h16.07.578,Simcolourproject_2stim_asymm_v5,2020.2.10,Win32,60,61025ae37ef11b136ea224fe,,,,,,,,,1603,-51,115,1,0,0,response7disk,,0,-13,4,1,0,0,rectangle,-13,4,1,0,0,,,,,,,-13,4,1,0,0,,0,14,14,114,1,
,,,,,,,,,,,,,FF,,,,,,,,1.4835,,,,,,,,,,,,,,,,,,,,,,610368480b2860d0f7e744be,61036eccd34988d5298eee7d,2021-07-29_23h16.07.578,Simcolourproject_2stim_asymm_v5,2020.2.10,Win32,60,61025ae37ef11b136ea224fe,,,,,,,,,4250,-120,-62,1,0,0,response5disk,,2,-1,2,1,0,0,rectangle,-1,2,1,0,0,,,,,,,-1,2,1,0,0,,0,15,15,109,1,
,,,,,,,,,,,,,FF,,,,,,,,1.6502,,,,,,,,,,,,,,,,,,,,,,610368480b2860d0f7e744be,61036eccd34988d5298eee7d,2021-07-29_23h16.07.578,Simcolourproject_2stim_asymm_v5,2020.2.10,Win32,60,61025ae37ef11b136ea224fe,,,,,,,,,1370,-104,59,1,0,0,response7disk,,1,-8,5,1,0,0,rectangle,-126,39,1,0,0,response7disk_3,TRUE,1,1,"[109,1,17,45,277,55,306,253,95,95,30,215,110,123,19,211,17,175,244,302]",1.6666,8,-6,1,0,0,rectangle,0,16,16,139,1,
,,,,,,,,,,,,,FF,,,,,,,,2.017,,,,,,,,,,,,,,,,,,,,,,610368480b2860d0f7e744be,61036eccd34988d5298eee7d,2021-07-29_23h16.07.578,Simcolourproject_2stim_asymm_v5,2020.2.10,Win32,60,61025ae37ef11b136ea224fe,,,,,,,,,4222,-51,95,1,0,0,response7disk,,0,-15,10,1,0,0,rectangle,-15,10,1,0,0,,,,,,,-15,10,1,0,0,,0,17,17,91,1,
,,,,,,,,,,,,,FF,,,,,,,,1.4168,,,,,,,,,,,,,,,,,,,,,,610368480b2860d0f7e744be,61036eccd34988d5298eee7d,2021-07-29_23h16.07.578,Simcolourproject_2stim_asymm_v5,2020.2.10,Win32,60,61025ae37ef11b136ea224fe,,,,,,,,,1132,-139,-67,1,0,0,response5disk,,2,-14,4,1,0,0,rectangle,47,112,1,0,0,response1disk_3,TRUE,7,7,"[109,1,17,45,277,55,306,253,95,95,30,215,110,123,19,211,17,175,244,302]",1.5664,14,4,1,0,0,rectangle,0,18,18,80,1,
,,,,,,,,,,,,,FF,,,,,,,,1.3668,,,,,,,,,,,,,,,,,,,,,,610368480b2860d0f7e744be,61036eccd34988d5298eee7d,2021-07-29_23h16.07.578,Simcolourproject_2stim_asymm_v5,2020.2.10,Win32,60,61025ae37ef11b136ea224fe,,,,,,,,,2096,-79,-132,1,0,0,response5disk,,3,11,9,1,0,0,rectangle,11,9,1,0,0,,,,,,,11,9,1,0,0,,0,19,19,6,1,
,,,,,,,,,,,,,FF,,,,,,,,0.7002,,,,,,,,,,,,,,,,,,,,,,610368480b2860d0f7e744be,61036eccd34988d5298eee7d,2021-07-29_23h16.07.578,Simcolourproject_2stim_asymm_v5,2020.2.10,Win32,60,61025ae37ef11b136ea224fe,,,,,,,,,3336,-26,129,1,0,0,response7disk,,0,-12,-6,1,0,0,rectangle,-12,-6,1,0,0,,,,,,,-12,-6,1,0,0,,0,20,20,122,1,
,,,,,,,,,,,,,FF,,,,,,,,3.0504,,,,,,,,,,,,,,,,,,,,,,610368480b2860d0f7e744be,61036eccd34988d5298eee7d,2021-07-29_23h16.07.578,Simcolourproject_2stim_asymm_v5,2020.2.10,Win32,60,61025ae37ef11b136ea224fe,,,,,,,,,3165,-53,-147,1,0,0,response5disk,,3,-10,4,1,0,0,rectangle,-10,4,1,0,0,,,,,,,-10,4,1,0,0,,0,21,21,68,1,
,,,,,,,,,,,,,FF,,,,,,,,1.1501,,,,,,,,,,,,,,,,,,,,,,610368480b2860d0f7e744be,61036eccd34988d5298eee7d,2021-07-29_23h16.07.578,Simcolourproject_2stim_asymm_v5,2020.2.10,Win32,60,61025ae37ef11b136ea224fe,,,,,,,,,2913,149,51,1,0,0,response1disk,,6,-1,3,1,0,0,rectangle,-1,3,1,0,0,,,,,,,-1,3,1,0,0,,0,22,22,159,1,
,,,,,,,,,,,,,FF,,,,,,,,1.4336,,,,,,,,,,,,,,,,,,,,,,610368480b2860d0f7e744be,61036eccd34988d5298eee7d,2021-07-29_23h16.07.578,Simcolourproject_2stim_asymm_v5,2020.2.10,Win32,60,61025ae37ef11b136ea224fe,,,,,,,,,3080,140,37,1,0,0,response1disk,,6,9,-12,1,0,0,rectangle,9,-12,1,0,0,,,,,,,9,-12,1,0,0,,0,23,23,119,1,
,,,,,,,,,,,,,FF,,,,,,,,0.7668,,,,,,,,,,,,,,,,,,,,,,610368480b2860d0f7e744be,61036eccd34988d5298eee7d,2021-07-29_23h16.07.578,Simcolourproject_2stim_asymm_v5,2020.2.10,Win32,60,61025ae37ef11b136ea224fe,,,,,,,,,2608,-55,109,1,0,0,response7disk,,0,-11,-5,1,0,0,rectangle,-11,-5,1,0,0,,,,,,,-11,-5,1,0,0,,0,24,24,78,1,
,,,,,,,,,,,,,FF,,,,,,,,4.4502,,,,,,,,,,,,,,,,,,,,,,610368480b2860d0f7e744be,61036eccd34988d5298eee7d,2021-07-29_23h16.07.578,Simcolourproject_2stim_asymm_v5,2020.2.10,Win32,60,61025ae37ef11b136ea224fe,,,,,,,,,757,-55,-152,1,0,0,response5disk,,3,4,-2,1,0,0,rectangle,4,-2,1,0,0,,,,,,,4,-2,1,0,0,,0,25,25,13,1,
,,,,,,,,,,,,,FF,,,,,,,,2.2668,,,,,,,,,,,,,,,,,,,,,,610368480b2860d0f7e744be,61036eccd34988d5298eee7d,2021-07-29_23h16.07.578,Simcolourproject_2stim_asymm_v5,2020.2.10,Win32,60,61025ae37ef11b136ea224fe,,,,,,,,,4333,64,140,1,0,0,response1disk,,7,5,12,1,0,0,rectangle,5,12,1,0,0,,,,,,,5,12,1,0,0,,0,26,26,52,1,
,,,,,,,,,,,,,FF,,,,,,,,1.1503,,,,,,,,,,,,,,,,,,,,,,610368480b2860d0f7e744be,61036eccd34988d5298eee7d,2021-07-29_23h16.07.578,Simcolourproject_2stim_asymm_v5,2020.2.10,Win32,60,61025ae37ef11b136ea224fe,,,,,,,,,1783,59,-139,1,0,0,response3disk,,4,-7,4,1,0,0,rectangle,-7,4,1,0,0,,,,,,,-7,4,1,0,0,,0,27,27,132,1,
,,,,,,,,,,,,,FF,,,,,,,,0.9505,,,,,,,,,,,,,,,,,,,,,,610368480b2860d0f7e744be,61036eccd34988d5298eee7d,2021-07-29_23h16.07.578,Simcolourproject_2stim_asymm_v5,2020.2.10,Win32,60,61025ae37ef11b136ea224fe,,,,,,,,,1215,-142,58,1,0,0,response7disk,,1,17,-2,1,0,0,rectangle,17,-2,1,0,0,,,,,,,17,-2,1,0,0,,0,28,28,49,1,
,,,,,,,,,,,,,FF,,,,,,,,1.3167,,,,,,,,,,,,,,,,,,,,,,610368480b2860d0f7e744be,61036eccd34988d5298eee7d,2021-07-29_23h16.07.578,Simcolourproject_2stim_asymm_v5,2020.2.10,Win32,60,61025ae37ef11b136ea224fe,,,,,,,,,1837,61,-143,1,0,0,response3disk,,4,-13,6,1,0,0,rectangle,-121,-55,1,0,0,response5disk_3,TRUE,2,2,"[109,1,17,45,277,55,306,253,95,95,30,215,110,123,19,211,17,175,244,302]",1.4836,7,-1,1,0,0,rectangle,0,29,29,144,1,
,,,,,,,,,,,,,FF,,,,,,,,2.1004,,,,,,,,,,,,,,,,,,,,,,610368480b2860d0f7e744be,61036eccd34988d5298eee7d,2021-07-29_23h16.07.578,Simcolourproject_2stim_asymm_v5,2020.2.10,Win32,60,61025ae37ef11b136ea224fe,,,,,,,,,1688,-61,-144,1,0,0,response5disk,,3,3,4,1,0,0,rectangle,3,4,1,0,0,,,,,,,3,4,1,0,0,,0,30,30,82,1,
,,,,,,,,,,,,,FF,,,,,,,,2.7503,,,,,,,,,,,,,,,,,,,,,,610368480b2860d0f7e744be,61036eccd34988d5298eee7d,2021-07-29_23h16.07.578,Simcolourproject_2stim_asymm_v5,2020.2.10,Win32,60,61025ae37ef11b136ea224fe,,,,,,,,,3615,46,-139,1,0,0,response3disk,,4,3,8,1,0,0,rectangle,3,8,1,0,0,,,,,,,3,8,1,0,0,,0,31,31,67,1,
,,,,,,,,,,,,,FF,,,,,,,,1.8835,,,,,,,,,,,,,,,,,,,,,,610368480b2860d0f7e744be,61036eccd34988d5298eee7d,2021-07-29_23h16.07.578,Simcolourproject_2stim_asymm_v5,2020.2.10,Win32,60,61025ae37ef11b136ea224fe,,,,,,,,,1057,-134,-80,1,0,0,response5disk,,2,-7,-1,1,0,0,rectangle,-7,-1,1,0,0,,,,,,,-7,-1,1,0,0,,0,32,32,65,1,
,,,,,,,,,,,,,FF,,,,,,,,1.9332,,,,,,,,,,,,,,,,,,,,,,610368480b2860d0f7e744be,61036eccd34988d5298eee7d,2021-07-29_23h16.07.578,Simcolourproject_2stim_asymm_v5,2020.2.10,Win32,60,61025ae37ef11b136ea224fe,,,,,,,,,3367,150,37,1,0,0,response1disk,,6,2,9,1,0,0,rectangle,2,9,1,0,0,,,,,,,2,9,1,0,0,,0,33,33,127,1,
,,,,,,,,,,,,,FF,,,,,,,,0.6669,,,,,,,,,,,,,,,,,,,,,,610368480b2860d0f7e744be,61036eccd34988d5298eee7d,2021-07-29_23h16.07.578,Simcolourproject_2stim_asymm_v5,2020.2.10,Win32,60,61025ae37ef11b136ea224fe,,,,,,,,,486,51,126,1,0,0,response1disk,,7,5,-1,1,0,0,rectangle,5,-1,1,0,0,,,,,,,5,-1,1,0,0,,0,34,34,152,1,
,,,,,,,,,,,,,FF,,,,,,,,0.8834,,,,,,,,,,,,,,,,,,,,,,610368480b2860d0f7e744be,61036eccd34988d5298eee7d,2021-07-29_23h16.07.578,Simcolourproject_2stim_asymm_v5,2020.2.10,Win32,60,61025ae37ef11b136ea224fe,,,,,,,,,914,51,115,1,0,0,response1disk,,7,3,-12,1,0,0,rectangle,3,-12,1,0,0,,,,,,,3,-12,1,0,0,,0,35,35,86,1,
,,,,,,,,,,,,,FF,,,,,,,,0.8336,,,,,,,,,,,,,,,,,,,,,,610368480b2860d0f7e744be,61036eccd34988d5298eee7d,2021-07-29_23h16.07.578,Simcolourproject_2stim_asymm_v5,2020.2.10,Win32,60,61025ae37ef11b136ea224fe,,,,,,,,,4191,49,122,1,0,0,response1disk,,7,13,-4,1,0,0,rectangle,13,-4,1,0,0,,,,,,,13,-4,1,0,0,,0,36,36,50,1,
,,,,,,,,,,,,,FF,,,,,,,,2.0339,,,,,,,,,,,,,,,,,,,,,,610368480b2860d0f7e744be,61036eccd34988d5298eee7d,2021-07-29_23h16.07.578,Simcolourproject_2stim_asymm_v5,2020.2.10,Win32,60,61025ae37ef11b136ea224fe,,,,,,,,,1679,72,-125,1,0,0,response3disk,,4,2,6,1,0,0,rectangle,2,6,1,0,0,,,,,,,2,6,1,0,0,,0,37,37,131,1,
,,,,,,,,,,,,,FF,,,,,,,,1.5836,,,,,,,,,,,,,,,,,,,,,,610368480b2860d0f7e744be,61036eccd34988d5298eee7d,2021-07-29_23h16.07.578,Simcolourproject_2stim_asymm_v5,2020.2.10,Win32,60,61025ae37ef11b136ea224fe,,,,,,,,,2623,59,130,1,0,0,response1disk,,7,14,-5,1,0,0,rectangle,14,-5,1,0,0,,,,,,,14,-5,1,0,0,,0,38,38,136,1,
,,,,,,,,,,,,,FF,,,,,,,,1.6168,,,,,,,,,,,,,,,,,,,,,,610368480b2860d0f7e744be,61036eccd34988d5298eee7d,2021-07-29_23h16.07.578,Simcolourproject_2stim_asymm_v5,2020.2.10,Win32,60,61025ae37ef11b136ea224fe,,,,,,,,,1674,-43,-140,1,0,0,response5disk,,3,7,12,1,0,0,rectangle,7,12,1,0,0,,,,,,,7,12,1,0,0,,0,39,39,58,1,
,,,,,,,,,,,,,FF,,,,,,,,3.5169,,,,,,,,,,,,,,,,,,,,,,610368480b2860d0f7e744be,61036eccd34988d5298eee7d,2021-07-29_23h16.07.578,Simcolourproject_2stim_asymm_v5,2020.2.10,Win32,60,61025ae37ef11b136ea224fe,,,,,,,,,4130,62,-131,1,0,0,response3disk,,4,6,-6,1,0,0,rectangle,6,-6,1,0,0,,,,,,,6,-6,1,0,0,,0,40,40,134,1,
,,,,,,,,,,,,,FF,,,,,,,,1.3168,,,,,,,,,,,,,,,,,,,,,,610368480b2860d0f7e744be,61036eccd34988d5298eee7d,2021-07-29_23h16.07.578,Simcolourproject_2stim_asymm_v5,2020.2.10,Win32,60,61025ae37ef11b136ea224fe,,,,,,,,,2992,50,133,1,0,0,response1disk,,7,-8,-5,1,0,0,rectangle,-8,-5,1,0,0,,,,,,,-8,-5,1,0,0,,0,41,41,14,1,
,,,,,,,,,,,,,FF,,,,,,,,2.7502,,,,,,,,,,,,,,,,,,,,,,610368480b2860d0f7e744be,61036eccd34988d5298eee7d,2021-07-29_23h16.07.578,Simcolourproject_2stim_asymm_v5,2020.2.10,Win32,60,61025ae37ef11b136ea224fe,,,,,,,,,3691,113,-66,1,0,0,response3disk,,5,1,0,1,0,0,rectangle,1,0,1,0,0,,,,,,,1,0,1,0,0,,0,42,42,8,1,
,,,,,,,,,,,,,FF,,,,,,,,2.7169,,,,,,,,,,,,,,,,,,,,,,610368480b2860d0f7e744be,61036eccd34988d5298eee7d,2021-07-29_23h16.07.578,Simcolourproject_2stim_asymm_v5,2020.2.10,Win32,60,61025ae37ef11b136ea224fe,,,,,,,,,3768,150,49,1,0,0,response1disk,,6,0,-4,1,0,0,rectangle,0,-4,1,0,0,,,,,,,0,-4,1,0,0,,0,43,43,71,1,
,,,,,,,,,,,,,FF,,,,,,,,1.6334,,,,,,,,,,,,,,,,,,,,,,610368480b2860d0f7e744be,61036eccd34988d5298eee7d,2021-07-29_23h16.07.578,Simcolourproject_2stim_asymm_v5,2020.2.10,Win32,60,61025ae37ef11b136ea224fe,,,,,,,,,795,128,42,1,0,0,response1disk,,6,14,4,1,0,0,rectangle,-42,118,1,0,0,response7disk_3,TRUE,0,0,"[109,1,17,45,277,55,306,253,95,95,30,215,110,123,19,211,17,175,244,302]",1.7008,-7,4,1,0,0,rectangle,0,44,44,9,1,
,,,,,,,,,,,,,FF,,,,,,,,3.7335,,,,,,,,,,,,,,,,,,,,,,610368480b2860d0f7e744be,61036eccd34988d5298eee7d,2021-07-29_23h16.07.578,Simcolourproject_2stim_asymm_v5,2020.2.10,Win32,60,61025ae37ef11b136ea224fe,,,,,,,,,4186,52,-136,1,0,0,response3disk,,4,3,-5,1,0,0,rectangle,3,-5,1,0,0,,,,,,,3,-5,1,0,0,,0,45,45,151,1,
,,,,,,,,,,,,,FF,,,,,,,,1.9168,,,,,,,,,,,,,,,,,,,,,,610368480b2860d0f7e744be,61036eccd34988d5298eee7d,2021-07-29_23h16.07.578,Simcolourproject_2stim_asymm_v5,2020.2.10,Win32,60,61025ae37ef11b136ea224fe,,,,,,,,,3620,136,62,1,0,0,response1disk,,6,16,-4,1,0,0,rectangle,16,-4,1,0,0,,,,,,,16,-4,1,0,0,,0,46,46,25,1,
,,,,,,,,,,,,,FF,,,,,,,,5.4002,,,,,,,,,,,,,,,,,,,,,,610368480b2860d0f7e744be,61036eccd34988d5298eee7d,2021-07-29_23h16.07.578,Simcolourproject_2stim_asymm_v5,2020.2.10,Win32,60,61025ae37ef11b136ea224fe,,,,,,,,,711,126,44,1,0,0,response1disk,,6,0,-4,1,0,0,rectangle,0,-4,1,0,0,,,,,,,0,-4,1,0,0,,0,47,47,87,1,
,,,,,,,,,,,,,FF,,,,,,,,1.1,,,,,,,,,,,,,,,,,,,,,,610368480b2860d0f7e744be,61036eccd34988d5298eee7d,2021-07-29_23h16.07.578,Simcolourproject_2stim_asymm_v5,2020.2.10,Win32,60,61025ae37ef11b136ea224fe,,,,,,,,,1036,73,-141,1,0,0,response3disk,,4,6,5,1,0,0,rectangle,6,5,1,0,0,,,,,,,6,5,1,0,0,,0,48,48,113,1,
,,,,,,,,,,,,,FF,,,,,,,,0.7667,,,,,,,,,,,,,,,,,,,,,,610368480b2860d0f7e744be,61036eccd34988d5298eee7d,2021-07-29_23h16.07.578,Simcolourproject_2stim_asymm_v5,2020.2.10,Win32,60,61025ae37ef11b136ea224fe,,,,,,,,,975,-52,104,1,0,0,response7disk,,0,3,-4,1,0,0,rectangle,3,-4,1,0,0,,,,,,,3,-4,1,0,0,,0,49,49,85,1,
,,,,,,,,,,,,,FF,,,,,,,,1.6169,,,,,,,,,,,,,,,,,,,,,,610368480b2860d0f7e744be,61036eccd34988d5298eee7d,2021-07-29_23h16.07.578,Simcolourproject_2stim_asymm_v5,2020.2.10,Win32,60,61025ae37ef11b136ea224fe,,,,,,,,,764,41,121,1,0,0,response1disk,,7,4,-13,1,0,0,rectangle,4,-13,1,0,0,,,,,,,4,-13,1,0,0,,0,50,50,93,1,
,,,,,,,,,,,,,FF,,,,,,,,1.1829,,,,,,,,,,,,,,,,,,,,,,610368480b2860d0f7e744be,61036eccd34988d5298eee7d,2021-07-29_23h16.07.578,Simcolourproject_2stim_asymm_v5,2020.2.10,Win32,60,61025ae37ef11b136ea224fe,,,,,,,,,414,132,58,1,0,0,response1disk,,6,9,5,1,0,0,rectangle,9,5,1,0,0,,,,,,,9,5,1,0,0,,0,51,51,74,1,
,,,,,,,,,,,,,FF,,,,,,,,2.8001,,,,,,,,,,,,,,,,,,,,,,610368480b2860d0f7e744be,61036eccd34988d5298eee7d,2021-07-29_23h16.07.578,Simcolourproject_2stim_asymm_v5,2020.2.10,Win32,60,61025ae37ef11b136ea224fe,,,,,,,,,479,124,72,1,0,0,response1disk,,6,-13,2,1,0,0,rectangle,-13,2,1,0,0,,,,,,,-13,2,1,0,0,,0,52,52,84,1,
,,,,,,,,,,,,,FF,,,,,,,,1.0168,,,,,,,,,,,,,,,,,,,,,,610368480b2860d0f7e744be,61036eccd34988d5298eee7d,2021-07-29_23h16.07.578,Simcolourproject_2stim_asymm_v5,2020.2.10,Win32,60,61025ae37ef11b136ea224fe,,,,,,,,,2420,-97,52,1,0,0,response7disk,,1,-3,6,1,0,0,rectangle,-3,6,1,0,0,,,,,,,-3,6,1,0,0,,0,53,53,98,1,
,,,,,,,,,,,,,FF,,,,,,,,1.1336,,,,,,,,,,,,,,,,,,,,,,610368480b2860d0f7e744be,61036eccd34988d5298eee7d,2021-07-29_23h16.07.578,Simcolourproject_2stim_asymm_v5,2020.2.10,Win32,60,61025ae37ef11b136ea224fe,,,,,,,,,733,-58,-140,1,0,0,response5disk,,3,14,18,1,0,0,rectangle,27,-123,1,0,0,response3disk_3,TRUE,4,4,"[109,1,17,45,277,55,306,253,95,95,30,215,110,123,19,211,17,175,244,302]",2.4165,-7,0,1,0,0,rectangle,0,54,54,64,1,
,,,,,,,,,,,,,FF,,,,,,,,1.7502,,,,,,,,,,,,,,,,,,,,,,610368480b2860d0f7e744be,61036eccd34988d5298eee7d,2021-07-29_23h16.07.578,Simcolourproject_2stim_asymm_v5,2020.2.10,Win32,60,61025ae37ef11b136ea224fe,,,,,,,,,3296,-116,46,1,0,0,response7disk,,1,-6,6,1,0,0,rectangle,-6,6,1,0,0,,,,,,,-6,6,1,0,0,,0,55,55,130,1,
,,,,,,,,,,,,,FF,,,,,,,,1.5835,,,,,,,,,,,,,,,,,,,,,,610368480b2860d0f7e744be,61036eccd34988d5298eee7d,2021-07-29_23h16.07.578,Simcolourproject_2stim_asymm_v5,2020.2.10,Win32,60,61025ae37ef11b136ea224fe,,,,,,,,,2219,122,-69,1,0,0,response3disk,,5,8,0,1,0,0,rectangle,8,0,1,0,0,,,,,,,8,0,1,0,0,,0,56,56,79,1,
,,,,,,,,,,,,,FF,,,,,,,,1.3833,,,,,,,,,,,,,,,,,,,,,,610368480b2860d0f7e744be,61036eccd34988d5298eee7d,2021-07-29_23h16.07.578,Simcolourproject_2stim_asymm_v5,2020.2.10,Win32,60,61025ae37ef11b136ea224fe,,,,,,,,,3833,166,38,1,0,0,response1disk,,6,-23,-1,1,0,0,rectangle,-23,-1,1,0,0,,,,,,,-23,-1,1,0,0,,0,57,57,102,1,
,,,,,,,,,,,,,FF,,,,,,,,1.5336,,,,,,,,,,,,,,,,,,,,,,610368480b2860d0f7e744be,61036eccd34988d5298eee7d,2021-07-29_23h16.07.578,Simcolourproject_2stim_asymm_v5,2020.2.10,Win32,60,61025ae37ef11b136ea224fe,,,,,,,,,3369,75,100,1,0,0,response1disk,,7,10,-7,1,0,0,rectangle,10,-7,1,0,0,,,,,,,10,-7,1,0,0,,0,58,58,117,1,
,,,,,,,,,,,,,FF,,,,,,,,1.8836,,,,,,,,,,,,,,,,,,,,,,610368480b2860d0f7e744be,61036eccd34988d5298eee7d,2021-07-29_23h16.07.578,Simcolourproject_2stim_asymm_v5,2020.2.10,Win32,60,61025ae37ef11b136ea224fe,,,,,,,,,363,63,100,1,0,0,response1disk,,7,18,-2,1,0,0,rectangle,18,-2,1,0,0,,,,,,,18,-2,1,0,0,,0,59,59,55,1,
,,,,,,,,,,,,,FF,,,,,,,,0.867,,,,,,,,,,,,,,,,,,,,,,610368480b2860d0f7e744be,61036eccd34988d5298eee7d,2021-07-29_23h16.07.578,Simcolourproject_2stim_asymm_v5,2020.2.10,Win32,60,61025ae37ef11b136ea224fe,,,,,,,,,470,111,-62,1,0,0,response3disk,,5,0,7,1,0,0,rectangle,0,7,1,0,0,,,,,,,0,7,1,0,0,,0,60,60,27,1,
,,,,,,,,,,,,,FF,,,,,,,,1.7999,,,,,,,,,,,,,,,,,,,,,,610368480b2860d0f7e744be,61036eccd34988d5298eee7d,2021-07-29_23h16.07.578,Simcolourproject_2stim_asymm_v5,2020.2.10,Win32,60,61025ae37ef11b136ea224fe,,,,,,,,,2881,69,-131,1,0,0,response3disk,,4,21,5,1,0,0,rectangle,21,5,1,0,0,,,,,,,21,5,1,0,0,,0,61,61,156,1,
,,,,,,,,,,,,,FF,,,,,,,,2.0668,,,,,,,,,,,,,,,,,,,,,,610368480b2860d0f7e744be,61036eccd34988d5298eee7d,2021-07-29_23h16.07.578,Simcolourproject_2stim_asymm_v5,2020.2.10,Win32,60,61025ae37ef11b136ea224fe,,,,,,,,,1921,52,-122,1,0,0,response3disk,,4,-13,21,1,0,0,rectangle,-13,21,1,0,0,,,,,,,-13,21,1,0,0,,0,62,62,11,1,
,,,,,,,,,,,,,FF,,,,,,,,1.5666,,,,,,,,,,,,,,,,,,,,,,610368480b2860d0f7e744be,61036eccd34988d5298eee7d,2021-07-29_23h16.07.578,Simcolourproject_2stim_asymm_v5,2020.2.10,Win32,60,61025ae37ef11b136ea224fe,,,,,,,,,3441,-45,-122,1,0,0,response5disk,,3,-7,15,1,0,0,rectangle,-7,15,1,0,0,,,,,,,-7,15,1,0,0,,0,63,63,3,1,
,,,,,,,,,,,,,FF,,,,,,,,1.0839,,,,,,,,,,,,,,,,,,,,,,610368480b2860d0f7e744be,61036eccd34988d5298eee7d,2021-07-29_23h16.07.578,Simcolourproject_2stim_asymm_v5,2020.2.10,Win32,60,61025ae37ef11b136ea224fe,,,,,,,,,3825,38,-127,1,0,0,response3disk,,4,9,1,1,0,0,rectangle,9,1,1,0,0,,,,,,,9,1,1,0,0,,0,64,64,129,1,
,,,,,,,,,,,,,FF,,,,,,,,1.2841,,,,,,,,,,,,,,,,,,,,,,610368480b2860d0f7e744be,61036eccd34988d5298eee7d,2021-07-29_23h16.07.578,Simcolourproject_2stim_asymm_v5,2020.2.10,Win32,60,61025ae37ef11b136ea224fe,,,,,,,,,4327,-106,-47,1,0,0,response5disk,,2,5,-6,1,0,0,rectangle,5,-6,1,0,0,,,,,,,5,-6,1,0,0,,0,65,65,155,1,
,,,,,,,,,,,,,FF,,,,,,,,1.8501,,,,,,,,,,,,,,,,,,,,,,610368480b2860d0f7e744be,61036eccd34988d5298eee7d,2021-07-29_23h16.07.578,Simcolourproject_2stim_asymm_v5,2020.2.10,Win32,60,61025ae37ef11b136ea224fe,,,,,,,,,654,-52,-154,1,0,0,response5disk,,3,16,-3,1,0,0,rectangle,16,-3,1,0,0,,,,,,,16,-3,1,0,0,,0,66,66,103,1,
,,,,,,,,,,,,,FF,,,,,,,,1.0501,,,,,,,,,,,,,,,,,,,,,,610368480b2860d0f7e744be,61036eccd34988d5298eee7d,2021-07-29_23h16.07.578,Simcolourproject_2stim_asymm_v5,2020.2.10,Win32,60,61025ae37ef11b136ea224fe,,,,,,,,,1320,50,81,1,0,0,response1disk,,7,0,-13,1,0,0,rectangle,0,-13,1,0,0,,,,,,,0,-13,1,0,0,,0,67,67,20,1,
,,,,,,,,,,,,,FF,,,,,,,,1.7666,,,,,,,,,,,,,,,,,,,,,,610368480b2860d0f7e744be,61036eccd34988d5298eee7d,2021-07-29_23h16.07.578,Simcolourproject_2stim_asymm_v5,2020.2.10,Win32,60,61025ae37ef11b136ea224fe,,,,,,,,,1632,66,-125,1,0,0,response3disk,,4,5,-6,1,0,0,rectangle,5,-6,1,0,0,,,,,,,5,-6,1,0,0,,0,68,68,34,1,
,,,,,,,,,,,,,FF,,,,,,,,2.0349,,,,,,,,,,,,,,,,,,,,,,610368480b2860d0f7e744be,61036eccd34988d5298eee7d,2021-07-29_23h16.07.578,Simcolourproject_2stim_asymm_v5,2020.2.10,Win32,60,61025ae37ef11b136ea224fe,,,,,,,,,2285,-56,-131,1,0,0,response5disk,,3,1,-5,1,0,0,rectangle,1,-5,1,0,0,,,,,,,1,-5,1,0,0,,0,69,69,69,1,
,,,,,,,,,,,,,FF,,,,,,,,1.4169,,,,,,,,,,,,,,,,,,,,,,610368480b2860d0f7e744be,61036eccd34988d5298eee7d,2021-07-29_23h16.07.578,Simcolourproject_2stim_asymm_v5,2020.2.10,Win32,60,61025ae37ef11b136ea224fe,,,,,,,,,857,103,-66,1,0,0,response3disk,,5,-5,-9,1,0,0,rectangle,-5,-9,1,0,0,,,,,,,-5,-9,1,0,0,,0,70,70,66,1,
,,,,,,,,,,,,,FF,,,,,,,,1.3337,,,,,,,,,,,,,,,,,,,,,,610368480b2860d0f7e744be,61036eccd34988d5298eee7d,2021-07-29_23h16.07.578,Simcolourproject_2stim_asymm_v5,2020.2.10,Win32,60,61025ae37ef11b136ea224fe,,,,,,,,,481,61,130,1,0,0,response1disk,,7,14,1,1,0,0,rectangle,14,1,1,0,0,,,,,,,14,1,1,0,0,,0,71,71,30,1,
,,,,,,,,,,,,,FF,,,,,,,,1.5667,,,,,,,,,,,,,,,,,,,,,,610368480b2860d0f7e744be,61036eccd34988d5298eee7d,2021-07-29_23h16.07.578,Simcolourproject_2stim_asymm_v5,2020.2.10,Win32,60,61025ae37ef11b136ea224fe,,,,,,,,,1198,71,-132,1,0,0,response3disk,,4,12,7,1,0,0,rectangle,12,7,1,0,0,,,,,,,12,7,1,0,0,,0,72,72,99,1,
,,,,,,,,,,,,,FF,,,,,,,,1.183,,,,,,,,,,,,,,,,,,,,,,610368480b2860d0f7e744be,61036eccd34988d5298eee7d,2021-07-29_23h16.07.578,Simcolourproject_2stim_asymm_v5,2020.2.10,Win32,60,61025ae37ef11b136ea224fe,,,,,,,,,608,119,52,1,0,0,response1disk,,6,3,1,1,0,0,rectangle,3,1,1,0,0,,,,,,,3,1,1,0,0,,0,73,73,7,1,
,,,,,,,,,,,,,FF,,,,,,,,0.7502,,,,,,,,,,,,,,,,,,,,,,610368480b2860d0f7e744be,61036eccd34988d5298eee7d,2021-07-29_23h16.07.578,Simcolourproject_2stim_asymm_v5,2020.2.10,Win32,60,61025ae37ef11b136ea224fe,,,,,,,,,3386,-146,59,1,0,0,response7disk,,1,-18,20,1,0,0,rectangle,-18,20,1,0,0,,,,,,,-18,20,1,0,0,,0,74,74,26,1,
,,,,,,,,,,,,,FF,,,,,,,,0.9501,,,,,,,,,,,,,,,,,,,,,,610368480b2860d0f7e744be,61036eccd34988d5298eee7d,2021-07-29_23h16.07.578,Simcolourproject_2stim_asymm_v5,2020.2.10,Win32,60,61025ae37ef11b136ea224fe,,,,,,,,,929,109,36,1,0,0,response1disk,,6,9,-3,1,0,0,rectangle,9,-3,1,0,0,,,,,,,9,-3,1,0,0,,0,75,75,106,1,
,,,,,,,,,,,,,FF,,,,,,,,1.2001,,,,,,,,,,,,,,,,,,,,,,610368480b2860d0f7e744be,61036eccd34988d5298eee7d,2021-07-29_23h16.07.578,Simcolourproject_2stim_asymm_v5,2020.2.10,Win32,60,61025ae37ef11b136ea224fe,,,,,,,,,740,-52,-138,1,0,0,response5disk,,3,7,5,1,0,0,rectangle,7,5,1,0,0,,,,,,,7,5,1,0,0,,0,76,76,140,1,
,,,,,,,,,,,,,FF,,,,,,,,0.6669,,,,,,,,,,,,,,,,,,,,,,610368480b2860d0f7e744be,61036eccd34988d5298eee7d,2021-07-29_23h16.07.578,Simcolourproject_2stim_asymm_v5,2020.2.10,Win32,60,61025ae37ef11b136ea224fe,,,,,,,,,2831,-53,125,1,0,0,response7disk,,0,-10,-4,1,0,0,rectangle,-10,-4,1,0,0,,,,,,,-10,-4,1,0,0,,0,77,77,18,1,
,,,,,,,,,,,,,FF,,,,,,,,1.8502,,,,,,,,,,,,,,,,,,,,,,610368480b2860d0f7e744be,61036eccd34988d5298eee7d,2021-07-29_23h16.07.578,Simcolourproject_2stim_asymm_v5,2020.2.10,Win32,60,61025ae37ef11b136ea224fe,,,,,,,,,3317,133,48,1,0,0,response1disk,,6,2,2,1,0,0,rectangle,2,2,1,0,0,,,,,,,2,2,1,0,0,,0,78,78,112,1,
,,,,,,,,,,,,,FF,,,,,,,,1.0836,,,,,,,,,,,,,,,,,,,,,,610368480b2860d0f7e744be,61036eccd34988d5298eee7d,2021-07-29_23h16.07.578,Simcolourproject_2stim_asymm_v5,2020.2.10,Win32,60,61025ae37ef11b136ea224fe,,,,,,,,,1371,-134,-73,1,0,0,response5disk,,2,3,3,1,0,0,rectangle,3,3,1,0,0,,,,,,,3,3,1,0,0,,0,79,79,75,1,
,,,,,,,,,,,,,FF,,,,,,,,0.7499,,,,,,,,,,,,,,,,,,,,,,610368480b2860d0f7e744be,61036eccd34988d5298eee7d,2021-07-29_23h16.07.578,Simcolourproject_2stim_asymm_v5,2020.2.10,Win32,60,61025ae37ef11b136ea224fe,,,,,,,,,521,140,59,1,0,0,response1disk,,6,6,3,1,0,0,rectangle,6,3,1,0,0,,,,,,,6,3,1,0,0,,0,80,80,120,1,
,,,,,,,,,,,,,FF,,,,,,,,1.1002,,,,,,,,,,,,,,,,,,,,,,610368480b2860d0f7e744be,61036eccd34988d5298eee7d,2021-07-29_23h16.07.578,Simcolourproject_2stim_asymm_v5,2020.2.10,Win32,60,61025ae37ef11b136ea224fe,,,,,,,,,4297,127,-85,1,0,0,response3disk,,5,-1,-1,1,0,0,rectangle,-1,-1,1,0,0,,,,,,,-1,-1,1,0,0,,0,81,81,137,1,
,,,,,,,,,,,,,FF,,,,,,,,1.3334,,,,,,,,,,,,,,,,,,,,,,610368480b2860d0f7e744be,61036eccd34988d5298eee7d,2021-07-29_23h16.07.578,Simcolourproject_2stim_asymm_v5,2020.2.10,Win32,60,61025ae37ef11b136ea224fe,,,,,,,,,1986,100,39,1,0,0,response1disk,,6,15,9,1,0,0,rectangle,15,9,1,0,0,,,,,,,15,9,1,0,0,,0,82,82,16,1,
,,,,,,,,,,,,,FF,,,,,,,,0.9673,,,,,,,,,,,,,,,,,,,,,,610368480b2860d0f7e744be,61036eccd34988d5298eee7d,2021-07-29_23h16.07.578,Simcolourproject_2stim_asymm_v5,2020.2.10,Win32,60,61025ae37ef11b136ea224fe,,,,,,,,,4039,-49,-142,1,0,0,response5disk,,3,6,17,1,0,0,rectangle,6,17,1,0,0,,,,,,,6,17,1,0,0,,0,83,83,37,1,
,,,,,,,,,,,,,FF,,,,,,,,1.0665,,,,,,,,,,,,,,,,,,,,,,610368480b2860d0f7e744be,61036eccd34988d5298eee7d,2021-07-29_23h16.07.578,Simcolourproject_2stim_asymm_v5,2020.2.10,Win32,60,61025ae37ef11b136ea224fe,,,,,,,,,2295,-60,-130,1,0,0,response5disk,,3,-10,10,1,0,0,rectangle,-10,10,1,0,0,,,,,,,-10,10,1,0,0,,0,84,84,31,1,
,,,,,,,,,,,,,FF,,,,,,,,0.8167,,,,,,,,,,,,,,,,,,,,,,610368480b2860d0f7e744be,61036eccd34988d5298eee7d,2021-07-29_23h16.07.578,Simcolourproject_2stim_asymm_v5,2020.2.10,Win32,60,61025ae37ef11b136ea224fe,,,,,,,,,2627,115,-53,1,0,0,response3disk,,5,3,-2,1,0,0,rectangle,3,-2,1,0,0,,,,,,,3,-2,1,0,0,,0,85,85,72,1,
,,,,,,,,,,,,,FF,,,,,,,,1.1669,,,,,,,,,,,,,,,,,,,,,,610368480b2860d0f7e744be,61036eccd34988d5298eee7d,2021-07-29_23h16.07.578,Simcolourproject_2stim_asymm_v5,2020.2.10,Win32,60,61025ae37ef11b136ea224fe,,,,,,,,,3897,49,116,1,0,0,response1disk,,7,15,-12,1,0,0,rectangle,15,-12,1,0,0,,,,,,,15,-12,1,0,0,,0,86,86,47,1,
,,,,,,,,,,,,,FF,,,,,,,,1.3835,,,,,,,,,,,,,,,,,,,,,,610368480b2860d0f7e744be,61036eccd34988d5298eee7d,2021-07-29_23h16.07.578,Simcolourproject_2stim_asymm_v5,2020.2.10,Win32,60,61025ae37ef11b136ea224fe,,,,,,,,,4083,-85,-123,1,0,0,response5disk,,3,1,15,1,0,0,rectangle,1,15,1,0,0,,,,,,,1,15,1,0,0,,0,87,87,23,1,
,,,,,,,,,,,,,FF,,,,,,,,1.6501,,,,,,,,,,,,,,,,,,,,,,610368480b2860d0f7e744be,61036eccd34988d5298eee7d,2021-07-29_23h16.07.578,Simcolourproject_2stim_asymm_v5,2020.2.10,Win32,60,61025ae37ef11b136ea224fe,,,,,,,,,1608,-118,-51,1,0,0,response5disk,,2,-6,0,1,0,0,rectangle,-6,0,1,0,0,,,,,,,-6,0,1,0,0,,0,88,88,73,1,
,,,,,,,,,,,,,FF,,,,,,,,2.1168,,,,,,,,,,,,,,,,,,,,,,610368480b2860d0f7e744be,61036eccd34988d5298eee7d,2021-07-29_23h16.07.578,Simcolourproject_2stim_asymm_v5,2020.2.10,Win32,60,61025ae37ef11b136ea224fe,,,,,,,,,730,-124,-70,1,0,0,response5disk,,2,1,0,1,0,0,rectangle,1,0,1,0,0,,,,,,,1,0,1,0,0,,0,89,89,149,1,
,,,,,,,,,,,,,FF,,,,,,,,0.867,,,,,,,,,,,,,,,,,,,,,,610368480b2860d0f7e744be,61036eccd34988d5298eee7d,2021-07-29_23h16.07.578,Simcolourproject_2stim_asymm_v5,2020.2.10,Win32,60,61025ae37ef11b136ea224fe,,,,,,,,,4325,140,49,1,0,0,response1disk,,6,11,-6,1,0,0,rectangle,11,-6,1,0,0,,,,,,,11,-6,1,0,0,,0,90,90,40,1,
,,,,,,,,,,,,,FF,,,,,,,,0.8501,,,,,,,,,,,,,,,,,,,,,,610368480b2860d0f7e744be,61036eccd34988d5298eee7d,2021-07-29_23h16.07.578,Simcolourproject_2stim_asymm_v5,2020.2.10,Win32,60,61025ae37ef11b136ea224fe,,,,,,,,,110,58,-139,1,0,0,response3disk,,4,1,10,1,0,0,rectangle,1,10,1,0,0,,,,,,,1,10,1,0,0,,0,91,91,81,1,
,,,,,,,,,,,,,FF,,,,,,,,2.4169,,,,,,,,,,,,,,,,,,,,,,610368480b2860d0f7e744be,61036eccd34988d5298eee7d,2021-07-29_23h16.07.578,Simcolourproject_2stim_asymm_v5,2020.2.10,Win32,60,61025ae37ef11b136ea224fe,,,,,,,,,2413,44,-141,1,0,0,response3disk,,4,6,7,1,0,0,rectangle,6,7,1,0,0,,,,,,,6,7,1,0,0,,0,92,92,4,1,
,,,,,,,,,,,,,FF,,,,,,,,1.1001,,,,,,,,,,,,,,,,,,,,,,610368480b2860d0f7e744be,61036eccd34988d5298eee7d,2021-07-29_23h16.07.578,Simcolourproject_2stim_asymm_v5,2020.2.10,Win32,60,61025ae37ef11b136ea224fe,,,,,,,,,2478,49,-148,1,0,0,response3disk,,4,1,-13,1,0,0,rectangle,1,-13,1,0,0,,,,,,,1,-13,1,0,0,,0,93,93,83,1,
,,,,,,,,,,,,,FF,,,,,,,,0.9836,,,,,,,,,,,,,,,,,,,,,,610368480b2860d0f7e744be,61036eccd34988d5298eee7d,2021-07-29_23h16.07.578,Simcolourproject_2stim_asymm_v5,2020.2.10,Win32,60,61025ae37ef11b136ea224fe,,,,,,,,,4029,-50,-133,1,0,0,response5disk,,3,12,7,1,0,0,rectangle,-72,-145,1,0,0,response5disk_3,TRUE,3,3,"[109,1,17,45,277,55,306,253,95,95,30,215,110,123,19,211,17,175,244,302]",2.0674,3,-3,1,0,0,rectangle,0,94,94,157,1,
,,,,,,,,,,,,,FF,,,,,,,,2.5002,,,,,,,,,,,,,,,,,,,,,,610368480b2860d0f7e744be,61036eccd34988d5298eee7d,2021-07-29_23h16.07.578,Simcolourproject_2stim_asymm_v5,2020.2.10,Win32,60,61025ae37ef11b136ea224fe,,,,,,,,,1061,-56,-125,1,0,0,response5disk,,3,0,5,1,0,0,rectangle,0,5,1,0,0,,,,,,,0,5,1,0,0,,0,95,95,19,1,
,,,,,,,,,,,,,FF,,,,,,,,0.9502,,,,,,,,,,,,,,,,,,,,,,610368480b2860d0f7e744be,61036eccd34988d5298eee7d,2021-07-29_23h16.07.578,Simcolourproject_2stim_asymm_v5,2020.2.10,Win32,60,61025ae37ef11b136ea224fe,,,,,,,,,4148,-108,-69,1,0,0,response5disk,,2,4,8,1,0,0,rectangle,4,8,1,0,0,,,,,,,4,8,1,0,0,,0,96,96,36,1,
,,,,,,,,,,,,,FF,,,,,,,,0.8001,,,,,,,,,,,,,,,,,,,,,,610368480b2860d0f7e744be,61036eccd34988d5298eee7d,2021-07-29_23h16.07.578,Simcolourproject_2stim_asymm_v5,2020.2.10,Win32,60,61025ae37ef11b136ea224fe,,,,,,,,,4157,-47,-152,1,0,0,response5disk,,3,-8,15,1,0,0,rectangle,-8,15,1,0,0,,,,,,,-8,15,1,0,0,,0,97,97,38,1,
,,,,,,,,,,,,,FF,,,,,,,,0.9665,,,,,,,,,,,,,,,,,,,,,,610368480b2860d0f7e744be,61036eccd34988d5298eee7d,2021-07-29_23h16.07.578,Simcolourproject_2stim_asymm_v5,2020.2.10,Win32,60,61025ae37ef11b136ea224fe,,,,,,,,,2825,-114,-47,1,0,0,response5disk,,2,8,-4,1,0,0,rectangle,8,-4,1,0,0,,,,,,,8,-4,1,0,0,,0,98,98,24,1,
,,,,,,,,,,,,,FF,,,,,,,,0.9167,,,,,,,,,,,,,,,,,,,,,,610368480b2860d0f7e744be,61036eccd34988d5298eee7d,2021-07-29_23h16.07.578,Simcolourproject_2stim_asymm_v5,2020.2.10,Win32,60,61025ae37ef11b136ea224fe,,,,,,,,,802,-125,36,1,0,0,response7disk,,1,11,6,1,0,0,rectangle,11,6,1,0,0,,,,,,,11,6,1,0,0,,0,99,99,29,1,
,,,,,,,,,,,,,FF,,,,,,,,0.8167,,,,,,,,,,,,,,,,,,,,,,610368480b2860d0f7e744be,61036eccd34988d5298eee7d,2021-07-29_23h16.07.578,Simcolourproject_2stim_asymm_v5,2020.2.10,Win32,60,61025ae37ef11b136ea224fe,,,,,,,,,551,-67,-119,1,0,0,response5disk,,3,-28,2,1,0,0,rectangle,-28,2,1,0,0,,,,,,,-28,2,1,0,0,,0,100,100,94,1,
,,,,,,,,,,,,,FF,,,,,,,,0.6835,,,,,,,,,,,,,,,,,,,,,,610368480b2860d0f7e744be,61036eccd34988d5298eee7d,2021-07-29_23h16.07.578,Simcolourproject_2stim_asymm_v5,2020.2.10,Win32,60,61025ae37ef11b136ea224fe,,,,,,,,,1565,129,-57,1,0,0,response3disk,,5,-12,-6,1,0,0,rectangle,-12,-6,1,0,0,,,,,,,-12,-6,1,0,0,,0,101,101,100,1,
,,,,,,,,,,,,,FF,,,,,,,,1.5999,,,,,,,,,,,,,,,,,,,,,,610368480b2860d0f7e744be,61036eccd34988d5298eee7d,2021-07-29_23h16.07.578,Simcolourproject_2stim_asymm_v5,2020.2.10,Win32,60,61025ae37ef11b136ea224fe,,,,,,,,,583,107,36,1,0,0,response1disk,,6,-2,-19,1,0,0,rectangle,-2,-19,1,0,0,,,,,,,-2,-19,1,0,0,,0,102,102,63,1,
,,,,,,,,,,,,,FF,,,,,,,,0.8336,,,,,,,,,,,,,,,,,,,,,,610368480b2860d0f7e744be,61036eccd34988d5298eee7d,2021-07-29_23h16.07.578,Simcolourproject_2stim_asymm_v5,2020.2.10,Win32,60,61025ae37ef11b136ea224fe,,,,,,,,,1041,53,99,1,0,0,response1disk,,7,-15,-6,1,0,0,rectangle,-15,-6,1,0,0,,,,,,,-15,-6,1,0,0,,0,103,103,43,1,
,,,,,,,,,,,,,FF,,,,,,,,1.0168,,,,,,,,,,,,,,,,,,,,,,610368480b2860d0f7e744be,61036eccd34988d5298eee7d,2021-07-29_23h16.07.578,Simcolourproject_2stim_asymm_v5,2020.2.10,Win32,60,61025ae37ef11b136ea224fe,,,,,,,,,1008,66,-113,1,0,0,response3disk,,4,14,-1,1,0,0,rectangle,14,-1,1,0,0,,,,,,,14,-1,1,0,0,,0,104,104,2,1,
,,,,,,,,,,,,,FF,,,,,,,,0.7668,,,,,,,,,,,,,,,,,,,,,,610368480b2860d0f7e744be,61036eccd34988d5298eee7d,2021-07-29_23h16.07.578,Simcolourproject_2stim_asymm_v5,2020.2.10,Win32,60,61025ae37ef11b136ea224fe,,,,,,,,,2931,104,70,1,0,0,response1disk,,6,15,2,1,0,0,rectangle,15,2,1,0,0,,,,,,,15,2,1,0,0,,0,105,105,41,1,
,,,,,,,,,,,,,FF,,,,,,,,1.8502,,,,,,,,,,,,,,,,,,,,,,610368480b2860d0f7e744be,61036eccd34988d5298eee7d,2021-07-29_23h16.07.578,Simcolourproject_2stim_asymm_v5,2020.2.10,Win32,60,61025ae37ef11b136ea224fe,,,,,,,,,923,114,-61,1,0,0,response3disk,,5,-11,2,1,0,0,rectangle,-11,2,1,0,0,,,,,,,-11,2,1,0,0,,0,106,106,39,1,
,,,,,,,,,,,,,FF,,,,,,,,1.5002,,,,,,,,,,,,,,,,,,,,,,610368480b2860d0f7e744be,61036eccd34988d5298eee7d,2021-07-29_23h16.07.578,Simcolourproject_2stim_asymm_v5,2020.2.10,Win32,60,61025ae37ef11b136ea224fe,,,,,,,,,573,129,-52,1,0,0,response3disk,,5,0,-4,1,0,0,rectangle,0,-4,1,0,0,,,,,,,0,-4,1,0,0,,0,107,107,135,1,
,,,,,,,,,,,,,FF,,,,,,,,0.8836,,,,,,,,,,,,,,,,,,,,,,610368480b2860d0f7e744be,61036eccd34988d5298eee7d,2021-07-29_23h16.07.578,Simcolourproject_2stim_asymm_v5,2020.2.10,Win32,60,61025ae37ef11b136ea224fe,,,,,,,,,4058,-80,-135,1,0,0,response5disk,,3,18,2,1,0,0,rectangle,120,55,1,0,0,response1disk_3,TRUE,6,6,"[109,1,17,45,277,55,306,253,95,95,30,215,110,123,19,211,17,175,244,302]",1.5164,14,-5,1,0,0,rectangle,0,108,108,51,1,
,,,,,,,,,,,,,FF,,,,,,,,0.9835,,,,,,,,,,,,,,,,,,,,,,610368480b2860d0f7e744be,61036eccd34988d5298eee7d,2021-07-29_23h16.07.578,Simcolourproject_2stim_asymm_v5,2020.2.10,Win32,60,61025ae37ef11b136ea224fe,,,,,,,,,827,-68,-121,1,0,0,response5disk,,3,2,-2,1,0,0,rectangle,94,-60,1,0,0,response3disk_3,TRUE,5,5,"[109,1,17,45,277,55,306,253,95,95,30,215,110,123,19,211,17,175,244,302]",1.6657,0,10,1,0,0,rectangle,0,109,109,111,1,
,,,,,,,,,,,,,FF,,,,,,,,1.5169,,,,,,,,,,,,,,,,,,,,,,610368480b2860d0f7e744be,61036eccd34988d5298eee7d,2021-07-29_23h16.07.578,Simcolourproject_2stim_asymm_v5,2020.2.10,Win32,60,61025ae37ef11b136ea224fe,,,,,,,,,2970,116,42,1,0,0,response1disk,,6,-17,6,1,0,0,rectangle,-17,6,1,0,0,,,,,,,-17,6,1,0,0,,0,110,110,77,1,
,,,,,,,,,,,,,FF,,,,,,,,1.1835,,,,,,,,,,,,,,,,,,,,,,610368480b2860d0f7e744be,61036eccd34988d5298eee7d,2021-07-29_23h16.07.578,Simcolourproject_2stim_asymm_v5,2020.2.10,Win32,60,61025ae37ef11b136ea224fe,,,,,,,,,2862,129,45,1,0,0,response1disk,,6,26,1,1,0,0,rectangle,26,1,1,0,0,,,,,,,26,1,1,0,0,,0,111,111,138,1,
,,,,,,,,,,,,,FF,,,,,,,,1.3004,,,,,,,,,,,,,,,,,,,,,,610368480b2860d0f7e744be,61036eccd34988d5298eee7d,2021-07-29_23h16.07.578,Simcolourproject_2stim_asymm_v5,2020.2.10,Win32,60,61025ae37ef11b136ea224fe,,,,,,,,,1568,153,38,1,0,0,response1disk,,6,6,0,1,0,0,rectangle,6,0,1,0,0,,,,,,,6,0,1,0,0,,0,112,112,5,1,
,,,,,,,,,,,,,FF,,,,,,,,1.3837,,,,,,,,,,,,,,,,,,,,,,610368480b2860d0f7e744be,61036eccd34988d5298eee7d,2021-07-29_23h16.07.578,Simcolourproject_2stim_asymm_v5,2020.2.10,Win32,60,61025ae37ef11b136ea224fe,,,,,,,,,1319,150,53,1,0,0,response1disk,,6,-19,-8,1,0,0,rectangle,-19,-8,1,0,0,,,,,,,-19,-8,1,0,0,,0,113,113,45,1,
,,,,,,,,,,,,,FF,,,,,,,,1.267,,,,,,,,,,,,,,,,,,,,,,610368480b2860d0f7e744be,61036eccd34988d5298eee7d,2021-07-29_23h16.07.578,Simcolourproject_2stim_asymm_v5,2020.2.10,Win32,60,61025ae37ef11b136ea224fe,,,,,,,,,906,122,-93,1,0,0,response3disk,,5,9,-3,1,0,0,rectangle,9,-3,1,0,0,,,,,,,9,-3,1,0,0,,0,114,114,76,1,
,,,,,,,,,,,,,FF,,,,,,,,0.9668,,,,,,,,,,,,,,,,,,,,,,610368480b2860d0f7e744be,61036eccd34988d5298eee7d,2021-07-29_23h16.07.578,Simcolourproject_2stim_asymm_v5,2020.2.10,Win32,60,61025ae37ef11b136ea224fe,,,,,,,,,2736,-64,-126,1,0,0,response5disk,,3,-19,7,1,0,0,rectangle,-19,7,1,0,0,,,,,,,-19,7,1,0,0,,0,115,115,22,1,
,,,,,,,,,,,,,FF,,,,,,,,1.3336,,,,,,,,,,,,,,,,,,,,,,610368480b2860d0f7e744be,61036eccd34988d5298eee7d,2021-07-29_23h16.07.578,Simcolourproject_2stim_asymm_v5,2020.2.10,Win32,60,61025ae37ef11b136ea224fe,,,,,,,,,463,-61,-109,1,0,0,response5disk,,3,3,16,1,0,0,rectangle,3,16,1,0,0,,,,,,,3,16,1,0,0,,0,116,116,101,1,
,,,,,,,,,,,,,FF,,,,,,,,1.1335,,,,,,,,,,,,,,,,,,,,,,610368480b2860d0f7e744be,61036eccd34988d5298eee7d,2021-07-29_23h16.07.578,Simcolourproject_2stim_asymm_v5,2020.2.10,Win32,60,61025ae37ef11b136ea224fe,,,,,,,,,3916,59,-139,1,0,0,response3disk,,4,4,-3,1,0,0,rectangle,4,-3,1,0,0,,,,,,,4,-3,1,0,0,,0,117,117,17,1,
,,,,,,,,,,,,,FF,,,,,,,,2.9335,,,,,,,,,,,,,,,,,,,,,,610368480b2860d0f7e744be,61036eccd34988d5298eee7d,2021-07-29_23h16.07.578,Simcolourproject_2stim_asymm_v5,2020.2.10,Win32,60,61025ae37ef11b136ea224fe,,,,,,,,,1285,38,-121,1,0,0,response3disk,,4,16,13,1,0,0,rectangle,16,13,1,0,0,,,,,,,16,13,1,0,0,,0,118,118,10,1,
,,,,,,,,,,,,,FF,,,,,,,,1.0668,,,,,,,,,,,,,,,,,,,,,,610368480b2860d0f7e744be,61036eccd34988d5298eee7d,2021-07-29_23h16.07.578,Simcolourproject_2stim_asymm_v5,2020.2.10,Win32,60,61025ae37ef11b136ea224fe,,,,,,,,,3602,-66,-146,1,0,0,response5disk,,3,23,6,1,0,0,rectangle,23,6,1,0,0,,,,,,,23,6,1,0,0,,0,119,119,124,1,
,,,,,,,,,,,,,FF,,,,,,,,0.7167,,,,,,,,,,,,,,,,,,,,,,610368480b2860d0f7e744be,61036eccd34988d5298eee7d,2021-07-29_23h16.07.578,Simcolourproject_2stim_asymm_v5,2020.2.10,Win32,60,61025ae37ef11b136ea224fe,,,,,,,,,1271,134,29,1,0,0,response1disk,,6,-1,5,1,0,0,rectangle,-1,5,1,0,0,,,,,,,-1,5,1,0,0,,0,120,120,44,1,
,,,,,,,,,,,,,FF,,,,,,,,0.8836,,,,,,,,,,,,,,,,,,,,,,610368480b2860d0f7e744be,61036eccd34988d5298eee7d,2021-07-29_23h16.07.578,Simcolourproject_2stim_asymm_v5,2020.2.10,Win32,60,61025ae37ef11b136ea224fe,,,,,,,,,1505,63,116,1,0,0,response1disk,,7,8,-10,1,0,0,rectangle,8,-10,1,0,0,,,,,,,8,-10,1,0,0,,0,121,121,110,1,
,,,,,,,,,,,,,FF,,,,,,,,1.2339,,,,,,,,,,,,,,,,,,,,,,610368480b2860d0f7e744be,61036eccd34988d5298eee7d,2021-07-29_23h16.07.578,Simcolourproject_2stim_asymm_v5,2020.2.10,Win32,60,61025ae37ef11b136ea224fe,,,,,,,,,1250,122,45,1,0,0,response1disk,,6,18,-14,1,0,0,rectangle,-64,128,1,0,0,response7disk_3,TRUE,0,0,"[109,1,17,45,277,55,306,253,95,95,30,215,110,123,19,211,17,175,244,302]",1.3664,-28,-2,1,0,0,rectangle,0,122,122,15,1,
,,,,,,,,,,,,,FF,,,,,,,,1.0668,,,,,,,,,,,,,,,,,,,,,,610368480b2860d0f7e744be,61036eccd34988d5298eee7d,2021-07-29_23h16.07.578,Simcolourproject_2stim_asymm_v5,2020.2.10,Win32,60,61025ae37ef11b136ea224fe,,,,,,,,,3404,-38,-123,1,0,0,response5disk,,3,21,16,1,0,0,rectangle,21,16,1,0,0,,,,,,,21,16,1,0,0,,0,123,123,88,1,
,,,,,,,,,,,,,FF,,,,,,,,0.8835,,,,,,,,,,,,,,,,,,,,,,610368480b2860d0f7e744be,61036eccd34988d5298eee7d,2021-07-29_23h16.07.578,Simcolourproject_2stim_asymm_v5,2020.2.10,Win32,60,61025ae37ef11b136ea224fe,,,,,,,,,309,127,74,1,0,0,response1disk,,6,1,12,1,0,0,rectangle,1,12,1,0,0,,,,,,,1,12,1,0,0,,0,124,124,123,1,
,,,,,,,,,,,,,FF,,,,,,,,1.4168,,,,,,,,,,,,,,,,,,,,,,610368480b2860d0f7e744be,61036eccd34988d5298eee7d,2021-07-29_23h16.07.578,Simcolourproject_2stim_asymm_v5,2020.2.10,Win32,60,61025ae37ef11b136ea224fe,,,,,,,,,4151,124,-54,1,0,0,response3disk,,5,12,3,1,0,0,rectangle,12,3,1,0,0,,,,,,,12,3,1,0,0,,0,125,125,145,1,
,,,,,,,,,,,,,FF,,,,,,,,1.0168,,,,,,,,,,,,,,,,,,,,,,610368480b2860d0f7e744be,61036eccd34988d5298eee7d,2021-07-29_23h16.07.578,Simcolourproject_2stim_asymm_v5,2020.2.10,Win32,60,61025ae37ef11b136ea224fe,,,,,,,,,4184,133,-55,1,0,0,response3disk,,5,21,7,1,0,0,rectangle,21,7,1,0,0,,,,,,,21,7,1,0,0,,0,126,126,148,1,
,,,,,,,,,,,,,FF,,,,,,,,0.7001,,,,,,,,,,,,,,,,,,,,,,610368480b2860d0f7e744be,61036eccd34988d5298eee7d,2021-07-29_23h16.07.578,Simcolourproject_2stim_asymm_v5,2020.2.10,Win32,60,61025ae37ef11b136ea224fe,,,,,,,,,1325,139,57,1,0,0,response1disk,,6,-4,-16,1,0,0,rectangle,-4,-16,1,0,0,,,,,,,-4,-16,1,0,0,,0,127,127,121,1,
,,,,,,,,,,,,,FF,,,,,,,,0.8001,,,,,,,,,,,,,,,,,,,,,,610368480b2860d0f7e744be,61036eccd34988d5298eee7d,2021-07-29_23h16.07.578,Simcolourproject_2stim_asymm_v5,2020.2.10,Win32,60,61025ae37ef11b136ea224fe,,,,,,,,,58,-74,-119,1,0,0,response5disk,,3,1,2,1,0,0,rectangle,1,2,1,0,0,,,,,,,1,2,1,0,0,,0,128,128,116,1,
,,,,,,,,,,,,,FF,,,,,,,,1.4336,,,,,,,,,,,,,,,,,,,,,,610368480b2860d0f7e744be,61036eccd34988d5298eee7d,2021-07-29_23h16.07.578,Simcolourproject_2stim_asymm_v5,2020.2.10,Win32,60,61025ae37ef11b136ea224fe,,,,,,,,,4198,136,29,1,0,0,response1disk,,6,15,10,1,0,0,rectangle,15,10,1,0,0,,,,,,,15,10,1,0,0,,0,129,129,56,1,
,,,,,,,,,,,,,FF,,,,,,,,0.6835,,,,,,,,,,,,,,,,,,,,,,610368480b2860d0f7e744be,61036eccd34988d5298eee7d,2021-07-29_23h16.07.578,Simcolourproject_2stim_asymm_v5,2020.2.10,Win32,60,61025ae37ef11b136ea224fe,,,,,,,,,248,59,-150,1,0,0,response3disk,,4,-9,-7,1,0,0,rectangle,-9,-7,1,0,0,,,,,,,-9,-7,1,0,0,,0,130,130,60,1,
,,,,,,,,,,,,,FF,,,,,,,,1.7669,,,,,,,,,,,,,,,,,,,,,,610368480b2860d0f7e744be,61036eccd34988d5298eee7d,2021-07-29_23h16.07.578,Simcolourproject_2stim_asymm_v5,2020.2.10,Win32,60,61025ae37ef11b136ea224fe,,,,,,,,,609,127,47,1,0,0,response1disk,,6,18,4,1,0,0,rectangle,18,4,1,0,0,,,,,,,18,4,1,0,0,,0,131,131,96,1,
,,,,,,,,,,,,,FF,,,,,,,,1.1335,,,,,,,,,,,,,,,,,,,,,,610368480b2860d0f7e744be,61036eccd34988d5298eee7d,2021-07-29_23h16.07.578,Simcolourproject_2stim_asymm_v5,2020.2.10,Win32,60,61025ae37ef11b136ea224fe,,,,,,,,,4205,-53,115,1,0,0,response7disk,,0,11,0,1,0,0,rectangle,11,0,1,0,0,,,,,,,11,0,1,0,0,,0,132,132,92,1,
,,,,,,,,,,,,,FF,,,,,,,,1.3168,,,,,,,,,,,,,,,,,,,,,,610368480b2860d0f7e744be,61036eccd34988d5298eee7d,2021-07-29_23h16.07.578,Simcolourproject_2stim_asymm_v5,2020.2.10,Win32,60,61025ae37ef11b136ea224fe,,,,,,,,,1537,-104,-41,1,0,0,response5disk,,2,9,-4,1,0,0,rectangle,9,-4,1,0,0,,,,,,,9,-4,1,0,0,,0,133,133,46,1,
,,,,,,,,,,,,,FF,,,,,,,,2.6835,,,,,,,,,,,,,,,,,,,,,,610368480b2860d0f7e744be,61036eccd34988d5298eee7d,2021-07-29_23h16.07.578,Simcolourproject_2stim_asymm_v5,2020.2.10,Win32,60,61025ae37ef11b136ea224fe,,,,,,,,,3335,111,51,1,0,0,response1disk,,6,-6,-7,1,0,0,rectangle,-6,-7,1,0,0,,,,,,,-6,-7,1,0,0,,0,134,134,108,1,
,,,,,,,,,,,,,FF,,,,,,,,1.3165,,,,,,,,,,,,,,,,,,,,,,610368480b2860d0f7e744be,61036eccd34988d5298eee7d,2021-07-29_23h16.07.578,Simcolourproject_2stim_asymm_v5,2020.2.10,Win32,60,61025ae37ef11b136ea224fe,,,,,,,,,1077,114,-61,1,0,0,response3disk,,5,-1,-5,1,0,0,rectangle,-1,-5,1,0,0,,,,,,,-1,-5,1,0,0,,0,135,135,35,1,
,,,,,,,,,,,,,FF,,,,,,,,2.0172,,,,,,,,,,,,,,,,,,,,,,610368480b2860d0f7e744be,61036eccd34988d5298eee7d,2021-07-29_23h16.07.578,Simcolourproject_2stim_asymm_v5,2020.2.10,Win32,60,61025ae37ef11b136ea224fe,,,,,,,,,1044,116,-79,1,0,0,response3disk,,5,18,7,1,0,0,rectangle,18,7,1,0,0,,,,,,,18,7,1,0,0,,0,136,136,95,1,
,,,,,,,,,,,,,FF,,,,,,,,0.6673,,,,,,,,,,,,,,,,,,,,,,610368480b2860d0f7e744be,61036eccd34988d5298eee7d,2021-07-29_23h16.07.578,Simcolourproject_2stim_asymm_v5,2020.2.10,Win32,60,61025ae37ef11b136ea224fe,,,,,,,,,930,136,57,1,0,0,response1disk,,6,-7,-13,1,0,0,rectangle,-7,-13,1,0,0,,,,,,,-7,-13,1,0,0,,0,137,137,12,1,
,,,,,,,,,,,,,FF,,,,,,,,0.6337,,,,,,,,,,,,,,,,,,,,,,610368480b2860d0f7e744be,61036eccd34988d5298eee7d,2021-07-29_23h16.07.578,Simcolourproject_2stim_asymm_v5,2020.2.10,Win32,60,61025ae37ef11b136ea224fe,,,,,,,,,745,80,-69,1,0,0,response3disk,,5,-2,0,1,0,0,rectangle,-2,0,1,0,0,,,,,,,-2,0,1,0,0,,0,138,138,115,1,
,,,,,,,,,,,,,FF,,,,,,,,0.4669,,,,,,,,,,,,,,,,,,,,,,610368480b2860d0f7e744be,61036eccd34988d5298eee7d,2021-07-29_23h16.07.578,Simcolourproject_2stim_asymm_v5,2020.2.10,Win32,60,61025ae37ef11b136ea224fe,,,,,,,,,2397,89,-47,1,0,0,response3disk,,5,5,6,1,0,0,rectangle,5,6,1,0,0,,,,,,,5,6,1,0,0,,0,139,139,150,1,
,,,,,,,,,,,,,FF,,,,,,,,1.2296,,,,,,,,,,,,,,,,,,,,,,610368480b2860d0f7e744be,61036eccd34988d5298eee7d,2021-07-29_23h16.07.578,Simcolourproject_2stim_asymm_v5,2020.2.10,Win32,60,61025ae37ef11b136ea224fe,,,,,,,,,168,64,-135,1,0,0,response3disk,,4,10,14,1,0,0,rectangle,10,14,1,0,0,,,,,,,10,14,1,0,0,,0,140,140,107,1,
,,,,,,,,,,,,,FF,,,,,,,,1.3167,,,,,,,,,,,,,,,,,,,,,,610368480b2860d0f7e744be,61036eccd34988d5298eee7d,2021-07-29_23h16.07.578,Simcolourproject_2stim_asymm_v5,2020.2.10,Win32,60,61025ae37ef11b136ea224fe,,,,,,,,,3426,-115,62,1,0,0,response7disk,,1,-18,8,1,0,0,rectangle,-18,8,1,0,0,,,,,,,-18,8,1,0,0,,0,141,141,42,1,
,,,,,,,,,,,,,FF,,,,,,,,1.1836,,,,,,,,,,,,,,,,,,,,,,610368480b2860d0f7e744be,61036eccd34988d5298eee7d,2021-07-29_23h16.07.578,Simcolourproject_2stim_asymm_v5,2020.2.10,Win32,60,61025ae37ef11b136ea224fe,,,,,,,,,1174,66,119,1,0,0,response1disk,,7,-5,0,1,0,0,rectangle,-5,0,1,0,0,,,,,,,-5,0,1,0,0,,0,142,142,33,1,
,,,,,,,,,,,,,FF,,,,,,,,0.6829,,,,,,,,,,,,,,,,,,,,,,610368480b2860d0f7e744be,61036eccd34988d5298eee7d,2021-07-29_23h16.07.578,Simcolourproject_2stim_asymm_v5,2020.2.10,Win32,60,61025ae37ef11b136ea224fe,,,,,,,,,4159,130,-73,1,0,0,response3disk,,5,10,13,1,0,0,rectangle,10,13,1,0,0,,,,,,,10,13,1,0,0,,0,143,143,0,1,
,,,,,,,,,,,,,FF,,,,,,,,1.7836,,,,,,,,,,,,,,,,,,,,,,610368480b2860d0f7e744be,61036eccd34988d5298eee7d,2021-07-29_23h16.07.578,Simcolourproject_2stim_asymm_v5,2020.2.10,Win32,60,61025ae37ef11b136ea224fe,,,,,,,,,4202,51,-139,1,0,0,response3disk,,4,14,6,1,0,0,rectangle,14,6,1,0,0,,,,,,,14,6,1,0,0,,0,144,144,143,1,
,,,,,,,,,,,,,FF,,,,,,,,1.183,,,,,,,,,,,,,,,,,,,,,,610368480b2860d0f7e744be,61036eccd34988d5298eee7d,2021-07-29_23h16.07.578,Simcolourproject_2stim_asymm_v5,2020.2.10,Win32,60,61025ae37ef11b136ea224fe,,,,,,,,,3148,-121,52,1,0,0,response7disk,,1,-16,1,1,0,0,rectangle,-16,1,1,0,0,,,,,,,-16,1,1,0,0,,0,145,145,89,1,
,,,,,,,,,,,,,FF,,,,,,,,0.6337,,,,,,,,,,,,,,,,,,,,,,610368480b2860d0f7e744be,61036eccd34988d5298eee7d,2021-07-29_23h16.07.578,Simcolourproject_2stim_asymm_v5,2020.2.10,Win32,60,61025ae37ef11b136ea224fe,,,,,,,,,3048,-149,63,1,0,0,response7disk,,1,3,0,1,0,0,rectangle,3,0,1,0,0,,,,,,,3,0,1,0,0,,0,146,146,53,1,
,,,,,,,,,,,,,FF,,,,,,,,2.2335,,,,,,,,,,,,,,,,,,,,,,610368480b2860d0f7e744be,61036eccd34988d5298eee7d,2021-07-29_23h16.07.578,Simcolourproject_2stim_asymm_v5,2020.2.10,Win32,60,61025ae37ef11b136ea224fe,,,,,,,,,1687,62,-93,1,0,0,response3disk,,4,-2,2,1,0,0,rectangle,-2,2,1,0,0,,,,,,,-2,2,1,0,0,,0,147,147,158,1,
,,,,,,,,,,,,,FF,,,,,,,,0.9503,,,,,,,,,,,,,,,,,,,,,,610368480b2860d0f7e744be,61036eccd34988d5298eee7d,2021-07-29_23h16.07.578,Simcolourproject_2stim_asymm_v5,2020.2.10,Win32,60,61025ae37ef11b136ea224fe,,,,,,,,,641,42,-143,1,0,0,response3disk,,4,-5,11,1,0,0,rectangle,-5,11,1,0,0,,,,,,,-5,11,1,0,0,,0,148,148,28,1,
,,,,,,,,,,,,,FF,,,,,,,,2.7334,,,,,,,,,,,,,,,,,,,,,,610368480b2860d0f7e744be,61036eccd34988d5298eee7d,2021-07-29_23h16.07.578,Simcolourproject_2stim_asymm_v5,2020.2.10,Win32,60,61025ae37ef11b136ea224fe,,,,,,,,,3454,58,-129,1,0,0,response3disk,,4,-10,-14,1,0,0,rectangle,-10,-14,1,0,0,,,,,,,-10,-14,1,0,0,,0,149,149,141,1,
,,,,,,,,,,,,,FF,,,,,,,,2.2503,,,,,,,,,,,,,,,,,,,,,,610368480b2860d0f7e744be,61036eccd34988d5298eee7d,2021-07-29_23h16.07.578,Simcolourproject_2stim_asymm_v5,2020.2.10,Win32,60,61025ae37ef11b136ea224fe,,,,,,,,,3378,57,-149,1,0,0,response3disk,,4,14,-16,1,0,0,rectangle,14,-16,1,0,0,,,,,,,14,-16,1,0,0,,0,150,150,154,1,
,,,,,,,,,,,,,FF,,,,,,,,1.4158,,,,,,,,,,,,,,,,,,,,,,610368480b2860d0f7e744be,61036eccd34988d5298eee7d,2021-07-29_23h16.07.578,Simcolourproject_2stim_asymm_v5,2020.2.10,Win32,60,61025ae37ef11b136ea224fe,,,,,,,,,504,124,43,1,0,0,response1disk,,6,-26,-7,1,0,0,rectangle,-26,-7,1,0,0,,,,,,,-26,-7,1,0,0,,0,151,151,54,1,
,,,,,,,,,,,,,FF,,,,,,,,0.817,,,,,,,,,,,,,,,,,,,,,,610368480b2860d0f7e744be,61036eccd34988d5298eee7d,2021-07-29_23h16.07.578,Simcolourproject_2stim_asymm_v5,2020.2.10,Win32,60,61025ae37ef11b136ea224fe,,,,,,,,,3466,-64,-146,1,0,0,response5disk,,3,26,15,1,0,0,rectangle,26,15,1,0,0,,,,,,,26,15,1,0,0,,0,152,152,48,1,
,,,,,,,,,,,,,FF,,,,,,,,0.7502,,,,,,,,,,,,,,,,,,,,,,610368480b2860d0f7e744be,61036eccd34988d5298eee7d,2021-07-29_23h16.07.578,Simcolourproject_2stim_asymm_v5,2020.2.10,Win32,60,61025ae37ef11b136ea224fe,,,,,,,,,841,149,-71,1,0,0,response3disk,,5,11,-15,1,0,0,rectangle,11,-15,1,0,0,,,,,,,11,-15,1,0,0,,0,153,153,126,1,
,,,,,,,,,,,,,FF,,,,,,,,0.6329,,,,,,,,,,,,,,,,,,,,,,610368480b2860d0f7e744be,61036eccd34988d5298eee7d,2021-07-29_23h16.07.578,Simcolourproject_2stim_asymm_v5,2020.2.10,Win32,60,61025ae37ef11b136ea224fe,,,,,,,,,3653,114,41,1,0,0,response1disk,,6,12,-8,1,0,0,rectangle,12,-8,1,0,0,,,,,,,12,-8,1,0,0,,0,154,154,118,1,
,,,,,,,,,,,,,FF,,,,,,,,0.5339,,,,,,,,,,,,,,,,,,,,,,610368480b2860d0f7e744be,61036eccd34988d5298eee7d,2021-07-29_23h16.07.578,Simcolourproject_2stim_asymm_v5,2020.2.10,Win32,60,61025ae37ef11b136ea224fe,,,,,,,,,1014,124,48,1,0,0,response1disk,,6,-13,-10,1,0,0,rectangle,-13,-10,1,0,0,,,,,,,-13,-10,1,0,0,,0,155,155,146,1,
,,,,,,,,,,,,,FF,,,,,,,,0.8834,,,,,,,,,,,,,,,,,,,,,,610368480b2860d0f7e744be,61036eccd34988d5298eee7d,2021-07-29_23h16.07.578,Simcolourproject_2stim_asymm_v5,2020.2.10,Win32,60,61025ae37ef11b136ea224fe,,,,,,,,,3252,-98,42,1,0,0,response7disk,,1,20,-7,1,0,0,rectangle,20,-7,1,0,0,,,,,,,20,-7,1,0,0,,0,156,156,133,1,
,,,,,,,,,,,,,FF,,,,,,,,0.6836,,,,,,,,,,,,,,,,,,,,,,610368480b2860d0f7e744be,61036eccd34988d5298eee7d,2021-07-29_23h16.07.578,Simcolourproject_2stim_asymm_v5,2020.2.10,Win32,60,61025ae37ef11b136ea224fe,,,,,,,,,793,133,57,1,0,0,response1disk,,6,21,0,1,0,0,rectangle,21,0,1,0,0,,,,,,,21,0,1,0,0,,0,157,157,97,1,
,,,,,,,,,,,,,FF,,,,,,,,0.7337,,,,,,,,,,,,,,,,,,,,,,610368480b2860d0f7e744be,61036eccd34988d5298eee7d,2021-07-29_23h16.07.578,Simcolourproject_2stim_asymm_v5,2020.2.10,Win32,60,61025ae37ef11b136ea224fe,,,,,,,,,166,73,-148,1,0,0,response3disk,,4,-9,14,1,0,0,rectangle,-9,14,1,0,0,,,,,,,-9,14,1,0,0,,0,158,158,90,1,
,,,,,,,,,,,,,FF,,,,,,,,3.5335,,,,,,,,,,,,,,,,,,,,,,610368480b2860d0f7e744be,61036eccd34988d5298eee7d,2021-07-29_23h16.07.578,Simcolourproject_2stim_asymm_v5,2020.2.10,Win32,60,61025ae37ef11b136ea224fe,,,,,,,,,4311,146,71,1,0,0,response1disk,,6,-5,9,1,0,0,rectangle,-5,9,1,0,0,,,,,,,-5,9,1,0,0,,0,159,159,1,1,
,,,,,,,,,,,,,FF,,,,,,,,6.4002,,,,,,,,,,,,,,,,,,,,,,610368480b2860d0f7e744be,61036eccd34988d5298eee7d,2021-07-29_23h16.07.578,Simcolourproject_2stim_asymm_v5,2020.2.10,Win32,60,61025ae37ef11b136ea224fe,,,,,,,,,1931,146,-69,1,0,0,response3disk,,5,2,-15,1,0,0,rectangle,2,-15,1,0,0,,,,,,,2,-15,1,0,0,,1,0,160,99,1,
,,,,,,,,,,,,,FF,,,,,,,,0.7169,,,,,,,,,,,,,,,,,,,,,,610368480b2860d0f7e744be,61036eccd34988d5298eee7d,2021-07-29_23h16.07.578,Simcolourproject_2stim_asymm_v5,2020.2.10,Win32,60,61025ae37ef11b136ea224fe,,,,,,,,,1729,148,59,1,0,0,response1disk,,6,13,2,1,0,0,rectangle,13,2,1,0,0,,,,,,,13,2,1,0,0,,1,1,161,154,1,
,,,,,,,,,,,,,FF,,,,,,,,0.8167,,,,,,,,,,,,,,,,,,,,,,610368480b2860d0f7e744be,61036eccd34988d5298eee7d,2021-07-29_23h16.07.578,Simcolourproject_2stim_asymm_v5,2020.2.10,Win32,60,61025ae37ef11b136ea224fe,,,,,,,,,2899,81,-151,1,0,0,response3disk,,4,-10,2,1,0,0,rectangle,-10,2,1,0,0,,,,,,,-10,2,1,0,0,,1,2,162,152,1,
,,,,,,,,,,,,,FF,,,,,,,,0.6003,,,,,,,,,,,,,,,,,,,,,,610368480b2860d0f7e744be,61036eccd34988d5298eee7d,2021-07-29_23h16.07.578,Simcolourproject_2stim_asymm_v5,2020.2.10,Win32,60,61025ae37ef11b136ea224fe,,,,,,,,,3648,143,46,1,0,0,response1disk,,6,16,1,1,0,0,rectangle,16,1,1,0,0,,,,,,,16,1,1,0,0,,1,3,163,111,1,
,,,,,,,,,,,,,FF,,,,,,,,0.6833,,,,,,,,,,,,,,,,,,,,,,610368480b2860d0f7e744be,61036eccd34988d5298eee7d,2021-07-29_23h16.07.578,Simcolourproject_2stim_asymm_v5,2020.2.10,Win32,60,61025ae37ef11b136ea224fe,,,,,,,,,2228,-51,106,1,0,0,response7disk,,0,-6,-19,1,0,0,rectangle,-6,-19,1,0,0,,,,,,,-6,-19,1,0,0,,1,4,164,122,1,
,,,,,,,,,,,,,FF,,,,,,,,2.3836,,,,,,,,,,,,,,,,,,,,,,610368480b2860d0f7e744be,61036eccd34988d5298eee7d,2021-07-29_23h16.07.578,Simcolourproject_2stim_asymm_v5,2020.2.10,Win32,60,61025ae37ef11b136ea224fe,,,,,,,,,1336,59,-140,1,0,0,response3disk,,4,8,9,1,0,0,rectangle,8,9,1,0,0,,,,,,,8,9,1,0,0,,1,5,165,89,1,
,,,,,,,,,,,,,FF,,,,,,,,0.7499,,,,,,,,,,,,,,,,,,,,,,610368480b2860d0f7e744be,61036eccd34988d5298eee7d,2021-07-29_23h16.07.578,Simcolourproject_2stim_asymm_v5,2020.2.10,Win32,60,61025ae37ef11b136ea224fe,,,,,,,,,277,-129,58,1,0,0,response7disk,,1,-22,-14,1,0,0,rectangle,-22,-14,1,0,0,,,,,,,-22,-14,1,0,0,,1,6,166,66,1,
,,,,,,,,,,,,,FF,,,,,,,,0.8503,,,,,,,,,,,,,,,,,,,,,,610368480b2860d0f7e744be,61036eccd34988d5298eee7d,2021-07-29_23h16.07.578,Simcolourproject_2stim_asymm_v5,2020.2.10,Win32,60,61025ae37ef11b136ea224fe,,,,,,,,,3162,-71,-104,1,0,0,response5disk,,3,7,8,1,0,0,rectangle,7,8,1,0,0,,,,,,,7,8,1,0,0,,1,7,167,40,1,
,,,,,,,,,,,,,FF,,,,,,,,0.6834,,,,,,,,,,,,,,,,,,,,,,610368480b2860d0f7e744be,61036eccd34988d5298eee7d,2021-07-29_23h16.07.578,Simcolourproject_2stim_asymm_v5,2020.2.10,Win32,60,61025ae37ef11b136ea224fe,,,,,,,,,3958,-102,-42,1,0,0,response5disk,,2,24,-9,1,0,0,rectangle,24,-9,1,0,0,,,,,,,24,-9,1,0,0,,1,8,168,23,1,
,,,,,,,,,,,,,FF,,,,,,,,0.7996,,,,,,,,,,,,,,,,,,,,,,610368480b2860d0f7e744be,61036eccd34988d5298eee7d,2021-07-29_23h16.07.578,Simcolourproject_2stim_asymm_v5,2020.2.10,Win32,60,61025ae37ef11b136ea224fe,,,,,,,,,1304,-101,48,1,0,0,response7disk,,1,-18,7,1,0,0,rectangle,-18,7,1,0,0,,,,,,,-18,7,1,0,0,,1,9,169,142,1,
,,,,,,,,,,,,,FF,,,,,,,,0.5999,,,,,,,,,,,,,,,,,,,,,,610368480b2860d0f7e744be,61036eccd34988d5298eee7d,2021-07-29_23h16.07.578,Simcolourproject_2stim_asymm_v5,2020.2.10,Win32,60,61025ae37ef11b136ea224fe,,,,,,,,,639,-103,35,1,0,0,response7disk,,1,5,-1,1,0,0,rectangle,5,-1,1,0,0,,,,,,,5,-1,1,0,0,,1,10,170,37,1,
,,,,,,,,,,,,,FF,,,,,,,,1.5667,,,,,,,,,,,,,,,,,,,,,,610368480b2860d0f7e744be,61036eccd34988d5298eee7d,2021-07-29_23h16.07.578,Simcolourproject_2stim_asymm_v5,2020.2.10,Win32,60,61025ae37ef11b136ea224fe,,,,,,,,,2157,157,-57,1,0,0,response3disk,,5,-3,20,1,0,0,rectangle,-3,20,1,0,0,,,,,,,-3,20,1,0,0,,1,11,171,125,1,
,,,,,,,,,,,,,FF,,,,,,,,0.9506,,,,,,,,,,,,,,,,,,,,,,610368480b2860d0f7e744be,61036eccd34988d5298eee7d,2021-07-29_23h16.07.578,Simcolourproject_2stim_asymm_v5,2020.2.10,Win32,60,61025ae37ef11b136ea224fe,,,,,,,,,2212,109,-62,1,0,0,response3disk,,5,18,1,1,0,0,rectangle,18,1,1,0,0,,,,,,,18,1,1,0,0,,1,12,172,115,1,
,,,,,,,,,,,,,FF,,,,,,,,1.3002,,,,,,,,,,,,,,,,,,,,,,610368480b2860d0f7e744be,61036eccd34988d5298eee7d,2021-07-29_23h16.07.578,Simcolourproject_2stim_asymm_v5,2020.2.10,Win32,60,61025ae37ef11b136ea224fe,,,,,,,,,3122,128,-38,1,0,0,response3disk,,5,10,18,1,0,0,rectangle,10,18,1,0,0,,,,,,,10,18,1,0,0,,1,13,173,56,1,
,,,,,,,,,,,,,FF,,,,,,,,0.9168,,,,,,,,,,,,,,,,,,,,,,610368480b2860d0f7e744be,61036eccd34988d5298eee7d,2021-07-29_23h16.07.578,Simcolourproject_2stim_asymm_v5,2020.2.10,Win32,60,61025ae37ef11b136ea224fe,,,,,,,,,1603,-23,116,1,0,0,response7disk,,0,19,-10,1,0,0,rectangle,35,115,1,0,0,response1disk_3,TRUE,7,7,"[109,1,17,45,277,55,306,253,95,95,30,215,110,123,19,211,17,175,244,302]",1.9165,30,-5,1,0,0,rectangle,1,14,174,129,1,
,,,,,,,,,,,,,FF,,,,,,,,2.5834,,,,,,,,,,,,,,,,,,,,,,610368480b2860d0f7e744be,61036eccd34988d5298eee7d,2021-07-29_23h16.07.578,Simcolourproject_2stim_asymm_v5,2020.2.10,Win32,60,61025ae37ef11b136ea224fe,,,,,,,,,4250,-61,-131,1,0,0,response5disk,,3,2,20,1,0,0,rectangle,2,20,1,0,0,,,,,,,2,20,1,0,0,,1,15,175,12,1,
,,,,,,,,,,,,,FF,,,,,,,,0.6836,,,,,,,,,,,,,,,,,,,,,,610368480b2860d0f7e744be,61036eccd34988d5298eee7d,2021-07-29_23h16.07.578,Simcolourproject_2stim_asymm_v5,2020.2.10,Win32,60,61025ae37ef11b136ea224fe,,,,,,,,,1370,-146,50,1,0,0,response7disk,,1,-1,-6,1,0,0,rectangle,-1,-6,1,0,0,,,,,,,-1,-6,1,0,0,,1,16,176,88,1,
,,,,,,,,,,,,,FF,,,,,,,,1.0501,,,,,,,,,,,,,,,,,,,,,,610368480b2860d0f7e744be,61036eccd34988d5298eee7d,2021-07-29_23h16.07.578,Simcolourproject_2stim_asymm_v5,2020.2.10,Win32,60,61025ae37ef11b136ea224fe,,,,,,,,,4222,-155,-84,1,0,0,response5disk,,2,-1,-2,1,0,0,rectangle,-1,-2,1,0,0,,,,,,,-1,-2,1,0,0,,1,17,177,87,1,
,,,,,,,,,,,,,FF,,,,,,,,0.6669,,,,,,,,,,,,,,,,,,,,,,610368480b2860d0f7e744be,61036eccd34988d5298eee7d,2021-07-29_23h16.07.578,Simcolourproject_2stim_asymm_v5,2020.2.10,Win32,60,61025ae37ef11b136ea224fe,,,,,,,,,1132,-50,-119,1,0,0,response5disk,,3,2,18,1,0,0,rectangle,2,18,1,0,0,,,,,,,2,18,1,0,0,,1,18,178,156,1,
,,,,,,,,,,,,,FF,,,,,,,,1.4169,,,,,,,,,,,,,,,,,,,,,,610368480b2860d0f7e744be,61036eccd34988d5298eee7d,2021-07-29_23h16.07.578,Simcolourproject_2stim_asymm_v5,2020.2.10,Win32,60,61025ae37ef11b136ea224fe,,,,,,,,,2096,-71,-128,1,0,0,response5disk,,3,-6,8,1,0,0,rectangle,-6,8,1,0,0,,,,,,,-6,8,1,0,0,,1,19,179,14,1,
,,,,,,,,,,,,,FF,,,,,,,,0.6129,,,,,,,,,,,,,,,,,,,,,,610368480b2860d0f7e744be,61036eccd34988d5298eee7d,2021-07-29_23h16.07.578,Simcolourproject_2stim_asymm_v5,2020.2.10,Win32,60,61025ae37ef11b136ea224fe,,,,,,,,,3336,-39,100,1,0,0,response7disk,,0,0,-5,1,0,0,rectangle,0,-5,1,0,0,,,,,,,0,-5,1,0,0,,1,20,180,157,1,
,,,,,,,,,,,,,FF,,,,,,,,0.7002,,,,,,,,,,,,,,,,,,,,,,610368480b2860d0f7e744be,61036eccd34988d5298eee7d,2021-07-29_23h16.07.578,Simcolourproject_2stim_asymm_v5,2020.2.10,Win32,60,61025ae37ef11b136ea224fe,,,,,,,,,3165,-62,-112,1,0,0,response5disk,,3,-1,-9,1,0,0,rectangle,-1,-9,1,0,0,,,,,,,-1,-9,1,0,0,,1,21,181,57,1,
,,,,,,,,,,,,,FF,,,,,,,,1.0502,,,,,,,,,,,,,,,,,,,,,,610368480b2860d0f7e744be,61036eccd34988d5298eee7d,2021-07-29_23h16.07.578,Simcolourproject_2stim_asymm_v5,2020.2.10,Win32,60,61025ae37ef11b136ea224fe,,,,,,,,,2913,54,-139,1,0,0,response3disk,,4,-3,-7,1,0,0,rectangle,-3,-7,1,0,0,,,,,,,-3,-7,1,0,0,,1,22,182,145,1,
,,,,,,,,,,,,,FF,,,,,,,,0.7336,,,,,,,,,,,,,,,,,,,,,,610368480b2860d0f7e744be,61036eccd34988d5298eee7d,2021-07-29_23h16.07.578,Simcolourproject_2stim_asymm_v5,2020.2.10,Win32,60,61025ae37ef11b136ea224fe,,,,,,,,,3080,-57,-120,1,0,0,response5disk,,3,3,6,1,0,0,rectangle,3,6,1,0,0,,,,,,,3,6,1,0,0,,1,23,183,121,1,
,,,,,,,,,,,,,FF,,,,,,,,0.7001,,,,,,,,,,,,,,,,,,,,,,610368480b2860d0f7e744be,61036eccd34988d5298eee7d,2021-07-29_23h16.07.578,Simcolourproject_2stim_asymm_v5,2020.2.10,Win32,60,61025ae37ef11b136ea224fe,,,,,,,,,2608,-32,74,1,0,0,response7disk,,0,6,-11,1,0,0,rectangle,6,-11,1,0,0,,,,,,,6,-11,1,0,0,,1,24,184,90,1,
,,,,,,,,,,,,,FF,,,,,,,,0.6332,,,,,,,,,,,,,,,,,,,,,,610368480b2860d0f7e744be,61036eccd34988d5298eee7d,2021-07-29_23h16.07.578,Simcolourproject_2stim_asymm_v5,2020.2.10,Win32,60,61025ae37ef11b136ea224fe,,,,,,,,,757,106,-63,1,0,0,response3disk,,5,9,8,1,0,0,rectangle,9,8,1,0,0,,,,,,,9,8,1,0,0,,1,25,185,105,1,
,,,,,,,,,,,,,FF,,,,,,,,1.7335,,,,,,,,,,,,,,,,,,,,,,610368480b2860d0f7e744be,61036eccd34988d5298eee7d,2021-07-29_23h16.07.578,Simcolourproject_2stim_asymm_v5,2020.2.10,Win32,60,61025ae37ef11b136ea224fe,,,,,,,,,4333,130,66,1,0,0,response1disk,,6,14,-5,1,0,0,rectangle,14,-5,1,0,0,,,,,,,14,-5,1,0,0,,1,26,186,73,1,
,,,,,,,,,,,,,FF,,,,,,,,1.5167,,,,,,,,,,,,,,,,,,,,,,610368480b2860d0f7e744be,61036eccd34988d5298eee7d,2021-07-29_23h16.07.578,Simcolourproject_2stim_asymm_v5,2020.2.10,Win32,60,61025ae37ef11b136ea224fe,,,,,,,,,1783,120,-32,1,0,0,response3disk,,5,-19,13,1,0,0,rectangle,-19,13,1,0,0,,,,,,,-19,13,1,0,0,,1,27,187,7,1,
,,,,,,,,,,,,,FF,,,,,,,,0.6835,,,,,,,,,,,,,,,,,,,,,,610368480b2860d0f7e744be,61036eccd34988d5298eee7d,2021-07-29_23h16.07.578,Simcolourproject_2stim_asymm_v5,2020.2.10,Win32,60,61025ae37ef11b136ea224fe,,,,,,,,,1215,-42,-123,1,0,0,response5disk,,3,-2,9,1,0,0,rectangle,-2,9,1,0,0,,,,,,,-2,9,1,0,0,,1,28,188,116,1,
,,,,,,,,,,,,,FF,,,,,,,,1.2169,,,,,,,,,,,,,,,,,,,,,,610368480b2860d0f7e744be,61036eccd34988d5298eee7d,2021-07-29_23h16.07.578,Simcolourproject_2stim_asymm_v5,2020.2.10,Win32,60,61025ae37ef11b136ea224fe,,,,,,,,,1837,126,31,1,0,0,response1disk,,6,24,-4,1,0,0,rectangle,24,-4,1,0,0,,,,,,,24,-4,1,0,0,,1,29,189,126,1,
,,,,,,,,,,,,,FF,,,,,,,,0.5335,,,,,,,,,,,,,,,,,,,,,,610368480b2860d0f7e744be,61036eccd34988d5298eee7d,2021-07-29_23h16.07.578,Simcolourproject_2stim_asymm_v5,2020.2.10,Win32,60,61025ae37ef11b136ea224fe,,,,,,,,,1688,130,57,1,0,0,response1disk,,6,-1,-10,1,0,0,rectangle,-1,-10,1,0,0,,,,,,,-1,-10,1,0,0,,1,30,190,84,1,
,,,,,,,,,,,,,FF,,,,,,,,0.6335,,,,,,,,,,,,,,,,,,,,,,610368480b2860d0f7e744be,61036eccd34988d5298eee7d,2021-07-29_23h16.07.578,Simcolourproject_2stim_asymm_v5,2020.2.10,Win32,60,61025ae37ef11b136ea224fe,,,,,,,,,3615,107,-46,1,0,0,response3disk,,5,-7,-4,1,0,0,rectangle,-7,-4,1,0,0,,,,,,,-7,-4,1,0,0,,1,31,191,147,1,
,,,,,,,,,,,,,FF,,,,,,,,0.9003,,,,,,,,,,,,,,,,,,,,,,610368480b2860d0f7e744be,61036eccd34988d5298eee7d,2021-07-29_23h16.07.578,Simcolourproject_2stim_asymm_v5,2020.2.10,Win32,60,61025ae37ef11b136ea224fe,,,,,,,,,1057,-115,58,1,0,0,response7disk,,1,-32,13,1,0,0,rectangle,-32,13,1,0,0,,,,,,,-32,13,1,0,0,,1,32,192,64,1,
,,,,,,,,,,,,,FF,,,,,,,,0.7169,,,,,,,,,,,,,,,,,,,,,,610368480b2860d0f7e744be,61036eccd34988d5298eee7d,2021-07-29_23h16.07.578,Simcolourproject_2stim_asymm_v5,2020.2.10,Win32,60,61025ae37ef11b136ea224fe,,,,,,,,,3367,151,-73,1,0,0,response3disk,,5,12,-15,1,0,0,rectangle,12,-15,1,0,0,,,,,,,12,-15,1,0,0,,1,33,193,6,1,
,,,,,,,,,,,,,FF,,,,,,,,1.6836,,,,,,,,,,,,,,,,,,,,,,610368480b2860d0f7e744be,61036eccd34988d5298eee7d,2021-07-29_23h16.07.578,Simcolourproject_2stim_asymm_v5,2020.2.10,Win32,60,61025ae37ef11b136ea224fe,,,,,,,,,486,120,47,1,0,0,response1disk,,6,-12,-11,1,0,0,rectangle,-12,-11,1,0,0,,,,,,,-12,-11,1,0,0,,1,34,194,47,1,
,,,,,,,,,,,,,FF,,,,,,,,1.0501,,,,,,,,,,,,,,,,,,,,,,610368480b2860d0f7e744be,61036eccd34988d5298eee7d,2021-07-29_23h16.07.578,Simcolourproject_2stim_asymm_v5,2020.2.10,Win32,60,61025ae37ef11b136ea224fe,,,,,,,,,914,146,54,1,0,0,response1disk,,6,25,-7,1,0,0,rectangle,25,-7,1,0,0,,,,,,,25,-7,1,0,0,,1,35,195,118,1,
,,,,,,,,,,,,,FF,,,,,,,,1.1003,,,,,,,,,,,,,,,,,,,,,,610368480b2860d0f7e744be,61036eccd34988d5298eee7d,2021-07-29_23h16.07.578,Simcolourproject_2stim_asymm_v5,2020.2.10,Win32,60,61025ae37ef11b136ea224fe,,,,,,,,,4191,74,97,1,0,0,response1disk,,7,24,5,1,0,0,rectangle,24,5,1,0,0,,,,,,,24,5,1,0,0,,1,36,196,127,1,
,,,,,,,,,,,,,FF,,,,,,,,0.9335,,,,,,,,,,,,,,,,,,,,,,610368480b2860d0f7e744be,61036eccd34988d5298eee7d,2021-07-29_23h16.07.578,Simcolourproject_2stim_asymm_v5,2020.2.10,Win32,60,61025ae37ef11b136ea224fe,,,,,,,,,1679,-67,-107,1,0,0,response5disk,,3,-10,0,1,0,0,rectangle,-10,0,1,0,0,,,,,,,-10,0,1,0,0,,1,37,197,91,1,
,,,,,,,,,,,,,FF,,,,,,,,1.1168,,,,,,,,,,,,,,,,,,,,,,610368480b2860d0f7e744be,61036eccd34988d5298eee7d,2021-07-29_23h16.07.578,Simcolourproject_2stim_asymm_v5,2020.2.10,Win32,60,61025ae37ef11b136ea224fe,,,,,,,,,2623,142,45,1,0,0,response1disk,,6,17,-9,1,0,0,rectangle,17,-9,1,0,0,,,,,,,17,-9,1,0,0,,1,38,198,1,1,
,,,,,,,,,,,,,FF,,,,,,,,0.8665,,,,,,,,,,,,,,,,,,,,,,610368480b2860d0f7e744be,61036eccd34988d5298eee7d,2021-07-29_23h16.07.578,Simcolourproject_2stim_asymm_v5,2020.2.10,Win32,60,61025ae37ef11b136ea224fe,,,,,,,,,1674,-74,-118,1,0,0,response5disk,,3,-3,14,1,0,0,rectangle,-3,14,1,0,0,,,,,,,-3,14,1,0,0,,1,39,199,103,1,
,,,,,,,,,,,,,FF,,,,,,,,0.9336,,,,,,,,,,,,,,,,,,,,,,610368480b2860d0f7e744be,61036eccd34988d5298eee7d,2021-07-29_23h16.07.578,Simcolourproject_2stim_asymm_v5,2020.2.10,Win32,60,61025ae37ef11b136ea224fe,,,,,,,,,4130,35,-138,1,0,0,response3disk,,4,-4,6,1,0,0,rectangle,-4,6,1,0,0,,,,,,,-4,6,1,0,0,,1,40,200,110,1,
,,,,,,,,,,,,,FF,,,,,,,,0.884,,,,,,,,,,,,,,,,,,,,,,610368480b2860d0f7e744be,61036eccd34988d5298eee7d,2021-07-29_23h16.07.578,Simcolourproject_2stim_asymm_v5,2020.2.10,Win32,60,61025ae37ef11b136ea224fe,,,,,,,,,2992,110,-64,1,0,0,response3disk,,5,-6,-2,1,0,0,rectangle,-6,-2,1,0,0,,,,,,,-6,-2,1,0,0,,1,41,201,117,1,
,,,,,,,,,,,,,FF,,,,,,,,1.8168,,,,,,,,,,,,,,,,,,,,,,610368480b2860d0f7e744be,61036eccd34988d5298eee7d,2021-07-29_23h16.07.578,Simcolourproject_2stim_asymm_v5,2020.2.10,Win32,60,61025ae37ef11b136ea224fe,,,,,,,,,3691,147,-53,1,0,0,response3disk,,5,8,-20,1,0,0,rectangle,8,-20,1,0,0,,,,,,,8,-20,1,0,0,,1,42,202,159,1,
,,,,,,,,,,,,,FF,,,,,,,,0.5836,,,,,,,,,,,,,,,,,,,,,,610368480b2860d0f7e744be,61036eccd34988d5298eee7d,2021-07-29_23h16.07.578,Simcolourproject_2stim_asymm_v5,2020.2.10,Win32,60,61025ae37ef11b136ea224fe,,,,,,,,,3768,126,30,1,0,0,response1disk,,6,-12,2,1,0,0,rectangle,-12,2,1,0,0,,,,,,,-12,2,1,0,0,,1,43,203,102,1,
,,,,,,,,,,,,,FF,,,,,,,,0.6171,,,,,,,,,,,,,,,,,,,,,,610368480b2860d0f7e744be,61036eccd34988d5298eee7d,2021-07-29_23h16.07.578,Simcolourproject_2stim_asymm_v5,2020.2.10,Win32,60,61025ae37ef11b136ea224fe,,,,,,,,,795,102,-45,1,0,0,response3disk,,5,0,-4,1,0,0,rectangle,0,-4,1,0,0,,,,,,,0,-4,1,0,0,,1,44,204,128,1,
,,,,,,,,,,,,,FF,,,,,,,,0.6836,,,,,,,,,,,,,,,,,,,,,,610368480b2860d0f7e744be,61036eccd34988d5298eee7d,2021-07-29_23h16.07.578,Simcolourproject_2stim_asymm_v5,2020.2.10,Win32,60,61025ae37ef11b136ea224fe,,,,,,,,,4186,-67,-102,1,0,0,response5disk,,3,9,10,1,0,0,rectangle,9,10,1,0,0,,,,,,,9,10,1,0,0,,1,45,205,67,1,
,,,,,,,,,,,,,FF,,,,,,,,0.6502,,,,,,,,,,,,,,,,,,,,,,610368480b2860d0f7e744be,61036eccd34988d5298eee7d,2021-07-29_23h16.07.578,Simcolourproject_2stim_asymm_v5,2020.2.10,Win32,60,61025ae37ef11b136ea224fe,,,,,,,,,3620,72,-119,1,0,0,response3disk,,4,4,-17,1,0,0,rectangle,4,-17,1,0,0,,,,,,,4,-17,1,0,0,,1,46,206,43,1,
,,,,,,,,,,,,,FF,,,,,,,,0.7501,,,,,,,,,,,,,,,,,,,,,,610368480b2860d0f7e744be,61036eccd34988d5298eee7d,2021-07-29_23h16.07.578,Simcolourproject_2stim_asymm_v5,2020.2.10,Win32,60,61025ae37ef11b136ea224fe,,,,,,,,,711,-54,-137,1,0,0,response5disk,,3,-1,1,1,0,0,rectangle,-1,1,1,0,0,,,,,,,-1,1,1,0,0,,1,47,207,119,1,
,,,,,,,,,,,,,FF,,,,,,,,1.3016,,,,,,,,,,,,,,,,,,,,,,610368480b2860d0f7e744be,61036eccd34988d5298eee7d,2021-07-29_23h16.07.578,Simcolourproject_2stim_asymm_v5,2020.2.10,Win32,60,61025ae37ef11b136ea224fe,,,,,,,,,1036,64,-153,1,0,0,response3disk,,4,-7,11,1,0,0,rectangle,-7,11,1,0,0,,,,,,,-7,11,1,0,0,,1,48,208,31,1,
,,,,,,,,,,,,,FF,,,,,,,,0.9668,,,,,,,,,,,,,,,,,,,,,,610368480b2860d0f7e744be,61036eccd34988d5298eee7d,2021-07-29_23h16.07.578,Simcolourproject_2stim_asymm_v5,2020.2.10,Win32,60,61025ae37ef11b136ea224fe,,,,,,,,,975,-121,86,1,0,0,response7disk,,1,6,9,1,0,0,rectangle,6,9,1,0,0,,,,,,,6,9,1,0,0,,1,49,209,2,1,
,,,,,,,,,,,,,FF,,,,,,,,0.567,,,,,,,,,,,,,,,,,,,,,,610368480b2860d0f7e744be,61036eccd34988d5298eee7d,2021-07-29_23h16.07.578,Simcolourproject_2stim_asymm_v5,2020.2.10,Win32,60,61025ae37ef11b136ea224fe,,,,,,,,,764,114,42,1,0,0,response1disk,,6,-4,1,1,0,0,rectangle,136,-81,1,0,0,response3disk_3,TRUE,5,5,"[109,1,17,45,277,55,306,253,95,95,30,215,110,123,19,211,17,175,244,302]",1.6999,44,-21,1,0,0,rectangle,1,50,210,70,1,
,,,,,,,,,,,,,FF,,,,,,,,0.6832,,,,,,,,,,,,,,,,,,,,,,610368480b2860d0f7e744be,61036eccd34988d5298eee7d,2021-07-29_23h16.07.578,Simcolourproject_2stim_asymm_v5,2020.2.10,Win32,60,61025ae37ef11b136ea224fe,,,,,,,,,414,122,-46,1,0,0,response3disk,,5,31,-13,1,0,0,rectangle,31,-13,1,0,0,,,,,,,31,-13,1,0,0,,1,51,211,96,1,
,,,,,,,,,,,,,FF,,,,,,,,1.3835,,,,,,,,,,,,,,,,,,,,,,610368480b2860d0f7e744be,61036eccd34988d5298eee7d,2021-07-29_23h16.07.578,Simcolourproject_2stim_asymm_v5,2020.2.10,Win32,60,61025ae37ef11b136ea224fe,,,,,,,,,479,140,49,1,0,0,response1disk,,6,-3,-5,1,0,0,rectangle,-3,-5,1,0,0,,,,,,,-3,-5,1,0,0,,1,52,212,49,1,
,,,,,,,,,,,,,FF,,,,,,,,0.7002,,,,,,,,,,,,,,,,,,,,,,610368480b2860d0f7e744be,61036eccd34988d5298eee7d,2021-07-29_23h16.07.578,Simcolourproject_2stim_asymm_v5,2020.2.10,Win32,60,61025ae37ef11b136ea224fe,,,,,,,,,2420,-145,49,1,0,0,response7disk,,1,7,15,1,0,0,rectangle,7,15,1,0,0,,,,,,,7,15,1,0,0,,1,53,213,68,1,
,,,,,,,,,,,,,FF,,,,,,,,0.8,,,,,,,,,,,,,,,,,,,,,,610368480b2860d0f7e744be,61036eccd34988d5298eee7d,2021-07-29_23h16.07.578,Simcolourproject_2stim_asymm_v5,2020.2.10,Win32,60,61025ae37ef11b136ea224fe,,,,,,,,,733,-47,-118,1,0,0,response5disk,,3,-11,-10,1,0,0,rectangle,130,54,1,0,0,response1disk_3,TRUE,6,6,"[109,1,17,45,277,55,306,253,95,95,30,215,110,123,19,211,17,175,244,302]",1.7665,-17,10,1,0,0,rectangle,1,54,214,138,1,
,,,,,,,,,,,,,FF,,,,,,,,0.6337,,,,,,,,,,,,,,,,,,,,,,610368480b2860d0f7e744be,61036eccd34988d5298eee7d,2021-07-29_23h16.07.578,Simcolourproject_2stim_asymm_v5,2020.2.10,Win32,60,61025ae37ef11b136ea224fe,,,,,,,,,3296,-33,-129,1,0,0,response5disk,,3,11,-9,1,0,0,rectangle,11,-9,1,0,0,,,,,,,11,-9,1,0,0,,1,55,215,101,1,
,,,,,,,,,,,,,FF,,,,,,,,0.7669,,,,,,,,,,,,,,,,,,,,,,610368480b2860d0f7e744be,61036eccd34988d5298eee7d,2021-07-29_23h16.07.578,Simcolourproject_2stim_asymm_v5,2020.2.10,Win32,60,61025ae37ef11b136ea224fe,,,,,,,,,2219,59,-131,1,0,0,response3disk,,4,-1,7,1,0,0,rectangle,-1,7,1,0,0,,,,,,,-1,7,1,0,0,,1,56,216,104,1,
,,,,,,,,,,,,,FF,,,,,,,,0.9335,,,,,,,,,,,,,,,,,,,,,,610368480b2860d0f7e744be,61036eccd34988d5298eee7d,2021-07-29_23h16.07.578,Simcolourproject_2stim_asymm_v5,2020.2.10,Win32,60,61025ae37ef11b136ea224fe,,,,,,,,,3833,56,-139,1,0,0,response3disk,,4,-8,13,1,0,0,rectangle,-8,13,1,0,0,,,,,,,-8,13,1,0,0,,1,57,217,134,1,
,,,,,,,,,,,,,FF,,,,,,,,1.1159,,,,,,,,,,,,,,,,,,,,,,610368480b2860d0f7e744be,61036eccd34988d5298eee7d,2021-07-29_23h16.07.578,Simcolourproject_2stim_asymm_v5,2020.2.10,Win32,60,61025ae37ef11b136ea224fe,,,,,,,,,3369,135,48,1,0,0,response1disk,,6,2,1,1,0,0,rectangle,2,1,1,0,0,,,,,,,2,1,1,0,0,,1,58,218,158,1,
,,,,,,,,,,,,,FF,,,,,,,,1.0169,,,,,,,,,,,,,,,,,,,,,,610368480b2860d0f7e744be,61036eccd34988d5298eee7d,2021-07-29_23h16.07.578,Simcolourproject_2stim_asymm_v5,2020.2.10,Win32,60,61025ae37ef11b136ea224fe,,,,,,,,,363,52,88,1,0,0,response1disk,,7,-7,0,1,0,0,rectangle,-7,0,1,0,0,,,,,,,-7,0,1,0,0,,1,59,219,109,1,
,,,,,,,,,,,,,FF,,,,,,,,1.4835,,,,,,,,,,,,,,,,,,,,,,610368480b2860d0f7e744be,61036eccd34988d5298eee7d,2021-07-29_23h16.07.578,Simcolourproject_2stim_asymm_v5,2020.2.10,Win32,60,61025ae37ef11b136ea224fe,,,,,,,,,470,-40,-140,1,0,0,response5disk,,3,36,-7,1,0,0,rectangle,36,-7,1,0,0,,,,,,,36,-7,1,0,0,,1,60,220,32,1,
,,,,,,,,,,,,,FF,,,,,,,,0.8835,,,,,,,,,,,,,,,,,,,,,,610368480b2860d0f7e744be,61036eccd34988d5298eee7d,2021-07-29_23h16.07.578,Simcolourproject_2stim_asymm_v5,2020.2.10,Win32,60,61025ae37ef11b136ea224fe,,,,,,,,,2881,67,-141,1,0,0,response3disk,,4,-2,17,1,0,0,rectangle,-2,17,1,0,0,,,,,,,-2,17,1,0,0,,1,61,221,50,1,
,,,,,,,,,,,,,FF,,,,,,,,1.6662,,,,,,,,,,,,,,,,,,,,,,610368480b2860d0f7e744be,61036eccd34988d5298eee7d,2021-07-29_23h16.07.578,Simcolourproject_2stim_asymm_v5,2020.2.10,Win32,60,61025ae37ef11b136ea224fe,,,,,,,,,1921,106,-51,1,0,0,response3disk,,5,20,4,1,0,0,rectangle,20,4,1,0,0,,,,,,,20,4,1,0,0,,1,62,222,112,1,
,,,,,,,,,,,,,FF,,,,,,,,1.0002,,,,,,,,,,,,,,,,,,,,,,610368480b2860d0f7e744be,61036eccd34988d5298eee7d,2021-07-29_23h16.07.578,Simcolourproject_2stim_asymm_v5,2020.2.10,Win32,60,61025ae37ef11b136ea224fe,,,,,,,,,3441,-50,-145,1,0,0,response5disk,,3,4,1,1,0,0,rectangle,4,1,1,0,0,,,,,,,4,1,1,0,0,,1,63,223,133,1,
,,,,,,,,,,,,,FF,,,,,,,,1.2865,,,,,,,,,,,,,,,,,,,,,,610368480b2860d0f7e744be,61036eccd34988d5298eee7d,2021-07-29_23h16.07.578,Simcolourproject_2stim_asymm_v5,2020.2.10,Win32,60,61025ae37ef11b136ea224fe,,,,,,,,,3825,129,-59,1,0,0,response3disk,,5,23,-7,1,0,0,rectangle,23,-7,1,0,0,,,,,,,23,-7,1,0,0,,1,64,224,34,1,
,,,,,,,,,,,,,FF,,,,,,,,1.0005,,,,,,,,,,,,,,,,,,,,,,610368480b2860d0f7e744be,61036eccd34988d5298eee7d,2021-07-29_23h16.07.578,Simcolourproject_2stim_asymm_v5,2020.2.10,Win32,60,61025ae37ef11b136ea224fe,,,,,,,,,4327,-118,48,1,0,0,response7disk,,1,15,-14,1,0,0,rectangle,15,-14,1,0,0,,,,,,,15,-14,1,0,0,,1,65,225,123,1,
,,,,,,,,,,,,,FF,,,,,,,,1.3502,,,,,,,,,,,,,,,,,,,,,,610368480b2860d0f7e744be,61036eccd34988d5298eee7d,2021-07-29_23h16.07.578,Simcolourproject_2stim_asymm_v5,2020.2.10,Win32,60,61025ae37ef11b136ea224fe,,,,,,,,,654,49,-121,1,0,0,response3disk,,4,1,6,1,0,0,rectangle,1,6,1,0,0,,,,,,,1,6,1,0,0,,1,66,226,130,1,
,,,,,,,,,,,,,FF,,,,,,,,2.9666,,,,,,,,,,,,,,,,,,,,,,610368480b2860d0f7e744be,61036eccd34988d5298eee7d,2021-07-29_23h16.07.578,Simcolourproject_2stim_asymm_v5,2020.2.10,Win32,60,61025ae37ef11b136ea224fe,,,,,,,,,1320,117,-75,1,0,0,response3disk,,5,3,-4,1,0,0,rectangle,3,-4,1,0,0,,,,,,,3,-4,1,0,0,,1,67,227,29,1,
,,,,,,,,,,,,,FF,,,,,,,,0.9168,,,,,,,,,,,,,,,,,,,,,,610368480b2860d0f7e744be,61036eccd34988d5298eee7d,2021-07-29_23h16.07.578,Simcolourproject_2stim_asymm_v5,2020.2.10,Win32,60,61025ae37ef11b136ea224fe,,,,,,,,,1632,60,-130,1,0,0,response3disk,,4,-1,-2,1,0,0,rectangle,-1,-2,1,0,0,,,,,,,-1,-2,1,0,0,,1,68,228,86,1,
,,,,,,,,,,,,,FF,,,,,,,,1.5006,,,,,,,,,,,,,,,,,,,,,,610368480b2860d0f7e744be,61036eccd34988d5298eee7d,2021-07-29_23h16.07.578,Simcolourproject_2stim_asymm_v5,2020.2.10,Win32,60,61025ae37ef11b136ea224fe,,,,,,,,,2285,133,25,1,0,0,response1disk,,6,-3,2,1,0,0,rectangle,-3,2,1,0,0,,,,,,,-3,2,1,0,0,,1,69,229,140,1,
,,,,,,,,,,,,,FF,,,,,,,,0.5655,,,,,,,,,,,,,,,,,,,,,,610368480b2860d0f7e744be,61036eccd34988d5298eee7d,2021-07-29_23h16.07.578,Simcolourproject_2stim_asymm_v5,2020.2.10,Win32,60,61025ae37ef11b136ea224fe,,,,,,,,,857,130,-56,1,0,0,response3disk,,5,7,10,1,0,0,rectangle,7,10,1,0,0,,,,,,,7,10,1,0,0,,1,70,230,85,1,
,,,,,,,,,,,,,FF,,,,,,,,0.5835,,,,,,,,,,,,,,,,,,,,,,610368480b2860d0f7e744be,61036eccd34988d5298eee7d,2021-07-29_23h16.07.578,Simcolourproject_2stim_asymm_v5,2020.2.10,Win32,60,61025ae37ef11b136ea224fe,,,,,,,,,481,112,-68,1,0,0,response3disk,,5,7,3,1,0,0,rectangle,7,3,1,0,0,,,,,,,7,3,1,0,0,,1,71,231,82,1,
,,,,,,,,,,,,,FF,,,,,,,,1.4837,,,,,,,,,,,,,,,,,,,,,,610368480b2860d0f7e744be,61036eccd34988d5298eee7d,2021-07-29_23h16.07.578,Simcolourproject_2stim_asymm_v5,2020.2.10,Win32,60,61025ae37ef11b136ea224fe,,,,,,,,,1198,73,106,1,0,0,response1disk,,7,18,10,1,0,0,rectangle,18,10,1,0,0,,,,,,,18,10,1,0,0,,1,72,232,139,1,
,,,,,,,,,,,,,FF,,,,,,,,0.933,,,,,,,,,,,,,,,,,,,,,,610368480b2860d0f7e744be,61036eccd34988d5298eee7d,2021-07-29_23h16.07.578,Simcolourproject_2stim_asymm_v5,2020.2.10,Win32,60,61025ae37ef11b136ea224fe,,,,,,,,,608,134,-52,1,0,0,response3disk,,5,12,-9,1,0,0,rectangle,12,-9,1,0,0,,,,,,,12,-9,1,0,0,,1,73,233,28,1,
,,,,,,,,,,,,,FF,,,,,,,,1.0044,,,,,,,,,,,,,,,,,,,,,,610368480b2860d0f7e744be,61036eccd34988d5298eee7d,2021-07-29_23h16.07.578,Simcolourproject_2stim_asymm_v5,2020.2.10,Win32,60,61025ae37ef11b136ea224fe,,,,,,,,,3386,71,-138,1,0,0,response3disk,,4,-4,-7,1,0,0,rectangle,-4,-7,1,0,0,,,,,,,-4,-7,1,0,0,,1,74,234,0,1,
,,,,,,,,,,,,,FF,,,,,,,,1.0836,,,,,,,,,,,,,,,,,,,,,,610368480b2860d0f7e744be,61036eccd34988d5298eee7d,2021-07-29_23h16.07.578,Simcolourproject_2stim_asymm_v5,2020.2.10,Win32,60,61025ae37ef11b136ea224fe,,,,,,,,,929,70,-125,1,0,0,response3disk,,4,-6,2,1,0,0,rectangle,-6,2,1,0,0,,,,,,,-6,2,1,0,0,,1,75,235,59,1,
,,,,,,,,,,,,,FF,,,,,,,,0.6997,,,,,,,,,,,,,,,,,,,,,,610368480b2860d0f7e744be,61036eccd34988d5298eee7d,2021-07-29_23h16.07.578,Simcolourproject_2stim_asymm_v5,2020.2.10,Win32,60,61025ae37ef11b136ea224fe,,,,,,,,,740,-32,-105,1,0,0,response5disk,,3,14,17,1,0,0,rectangle,14,17,1,0,0,,,,,,,14,17,1,0,0,,1,76,236,10,1,
,,,,,,,,,,,,,FF,,,,,,,,0.6668,,,,,,,,,,,,,,,,,,,,,,610368480b2860d0f7e744be,61036eccd34988d5298eee7d,2021-07-29_23h16.07.578,Simcolourproject_2stim_asymm_v5,2020.2.10,Win32,60,61025ae37ef11b136ea224fe,,,,,,,,,2831,-41,107,1,0,0,response7disk,,0,-8,1,1,0,0,rectangle,-8,1,1,0,0,,,,,,,-8,1,1,0,0,,1,77,237,81,1,
,,,,,,,,,,,,,FF,,,,,,,,0.6006,,,,,,,,,,,,,,,,,,,,,,610368480b2860d0f7e744be,61036eccd34988d5298eee7d,2021-07-29_23h16.07.578,Simcolourproject_2stim_asymm_v5,2020.2.10,Win32,60,61025ae37ef11b136ea224fe,,,,,,,,,3317,135,-52,1,0,0,response3disk,,5,-9,9,1,0,0,rectangle,-9,9,1,0,0,,,,,,,-9,9,1,0,0,,1,78,238,107,1,
,,,,,,,,,,,,,FF,,,,,,,,0.8714,,,,,,,,,,,,,,,,,,,,,,610368480b2860d0f7e744be,61036eccd34988d5298eee7d,2021-07-29_23h16.07.578,Simcolourproject_2stim_asymm_v5,2020.2.10,Win32,60,61025ae37ef11b136ea224fe,,,,,,,,,1371,-64,-104,1,0,0,response5disk,,3,6,-4,1,0,0,rectangle,6,-4,1,0,0,,,,,,,6,-4,1,0,0,,1,79,239,98,1,
,,,,,,,,,,,,,FF,,,,,,,,0.6503,,,,,,,,,,,,,,,,,,,,,,610368480b2860d0f7e744be,61036eccd34988d5298eee7d,2021-07-29_23h16.07.578,Simcolourproject_2stim_asymm_v5,2020.2.10,Win32,60,61025ae37ef11b136ea224fe,,,,,,,,,521,137,53,1,0,0,response1disk,,6,11,-13,1,0,0,rectangle,11,-13,1,0,0,,,,,,,11,-13,1,0,0,,1,80,240,150,1,
,,,,,,,,,,,,,FF,,,,,,,,1.4834,,,,,,,,,,,,,,,,,,,,,,610368480b2860d0f7e744be,61036eccd34988d5298eee7d,2021-07-29_23h16.07.578,Simcolourproject_2stim_asymm_v5,2020.2.10,Win32,60,61025ae37ef11b136ea224fe,,,,,,,,,4297,-126,55,1,0,0,response7disk,,1,14,8,1,0,0,rectangle,14,8,1,0,0,,,,,,,14,8,1,0,0,,1,81,241,124,1,
,,,,,,,,,,,,,FF,,,,,,,,1.3002,,,,,,,,,,,,,,,,,,,,,,610368480b2860d0f7e744be,61036eccd34988d5298eee7d,2021-07-29_23h16.07.578,Simcolourproject_2stim_asymm_v5,2020.2.10,Win32,60,61025ae37ef11b136ea224fe,,,,,,,,,1986,132,-60,1,0,0,response3disk,,5,-31,9,1,0,0,rectangle,-31,9,1,0,0,,,,,,,-31,9,1,0,0,,1,82,242,132,1,
,,,,,,,,,,,,,FF,,,,,,,,1.5839,,,,,,,,,,,,,,,,,,,,,,610368480b2860d0f7e744be,61036eccd34988d5298eee7d,2021-07-29_23h16.07.578,Simcolourproject_2stim_asymm_v5,2020.2.10,Win32,60,61025ae37ef11b136ea224fe,,,,,,,,,4039,-131,-52,1,0,0,response5disk,,2,37,17,1,0,0,rectangle,-131,60,1,0,0,response7disk_3,TRUE,1,1,"[109,1,17,45,277,55,306,253,95,95,30,215,110,123,19,211,17,175,244,302]",2.0503,22,-6,1,0,0,rectangle,1,83,243,137,1,
,,,,,,,,,,,,,FF,,,,,,,,0.7336,,,,,,,,,,,,,,,,,,,,,,610368480b2860d0f7e744be,61036eccd34988d5298eee7d,2021-07-29_23h16.07.578,Simcolourproject_2stim_asymm_v5,2020.2.10,Win32,60,61025ae37ef11b136ea224fe,,,,,,,,,2295,-81,-121,1,0,0,response5disk,,3,6,18,1,0,0,rectangle,6,18,1,0,0,,,,,,,6,18,1,0,0,,1,84,244,149,1,
,,,,,,,,,,,,,FF,,,,,,,,1.0001,,,,,,,,,,,,,,,,,,,,,,610368480b2860d0f7e744be,61036eccd34988d5298eee7d,2021-07-29_23h16.07.578,Simcolourproject_2stim_asymm_v5,2020.2.10,Win32,60,61025ae37ef11b136ea224fe,,,,,,,,,2627,49,-118,1,0,0,response3disk,,4,-16,18,1,0,0,rectangle,-16,18,1,0,0,,,,,,,-16,18,1,0,0,,1,85,245,33,1,
,,,,,,,,,,,,,FF,,,,,,,,1.1501,,,,,,,,,,,,,,,,,,,,,,610368480b2860d0f7e744be,61036eccd34988d5298eee7d,2021-07-29_23h16.07.578,Simcolourproject_2stim_asymm_v5,2020.2.10,Win32,60,61025ae37ef11b136ea224fe,,,,,,,,,3897,140,37,1,0,0,response1disk,,6,22,-6,1,0,0,rectangle,22,-6,1,0,0,,,,,,,22,-6,1,0,0,,1,86,246,16,1,
,,,,,,,,,,,,,FF,,,,,,,,0.667,,,,,,,,,,,,,,,,,,,,,,610368480b2860d0f7e744be,61036eccd34988d5298eee7d,2021-07-29_23h16.07.578,Simcolourproject_2stim_asymm_v5,2020.2.10,Win32,60,61025ae37ef11b136ea224fe,,,,,,,,,4083,96,-47,1,0,0,response3disk,,5,14,-21,1,0,0,rectangle,14,-21,1,0,0,,,,,,,14,-21,1,0,0,,1,87,247,35,1,
,,,,,,,,,,,,,FF,,,,,,,,1.0335,,,,,,,,,,,,,,,,,,,,,,610368480b2860d0f7e744be,61036eccd34988d5298eee7d,2021-07-29_23h16.07.578,Simcolourproject_2stim_asymm_v5,2020.2.10,Win32,60,61025ae37ef11b136ea224fe,,,,,,,,,1608,-133,55,1,0,0,response7disk,,1,34,-6,1,0,0,rectangle,34,-6,1,0,0,,,,,,,34,-6,1,0,0,,1,88,248,61,1,
,,,,,,,,,,,,,FF,,,,,,,,0.8503,,,,,,,,,,,,,,,,,,,,,,610368480b2860d0f7e744be,61036eccd34988d5298eee7d,2021-07-29_23h16.07.578,Simcolourproject_2stim_asymm_v5,2020.2.10,Win32,60,61025ae37ef11b136ea224fe,,,,,,,,,730,-44,-109,1,0,0,response5disk,,3,13,17,1,0,0,rectangle,13,17,1,0,0,,,,,,,13,17,1,0,0,,1,89,249,39,1,
,,,,,,,,,,,,,FF,,,,,,,,1.067,,,,,,,,,,,,,,,,,,,,,,610368480b2860d0f7e744be,61036eccd34988d5298eee7d,2021-07-29_23h16.07.578,Simcolourproject_2stim_asymm_v5,2020.2.10,Win32,60,61025ae37ef11b136ea224fe,,,,,,,,,4325,90,104,1,0,0,response1disk,,7,34,3,1,0,0,rectangle,34,3,1,0,0,,,,,,,34,3,1,0,0,,1,90,250,135,1,
,,,,,,,,,,,,,FF,,,,,,,,0.817,,,,,,,,,,,,,,,,,,,,,,610368480b2860d0f7e744be,61036eccd34988d5298eee7d,2021-07-29_23h16.07.578,Simcolourproject_2stim_asymm_v5,2020.2.10,Win32,60,61025ae37ef11b136ea224fe,,,,,,,,,110,-52,-130,1,0,0,response5disk,,3,1,-3,1,0,0,rectangle,1,-3,1,0,0,,,,,,,1,-3,1,0,0,,1,91,251,26,1,
,,,,,,,,,,,,,FF,,,,,,,,1.9668,,,,,,,,,,,,,,,,,,,,,,610368480b2860d0f7e744be,61036eccd34988d5298eee7d,2021-07-29_23h16.07.578,Simcolourproject_2stim_asymm_v5,2020.2.10,Win32,60,61025ae37ef11b136ea224fe,,,,,,,,,2413,-82,-132,1,0,0,response5disk,,3,-3,21,1,0,0,rectangle,54,-129,1,0,0,response3disk_3,TRUE,4,4,"[109,1,17,45,277,55,306,253,95,95,30,215,110,123,19,211,17,175,244,302]",1.9331,-5,-1,1,0,0,rectangle,1,92,252,13,1,
,,,,,,,,,,,,,FF,,,,,,,,1.0998,,,,,,,,,,,,,,,,,,,,,,610368480b2860d0f7e744be,61036eccd34988d5298eee7d,2021-07-29_23h16.07.578,Simcolourproject_2stim_asymm_v5,2020.2.10,Win32,60,61025ae37ef11b136ea224fe,,,,,,,,,2478,146,38,1,0,0,response1disk,,6,18,-21,1,0,0,rectangle,18,-21,1,0,0,,,,,,,18,-21,1,0,0,,1,93,253,143,1,
,,,,,,,,,,,,,FF,,,,,,,,0.9164,,,,,,,,,,,,,,,,,,,,,,610368480b2860d0f7e744be,61036eccd34988d5298eee7d,2021-07-29_23h16.07.578,Simcolourproject_2stim_asymm_v5,2020.2.10,Win32,60,61025ae37ef11b136ea224fe,,,,,,,,,4029,32,-140,1,0,0,response3disk,,4,0,-3,1,0,0,rectangle,0,-3,1,0,0,,,,,,,0,-3,1,0,0,,1,94,254,41,1,
,,,,,,,,,,,,,FF,,,,,,,,1.0164,,,,,,,,,,,,,,,,,,,,,,610368480b2860d0f7e744be,61036eccd34988d5298eee7d,2021-07-29_23h16.07.578,Simcolourproject_2stim_asymm_v5,2020.2.10,Win32,60,61025ae37ef11b136ea224fe,,,,,,,,,1061,66,-120,1,0,0,response3disk,,4,20,-7,1,0,0,rectangle,20,-7,1,0,0,,,,,,,20,-7,1,0,0,,1,95,255,80,1,
,,,,,,,,,,,,,FF,,,,,,,,1.5167,,,,,,,,,,,,,,,,,,,,,,610368480b2860d0f7e744be,61036eccd34988d5298eee7d,2021-07-29_23h16.07.578,Simcolourproject_2stim_asymm_v5,2020.2.10,Win32,60,61025ae37ef11b136ea224fe,,,,,,,,,4148,-58,-132,1,0,0,response5disk,,3,-11,-14,1,0,0,rectangle,-11,-14,1,0,0,,,,,,,-11,-14,1,0,0,,1,96,256,38,1,
,,,,,,,,,,,,,FF,,,,,,,,1.6001,,,,,,,,,,,,,,,,,,,,,,610368480b2860d0f7e744be,61036eccd34988d5298eee7d,2021-07-29_23h16.07.578,Simcolourproject_2stim_asymm_v5,2020.2.10,Win32,60,61025ae37ef11b136ea224fe,,,,,,,,,4157,135,-58,1,0,0,response3disk,,5,28,-5,1,0,0,rectangle,28,-5,1,0,0,,,,,,,28,-5,1,0,0,,1,97,257,17,1,
,,,,,,,,,,,,,FF,,,,,,,,0.6335,,,,,,,,,,,,,,,,,,,,,,610368480b2860d0f7e744be,61036eccd34988d5298eee7d,2021-07-29_23h16.07.578,Simcolourproject_2stim_asymm_v5,2020.2.10,Win32,60,61025ae37ef11b136ea224fe,,,,,,,,,2825,68,-159,1,0,0,response3disk,,4,-17,17,1,0,0,rectangle,-17,17,1,0,0,,,,,,,-17,17,1,0,0,,1,98,258,9,1,
,,,,,,,,,,,,,FF,,,,,,,,0.8802,,,,,,,,,,,,,,,,,,,,,,610368480b2860d0f7e744be,61036eccd34988d5298eee7d,2021-07-29_23h16.07.578,Simcolourproject_2stim_asymm_v5,2020.2.10,Win32,60,61025ae37ef11b136ea224fe,,,,,,,,,802,-115,45,1,0,0,response7disk,,1,-3,1,1,0,0,rectangle,-3,1,1,0,0,,,,,,,-3,1,1,0,0,,1,99,259,155,1,
,,,,,,,,,,,,,FF,,,,,,,,1.9836,,,,,,,,,,,,,,,,,,,,,,610368480b2860d0f7e744be,61036eccd34988d5298eee7d,2021-07-29_23h16.07.578,Simcolourproject_2stim_asymm_v5,2020.2.10,Win32,60,61025ae37ef11b136ea224fe,,,,,,,,,551,-46,-124,1,0,0,response5disk,,3,0,9,1,0,0,rectangle,0,9,1,0,0,,,,,,,0,9,1,0,0,,1,100,260,44,1,
,,,,,,,,,,,,,FF,,,,,,,,0.5668,,,,,,,,,,,,,,,,,,,,,,610368480b2860d0f7e744be,61036eccd34988d5298eee7d,2021-07-29_23h16.07.578,Simcolourproject_2stim_asymm_v5,2020.2.10,Win32,60,61025ae37ef11b136ea224fe,,,,,,,,,1565,106,-49,1,0,0,response3disk,,5,13,-9,1,0,0,rectangle,13,-9,1,0,0,,,,,,,13,-9,1,0,0,,1,101,261,48,1,
,,,,,,,,,,,,,FF,,,,,,,,1.3334,,,,,,,,,,,,,,,,,,,,,,610368480b2860d0f7e744be,61036eccd34988d5298eee7d,2021-07-29_23h16.07.578,Simcolourproject_2stim_asymm_v5,2020.2.10,Win32,60,61025ae37ef11b136ea224fe,,,,,,,,,583,133,36,1,0,0,response1disk,,6,16,-15,1,0,0,rectangle,16,-15,1,0,0,,,,,,,16,-15,1,0,0,,1,102,262,100,1,
,,,,,,,,,,,,,FF,,,,,,,,0.8668,,,,,,,,,,,,,,,,,,,,,,610368480b2860d0f7e744be,61036eccd34988d5298eee7d,2021-07-29_23h16.07.578,Simcolourproject_2stim_asymm_v5,2020.2.10,Win32,60,61025ae37ef11b136ea224fe,,,,,,,,,1041,136,56,1,0,0,response1disk,,6,-6,-10,1,0,0,rectangle,-6,-10,1,0,0,,,,,,,-6,-10,1,0,0,,1,103,263,27,1,
,,,,,,,,,,,,,FF,,,,,,,,1.4335,,,,,,,,,,,,,,,,,,,,,,610368480b2860d0f7e744be,61036eccd34988d5298eee7d,2021-07-29_23h16.07.578,Simcolourproject_2stim_asymm_v5,2020.2.10,Win32,60,61025ae37ef11b136ea224fe,,,,,,,,,1008,117,-70,1,0,0,response3disk,,5,12,-6,1,0,0,rectangle,12,-6,1,0,0,,,,,,,12,-6,1,0,0,,1,104,264,24,1,
,,,,,,,,,,,,,FF,,,,,,,,0.6592,,,,,,,,,,,,,,,,,,,,,,610368480b2860d0f7e744be,61036eccd34988d5298eee7d,2021-07-29_23h16.07.578,Simcolourproject_2stim_asymm_v5,2020.2.10,Win32,60,61025ae37ef11b136ea224fe,,,,,,,,,2931,148,58,1,0,0,response1disk,,6,16,-6,1,0,0,rectangle,16,-6,1,0,0,,,,,,,16,-6,1,0,0,,1,105,265,53,1,
,,,,,,,,,,,,,FF,,,,,,,,0.7501,,,,,,,,,,,,,,,,,,,,,,610368480b2860d0f7e744be,61036eccd34988d5298eee7d,2021-07-29_23h16.07.578,Simcolourproject_2stim_asymm_v5,2020.2.10,Win32,60,61025ae37ef11b136ea224fe,,,,,,,,,923,126,-71,1,0,0,response3disk,,5,16,-11,1,0,0,rectangle,16,-11,1,0,0,,,,,,,16,-11,1,0,0,,1,106,266,20,1,
,,,,,,,,,,,,,FF,,,,,,,,1.5164,,,,,,,,,,,,,,,,,,,,,,610368480b2860d0f7e744be,61036eccd34988d5298eee7d,2021-07-29_23h16.07.578,Simcolourproject_2stim_asymm_v5,2020.2.10,Win32,60,61025ae37ef11b136ea224fe,,,,,,,,,573,134,48,1,0,0,response1disk,,6,1,6,1,0,0,rectangle,1,6,1,0,0,,,,,,,1,6,1,0,0,,1,107,267,54,1,
,,,,,,,,,,,,,FF,,,,,,,,1.2668,,,,,,,,,,,,,,,,,,,,,,610368480b2860d0f7e744be,61036eccd34988d5298eee7d,2021-07-29_23h16.07.578,Simcolourproject_2stim_asymm_v5,2020.2.10,Win32,60,61025ae37ef11b136ea224fe,,,,,,,,,4058,73,-115,1,0,0,response3disk,,4,10,-19,1,0,0,rectangle,10,-19,1,0,0,,,,,,,10,-19,1,0,0,,1,108,268,65,1,
,,,,,,,,,,,,,FF,,,,,,,,0.6331,,,,,,,,,,,,,,,,,,,,,,610368480b2860d0f7e744be,61036eccd34988d5298eee7d,2021-07-29_23h16.07.578,Simcolourproject_2stim_asymm_v5,2020.2.10,Win32,60,61025ae37ef11b136ea224fe,,,,,,,,,827,-46,-107,1,0,0,response5disk,,3,-1,8,1,0,0,rectangle,-1,8,1,0,0,,,,,,,-1,8,1,0,0,,1,109,269,75,1,
,,,,,,,,,,,,,FF,,,,,,,,2.5664,,,,,,,,,,,,,,,,,,,,,,610368480b2860d0f7e744be,61036eccd34988d5298eee7d,2021-07-29_23h16.07.578,Simcolourproject_2stim_asymm_v5,2020.2.10,Win32,60,61025ae37ef11b136ea224fe,,,,,,,,,2970,70,86,1,0,0,response1disk,,7,25,8,1,0,0,rectangle,25,8,1,0,0,,,,,,,25,8,1,0,0,,1,110,270,36,1,
,,,,,,,,,,,,,FF,,,,,,,,2.1169,,,,,,,,,,,,,,,,,,,,,,610368480b2860d0f7e744be,61036eccd34988d5298eee7d,2021-07-29_23h16.07.578,Simcolourproject_2stim_asymm_v5,2020.2.10,Win32,60,61025ae37ef11b136ea224fe,,,,,,,,,2862,115,-52,1,0,0,response3disk,,5,-11,-1,1,0,0,rectangle,-11,-1,1,0,0,,,,,,,-11,-1,1,0,0,,1,111,271,153,1,
,,,,,,,,,,,,,FF,,,,,,,,0.9682,,,,,,,,,,,,,,,,,,,,,,610368480b2860d0f7e744be,61036eccd34988d5298eee7d,2021-07-29_23h16.07.578,Simcolourproject_2stim_asymm_v5,2020.2.10,Win32,60,61025ae37ef11b136ea224fe,,,,,,,,,1568,143,48,1,0,0,response1disk,,6,5,0,1,0,0,rectangle,5,0,1,0,0,,,,,,,5,0,1,0,0,,1,112,272,92,1,
,,,,,,,,,,,,,FF,,,,,,,,0.8334,,,,,,,,,,,,,,,,,,,,,,610368480b2860d0f7e744be,61036eccd34988d5298eee7d,2021-07-29_23h16.07.578,Simcolourproject_2stim_asymm_v5,2020.2.10,Win32,60,61025ae37ef11b136ea224fe,,,,,,,,,1319,45,-138,1,0,0,response3disk,,4,-6,-2,1,0,0,rectangle,-6,-2,1,0,0,,,,,,,-6,-2,1,0,0,,1,113,273,79,1,
,,,,,,,,,,,,,FF,,,,,,,,0.8044,,,,,,,,,,,,,,,,,,,,,,610368480b2860d0f7e744be,61036eccd34988d5298eee7d,2021-07-29_23h16.07.578,Simcolourproject_2stim_asymm_v5,2020.2.10,Win32,60,61025ae37ef11b136ea224fe,,,,,,,,,906,-78,-107,1,0,0,response5disk,,3,-18,10,1,0,0,rectangle,-18,10,1,0,0,,,,,,,-18,10,1,0,0,,1,114,274,21,1,
,,,,,,,,,,,,,FF,,,,,,,,1.0962,,,,,,,,,,,,,,,,,,,,,,610368480b2860d0f7e744be,61036eccd34988d5298eee7d,2021-07-29_23h16.07.578,Simcolourproject_2stim_asymm_v5,2020.2.10,Win32,60,61025ae37ef11b136ea224fe,,,,,,,,,2736,66,-135,1,0,0,response3disk,,4,2,-3,1,0,0,rectangle,2,-3,1,0,0,,,,,,,2,-3,1,0,0,,1,115,275,8,1,
,,,,,,,,,,,,,FF,,,,,,,,1.0833,,,,,,,,,,,,,,,,,,,,,,610368480b2860d0f7e744be,61036eccd34988d5298eee7d,2021-07-29_23h16.07.578,Simcolourproject_2stim_asymm_v5,2020.2.10,Win32,60,61025ae37ef11b136ea224fe,,,,,,,,,463,-90,-148,1,0,0,response5disk,,3,0,-14,1,0,0,rectangle,-131,-55,1,0,0,response5disk_3,TRUE,2,2,"[109,1,17,45,277,55,306,253,95,95,30,215,110,123,19,211,17,175,244,302]",1.9167,1,1,1,0,0,rectangle,1,116,276,11,1,
,,,,,,,,,,,,,FF,,,,,,,,1.8506,,,,,,,,,,,,,,,,,,,,,,610368480b2860d0f7e744be,61036eccd34988d5298eee7d,2021-07-29_23h16.07.578,Simcolourproject_2stim_asymm_v5,2020.2.10,Win32,60,61025ae37ef11b136ea224fe,,,,,,,,,3916,60,-139,1,0,0,response3disk,,4,4,3,1,0,0,rectangle,4,3,1,0,0,,,,,,,4,3,1,0,0,,1,117,277,131,1,
,,,,,,,,,,,,,FF,,,,,,,,1.1168,,,,,,,,,,,,,,,,,,,,,,610368480b2860d0f7e744be,61036eccd34988d5298eee7d,2021-07-29_23h16.07.578,Simcolourproject_2stim_asymm_v5,2020.2.10,Win32,60,61025ae37ef11b136ea224fe,,,,,,,,,1285,44,-133,1,0,0,response3disk,,4,5,-5,1,0,0,rectangle,5,-5,1,0,0,,,,,,,5,-5,1,0,0,,1,118,278,141,1,
,,,,,,,,,,,,,FF,,,,,,,,2.3,,,,,,,,,,,,,,,,,,,,,,610368480b2860d0f7e744be,61036eccd34988d5298eee7d,2021-07-29_23h16.07.578,Simcolourproject_2stim_asymm_v5,2020.2.10,Win32,60,61025ae37ef11b136ea224fe,,,,,,,,,3602,54,-108,1,0,0,response3disk,,4,-7,-6,1,0,0,rectangle,-7,-6,1,0,0,,,,,,,-7,-6,1,0,0,,1,119,279,77,1,
,,,,,,,,,,,,,FF,,,,,,,,1.5005,,,,,,,,,,,,,,,,,,,,,,610368480b2860d0f7e744be,61036eccd34988d5298eee7d,2021-07-29_23h16.07.578,Simcolourproject_2stim_asymm_v5,2020.2.10,Win32,60,61025ae37ef11b136ea224fe,,,,,,,,,1271,141,-70,1,0,0,response3disk,,5,-33,13,1,0,0,rectangle,-33,13,1,0,0,,,,,,,-33,13,1,0,0,,1,120,280,120,1,
,,,,,,,,,,,,,FF,,,,,,,,1.6169,,,,,,,,,,,,,,,,,,,,,,610368480b2860d0f7e744be,61036eccd34988d5298eee7d,2021-07-29_23h16.07.578,Simcolourproject_2stim_asymm_v5,2020.2.10,Win32,60,61025ae37ef11b136ea224fe,,,,,,,,,1505,141,67,1,0,0,response1disk,,6,6,-12,1,0,0,rectangle,6,-12,1,0,0,,,,,,,6,-12,1,0,0,,1,121,281,3,1,
,,,,,,,,,,,,,FF,,,,,,,,0.7831,,,,,,,,,,,,,,,,,,,,,,610368480b2860d0f7e744be,61036eccd34988d5298eee7d,2021-07-29_23h16.07.578,Simcolourproject_2stim_asymm_v5,2020.2.10,Win32,60,61025ae37ef11b136ea224fe,,,,,,,,,1250,56,-144,1,0,0,response3disk,,4,-12,-4,1,0,0,rectangle,-12,-4,1,0,0,,,,,,,-12,-4,1,0,0,,1,122,282,94,1,
,,,,,,,,,,,,,FF,,,,,,,,2.0168,,,,,,,,,,,,,,,,,,,,,,610368480b2860d0f7e744be,61036eccd34988d5298eee7d,2021-07-29_23h16.07.578,Simcolourproject_2stim_asymm_v5,2020.2.10,Win32,60,61025ae37ef11b136ea224fe,,,,,,,,,3404,99,-49,1,0,0,response3disk,,5,-7,-6,1,0,0,rectangle,-7,-6,1,0,0,,,,,,,-7,-6,1,0,0,,1,123,283,30,1,
,,,,,,,,,,,,,FF,,,,,,,,1.4501,,,,,,,,,,,,,,,,,,,,,,610368480b2860d0f7e744be,61036eccd34988d5298eee7d,2021-07-29_23h16.07.578,Simcolourproject_2stim_asymm_v5,2020.2.10,Win32,60,61025ae37ef11b136ea224fe,,,,,,,,,309,137,51,1,0,0,response1disk,,6,28,-16,1,0,0,rectangle,28,-16,1,0,0,,,,,,,28,-16,1,0,0,,1,124,284,19,1,
,,,,,,,,,,,,,FF,,,,,,,,1.0502,,,,,,,,,,,,,,,,,,,,,,610368480b2860d0f7e744be,61036eccd34988d5298eee7d,2021-07-29_23h16.07.578,Simcolourproject_2stim_asymm_v5,2020.2.10,Win32,60,61025ae37ef11b136ea224fe,,,,,,,,,4151,112,-74,1,0,0,response3disk,,5,-10,-10,1,0,0,rectangle,-10,-10,1,0,0,,,,,,,-10,-10,1,0,0,,1,125,285,51,1,
,,,,,,,,,,,,,FF,,,,,,,,1.3001,,,,,,,,,,,,,,,,,,,,,,610368480b2860d0f7e744be,61036eccd34988d5298eee7d,2021-07-29_23h16.07.578,Simcolourproject_2stim_asymm_v5,2020.2.10,Win32,60,61025ae37ef11b136ea224fe,,,,,,,,,4184,62,-136,1,0,0,response3disk,,4,10,-2,1,0,0,rectangle,10,-2,1,0,0,,,,,,,10,-2,1,0,0,,1,126,286,144,1,
,,,,,,,,,,,,,FF,,,,,,,,1.3167,,,,,,,,,,,,,,,,,,,,,,610368480b2860d0f7e744be,61036eccd34988d5298eee7d,2021-07-29_23h16.07.578,Simcolourproject_2stim_asymm_v5,2020.2.10,Win32,60,61025ae37ef11b136ea224fe,,,,,,,,,1325,55,106,1,0,0,response1disk,,7,9,12,1,0,0,rectangle,9,12,1,0,0,,,,,,,9,12,1,0,0,,1,127,287,62,1,
,,,,,,,,,,,,,FF,,,,,,,,1.5166,,,,,,,,,,,,,,,,,,,,,,610368480b2860d0f7e744be,61036eccd34988d5298eee7d,2021-07-29_23h16.07.578,Simcolourproject_2stim_asymm_v5,2020.2.10,Win32,60,61025ae37ef11b136ea224fe,,,,,,,,,58,117,-72,1,0,0,response3disk,,5,9,9,1,0,0,rectangle,9,9,1,0,0,,,,,,,9,9,1,0,0,,1,128,288,45,1,
,,,,,,,,,,,,,FF,,,,,,,,1.1162,,,,,,,,,,,,,,,,,,,,,,610368480b2860d0f7e744be,61036eccd34988d5298eee7d,2021-07-29_23h16.07.578,Simcolourproject_2stim_asymm_v5,2020.2.10,Win32,60,61025ae37ef11b136ea224fe,,,,,,,,,4198,124,55,1,0,0,response1disk,,6,-7,9,1,0,0,rectangle,-7,9,1,0,0,,,,,,,-7,9,1,0,0,,1,129,289,113,1,
,,,,,,,,,,,,,FF,,,,,,,,0.7834,,,,,,,,,,,,,,,,,,,,,,610368480b2860d0f7e744be,61036eccd34988d5298eee7d,2021-07-29_23h16.07.578,Simcolourproject_2stim_asymm_v5,2020.2.10,Win32,60,61025ae37ef11b136ea224fe,,,,,,,,,248,110,51,1,0,0,response1disk,,6,-11,1,1,0,0,rectangle,-11,1,1,0,0,,,,,,,-11,1,1,0,0,,1,130,290,18,1,
,,,,,,,,,,,,,FF,,,,,,,,1.517,,,,,,,,,,,,,,,,,,,,,,610368480b2860d0f7e744be,61036eccd34988d5298eee7d,2021-07-29_23h16.07.578,Simcolourproject_2stim_asymm_v5,2020.2.10,Win32,60,61025ae37ef11b136ea224fe,,,,,,,,,609,43,106,1,0,0,response1disk,,7,-1,-10,1,0,0,rectangle,-1,-10,1,0,0,,,,,,,-1,-10,1,0,0,,1,131,291,83,1,
,,,,,,,,,,,,,FF,,,,,,,,0.9001,,,,,,,,,,,,,,,,,,,,,,610368480b2860d0f7e744be,61036eccd34988d5298eee7d,2021-07-29_23h16.07.578,Simcolourproject_2stim_asymm_v5,2020.2.10,Win32,60,61025ae37ef11b136ea224fe,,,,,,,,,4205,-43,116,1,0,0,response7disk,,0,6,2,1,0,0,rectangle,6,2,1,0,0,,,,,,,6,2,1,0,0,,1,132,292,95,1,
,,,,,,,,,,,,,FF,,,,,,,,1.2342,,,,,,,,,,,,,,,,,,,,,,610368480b2860d0f7e744be,61036eccd34988d5298eee7d,2021-07-29_23h16.07.578,Simcolourproject_2stim_asymm_v5,2020.2.10,Win32,60,61025ae37ef11b136ea224fe,,,,,,,,,1537,-127,44,1,0,0,response7disk,,1,-10,6,1,0,0,rectangle,-10,6,1,0,0,,,,,,,-10,6,1,0,0,,1,133,293,5,1,
,,,,,,,,,,,,,FF,,,,,,,,0.7334,,,,,,,,,,,,,,,,,,,,,,610368480b2860d0f7e744be,61036eccd34988d5298eee7d,2021-07-29_23h16.07.578,Simcolourproject_2stim_asymm_v5,2020.2.10,Win32,60,61025ae37ef11b136ea224fe,,,,,,,,,3335,139,57,1,0,0,response1disk,,6,-4,-1,1,0,0,rectangle,-4,-1,1,0,0,,,,,,,-4,-1,1,0,0,,1,134,294,114,1,
,,,,,,,,,,,,,FF,,,,,,,,1.1002,,,,,,,,,,,,,,,,,,,,,,610368480b2860d0f7e744be,61036eccd34988d5298eee7d,2021-07-29_23h16.07.578,Simcolourproject_2stim_asymm_v5,2020.2.10,Win32,60,61025ae37ef11b136ea224fe,,,,,,,,,1077,135,-80,1,0,0,response3disk,,5,-22,2,1,0,0,rectangle,-22,2,1,0,0,,,,,,,-22,2,1,0,0,,1,135,295,74,1,
,,,,,,,,,,,,,FF,,,,,,,,0.8834,,,,,,,,,,,,,,,,,,,,,,610368480b2860d0f7e744be,61036eccd34988d5298eee7d,2021-07-29_23h16.07.578,Simcolourproject_2stim_asymm_v5,2020.2.10,Win32,60,61025ae37ef11b136ea224fe,,,,,,,,,1044,46,-137,1,0,0,response3disk,,4,9,-7,1,0,0,rectangle,9,-7,1,0,0,,,,,,,9,-7,1,0,0,,1,136,296,22,1,
,,,,,,,,,,,,,FF,,,,,,,,0.8835,,,,,,,,,,,,,,,,,,,,,,610368480b2860d0f7e744be,61036eccd34988d5298eee7d,2021-07-29_23h16.07.578,Simcolourproject_2stim_asymm_v5,2020.2.10,Win32,60,61025ae37ef11b136ea224fe,,,,,,,,,930,125,-69,1,0,0,response3disk,,5,33,-7,1,0,0,rectangle,33,-7,1,0,0,,,,,,,33,-7,1,0,0,,1,137,297,93,1,
,,,,,,,,,,,,,FF,,,,,,,,1.7,,,,,,,,,,,,,,,,,,,,,,610368480b2860d0f7e744be,61036eccd34988d5298eee7d,2021-07-29_23h16.07.578,Simcolourproject_2stim_asymm_v5,2020.2.10,Win32,60,61025ae37ef11b136ea224fe,,,,,,,,,745,131,46,1,0,0,response1disk,,6,23,8,1,0,0,rectangle,23,8,1,0,0,,,,,,,23,8,1,0,0,,1,138,298,108,1,
,,,,,,,,,,,,,FF,,,,,,,,0.8335,,,,,,,,,,,,,,,,,,,,,,610368480b2860d0f7e744be,61036eccd34988d5298eee7d,2021-07-29_23h16.07.578,Simcolourproject_2stim_asymm_v5,2020.2.10,Win32,60,61025ae37ef11b136ea224fe,,,,,,,,,2397,123,58,1,0,0,response1disk,,6,7,-8,1,0,0,rectangle,7,-8,1,0,0,,,,,,,7,-8,1,0,0,,1,139,299,55,1,
,,,,,,,,,,,,,FF,,,,,,,,0.7328,,,,,,,,,,,,,,,,,,,,,,610368480b2860d0f7e744be,61036eccd34988d5298eee7d,2021-07-29_23h16.07.578,Simcolourproject_2stim_asymm_v5,2020.2.10,Win32,60,61025ae37ef11b136ea224fe,,,,,,,,,168,-51,-123,1,0,0,response5disk,,3,6,20,1,0,0,rectangle,6,20,1,0,0,,,,,,,6,20,1,0,0,,1,140,300,60,1,
,,,,,,,,,,,,,FF,,,,,,,,0.7996,,,,,,,,,,,,,,,,,,,,,,610368480b2860d0f7e744be,61036eccd34988d5298eee7d,2021-07-29_23h16.07.578,Simcolourproject_2stim_asymm_v5,2020.2.10,Win32,60,61025ae37ef11b136ea224fe,,,,,,,,,3426,-121,85,1,0,0,response7disk,,1,-20,16,1,0,0,rectangle,131,-52,1,0,0,response3disk_3,TRUE,5,5,"[109,1,17,45,277,55,306,253,95,95,30,215,110,123,19,211,17,175,244,302]",1.4173,-19,18,1,0,0,rectangle,1,141,301,72,1,
