key_resp.keys,key_resp.rt,key_resp_14.keys,key_resp_14.rt,key_resp_15.keys,key_resp_15.rt,key_resp_17.keys,key_resp_17.rt,key_resp_9.keys,key_resp_9.rt,key_resp_10.keys,key_resp_10.rt,practice_comparison,Ecc,mouse_5.x,mouse_5.y,mouse_5.leftButton,mouse_5.midButton,mouse_5.rightButton,mouse_5.clicked_name,pracsimilarity,response_time,mouse_10.x,mouse_10.y,mouse_10.leftButton,mouse_10.midButton,mouse_10.rightButton,mouse_10.clicked_name,mouse_7.x,mouse_7.y,mouse_7.leftButton,mouse_7.midButton,mouse_7.rightButton,mouse_6.x,mouse_6.y,mouse_6.leftButton,mouse_6.midButton,mouse_6.rightButton,duringprac.thisRepN,duringprac.thisTrialN,duringprac.thisN,duringprac.thisIndex,duringprac.ran,participant,session,date,expName,psychopyVersion,OS,frameRate,study_id,mouse_7.clicked_name,catchpracsimilarity,catch_response_time,catchnumberprac,catchtrialorderprac,mouse_6.clicked_name,key_resp_22.keys,key_resp_22.rt,realcomparison,mouse.x,mouse.y,mouse.leftButton,mouse.midButton,mouse.rightButton,mouse.clicked_name,Colour2,similarity,mouse_2.x,mouse_2.y,mouse_2.leftButton,mouse_2.midButton,mouse_2.rightButton,mouse_2.clicked_name,mouse_3.x,mouse_3.y,mouse_3.leftButton,mouse_3.midButton,mouse_3.rightButton,mouse_11.x,mouse_11.y,mouse_11.leftButton,mouse_11.midButton,mouse_11.rightButton,trials_2.thisRepN,trials_2.thisTrialN,trials_2.thisN,trials_2.thisIndex,trials_2.ran,Colour1,mouse_3.clicked_name,catchornah,catchsimilarity,catchnumber,catchtrialorder,catchRT,mouse_11.clicked_name
space,1.149,space,2.572,space,9.094,space,5.547,space,0.867,space,3.159,41,PF,47,78,1,0,0,response1disk_5,7,6.782,14,16,1,0,0,rectangle_8,14,16,1,0,0,14,16,1,0,0,0,0,0,6,1,61036710e1eb1d931b7a34a6,61036e70db302659b0568e5b,2021-07-29_23h14.24.866,Simcolourproject_2stim_asymm_v5,2020.2.10,MacIntel,60,61025ae37ef11b136ea224fe,,,,,,,,,,,,,,,,,,,,,,,,,,,,,,,,,,,,,,,,,,,,,,
,,,,,,,,,,,,82,FF,69,-51,1,0,0,response3disk_5,5,5.217,11,1,1,0,0,rectangle_8,51,94,1,0,0,16,-9,1,0,0,0,1,1,0,1,61036710e1eb1d931b7a34a6,61036e70db302659b0568e5b,2021-07-29_23h14.24.866,Simcolourproject_2stim_asymm_v5,2020.2.10,MacIntel,60,61025ae37ef11b136ea224fe,response1disk_7,7,4.266,7,"[2,5]",rectangle_4,,,,,,,,,,,,,,,,,,,,,,,,,,,,,,,,,,,,,,,,
,,,,,,,,,,,,3,PF,-91,-53,1,0,0,response5disk_5,2,4.198,18,6,1,0,0,rectangle_8,18,6,1,0,0,18,6,1,0,0,0,2,2,4,1,61036710e1eb1d931b7a34a6,61036e70db302659b0568e5b,2021-07-29_23h14.24.866,Simcolourproject_2stim_asymm_v5,2020.2.10,MacIntel,60,61025ae37ef11b136ea224fe,,,,,,,,,,,,,,,,,,,,,,,,,,,,,,,,,,,,,,,,,,,,,,
,,,,,,,,,,,,145,PF,-26,74,1,0,0,response7disk_5,0,2.617,-12,3,1,0,0,rectangle_8,-12,3,1,0,0,-12,3,1,0,0,0,3,3,2,1,61036710e1eb1d931b7a34a6,61036e70db302659b0568e5b,2021-07-29_23h14.24.866,Simcolourproject_2stim_asymm_v5,2020.2.10,MacIntel,60,61025ae37ef11b136ea224fe,,,,,,,,,,,,,,,,,,,,,,,,,,,,,,,,,,,,,,,,,,,,,,
,,,,,,,,,,,,64,FF,-60,32,1,0,0,response7disk_5,1,3.932,-4,-3,1,0,0,rectangle_8,24,80,1,0,0,10,-9,1,0,0,0,4,4,3,1,61036710e1eb1d931b7a34a6,61036e70db302659b0568e5b,2021-07-29_23h14.24.866,Simcolourproject_2stim_asymm_v5,2020.2.10,MacIntel,60,61025ae37ef11b136ea224fe,response1disk_7,7,1.684,7,"[2,5]",rectangle_4,,,,,,,,,,,,,,,,,,,,,,,,,,,,,,,,,,,,,,,,
,,,,,,,,,,,,120,PF,63,-30,1,0,0,response3disk_5,5,3.718,-4,5,1,0,0,rectangle_8,-4,5,1,0,0,-4,5,1,0,0,0,5,5,1,1,61036710e1eb1d931b7a34a6,61036e70db302659b0568e5b,2021-07-29_23h14.24.866,Simcolourproject_2stim_asymm_v5,2020.2.10,MacIntel,60,61025ae37ef11b136ea224fe,,,,,,,,,,,,,,,,,,,,,,,,,,,,,,,,,,,,,,,,,,,,,,
,,,,,,,,,,,,152,FF,-73,-44,1,0,0,response5disk_5,2,4.284,0,-3,1,0,0,rectangle_8,0,-3,1,0,0,0,-3,1,0,0,0,6,6,5,1,61036710e1eb1d931b7a34a6,61036e70db302659b0568e5b,2021-07-29_23h14.24.866,Simcolourproject_2stim_asymm_v5,2020.2.10,MacIntel,60,61025ae37ef11b136ea224fe,,,,,,,,,,,,,,,,,,,,,,,,,,,,,,,,,,,,,,,,,,,,,,
,,,,,,,,,,,,,FF,,,,,,,,6.867,,,,,,,,,,,,,,,,,,,,,,61036710e1eb1d931b7a34a6,61036e70db302659b0568e5b,2021-07-29_23h14.24.866,Simcolourproject_2stim_asymm_v5,2020.2.10,MacIntel,60,61025ae37ef11b136ea224fe,,,,,,,space,2.19,2034,-43,-84,1,0,0,response5disk,,3,12,4,1,0,0,rectangle,12,4,1,0,0,12,4,1,0,0,0,0,0,92,1,,,,,,,,
,,,,,,,,,,,,,FF,,,,,,,,2.417,,,,,,,,,,,,,,,,,,,,,,61036710e1eb1d931b7a34a6,61036e70db302659b0568e5b,2021-07-29_23h14.24.866,Simcolourproject_2stim_asymm_v5,2020.2.10,MacIntel,60,61025ae37ef11b136ea224fe,,,,,,,,,3323,36,60,1,0,0,response1disk,,7,2,-3,1,0,0,rectangle,2,-3,1,0,0,2,-3,1,0,0,0,1,1,128,1,,,,,,,,
,,,,,,,,,,,,,FF,,,,,,,,3.2,,,,,,,,,,,,,,,,,,,,,,61036710e1eb1d931b7a34a6,61036e70db302659b0568e5b,2021-07-29_23h14.24.866,Simcolourproject_2stim_asymm_v5,2020.2.10,MacIntel,60,61025ae37ef11b136ea224fe,,,,,,,,,2059,56,18,1,0,0,response1disk,,6,3,-9,1,0,0,rectangle,3,-9,1,0,0,3,-9,1,0,0,0,2,2,142,1,,,,,,,,
,,,,,,,,,,,,,FF,,,,,,,,3.715,,,,,,,,,,,,,,,,,,,,,,61036710e1eb1d931b7a34a6,61036e70db302659b0568e5b,2021-07-29_23h14.24.866,Simcolourproject_2stim_asymm_v5,2020.2.10,MacIntel,60,61025ae37ef11b136ea224fe,,,,,,,,,1092,63,-30,1,0,0,response3disk,,5,9,4,1,0,0,rectangle,9,4,1,0,0,9,4,1,0,0,0,3,3,27,1,,,,,,,,
,,,,,,,,,,,,,FF,,,,,,,,3.099,,,,,,,,,,,,,,,,,,,,,,61036710e1eb1d931b7a34a6,61036e70db302659b0568e5b,2021-07-29_23h14.24.866,Simcolourproject_2stim_asymm_v5,2020.2.10,MacIntel,60,61025ae37ef11b136ea224fe,,,,,,,,,3045,-68,28,1,0,0,response7disk,,1,20,-1,1,0,0,rectangle,20,-1,1,0,0,20,-1,1,0,0,0,4,4,23,1,,,,,,,,
,,,,,,,,,,,,,FF,,,,,,,,2.4,,,,,,,,,,,,,,,,,,,,,,61036710e1eb1d931b7a34a6,61036e70db302659b0568e5b,2021-07-29_23h14.24.866,Simcolourproject_2stim_asymm_v5,2020.2.10,MacIntel,60,61025ae37ef11b136ea224fe,,,,,,,,,2880,-48,-96,1,0,0,response5disk,,3,-11,1,1,0,0,rectangle,-39,-108,1,0,0,20,3,1,0,0,0,5,5,73,1,,response5disk_3,TRUE,3,3,"[72,52,29,298,267,228,316,50,237,284,88,6,256,73,220,10,183,11,150,53]",3.067,rectangle
,,,,,,,,,,,,,FF,,,,,,,,3.583,,,,,,,,,,,,,,,,,,,,,,61036710e1eb1d931b7a34a6,61036e70db302659b0568e5b,2021-07-29_23h14.24.866,Simcolourproject_2stim_asymm_v5,2020.2.10,MacIntel,60,61025ae37ef11b136ea224fe,,,,,,,,,1269,-45,-62,1,0,0,response5disk,,3,6,17,1,0,0,rectangle,6,17,1,0,0,6,17,1,0,0,0,6,6,50,1,,,,,,,,
,,,,,,,,,,,,,FF,,,,,,,,1.851,,,,,,,,,,,,,,,,,,,,,,61036710e1eb1d931b7a34a6,61036e70db302659b0568e5b,2021-07-29_23h14.24.866,Simcolourproject_2stim_asymm_v5,2020.2.10,MacIntel,60,61025ae37ef11b136ea224fe,,,,,,,,,3863,22,-91,1,0,0,response3disk,,4,13,7,1,0,0,rectangle,13,7,1,0,0,13,7,1,0,0,0,7,7,62,1,,,,,,,,
,,,,,,,,,,,,,FF,,,,,,,,1.465,,,,,,,,,,,,,,,,,,,,,,61036710e1eb1d931b7a34a6,61036e70db302659b0568e5b,2021-07-29_23h14.24.866,Simcolourproject_2stim_asymm_v5,2020.2.10,MacIntel,60,61025ae37ef11b136ea224fe,,,,,,,,,4077,-32,-80,1,0,0,response5disk,,3,-14,-8,1,0,0,rectangle,-14,-8,1,0,0,-14,-8,1,0,0,0,8,8,153,1,,,,,,,,
,,,,,,,,,,,,,FF,,,,,,,,1.299,,,,,,,,,,,,,,,,,,,,,,61036710e1eb1d931b7a34a6,61036e70db302659b0568e5b,2021-07-29_23h14.24.866,Simcolourproject_2stim_asymm_v5,2020.2.10,MacIntel,60,61025ae37ef11b136ea224fe,,,,,,,,,635,-22,-44,1,0,0,response5disk,,3,-13,-12,1,0,0,rectangle,67,43,1,0,0,19,0,1,0,0,0,9,9,0,1,,response1disk_3,TRUE,6,6,"[72,52,29,298,267,228,316,50,237,284,88,6,256,73,220,10,183,11,150,53]",1.882,rectangle
,,,,,,,,,,,,,FF,,,,,,,,3.467,,,,,,,,,,,,,,,,,,,,,,61036710e1eb1d931b7a34a6,61036e70db302659b0568e5b,2021-07-29_23h14.24.866,Simcolourproject_2stim_asymm_v5,2020.2.10,MacIntel,60,61025ae37ef11b136ea224fe,,,,,,,,,4108,37,-84,1,0,0,response3disk,,4,26,-4,1,0,0,rectangle,39,68,1,0,0,11,-3,1,0,0,0,10,10,43,1,,response1disk_3,TRUE,7,7,"[72,52,29,298,267,228,316,50,237,284,88,6,256,73,220,10,183,11,150,53]",1.732,rectangle
,,,,,,,,,,,,,FF,,,,,,,,3.867,,,,,,,,,,,,,,,,,,,,,,61036710e1eb1d931b7a34a6,61036e70db302659b0568e5b,2021-07-29_23h14.24.866,Simcolourproject_2stim_asymm_v5,2020.2.10,MacIntel,60,61025ae37ef11b136ea224fe,,,,,,,,,599,-41,-88,1,0,0,response5disk,,3,20,-1,1,0,0,rectangle,20,-1,1,0,0,20,-1,1,0,0,0,11,11,140,1,,,,,,,,
,,,,,,,,,,,,,FF,,,,,,,,1.283,,,,,,,,,,,,,,,,,,,,,,61036710e1eb1d931b7a34a6,61036e70db302659b0568e5b,2021-07-29_23h14.24.866,Simcolourproject_2stim_asymm_v5,2020.2.10,MacIntel,60,61025ae37ef11b136ea224fe,,,,,,,,,1766,-68,-44,1,0,0,response5disk,,2,-9,-4,1,0,0,rectangle,-9,-4,1,0,0,-9,-4,1,0,0,0,12,12,155,1,,,,,,,,
,,,,,,,,,,,,,FF,,,,,,,,2.267,,,,,,,,,,,,,,,,,,,,,,61036710e1eb1d931b7a34a6,61036e70db302659b0568e5b,2021-07-29_23h14.24.866,Simcolourproject_2stim_asymm_v5,2020.2.10,MacIntel,60,61025ae37ef11b136ea224fe,,,,,,,,,3865,18,-65,1,0,0,response3disk,,4,17,-16,1,0,0,rectangle,17,-16,1,0,0,17,-16,1,0,0,0,13,13,24,1,,,,,,,,
,,,,,,,,,,,,,FF,,,,,,,,1.683,,,,,,,,,,,,,,,,,,,,,,61036710e1eb1d931b7a34a6,61036e70db302659b0568e5b,2021-07-29_23h14.24.866,Simcolourproject_2stim_asymm_v5,2020.2.10,MacIntel,60,61025ae37ef11b136ea224fe,,,,,,,,,2739,59,42,1,0,0,response1disk,,6,18,-7,1,0,0,rectangle,18,-7,1,0,0,18,-7,1,0,0,0,14,14,6,1,,,,,,,,
,,,,,,,,,,,,,FF,,,,,,,,0.966,,,,,,,,,,,,,,,,,,,,,,61036710e1eb1d931b7a34a6,61036e70db302659b0568e5b,2021-07-29_23h14.24.866,Simcolourproject_2stim_asymm_v5,2020.2.10,MacIntel,60,61025ae37ef11b136ea224fe,,,,,,,,,3827,75,-55,1,0,0,response3disk,,5,24,-6,1,0,0,rectangle,24,-6,1,0,0,24,-6,1,0,0,0,15,15,31,1,,,,,,,,
,,,,,,,,,,,,,FF,,,,,,,,1.616,,,,,,,,,,,,,,,,,,,,,,61036710e1eb1d931b7a34a6,61036e70db302659b0568e5b,2021-07-29_23h14.24.866,Simcolourproject_2stim_asymm_v5,2020.2.10,MacIntel,60,61025ae37ef11b136ea224fe,,,,,,,,,720,-31,-74,1,0,0,response5disk,,3,-4,3,1,0,0,rectangle,-4,3,1,0,0,-4,3,1,0,0,0,16,16,154,1,,,,,,,,
,,,,,,,,,,,,,FF,,,,,,,,1.2,,,,,,,,,,,,,,,,,,,,,,61036710e1eb1d931b7a34a6,61036e70db302659b0568e5b,2021-07-29_23h14.24.866,Simcolourproject_2stim_asymm_v5,2020.2.10,MacIntel,60,61025ae37ef11b136ea224fe,,,,,,,,,1776,39,-74,1,0,0,response3disk,,4,21,-1,1,0,0,rectangle,21,-1,1,0,0,21,-1,1,0,0,0,17,17,20,1,,,,,,,,
,,,,,,,,,,,,,FF,,,,,,,,1.35,,,,,,,,,,,,,,,,,,,,,,61036710e1eb1d931b7a34a6,61036e70db302659b0568e5b,2021-07-29_23h14.24.866,Simcolourproject_2stim_asymm_v5,2020.2.10,MacIntel,60,61025ae37ef11b136ea224fe,,,,,,,,,3061,33,-76,1,0,0,response3disk,,4,31,-9,1,0,0,rectangle,31,-9,1,0,0,31,-9,1,0,0,0,18,18,143,1,,,,,,,,
,,,,,,,,,,,,,FF,,,,,,,,1.367,,,,,,,,,,,,,,,,,,,,,,61036710e1eb1d931b7a34a6,61036e70db302659b0568e5b,2021-07-29_23h14.24.866,Simcolourproject_2stim_asymm_v5,2020.2.10,MacIntel,60,61025ae37ef11b136ea224fe,,,,,,,,,3192,-25,-68,1,0,0,response5disk,,3,2,2,1,0,0,rectangle,2,2,1,0,0,2,2,1,0,0,0,19,19,136,1,,,,,,,,
,,,,,,,,,,,,,FF,,,,,,,,1.6,,,,,,,,,,,,,,,,,,,,,,61036710e1eb1d931b7a34a6,61036e70db302659b0568e5b,2021-07-29_23h14.24.866,Simcolourproject_2stim_asymm_v5,2020.2.10,MacIntel,60,61025ae37ef11b136ea224fe,,,,,,,,,1541,91,-33,1,0,0,response3disk,,5,8,-8,1,0,0,rectangle,8,-8,1,0,0,8,-8,1,0,0,0,20,20,47,1,,,,,,,,
,,,,,,,,,,,,,FF,,,,,,,,2.167,,,,,,,,,,,,,,,,,,,,,,61036710e1eb1d931b7a34a6,61036e70db302659b0568e5b,2021-07-29_23h14.24.866,Simcolourproject_2stim_asymm_v5,2020.2.10,MacIntel,60,61025ae37ef11b136ea224fe,,,,,,,,,1525,-38,-113,1,0,0,response5disk,,3,2,10,1,0,0,rectangle,2,10,1,0,0,2,10,1,0,0,0,21,21,110,1,,,,,,,,
,,,,,,,,,,,,,FF,,,,,,,,2.699,,,,,,,,,,,,,,,,,,,,,,61036710e1eb1d931b7a34a6,61036e70db302659b0568e5b,2021-07-29_23h14.24.866,Simcolourproject_2stim_asymm_v5,2020.2.10,MacIntel,60,61025ae37ef11b136ea224fe,,,,,,,,,2110,38,-106,1,0,0,response3disk,,4,18,-18,1,0,0,rectangle,18,-18,1,0,0,18,-18,1,0,0,0,22,22,33,1,,,,,,,,
,,,,,,,,,,,,,FF,,,,,,,,1.682,,,,,,,,,,,,,,,,,,,,,,61036710e1eb1d931b7a34a6,61036e70db302659b0568e5b,2021-07-29_23h14.24.866,Simcolourproject_2stim_asymm_v5,2020.2.10,MacIntel,60,61025ae37ef11b136ea224fe,,,,,,,,,1946,51,33,1,0,0,response1disk,,6,20,12,1,0,0,rectangle,20,12,1,0,0,20,12,1,0,0,0,23,23,151,1,,,,,,,,
,,,,,,,,,,,,,FF,,,,,,,,1.4,,,,,,,,,,,,,,,,,,,,,,61036710e1eb1d931b7a34a6,61036e70db302659b0568e5b,2021-07-29_23h14.24.866,Simcolourproject_2stim_asymm_v5,2020.2.10,MacIntel,60,61025ae37ef11b136ea224fe,,,,,,,,,562,53,-18,1,0,0,response3disk,,5,11,3,1,0,0,rectangle,11,3,1,0,0,11,3,1,0,0,0,24,24,89,1,,,,,,,,
,,,,,,,,,,,,,FF,,,,,,,,1.566,,,,,,,,,,,,,,,,,,,,,,61036710e1eb1d931b7a34a6,61036e70db302659b0568e5b,2021-07-29_23h14.24.866,Simcolourproject_2stim_asymm_v5,2020.2.10,MacIntel,60,61025ae37ef11b136ea224fe,,,,,,,,,3759,33,87,1,0,0,response1disk,,7,13,-10,1,0,0,rectangle,13,-10,1,0,0,13,-10,1,0,0,0,25,25,60,1,,,,,,,,
,,,,,,,,,,,,,FF,,,,,,,,1.366,,,,,,,,,,,,,,,,,,,,,,61036710e1eb1d931b7a34a6,61036e70db302659b0568e5b,2021-07-29_23h14.24.866,Simcolourproject_2stim_asymm_v5,2020.2.10,MacIntel,60,61025ae37ef11b136ea224fe,,,,,,,,,3082,54,34,1,0,0,response1disk,,6,23,-4,1,0,0,rectangle,23,-4,1,0,0,23,-4,1,0,0,0,26,26,139,1,,,,,,,,
,,,,,,,,,,,,,FF,,,,,,,,1.3,,,,,,,,,,,,,,,,,,,,,,61036710e1eb1d931b7a34a6,61036e70db302659b0568e5b,2021-07-29_23h14.24.866,Simcolourproject_2stim_asymm_v5,2020.2.10,MacIntel,60,61025ae37ef11b136ea224fe,,,,,,,,,326,56,30,1,0,0,response1disk,,6,-4,-18,1,0,0,rectangle,-4,-18,1,0,0,-4,-18,1,0,0,0,27,27,132,1,,,,,,,,
,,,,,,,,,,,,,FF,,,,,,,,1.449,,,,,,,,,,,,,,,,,,,,,,61036710e1eb1d931b7a34a6,61036e70db302659b0568e5b,2021-07-29_23h14.24.866,Simcolourproject_2stim_asymm_v5,2020.2.10,MacIntel,60,61025ae37ef11b136ea224fe,,,,,,,,,2006,47,-34,1,0,0,response3disk,,5,6,-13,1,0,0,rectangle,-80,-30,1,0,0,-20,-8,1,0,0,0,28,28,8,1,,response5disk_3,TRUE,2,2,"[72,52,29,298,267,228,316,50,237,284,88,6,256,73,220,10,183,11,150,53]",1.8,rectangle
,,,,,,,,,,,,,FF,,,,,,,,1.817,,,,,,,,,,,,,,,,,,,,,,61036710e1eb1d931b7a34a6,61036e70db302659b0568e5b,2021-07-29_23h14.24.866,Simcolourproject_2stim_asymm_v5,2020.2.10,MacIntel,60,61025ae37ef11b136ea224fe,,,,,,,,,2150,-42,-62,1,0,0,response5disk,,3,-10,1,1,0,0,rectangle,-10,1,1,0,0,-10,1,1,0,0,0,29,29,119,1,,,,,,,,
,,,,,,,,,,,,,FF,,,,,,,,1.316,,,,,,,,,,,,,,,,,,,,,,61036710e1eb1d931b7a34a6,61036e70db302659b0568e5b,2021-07-29_23h14.24.866,Simcolourproject_2stim_asymm_v5,2020.2.10,MacIntel,60,61025ae37ef11b136ea224fe,,,,,,,,,2613,26,-73,1,0,0,response3disk,,4,19,-15,1,0,0,rectangle,19,-15,1,0,0,19,-15,1,0,0,0,30,30,123,1,,,,,,,,
,,,,,,,,,,,,,FF,,,,,,,,2.95,,,,,,,,,,,,,,,,,,,,,,61036710e1eb1d931b7a34a6,61036e70db302659b0568e5b,2021-07-29_23h14.24.866,Simcolourproject_2stim_asymm_v5,2020.2.10,MacIntel,60,61025ae37ef11b136ea224fe,,,,,,,,,2852,43,68,1,0,0,response1disk,,7,2,11,1,0,0,rectangle,2,11,1,0,0,2,11,1,0,0,0,31,31,66,1,,,,,,,,
,,,,,,,,,,,,,FF,,,,,,,,1.365,,,,,,,,,,,,,,,,,,,,,,61036710e1eb1d931b7a34a6,61036e70db302659b0568e5b,2021-07-29_23h14.24.866,Simcolourproject_2stim_asymm_v5,2020.2.10,MacIntel,60,61025ae37ef11b136ea224fe,,,,,,,,,17,54,-35,1,0,0,response3disk,,5,14,-2,1,0,0,rectangle,14,-2,1,0,0,14,-2,1,0,0,0,32,32,11,1,,,,,,,,
,,,,,,,,,,,,,FF,,,,,,,,1.017,,,,,,,,,,,,,,,,,,,,,,61036710e1eb1d931b7a34a6,61036e70db302659b0568e5b,2021-07-29_23h14.24.866,Simcolourproject_2stim_asymm_v5,2020.2.10,MacIntel,60,61025ae37ef11b136ea224fe,,,,,,,,,2763,23,-95,1,0,0,response3disk,,4,23,-16,1,0,0,rectangle,23,-16,1,0,0,23,-16,1,0,0,0,33,33,81,1,,,,,,,,
,,,,,,,,,,,,,FF,,,,,,,,0.816,,,,,,,,,,,,,,,,,,,,,,61036710e1eb1d931b7a34a6,61036e70db302659b0568e5b,2021-07-29_23h14.24.866,Simcolourproject_2stim_asymm_v5,2020.2.10,MacIntel,60,61025ae37ef11b136ea224fe,,,,,,,,,461,30,-61,1,0,0,response3disk,,4,-4,-4,1,0,0,rectangle,-4,-4,1,0,0,-4,-4,1,0,0,0,34,34,98,1,,,,,,,,
,,,,,,,,,,,,,FF,,,,,,,,1.499,,,,,,,,,,,,,,,,,,,,,,61036710e1eb1d931b7a34a6,61036e70db302659b0568e5b,2021-07-29_23h14.24.866,Simcolourproject_2stim_asymm_v5,2020.2.10,MacIntel,60,61025ae37ef11b136ea224fe,,,,,,,,,4174,49,96,1,0,0,response1disk,,7,8,-11,1,0,0,rectangle,8,-11,1,0,0,8,-11,1,0,0,0,35,35,103,1,,,,,,,,
,,,,,,,,,,,,,FF,,,,,,,,1.217,,,,,,,,,,,,,,,,,,,,,,61036710e1eb1d931b7a34a6,61036e70db302659b0568e5b,2021-07-29_23h14.24.866,Simcolourproject_2stim_asymm_v5,2020.2.10,MacIntel,60,61025ae37ef11b136ea224fe,,,,,,,,,806,-54,-38,1,0,0,response5disk,,2,10,1,1,0,0,rectangle,10,1,1,0,0,10,1,1,0,0,0,36,36,108,1,,,,,,,,
,,,,,,,,,,,,,FF,,,,,,,,1.033,,,,,,,,,,,,,,,,,,,,,,61036710e1eb1d931b7a34a6,61036e70db302659b0568e5b,2021-07-29_23h14.24.866,Simcolourproject_2stim_asymm_v5,2020.2.10,MacIntel,60,61025ae37ef11b136ea224fe,,,,,,,,,2934,-44,-25,1,0,0,response5disk,,2,-18,-13,1,0,0,rectangle,-18,-13,1,0,0,-18,-13,1,0,0,0,37,37,147,1,,,,,,,,
,,,,,,,,,,,,,FF,,,,,,,,1.066,,,,,,,,,,,,,,,,,,,,,,61036710e1eb1d931b7a34a6,61036e70db302659b0568e5b,2021-07-29_23h14.24.866,Simcolourproject_2stim_asymm_v5,2020.2.10,MacIntel,60,61025ae37ef11b136ea224fe,,,,,,,,,1539,54,-20,1,0,0,response3disk,,5,12,1,1,0,0,rectangle,12,1,1,0,0,12,1,1,0,0,0,38,38,107,1,,,,,,,,
,,,,,,,,,,,,,FF,,,,,,,,2.782,,,,,,,,,,,,,,,,,,,,,,61036710e1eb1d931b7a34a6,61036e70db302659b0568e5b,2021-07-29_23h14.24.866,Simcolourproject_2stim_asymm_v5,2020.2.10,MacIntel,60,61025ae37ef11b136ea224fe,,,,,,,,,2439,52,28,1,0,0,response1disk,,6,-2,-2,1,0,0,rectangle,-2,-2,1,0,0,-2,-2,1,0,0,0,39,39,95,1,,,,,,,,
,,,,,,,,,,,,,FF,,,,,,,,0.767,,,,,,,,,,,,,,,,,,,,,,61036710e1eb1d931b7a34a6,61036e70db302659b0568e5b,2021-07-29_23h14.24.866,Simcolourproject_2stim_asymm_v5,2020.2.10,MacIntel,60,61025ae37ef11b136ea224fe,,,,,,,,,641,24,-40,1,0,0,response3disk,,4,15,-2,1,0,0,rectangle,15,-2,1,0,0,15,-2,1,0,0,0,40,40,72,1,,,,,,,,
,,,,,,,,,,,,,FF,,,,,,,,1.317,,,,,,,,,,,,,,,,,,,,,,61036710e1eb1d931b7a34a6,61036e70db302659b0568e5b,2021-07-29_23h14.24.866,Simcolourproject_2stim_asymm_v5,2020.2.10,MacIntel,60,61025ae37ef11b136ea224fe,,,,,,,,,4038,-39,-70,1,0,0,response5disk,,3,-5,-18,1,0,0,rectangle,-5,-18,1,0,0,-5,-18,1,0,0,0,41,41,32,1,,,,,,,,
,,,,,,,,,,,,,FF,,,,,,,,0.882,,,,,,,,,,,,,,,,,,,,,,61036710e1eb1d931b7a34a6,61036e70db302659b0568e5b,2021-07-29_23h14.24.866,Simcolourproject_2stim_asymm_v5,2020.2.10,MacIntel,60,61025ae37ef11b136ea224fe,,,,,,,,,307,23,-52,1,0,0,response3disk,,4,20,-8,1,0,0,rectangle,20,-8,1,0,0,20,-8,1,0,0,0,42,42,134,1,,,,,,,,
,,,,,,,,,,,,,FF,,,,,,,,0.917,,,,,,,,,,,,,,,,,,,,,,61036710e1eb1d931b7a34a6,61036e70db302659b0568e5b,2021-07-29_23h14.24.866,Simcolourproject_2stim_asymm_v5,2020.2.10,MacIntel,60,61025ae37ef11b136ea224fe,,,,,,,,,3521,34,72,1,0,0,response1disk,,7,16,16,1,0,0,rectangle,16,16,1,0,0,16,16,1,0,0,0,43,43,9,1,,,,,,,,
,,,,,,,,,,,,,FF,,,,,,,,1.068,,,,,,,,,,,,,,,,,,,,,,61036710e1eb1d931b7a34a6,61036e70db302659b0568e5b,2021-07-29_23h14.24.866,Simcolourproject_2stim_asymm_v5,2020.2.10,MacIntel,60,61025ae37ef11b136ea224fe,,,,,,,,,3974,-59,-38,1,0,0,response5disk,,2,-11,-9,1,0,0,rectangle,-11,-9,1,0,0,-11,-9,1,0,0,0,44,44,4,1,,,,,,,,
,,,,,,,,,,,,,FF,,,,,,,,0.932,,,,,,,,,,,,,,,,,,,,,,61036710e1eb1d931b7a34a6,61036e70db302659b0568e5b,2021-07-29_23h14.24.866,Simcolourproject_2stim_asymm_v5,2020.2.10,MacIntel,60,61025ae37ef11b136ea224fe,,,,,,,,,29,25,-63,1,0,0,response3disk,,4,18,-11,1,0,0,rectangle,18,-11,1,0,0,18,-11,1,0,0,0,45,45,76,1,,,,,,,,
,,,,,,,,,,,,,FF,,,,,,,,1.083,,,,,,,,,,,,,,,,,,,,,,61036710e1eb1d931b7a34a6,61036e70db302659b0568e5b,2021-07-29_23h14.24.866,Simcolourproject_2stim_asymm_v5,2020.2.10,MacIntel,60,61025ae37ef11b136ea224fe,,,,,,,,,832,-48,-100,1,0,0,response5disk,,3,-3,2,1,0,0,rectangle,-3,2,1,0,0,-3,2,1,0,0,0,46,46,127,1,,,,,,,,
,,,,,,,,,,,,,FF,,,,,,,,0.832,,,,,,,,,,,,,,,,,,,,,,61036710e1eb1d931b7a34a6,61036e70db302659b0568e5b,2021-07-29_23h14.24.866,Simcolourproject_2stim_asymm_v5,2020.2.10,MacIntel,60,61025ae37ef11b136ea224fe,,,,,,,,,436,-36,-92,1,0,0,response5disk,,3,-22,10,1,0,0,rectangle,-22,10,1,0,0,-22,10,1,0,0,0,47,47,71,1,,,,,,,,
,,,,,,,,,,,,,FF,,,,,,,,0.733,,,,,,,,,,,,,,,,,,,,,,61036710e1eb1d931b7a34a6,61036e70db302659b0568e5b,2021-07-29_23h14.24.866,Simcolourproject_2stim_asymm_v5,2020.2.10,MacIntel,60,61025ae37ef11b136ea224fe,,,,,,,,,295,43,33,1,0,0,response1disk,,6,23,11,1,0,0,rectangle,23,11,1,0,0,23,11,1,0,0,0,48,48,22,1,,,,,,,,
,,,,,,,,,,,,,FF,,,,,,,,0.799,,,,,,,,,,,,,,,,,,,,,,61036710e1eb1d931b7a34a6,61036e70db302659b0568e5b,2021-07-29_23h14.24.866,Simcolourproject_2stim_asymm_v5,2020.2.10,MacIntel,60,61025ae37ef11b136ea224fe,,,,,,,,,803,-64,-23,1,0,0,response5disk,,2,-5,-10,1,0,0,rectangle,84,-62,1,0,0,10,-16,1,0,0,0,49,49,64,1,,response3disk_3,TRUE,5,5,"[72,52,29,298,267,228,316,50,237,284,88,6,256,73,220,10,183,11,150,53]",1.566,rectangle
,,,,,,,,,,,,,FF,,,,,,,,0.851,,,,,,,,,,,,,,,,,,,,,,61036710e1eb1d931b7a34a6,61036e70db302659b0568e5b,2021-07-29_23h14.24.866,Simcolourproject_2stim_asymm_v5,2020.2.10,MacIntel,60,61025ae37ef11b136ea224fe,,,,,,,,,1264,29,-53,1,0,0,response3disk,,4,29,-7,1,0,0,rectangle,29,-7,1,0,0,29,-7,1,0,0,0,50,50,44,1,,,,,,,,
,,,,,,,,,,,,,FF,,,,,,,,0.866,,,,,,,,,,,,,,,,,,,,,,61036710e1eb1d931b7a34a6,61036e70db302659b0568e5b,2021-07-29_23h14.24.866,Simcolourproject_2stim_asymm_v5,2020.2.10,MacIntel,60,61025ae37ef11b136ea224fe,,,,,,,,,2292,-43,35,1,0,0,response7disk,,1,-16,7,1,0,0,rectangle,25,-90,1,0,0,22,-8,1,0,0,0,51,51,29,1,,response3disk_3,TRUE,4,4,"[72,52,29,298,267,228,316,50,237,284,88,6,256,73,220,10,183,11,150,53]",1.816,rectangle
,,,,,,,,,,,,,FF,,,,,,,,1.583,,,,,,,,,,,,,,,,,,,,,,61036710e1eb1d931b7a34a6,61036e70db302659b0568e5b,2021-07-29_23h14.24.866,Simcolourproject_2stim_asymm_v5,2020.2.10,MacIntel,60,61025ae37ef11b136ea224fe,,,,,,,,,273,-36,-72,1,0,0,response5disk,,3,-7,-11,1,0,0,rectangle,-97,43,1,0,0,-15,-1,1,0,0,0,52,52,159,1,,response7disk_3,TRUE,1,1,"[72,52,29,298,267,228,316,50,237,284,88,6,256,73,220,10,183,11,150,53]",1.548,rectangle
,,,,,,,,,,,,,FF,,,,,,,,1.049,,,,,,,,,,,,,,,,,,,,,,61036710e1eb1d931b7a34a6,61036e70db302659b0568e5b,2021-07-29_23h14.24.866,Simcolourproject_2stim_asymm_v5,2020.2.10,MacIntel,60,61025ae37ef11b136ea224fe,,,,,,,,,3255,-40,-55,1,0,0,response5disk,,3,-21,-11,1,0,0,rectangle,-21,-11,1,0,0,-21,-11,1,0,0,0,53,53,19,1,,,,,,,,
,,,,,,,,,,,,,FF,,,,,,,,1.249,,,,,,,,,,,,,,,,,,,,,,61036710e1eb1d931b7a34a6,61036e70db302659b0568e5b,2021-07-29_23h14.24.866,Simcolourproject_2stim_asymm_v5,2020.2.10,MacIntel,60,61025ae37ef11b136ea224fe,,,,,,,,,1186,71,-32,1,0,0,response3disk,,5,12,4,1,0,0,rectangle,12,4,1,0,0,12,4,1,0,0,0,54,54,131,1,,,,,,,,
,,,,,,,,,,,,,FF,,,,,,,,0.999,,,,,,,,,,,,,,,,,,,,,,61036710e1eb1d931b7a34a6,61036e70db302659b0568e5b,2021-07-29_23h14.24.866,Simcolourproject_2stim_asymm_v5,2020.2.10,MacIntel,60,61025ae37ef11b136ea224fe,,,,,,,,,3671,-58,40,1,0,0,response7disk,,1,-18,2,1,0,0,rectangle,-18,2,1,0,0,-18,2,1,0,0,0,55,55,124,1,,,,,,,,
,,,,,,,,,,,,,FF,,,,,,,,1.966,,,,,,,,,,,,,,,,,,,,,,61036710e1eb1d931b7a34a6,61036e70db302659b0568e5b,2021-07-29_23h14.24.866,Simcolourproject_2stim_asymm_v5,2020.2.10,MacIntel,60,61025ae37ef11b136ea224fe,,,,,,,,,1162,56,29,1,0,0,response1disk,,6,31,6,1,0,0,rectangle,31,6,1,0,0,31,6,1,0,0,0,56,56,152,1,,,,,,,,
,,,,,,,,,,,,,FF,,,,,,,,2.749,,,,,,,,,,,,,,,,,,,,,,61036710e1eb1d931b7a34a6,61036e70db302659b0568e5b,2021-07-29_23h14.24.866,Simcolourproject_2stim_asymm_v5,2020.2.10,MacIntel,60,61025ae37ef11b136ea224fe,,,,,,,,,3809,46,-23,1,0,0,response3disk,,5,13,-5,1,0,0,rectangle,13,-5,1,0,0,13,-5,1,0,0,0,57,57,40,1,,,,,,,,
,,,,,,,,,,,,,FF,,,,,,,,1.183,,,,,,,,,,,,,,,,,,,,,,61036710e1eb1d931b7a34a6,61036e70db302659b0568e5b,2021-07-29_23h14.24.866,Simcolourproject_2stim_asymm_v5,2020.2.10,MacIntel,60,61025ae37ef11b136ea224fe,,,,,,,,,762,47,22,1,0,0,response1disk,,6,5,-2,1,0,0,rectangle,5,-2,1,0,0,5,-2,1,0,0,0,58,58,85,1,,,,,,,,
,,,,,,,,,,,,,FF,,,,,,,,1.167,,,,,,,,,,,,,,,,,,,,,,61036710e1eb1d931b7a34a6,61036e70db302659b0568e5b,2021-07-29_23h14.24.866,Simcolourproject_2stim_asymm_v5,2020.2.10,MacIntel,60,61025ae37ef11b136ea224fe,,,,,,,,,268,41,77,1,0,0,response1disk,,7,9,-3,1,0,0,rectangle,9,-3,1,0,0,9,-3,1,0,0,0,59,59,138,1,,,,,,,,
,,,,,,,,,,,,,FF,,,,,,,,0.783,,,,,,,,,,,,,,,,,,,,,,61036710e1eb1d931b7a34a6,61036e70db302659b0568e5b,2021-07-29_23h14.24.866,Simcolourproject_2stim_asymm_v5,2020.2.10,MacIntel,60,61025ae37ef11b136ea224fe,,,,,,,,,875,69,-36,1,0,0,response3disk,,5,7,-7,1,0,0,rectangle,7,-7,1,0,0,7,-7,1,0,0,0,60,60,51,1,,,,,,,,
,,,,,,,,,,,,,FF,,,,,,,,0.934,,,,,,,,,,,,,,,,,,,,,,61036710e1eb1d931b7a34a6,61036e70db302659b0568e5b,2021-07-29_23h14.24.866,Simcolourproject_2stim_asymm_v5,2020.2.10,MacIntel,60,61025ae37ef11b136ea224fe,,,,,,,,,47,48,52,1,0,0,response1disk,,7,6,-4,1,0,0,rectangle,6,-4,1,0,0,6,-4,1,0,0,0,61,61,55,1,,,,,,,,
,,,,,,,,,,,,,FF,,,,,,,,0.917,,,,,,,,,,,,,,,,,,,,,,61036710e1eb1d931b7a34a6,61036e70db302659b0568e5b,2021-07-29_23h14.24.866,Simcolourproject_2stim_asymm_v5,2020.2.10,MacIntel,60,61025ae37ef11b136ea224fe,,,,,,,,,1832,53,-19,1,0,0,response3disk,,5,10,-6,1,0,0,rectangle,10,-6,1,0,0,10,-6,1,0,0,0,62,62,41,1,,,,,,,,
,,,,,,,,,,,,,FF,,,,,,,,1.482,,,,,,,,,,,,,,,,,,,,,,61036710e1eb1d931b7a34a6,61036e70db302659b0568e5b,2021-07-29_23h14.24.866,Simcolourproject_2stim_asymm_v5,2020.2.10,MacIntel,60,61025ae37ef11b136ea224fe,,,,,,,,,3142,48,-46,1,0,0,response3disk,,5,9,-13,1,0,0,rectangle,9,-13,1,0,0,9,-13,1,0,0,0,63,63,53,1,,,,,,,,
,,,,,,,,,,,,,FF,,,,,,,,0.8,,,,,,,,,,,,,,,,,,,,,,61036710e1eb1d931b7a34a6,61036e70db302659b0568e5b,2021-07-29_23h14.24.866,Simcolourproject_2stim_asymm_v5,2020.2.10,MacIntel,60,61025ae37ef11b136ea224fe,,,,,,,,,2651,-29,-55,1,0,0,response5disk,,3,-10,-2,1,0,0,rectangle,-10,-2,1,0,0,-10,-2,1,0,0,0,64,64,37,1,,,,,,,,
,,,,,,,,,,,,,FF,,,,,,,,0.717,,,,,,,,,,,,,,,,,,,,,,61036710e1eb1d931b7a34a6,61036e70db302659b0568e5b,2021-07-29_23h14.24.866,Simcolourproject_2stim_asymm_v5,2020.2.10,MacIntel,60,61025ae37ef11b136ea224fe,,,,,,,,,1015,52,35,1,0,0,response1disk,,6,10,8,1,0,0,rectangle,10,8,1,0,0,10,8,1,0,0,0,65,65,42,1,,,,,,,,
,,,,,,,,,,,,,FF,,,,,,,,0.599,,,,,,,,,,,,,,,,,,,,,,61036710e1eb1d931b7a34a6,61036e70db302659b0568e5b,2021-07-29_23h14.24.866,Simcolourproject_2stim_asymm_v5,2020.2.10,MacIntel,60,61025ae37ef11b136ea224fe,,,,,,,,,1388,62,34,1,0,0,response1disk,,6,11,-5,1,0,0,rectangle,11,-5,1,0,0,11,-5,1,0,0,0,66,66,82,1,,,,,,,,
,,,,,,,,,,,,,FF,,,,,,,,0.967,,,,,,,,,,,,,,,,,,,,,,61036710e1eb1d931b7a34a6,61036e70db302659b0568e5b,2021-07-29_23h14.24.866,Simcolourproject_2stim_asymm_v5,2020.2.10,MacIntel,60,61025ae37ef11b136ea224fe,,,,,,,,,113,34,-49,1,0,0,response3disk,,4,21,-11,1,0,0,rectangle,21,-11,1,0,0,21,-11,1,0,0,0,67,67,80,1,,,,,,,,
,,,,,,,,,,,,,FF,,,,,,,,0.632,,,,,,,,,,,,,,,,,,,,,,61036710e1eb1d931b7a34a6,61036e70db302659b0568e5b,2021-07-29_23h14.24.866,Simcolourproject_2stim_asymm_v5,2020.2.10,MacIntel,60,61025ae37ef11b136ea224fe,,,,,,,,,3283,-57,-26,1,0,0,response5disk,,2,-4,-6,1,0,0,rectangle,-4,-6,1,0,0,-4,-6,1,0,0,0,68,68,99,1,,,,,,,,
,,,,,,,,,,,,,FF,,,,,,,,0.9,,,,,,,,,,,,,,,,,,,,,,61036710e1eb1d931b7a34a6,61036e70db302659b0568e5b,2021-07-29_23h14.24.866,Simcolourproject_2stim_asymm_v5,2020.2.10,MacIntel,60,61025ae37ef11b136ea224fe,,,,,,,,,3051,-36,-58,1,0,0,response5disk,,3,-1,-2,1,0,0,rectangle,-1,-2,1,0,0,-1,-2,1,0,0,0,69,69,7,1,,,,,,,,
,,,,,,,,,,,,,FF,,,,,,,,0.999,,,,,,,,,,,,,,,,,,,,,,61036710e1eb1d931b7a34a6,61036e70db302659b0568e5b,2021-07-29_23h14.24.866,Simcolourproject_2stim_asymm_v5,2020.2.10,MacIntel,60,61025ae37ef11b136ea224fe,,,,,,,,,3960,25,-49,1,0,0,response3disk,,4,17,4,1,0,0,rectangle,17,4,1,0,0,17,4,1,0,0,0,70,70,126,1,,,,,,,,
,,,,,,,,,,,,,FF,,,,,,,,1.1,,,,,,,,,,,,,,,,,,,,,,61036710e1eb1d931b7a34a6,61036e70db302659b0568e5b,2021-07-29_23h14.24.866,Simcolourproject_2stim_asymm_v5,2020.2.10,MacIntel,60,61025ae37ef11b136ea224fe,,,,,,,,,1347,47,31,1,0,0,response1disk,,6,10,3,1,0,0,rectangle,-77,-34,1,0,0,1,-13,1,0,0,0,71,71,100,1,,response5disk_3,TRUE,2,2,"[72,52,29,298,267,228,316,50,237,284,88,6,256,73,220,10,183,11,150,53]",1.548,rectangle
,,,,,,,,,,,,,FF,,,,,,,,0.733,,,,,,,,,,,,,,,,,,,,,,61036710e1eb1d931b7a34a6,61036e70db302659b0568e5b,2021-07-29_23h14.24.866,Simcolourproject_2stim_asymm_v5,2020.2.10,MacIntel,60,61025ae37ef11b136ea224fe,,,,,,,,,1820,-57,-21,1,0,0,response5disk,,2,-2,-2,1,0,0,rectangle,-81,-47,1,0,0,21,10,1,0,0,0,72,72,48,1,,response5disk_3,TRUE,2,2,"[72,52,29,298,267,228,316,50,237,284,88,6,256,73,220,10,183,11,150,53]",1.434,rectangle
,,,,,,,,,,,,,FF,,,,,,,,0.766,,,,,,,,,,,,,,,,,,,,,,61036710e1eb1d931b7a34a6,61036e70db302659b0568e5b,2021-07-29_23h14.24.866,Simcolourproject_2stim_asymm_v5,2020.2.10,MacIntel,60,61025ae37ef11b136ea224fe,,,,,,,,,3191,-30,-44,1,0,0,response5disk,,3,-14,-2,1,0,0,rectangle,-14,-2,1,0,0,-14,-2,1,0,0,0,73,73,115,1,,,,,,,,
,,,,,,,,,,,,,FF,,,,,,,,0.649,,,,,,,,,,,,,,,,,,,,,,61036710e1eb1d931b7a34a6,61036e70db302659b0568e5b,2021-07-29_23h14.24.866,Simcolourproject_2stim_asymm_v5,2020.2.10,MacIntel,60,61025ae37ef11b136ea224fe,,,,,,,,,1456,22,-61,1,0,0,response3disk,,4,22,-5,1,0,0,rectangle,22,-5,1,0,0,22,-5,1,0,0,0,74,74,65,1,,,,,,,,
,,,,,,,,,,,,,FF,,,,,,,,0.718,,,,,,,,,,,,,,,,,,,,,,61036710e1eb1d931b7a34a6,61036e70db302659b0568e5b,2021-07-29_23h14.24.866,Simcolourproject_2stim_asymm_v5,2020.2.10,MacIntel,60,61025ae37ef11b136ea224fe,,,,,,,,,4015,60,23,1,0,0,response1disk,,6,9,-10,1,0,0,rectangle,9,-10,1,0,0,9,-10,1,0,0,0,75,75,135,1,,,,,,,,
,,,,,,,,,,,,,FF,,,,,,,,0.833,,,,,,,,,,,,,,,,,,,,,,61036710e1eb1d931b7a34a6,61036e70db302659b0568e5b,2021-07-29_23h14.24.866,Simcolourproject_2stim_asymm_v5,2020.2.10,MacIntel,60,61025ae37ef11b136ea224fe,,,,,,,,,2754,53,28,1,0,0,response1disk,,6,12,5,1,0,0,rectangle,12,5,1,0,0,12,5,1,0,0,0,76,76,158,1,,,,,,,,
,,,,,,,,,,,,,FF,,,,,,,,0.449,,,,,,,,,,,,,,,,,,,,,,61036710e1eb1d931b7a34a6,61036e70db302659b0568e5b,2021-07-29_23h14.24.866,Simcolourproject_2stim_asymm_v5,2020.2.10,MacIntel,60,61025ae37ef11b136ea224fe,,,,,,,,,3267,41,68,1,0,0,response1disk,,7,5,-17,1,0,0,rectangle,5,-17,1,0,0,5,-17,1,0,0,0,77,77,52,1,,,,,,,,
,,,,,,,,,,,,,FF,,,,,,,,0.618,,,,,,,,,,,,,,,,,,,,,,61036710e1eb1d931b7a34a6,61036e70db302659b0568e5b,2021-07-29_23h14.24.866,Simcolourproject_2stim_asymm_v5,2020.2.10,MacIntel,60,61025ae37ef11b136ea224fe,,,,,,,,,2301,-21,-52,1,0,0,response5disk,,3,-13,-14,1,0,0,rectangle,-13,-14,1,0,0,-13,-14,1,0,0,0,78,78,75,1,,,,,,,,
,,,,,,,,,,,,,FF,,,,,,,,0.867,,,,,,,,,,,,,,,,,,,,,,61036710e1eb1d931b7a34a6,61036e70db302659b0568e5b,2021-07-29_23h14.24.866,Simcolourproject_2stim_asymm_v5,2020.2.10,MacIntel,60,61025ae37ef11b136ea224fe,,,,,,,,,3152,29,-55,1,0,0,response3disk,,4,21,8,1,0,0,rectangle,21,8,1,0,0,21,8,1,0,0,0,79,79,70,1,,,,,,,,
,,,,,,,,,,,,,FF,,,,,,,,0.733,,,,,,,,,,,,,,,,,,,,,,61036710e1eb1d931b7a34a6,61036e70db302659b0568e5b,2021-07-29_23h14.24.866,Simcolourproject_2stim_asymm_v5,2020.2.10,MacIntel,60,61025ae37ef11b136ea224fe,,,,,,,,,2202,-28,-49,1,0,0,response5disk,,3,-9,2,1,0,0,rectangle,-9,2,1,0,0,-9,2,1,0,0,0,80,80,105,1,,,,,,,,
,,,,,,,,,,,,,FF,,,,,,,,0.517,,,,,,,,,,,,,,,,,,,,,,61036710e1eb1d931b7a34a6,61036e70db302659b0568e5b,2021-07-29_23h14.24.866,Simcolourproject_2stim_asymm_v5,2020.2.10,MacIntel,60,61025ae37ef11b136ea224fe,,,,,,,,,1167,53,-34,1,0,0,response3disk,,5,2,-5,1,0,0,rectangle,2,-5,1,0,0,2,-5,1,0,0,0,81,81,102,1,,,,,,,,
,,,,,,,,,,,,,FF,,,,,,,,0.851,,,,,,,,,,,,,,,,,,,,,,61036710e1eb1d931b7a34a6,61036e70db302659b0568e5b,2021-07-29_23h14.24.866,Simcolourproject_2stim_asymm_v5,2020.2.10,MacIntel,60,61025ae37ef11b136ea224fe,,,,,,,,,10,20,63,1,0,0,response1disk,,7,-9,-17,1,0,0,rectangle,-9,-17,1,0,0,-9,-17,1,0,0,0,82,82,78,1,,,,,,,,
,,,,,,,,,,,,,FF,,,,,,,,0.733,,,,,,,,,,,,,,,,,,,,,,61036710e1eb1d931b7a34a6,61036e70db302659b0568e5b,2021-07-29_23h14.24.866,Simcolourproject_2stim_asymm_v5,2020.2.10,MacIntel,60,61025ae37ef11b136ea224fe,,,,,,,,,2088,-26,-43,1,0,0,response5disk,,3,-18,-8,1,0,0,rectangle,-18,-8,1,0,0,-18,-8,1,0,0,0,83,83,38,1,,,,,,,,
,,,,,,,,,,,,,FF,,,,,,,,1.133,,,,,,,,,,,,,,,,,,,,,,61036710e1eb1d931b7a34a6,61036e70db302659b0568e5b,2021-07-29_23h14.24.866,Simcolourproject_2stim_asymm_v5,2020.2.10,MacIntel,60,61025ae37ef11b136ea224fe,,,,,,,,,1178,60,50,1,0,0,response1disk,,6,-3,-5,1,0,0,rectangle,-3,-5,1,0,0,-3,-5,1,0,0,0,84,84,1,1,,,,,,,,
,,,,,,,,,,,,,FF,,,,,,,,0.633,,,,,,,,,,,,,,,,,,,,,,61036710e1eb1d931b7a34a6,61036e70db302659b0568e5b,2021-07-29_23h14.24.866,Simcolourproject_2stim_asymm_v5,2020.2.10,MacIntel,60,61025ae37ef11b136ea224fe,,,,,,,,,3415,45,29,1,0,0,response1disk,,6,27,11,1,0,0,rectangle,27,11,1,0,0,27,11,1,0,0,0,85,85,79,1,,,,,,,,
,,,,,,,,,,,,,FF,,,,,,,,0.984,,,,,,,,,,,,,,,,,,,,,,61036710e1eb1d931b7a34a6,61036e70db302659b0568e5b,2021-07-29_23h14.24.866,Simcolourproject_2stim_asymm_v5,2020.2.10,MacIntel,60,61025ae37ef11b136ea224fe,,,,,,,,,2316,34,-43,1,0,0,response3disk,,4,23,3,1,0,0,rectangle,23,3,1,0,0,23,3,1,0,0,0,86,86,122,1,,,,,,,,
,,,,,,,,,,,,,FF,,,,,,,,1.366,,,,,,,,,,,,,,,,,,,,,,61036710e1eb1d931b7a34a6,61036e70db302659b0568e5b,2021-07-29_23h14.24.866,Simcolourproject_2stim_asymm_v5,2020.2.10,MacIntel,60,61025ae37ef11b136ea224fe,,,,,,,,,4219,53,22,1,0,0,response1disk,,6,7,-2,1,0,0,rectangle,35,35,1,0,0,12,-2,1,0,0,0,87,87,86,1,,response1disk_3,TRUE,7,7,"[72,52,29,298,267,228,316,50,237,284,88,6,256,73,220,10,183,11,150,53]",1.417,rectangle
,,,,,,,,,,,,,FF,,,,,,,,0.984,,,,,,,,,,,,,,,,,,,,,,61036710e1eb1d931b7a34a6,61036e70db302659b0568e5b,2021-07-29_23h14.24.866,Simcolourproject_2stim_asymm_v5,2020.2.10,MacIntel,60,61025ae37ef11b136ea224fe,,,,,,,,,4078,25,-49,1,0,0,response3disk,,4,17,-1,1,0,0,rectangle,17,-1,1,0,0,17,-1,1,0,0,0,88,88,63,1,,,,,,,,
,,,,,,,,,,,,,FF,,,,,,,,0.767,,,,,,,,,,,,,,,,,,,,,,61036710e1eb1d931b7a34a6,61036e70db302659b0568e5b,2021-07-29_23h14.24.866,Simcolourproject_2stim_asymm_v5,2020.2.10,MacIntel,60,61025ae37ef11b136ea224fe,,,,,,,,,2667,-58,-17,1,0,0,response5disk,,2,-12,0,1,0,0,rectangle,-12,0,1,0,0,-12,0,1,0,0,0,89,89,34,1,,,,,,,,
,,,,,,,,,,,,,FF,,,,,,,,0.883,,,,,,,,,,,,,,,,,,,,,,61036710e1eb1d931b7a34a6,61036e70db302659b0568e5b,2021-07-29_23h14.24.866,Simcolourproject_2stim_asymm_v5,2020.2.10,MacIntel,60,61025ae37ef11b136ea224fe,,,,,,,,,4204,-48,-36,1,0,0,response5disk,,2,-13,-14,1,0,0,rectangle,-13,-14,1,0,0,-13,-14,1,0,0,0,90,90,67,1,,,,,,,,
,,,,,,,,,,,,,FF,,,,,,,,0.701,,,,,,,,,,,,,,,,,,,,,,61036710e1eb1d931b7a34a6,61036e70db302659b0568e5b,2021-07-29_23h14.24.866,Simcolourproject_2stim_asymm_v5,2020.2.10,MacIntel,60,61025ae37ef11b136ea224fe,,,,,,,,,2888,-24,-52,1,0,0,response5disk,,3,-11,-17,1,0,0,rectangle,-11,-17,1,0,0,-11,-17,1,0,0,0,91,91,146,1,,,,,,,,
,,,,,,,,,,,,,FF,,,,,,,,1.1,,,,,,,,,,,,,,,,,,,,,,61036710e1eb1d931b7a34a6,61036e70db302659b0568e5b,2021-07-29_23h14.24.866,Simcolourproject_2stim_asymm_v5,2020.2.10,MacIntel,60,61025ae37ef11b136ea224fe,,,,,,,,,4100,52,41,1,0,0,response1disk,,6,-1,1,1,0,0,rectangle,-1,1,1,0,0,-1,1,1,0,0,0,92,92,91,1,,,,,,,,
,,,,,,,,,,,,,FF,,,,,,,,1.683,,,,,,,,,,,,,,,,,,,,,,61036710e1eb1d931b7a34a6,61036e70db302659b0568e5b,2021-07-29_23h14.24.866,Simcolourproject_2stim_asymm_v5,2020.2.10,MacIntel,60,61025ae37ef11b136ea224fe,,,,,,,,,2020,55,45,1,0,0,response1disk,,6,9,2,1,0,0,rectangle,9,2,1,0,0,9,2,1,0,0,0,93,93,111,1,,,,,,,,
,,,,,,,,,,,,,FF,,,,,,,,1.166,,,,,,,,,,,,,,,,,,,,,,61036710e1eb1d931b7a34a6,61036e70db302659b0568e5b,2021-07-29_23h14.24.866,Simcolourproject_2stim_asymm_v5,2020.2.10,MacIntel,60,61025ae37ef11b136ea224fe,,,,,,,,,302,30,76,1,0,0,response1disk,,7,-2,-2,1,0,0,rectangle,-2,-2,1,0,0,-2,-2,1,0,0,0,94,94,150,1,,,,,,,,
,,,,,,,,,,,,,FF,,,,,,,,1.066,,,,,,,,,,,,,,,,,,,,,,61036710e1eb1d931b7a34a6,61036e70db302659b0568e5b,2021-07-29_23h14.24.866,Simcolourproject_2stim_asymm_v5,2020.2.10,MacIntel,60,61025ae37ef11b136ea224fe,,,,,,,,,56,56,28,1,0,0,response1disk,,6,10,2,1,0,0,rectangle,10,2,1,0,0,10,2,1,0,0,0,95,95,3,1,,,,,,,,
,,,,,,,,,,,,,FF,,,,,,,,0.933,,,,,,,,,,,,,,,,,,,,,,61036710e1eb1d931b7a34a6,61036e70db302659b0568e5b,2021-07-29_23h14.24.866,Simcolourproject_2stim_asymm_v5,2020.2.10,MacIntel,60,61025ae37ef11b136ea224fe,,,,,,,,,1624,53,33,1,0,0,response1disk,,6,-1,3,1,0,0,rectangle,-1,3,1,0,0,-1,3,1,0,0,0,96,96,112,1,,,,,,,,
,,,,,,,,,,,,,FF,,,,,,,,1.55,,,,,,,,,,,,,,,,,,,,,,61036710e1eb1d931b7a34a6,61036e70db302659b0568e5b,2021-07-29_23h14.24.866,Simcolourproject_2stim_asymm_v5,2020.2.10,MacIntel,60,61025ae37ef11b136ea224fe,,,,,,,,,4161,53,-70,1,0,0,response3disk,,4,15,-13,1,0,0,rectangle,15,-13,1,0,0,15,-13,1,0,0,0,97,97,58,1,,,,,,,,
,,,,,,,,,,,,,FF,,,,,,,,1.467,,,,,,,,,,,,,,,,,,,,,,61036710e1eb1d931b7a34a6,61036e70db302659b0568e5b,2021-07-29_23h14.24.866,Simcolourproject_2stim_asymm_v5,2020.2.10,MacIntel,60,61025ae37ef11b136ea224fe,,,,,,,,,2827,-57,-73,1,0,0,response5disk,,3,-20,12,1,0,0,rectangle,-20,12,1,0,0,-20,12,1,0,0,0,98,98,39,1,,,,,,,,
,,,,,,,,,,,,,FF,,,,,,,,18.434,,,,,,,,,,,,,,,,,,,,,,61036710e1eb1d931b7a34a6,61036e70db302659b0568e5b,2021-07-29_23h14.24.866,Simcolourproject_2stim_asymm_v5,2020.2.10,MacIntel,60,61025ae37ef11b136ea224fe,,,,,,,,,3103,-29,-61,1,0,0,response5disk,,3,8,13,1,0,0,rectangle,8,13,1,0,0,8,13,1,0,0,0,99,99,117,1,,,,,,,,
,,,,,,,,,,,,,FF,,,,,,,,1.066,,,,,,,,,,,,,,,,,,,,,,61036710e1eb1d931b7a34a6,61036e70db302659b0568e5b,2021-07-29_23h14.24.866,Simcolourproject_2stim_asymm_v5,2020.2.10,MacIntel,60,61025ae37ef11b136ea224fe,,,,,,,,,3203,-48,-36,1,0,0,response5disk,,2,14,4,1,0,0,rectangle,14,4,1,0,0,14,4,1,0,0,0,100,100,61,1,,,,,,,,
,,,,,,,,,,,,,FF,,,,,,,,1.101,,,,,,,,,,,,,,,,,,,,,,61036710e1eb1d931b7a34a6,61036e70db302659b0568e5b,2021-07-29_23h14.24.866,Simcolourproject_2stim_asymm_v5,2020.2.10,MacIntel,60,61025ae37ef11b136ea224fe,,,,,,,,,1787,32,-74,1,0,0,response3disk,,4,32,14,1,0,0,rectangle,32,14,1,0,0,32,14,1,0,0,0,101,101,26,1,,,,,,,,
,,,,,,,,,,,,,FF,,,,,,,,0.7,,,,,,,,,,,,,,,,,,,,,,61036710e1eb1d931b7a34a6,61036e70db302659b0568e5b,2021-07-29_23h14.24.866,Simcolourproject_2stim_asymm_v5,2020.2.10,MacIntel,60,61025ae37ef11b136ea224fe,,,,,,,,,108,-22,-35,1,0,0,response5disk,,3,4,3,1,0,0,rectangle,4,3,1,0,0,4,3,1,0,0,0,102,102,5,1,,,,,,,,
,,,,,,,,,,,,,FF,,,,,,,,0.517,,,,,,,,,,,,,,,,,,,,,,61036710e1eb1d931b7a34a6,61036e70db302659b0568e5b,2021-07-29_23h14.24.866,Simcolourproject_2stim_asymm_v5,2020.2.10,MacIntel,60,61025ae37ef11b136ea224fe,,,,,,,,,240,53,-29,1,0,0,response3disk,,5,25,-15,1,0,0,rectangle,25,-15,1,0,0,25,-15,1,0,0,0,103,103,157,1,,,,,,,,
,,,,,,,,,,,,,FF,,,,,,,,0.734,,,,,,,,,,,,,,,,,,,,,,61036710e1eb1d931b7a34a6,61036e70db302659b0568e5b,2021-07-29_23h14.24.866,Simcolourproject_2stim_asymm_v5,2020.2.10,MacIntel,60,61025ae37ef11b136ea224fe,,,,,,,,,1873,-41,-73,1,0,0,response5disk,,3,4,9,1,0,0,rectangle,4,9,1,0,0,4,9,1,0,0,0,104,104,88,1,,,,,,,,
,,,,,,,,,,,,,FF,,,,,,,,0.984,,,,,,,,,,,,,,,,,,,,,,61036710e1eb1d931b7a34a6,61036e70db302659b0568e5b,2021-07-29_23h14.24.866,Simcolourproject_2stim_asymm_v5,2020.2.10,MacIntel,60,61025ae37ef11b136ea224fe,,,,,,,,,1951,-29,-46,1,0,0,response5disk,,3,-17,-12,1,0,0,rectangle,-17,-12,1,0,0,-17,-12,1,0,0,0,105,105,133,1,,,,,,,,
,,,,,,,,,,,,,FF,,,,,,,,0.683,,,,,,,,,,,,,,,,,,,,,,61036710e1eb1d931b7a34a6,61036e70db302659b0568e5b,2021-07-29_23h14.24.866,Simcolourproject_2stim_asymm_v5,2020.2.10,MacIntel,60,61025ae37ef11b136ea224fe,,,,,,,,,2725,-64,-36,1,0,0,response5disk,,2,-15,-9,1,0,0,rectangle,-15,-9,1,0,0,-15,-9,1,0,0,0,106,106,93,1,,,,,,,,
,,,,,,,,,,,,,FF,,,,,,,,0.851,,,,,,,,,,,,,,,,,,,,,,61036710e1eb1d931b7a34a6,61036e70db302659b0568e5b,2021-07-29_23h14.24.866,Simcolourproject_2stim_asymm_v5,2020.2.10,MacIntel,60,61025ae37ef11b136ea224fe,,,,,,,,,1334,55,24,1,0,0,response1disk,,6,6,-9,1,0,0,rectangle,6,-9,1,0,0,6,-9,1,0,0,0,107,107,77,1,,,,,,,,
,,,,,,,,,,,,,FF,,,,,,,,0.666,,,,,,,,,,,,,,,,,,,,,,61036710e1eb1d931b7a34a6,61036e70db302659b0568e5b,2021-07-29_23h14.24.866,Simcolourproject_2stim_asymm_v5,2020.2.10,MacIntel,60,61025ae37ef11b136ea224fe,,,,,,,,,969,-21,-47,1,0,0,response5disk,,3,-12,10,1,0,0,rectangle,-12,10,1,0,0,-12,10,1,0,0,0,108,108,121,1,,,,,,,,
,,,,,,,,,,,,,FF,,,,,,,,1.017,,,,,,,,,,,,,,,,,,,,,,61036710e1eb1d931b7a34a6,61036e70db302659b0568e5b,2021-07-29_23h14.24.866,Simcolourproject_2stim_asymm_v5,2020.2.10,MacIntel,60,61025ae37ef11b136ea224fe,,,,,,,,,2961,35,-32,1,0,0,response3disk,,5,8,-2,1,0,0,rectangle,8,-2,1,0,0,8,-2,1,0,0,0,109,109,83,1,,,,,,,,
,,,,,,,,,,,,,FF,,,,,,,,0.9,,,,,,,,,,,,,,,,,,,,,,61036710e1eb1d931b7a34a6,61036e70db302659b0568e5b,2021-07-29_23h14.24.866,Simcolourproject_2stim_asymm_v5,2020.2.10,MacIntel,60,61025ae37ef11b136ea224fe,,,,,,,,,3117,54,19,1,0,0,response1disk,,6,6,-8,1,0,0,rectangle,6,-8,1,0,0,6,-8,1,0,0,0,110,110,97,1,,,,,,,,
,,,,,,,,,,,,,FF,,,,,,,,1.117,,,,,,,,,,,,,,,,,,,,,,61036710e1eb1d931b7a34a6,61036e70db302659b0568e5b,2021-07-29_23h14.24.866,Simcolourproject_2stim_asymm_v5,2020.2.10,MacIntel,60,61025ae37ef11b136ea224fe,,,,,,,,,3711,38,-78,1,0,0,response3disk,,4,27,7,1,0,0,rectangle,27,7,1,0,0,27,7,1,0,0,0,111,111,10,1,,,,,,,,
,,,,,,,,,,,,,FF,,,,,,,,1.7,,,,,,,,,,,,,,,,,,,,,,61036710e1eb1d931b7a34a6,61036e70db302659b0568e5b,2021-07-29_23h14.24.866,Simcolourproject_2stim_asymm_v5,2020.2.10,MacIntel,60,61025ae37ef11b136ea224fe,,,,,,,,,3357,25,-67,1,0,0,response3disk,,4,25,-6,1,0,0,rectangle,25,-6,1,0,0,25,-6,1,0,0,0,112,112,2,1,,,,,,,,
,,,,,,,,,,,,,FF,,,,,,,,1.784,,,,,,,,,,,,,,,,,,,,,,61036710e1eb1d931b7a34a6,61036e70db302659b0568e5b,2021-07-29_23h14.24.866,Simcolourproject_2stim_asymm_v5,2020.2.10,MacIntel,60,61025ae37ef11b136ea224fe,,,,,,,,,2431,47,-19,1,0,0,response3disk,,5,14,-2,1,0,0,rectangle,14,-2,1,0,0,14,-2,1,0,0,0,113,113,17,1,,,,,,,,
,,,,,,,,,,,,,FF,,,,,,,,0.782,,,,,,,,,,,,,,,,,,,,,,61036710e1eb1d931b7a34a6,61036e70db302659b0568e5b,2021-07-29_23h14.24.866,Simcolourproject_2stim_asymm_v5,2020.2.10,MacIntel,60,61025ae37ef11b136ea224fe,,,,,,,,,2319,39,56,1,0,0,response1disk,,7,2,-2,1,0,0,rectangle,2,-2,1,0,0,2,-2,1,0,0,0,114,114,49,1,,,,,,,,
,,,,,,,,,,,,,FF,,,,,,,,0.733,,,,,,,,,,,,,,,,,,,,,,61036710e1eb1d931b7a34a6,61036e70db302659b0568e5b,2021-07-29_23h14.24.866,Simcolourproject_2stim_asymm_v5,2020.2.10,MacIntel,60,61025ae37ef11b136ea224fe,,,,,,,,,1982,24,52,1,0,0,response1disk,,7,-8,-15,1,0,0,rectangle,-8,-15,1,0,0,-8,-15,1,0,0,0,115,115,137,1,,,,,,,,
,,,,,,,,,,,,,FF,,,,,,,,0.917,,,,,,,,,,,,,,,,,,,,,,61036710e1eb1d931b7a34a6,61036e70db302659b0568e5b,2021-07-29_23h14.24.866,Simcolourproject_2stim_asymm_v5,2020.2.10,MacIntel,60,61025ae37ef11b136ea224fe,,,,,,,,,3474,43,28,1,0,0,response1disk,,6,-2,-5,1,0,0,rectangle,-2,-5,1,0,0,-2,-5,1,0,0,0,116,116,145,1,,,,,,,,
,,,,,,,,,,,,,FF,,,,,,,,0.65,,,,,,,,,,,,,,,,,,,,,,61036710e1eb1d931b7a34a6,61036e70db302659b0568e5b,2021-07-29_23h14.24.866,Simcolourproject_2stim_asymm_v5,2020.2.10,MacIntel,60,61025ae37ef11b136ea224fe,,,,,,,,,2057,27,55,1,0,0,response1disk,,7,-9,0,1,0,0,rectangle,-9,0,1,0,0,-9,0,1,0,0,0,117,117,94,1,,,,,,,,
,,,,,,,,,,,,,FF,,,,,,,,0.567,,,,,,,,,,,,,,,,,,,,,,61036710e1eb1d931b7a34a6,61036e70db302659b0568e5b,2021-07-29_23h14.24.866,Simcolourproject_2stim_asymm_v5,2020.2.10,MacIntel,60,61025ae37ef11b136ea224fe,,,,,,,,,3306,19,49,1,0,0,response1disk,,7,0,1,1,0,0,rectangle,0,1,1,0,0,0,1,1,0,0,0,118,118,69,1,,,,,,,,
,,,,,,,,,,,,,FF,,,,,,,,0.631,,,,,,,,,,,,,,,,,,,,,,61036710e1eb1d931b7a34a6,61036e70db302659b0568e5b,2021-07-29_23h14.24.866,Simcolourproject_2stim_asymm_v5,2020.2.10,MacIntel,60,61025ae37ef11b136ea224fe,,,,,,,,,2957,23,52,1,0,0,response1disk,,7,-4,-12,1,0,0,rectangle,-4,-12,1,0,0,-4,-12,1,0,0,0,119,119,68,1,,,,,,,,
,,,,,,,,,,,,,FF,,,,,,,,1.6,,,,,,,,,,,,,,,,,,,,,,61036710e1eb1d931b7a34a6,61036e70db302659b0568e5b,2021-07-29_23h14.24.866,Simcolourproject_2stim_asymm_v5,2020.2.10,MacIntel,60,61025ae37ef11b136ea224fe,,,,,,,,,2929,72,34,1,0,0,response1disk,,6,4,-3,1,0,0,rectangle,4,-3,1,0,0,4,-3,1,0,0,0,120,120,96,1,,,,,,,,
,,,,,,,,,,,,,FF,,,,,,,,1.301,,,,,,,,,,,,,,,,,,,,,,61036710e1eb1d931b7a34a6,61036e70db302659b0568e5b,2021-07-29_23h14.24.866,Simcolourproject_2stim_asymm_v5,2020.2.10,MacIntel,60,61025ae37ef11b136ea224fe,,,,,,,,,1939,48,28,1,0,0,response1disk,,6,6,9,1,0,0,rectangle,6,9,1,0,0,6,9,1,0,0,0,121,121,109,1,,,,,,,,
,,,,,,,,,,,,,FF,,,,,,,,0.816,,,,,,,,,,,,,,,,,,,,,,61036710e1eb1d931b7a34a6,61036e70db302659b0568e5b,2021-07-29_23h14.24.866,Simcolourproject_2stim_asymm_v5,2020.2.10,MacIntel,60,61025ae37ef11b136ea224fe,,,,,,,,,3333,54,-24,1,0,0,response3disk,,5,19,-3,1,0,0,rectangle,19,-3,1,0,0,19,-3,1,0,0,0,122,122,101,1,,,,,,,,
,,,,,,,,,,,,,FF,,,,,,,,0.783,,,,,,,,,,,,,,,,,,,,,,61036710e1eb1d931b7a34a6,61036e70db302659b0568e5b,2021-07-29_23h14.24.866,Simcolourproject_2stim_asymm_v5,2020.2.10,MacIntel,60,61025ae37ef11b136ea224fe,,,,,,,,,1039,57,28,1,0,0,response1disk,,6,24,7,1,0,0,rectangle,24,7,1,0,0,24,7,1,0,0,0,123,123,25,1,,,,,,,,
,,,,,,,,,,,,,FF,,,,,,,,1.2,,,,,,,,,,,,,,,,,,,,,,61036710e1eb1d931b7a34a6,61036e70db302659b0568e5b,2021-07-29_23h14.24.866,Simcolourproject_2stim_asymm_v5,2020.2.10,MacIntel,60,61025ae37ef11b136ea224fe,,,,,,,,,1806,36,92,1,0,0,response1disk,,7,-4,-11,1,0,0,rectangle,-4,-11,1,0,0,-4,-11,1,0,0,0,124,124,149,1,,,,,,,,
,,,,,,,,,,,,,FF,,,,,,,,1.549,,,,,,,,,,,,,,,,,,,,,,61036710e1eb1d931b7a34a6,61036e70db302659b0568e5b,2021-07-29_23h14.24.866,Simcolourproject_2stim_asymm_v5,2020.2.10,MacIntel,60,61025ae37ef11b136ea224fe,,,,,,,,,25,52,21,1,0,0,response1disk,,6,1,-2,1,0,0,rectangle,1,-2,1,0,0,1,-2,1,0,0,0,125,125,90,1,,,,,,,,
,,,,,,,,,,,,,FF,,,,,,,,0.617,,,,,,,,,,,,,,,,,,,,,,61036710e1eb1d931b7a34a6,61036e70db302659b0568e5b,2021-07-29_23h14.24.866,Simcolourproject_2stim_asymm_v5,2020.2.10,MacIntel,60,61025ae37ef11b136ea224fe,,,,,,,,,1485,25,56,1,0,0,response1disk,,7,-1,-4,1,0,0,rectangle,-1,-4,1,0,0,-1,-4,1,0,0,0,126,126,59,1,,,,,,,,
,,,,,,,,,,,,,FF,,,,,,,,0.766,,,,,,,,,,,,,,,,,,,,,,61036710e1eb1d931b7a34a6,61036e70db302659b0568e5b,2021-07-29_23h14.24.866,Simcolourproject_2stim_asymm_v5,2020.2.10,MacIntel,60,61025ae37ef11b136ea224fe,,,,,,,,,1909,55,-43,1,0,0,response3disk,,5,2,-5,1,0,0,rectangle,2,-5,1,0,0,2,-5,1,0,0,0,127,127,125,1,,,,,,,,
,,,,,,,,,,,,,FF,,,,,,,,1.115,,,,,,,,,,,,,,,,,,,,,,61036710e1eb1d931b7a34a6,61036e70db302659b0568e5b,2021-07-29_23h14.24.866,Simcolourproject_2stim_asymm_v5,2020.2.10,MacIntel,60,61025ae37ef11b136ea224fe,,,,,,,,,1380,78,36,1,0,0,response1disk,,6,-9,12,1,0,0,rectangle,-9,12,1,0,0,-9,12,1,0,0,0,128,128,21,1,,,,,,,,
,,,,,,,,,,,,,FF,,,,,,,,1.233,,,,,,,,,,,,,,,,,,,,,,61036710e1eb1d931b7a34a6,61036e70db302659b0568e5b,2021-07-29_23h14.24.866,Simcolourproject_2stim_asymm_v5,2020.2.10,MacIntel,60,61025ae37ef11b136ea224fe,,,,,,,,,779,51,69,1,0,0,response1disk,,7,0,-9,1,0,0,rectangle,0,-9,1,0,0,0,-9,1,0,0,0,129,129,13,1,,,,,,,,
,,,,,,,,,,,,,FF,,,,,,,,1.283,,,,,,,,,,,,,,,,,,,,,,61036710e1eb1d931b7a34a6,61036e70db302659b0568e5b,2021-07-29_23h14.24.866,Simcolourproject_2stim_asymm_v5,2020.2.10,MacIntel,60,61025ae37ef11b136ea224fe,,,,,,,,,3909,57,-29,1,0,0,response3disk,,5,-5,-18,1,0,0,rectangle,-5,-18,1,0,0,-5,-18,1,0,0,0,130,130,74,1,,,,,,,,
,,,,,,,,,,,,,FF,,,,,,,,0.849,,,,,,,,,,,,,,,,,,,,,,61036710e1eb1d931b7a34a6,61036e70db302659b0568e5b,2021-07-29_23h14.24.866,Simcolourproject_2stim_asymm_v5,2020.2.10,MacIntel,60,61025ae37ef11b136ea224fe,,,,,,,,,3258,26,-68,1,0,0,response3disk,,4,16,-9,1,0,0,rectangle,16,-9,1,0,0,16,-9,1,0,0,0,131,131,30,1,,,,,,,,
,,,,,,,,,,,,,FF,,,,,,,,1.116,,,,,,,,,,,,,,,,,,,,,,61036710e1eb1d931b7a34a6,61036e70db302659b0568e5b,2021-07-29_23h14.24.866,Simcolourproject_2stim_asymm_v5,2020.2.10,MacIntel,60,61025ae37ef11b136ea224fe,,,,,,,,,1059,65,-38,1,0,0,response3disk,,5,17,-7,1,0,0,rectangle,17,-7,1,0,0,17,-7,1,0,0,0,132,132,15,1,,,,,,,,
,,,,,,,,,,,,,FF,,,,,,,,0.65,,,,,,,,,,,,,,,,,,,,,,61036710e1eb1d931b7a34a6,61036e70db302659b0568e5b,2021-07-29_23h14.24.866,Simcolourproject_2stim_asymm_v5,2020.2.10,MacIntel,60,61025ae37ef11b136ea224fe,,,,,,,,,3456,40,60,1,0,0,response1disk,,7,14,14,1,0,0,rectangle,14,14,1,0,0,14,14,1,0,0,0,133,133,87,1,,,,,,,,
,,,,,,,,,,,,,FF,,,,,,,,0.783,,,,,,,,,,,,,,,,,,,,,,61036710e1eb1d931b7a34a6,61036e70db302659b0568e5b,2021-07-29_23h14.24.866,Simcolourproject_2stim_asymm_v5,2020.2.10,MacIntel,60,61025ae37ef11b136ea224fe,,,,,,,,,4195,45,34,1,0,0,response1disk,,6,-3,6,1,0,0,rectangle,-3,6,1,0,0,-3,6,1,0,0,0,134,134,57,1,,,,,,,,
,,,,,,,,,,,,,FF,,,,,,,,1.367,,,,,,,,,,,,,,,,,,,,,,61036710e1eb1d931b7a34a6,61036e70db302659b0568e5b,2021-07-29_23h14.24.866,Simcolourproject_2stim_asymm_v5,2020.2.10,MacIntel,60,61025ae37ef11b136ea224fe,,,,,,,,,1321,54,-29,1,0,0,response3disk,,5,33,-14,1,0,0,rectangle,33,-14,1,0,0,33,-14,1,0,0,0,135,135,106,1,,,,,,,,
,,,,,,,,,,,,,FF,,,,,,,,0.784,,,,,,,,,,,,,,,,,,,,,,61036710e1eb1d931b7a34a6,61036e70db302659b0568e5b,2021-07-29_23h14.24.866,Simcolourproject_2stim_asymm_v5,2020.2.10,MacIntel,60,61025ae37ef11b136ea224fe,,,,,,,,,4291,41,62,1,0,0,response1disk,,7,1,-4,1,0,0,rectangle,1,-4,1,0,0,1,-4,1,0,0,0,136,136,16,1,,,,,,,,
,,,,,,,,,,,,,FF,,,,,,,,1.301,,,,,,,,,,,,,,,,,,,,,,61036710e1eb1d931b7a34a6,61036e70db302659b0568e5b,2021-07-29_23h14.24.866,Simcolourproject_2stim_asymm_v5,2020.2.10,MacIntel,60,61025ae37ef11b136ea224fe,,,,,,,,,1924,31,-47,1,0,0,response3disk,,4,16,-9,1,0,0,rectangle,16,-9,1,0,0,16,-9,1,0,0,0,137,137,28,1,,,,,,,,
,,,,,,,,,,,,,FF,,,,,,,,0.584,,,,,,,,,,,,,,,,,,,,,,61036710e1eb1d931b7a34a6,61036e70db302659b0568e5b,2021-07-29_23h14.24.866,Simcolourproject_2stim_asymm_v5,2020.2.10,MacIntel,60,61025ae37ef11b136ea224fe,,,,,,,,,1900,30,-55,1,0,0,response3disk,,4,23,2,1,0,0,rectangle,23,2,1,0,0,23,2,1,0,0,0,138,138,118,1,,,,,,,,
,,,,,,,,,,,,,FF,,,,,,,,0.866,,,,,,,,,,,,,,,,,,,,,,61036710e1eb1d931b7a34a6,61036e70db302659b0568e5b,2021-07-29_23h14.24.866,Simcolourproject_2stim_asymm_v5,2020.2.10,MacIntel,60,61025ae37ef11b136ea224fe,,,,,,,,,484,47,-29,1,0,0,response3disk,,5,30,6,1,0,0,rectangle,30,6,1,0,0,30,6,1,0,0,0,139,139,54,1,,,,,,,,
,,,,,,,,,,,,,FF,,,,,,,,1.751,,,,,,,,,,,,,,,,,,,,,,61036710e1eb1d931b7a34a6,61036e70db302659b0568e5b,2021-07-29_23h14.24.866,Simcolourproject_2stim_asymm_v5,2020.2.10,MacIntel,60,61025ae37ef11b136ea224fe,,,,,,,,,3040,64,18,1,0,0,response1disk,,6,-13,-11,1,0,0,rectangle,-13,-11,1,0,0,-13,-11,1,0,0,0,140,140,104,1,,,,,,,,
,,,,,,,,,,,,,FF,,,,,,,,0.901,,,,,,,,,,,,,,,,,,,,,,61036710e1eb1d931b7a34a6,61036e70db302659b0568e5b,2021-07-29_23h14.24.866,Simcolourproject_2stim_asymm_v5,2020.2.10,MacIntel,60,61025ae37ef11b136ea224fe,,,,,,,,,1949,40,-38,1,0,0,response3disk,,5,-14,10,1,0,0,rectangle,-14,10,1,0,0,-14,10,1,0,0,0,141,141,56,1,,,,,,,,
,,,,,,,,,,,,,FF,,,,,,,,1.149,,,,,,,,,,,,,,,,,,,,,,61036710e1eb1d931b7a34a6,61036e70db302659b0568e5b,2021-07-29_23h14.24.866,Simcolourproject_2stim_asymm_v5,2020.2.10,MacIntel,60,61025ae37ef11b136ea224fe,,,,,,,,,371,-49,-49,1,0,0,response5disk,,2,-13,5,1,0,0,rectangle,-13,5,1,0,0,-13,5,1,0,0,0,142,142,144,1,,,,,,,,
,,,,,,,,,,,,,FF,,,,,,,,1.2,,,,,,,,,,,,,,,,,,,,,,61036710e1eb1d931b7a34a6,61036e70db302659b0568e5b,2021-07-29_23h14.24.866,Simcolourproject_2stim_asymm_v5,2020.2.10,MacIntel,60,61025ae37ef11b136ea224fe,,,,,,,,,3209,36,68,1,0,0,response1disk,,7,4,-3,1,0,0,rectangle,4,-3,1,0,0,4,-3,1,0,0,0,143,143,141,1,,,,,,,,
,,,,,,,,,,,,,FF,,,,,,,,1.134,,,,,,,,,,,,,,,,,,,,,,61036710e1eb1d931b7a34a6,61036e70db302659b0568e5b,2021-07-29_23h14.24.866,Simcolourproject_2stim_asymm_v5,2020.2.10,MacIntel,60,61025ae37ef11b136ea224fe,,,,,,,,,2218,-57,-28,1,0,0,response5disk,,2,-10,-9,1,0,0,rectangle,-10,-9,1,0,0,-10,-9,1,0,0,0,144,144,45,1,,,,,,,,
,,,,,,,,,,,,,FF,,,,,,,,0.65,,,,,,,,,,,,,,,,,,,,,,61036710e1eb1d931b7a34a6,61036e70db302659b0568e5b,2021-07-29_23h14.24.866,Simcolourproject_2stim_asymm_v5,2020.2.10,MacIntel,60,61025ae37ef11b136ea224fe,,,,,,,,,455,-53,30,1,0,0,response7disk,,1,-23,10,1,0,0,rectangle,-23,10,1,0,0,-23,10,1,0,0,0,145,145,113,1,,,,,,,,
,,,,,,,,,,,,,FF,,,,,,,,0.8,,,,,,,,,,,,,,,,,,,,,,61036710e1eb1d931b7a34a6,61036e70db302659b0568e5b,2021-07-29_23h14.24.866,Simcolourproject_2stim_asymm_v5,2020.2.10,MacIntel,60,61025ae37ef11b136ea224fe,,,,,,,,,2276,34,-19,1,0,0,response3disk,,5,-4,-8,1,0,0,rectangle,-4,-8,1,0,0,-4,-8,1,0,0,0,146,146,36,1,,,,,,,,
,,,,,,,,,,,,,FF,,,,,,,,0.832,,,,,,,,,,,,,,,,,,,,,,61036710e1eb1d931b7a34a6,61036e70db302659b0568e5b,2021-07-29_23h14.24.866,Simcolourproject_2stim_asymm_v5,2020.2.10,MacIntel,60,61025ae37ef11b136ea224fe,,,,,,,,,1360,49,-30,1,0,0,response3disk,,5,4,-4,1,0,0,rectangle,4,-4,1,0,0,4,-4,1,0,0,0,147,147,148,1,,,,,,,,
,,,,,,,,,,,,,FF,,,,,,,,1.234,,,,,,,,,,,,,,,,,,,,,,61036710e1eb1d931b7a34a6,61036e70db302659b0568e5b,2021-07-29_23h14.24.866,Simcolourproject_2stim_asymm_v5,2020.2.10,MacIntel,60,61025ae37ef11b136ea224fe,,,,,,,,,4272,-33,-17,1,0,0,response5disk,,2,-4,-6,1,0,0,rectangle,-4,-6,1,0,0,-4,-6,1,0,0,0,148,148,14,1,,,,,,,,
,,,,,,,,,,,,,FF,,,,,,,,0.866,,,,,,,,,,,,,,,,,,,,,,61036710e1eb1d931b7a34a6,61036e70db302659b0568e5b,2021-07-29_23h14.24.866,Simcolourproject_2stim_asymm_v5,2020.2.10,MacIntel,60,61025ae37ef11b136ea224fe,,,,,,,,,135,57,41,1,0,0,response1disk,,6,5,0,1,0,0,rectangle,-29,-76,1,0,0,26,10,1,0,0,0,149,149,12,1,,response5disk_3,TRUE,3,3,"[72,52,29,298,267,228,316,50,237,284,88,6,256,73,220,10,183,11,150,53]",1.748,rectangle
,,,,,,,,,,,,,FF,,,,,,,,2.316,,,,,,,,,,,,,,,,,,,,,,61036710e1eb1d931b7a34a6,61036e70db302659b0568e5b,2021-07-29_23h14.24.866,Simcolourproject_2stim_asymm_v5,2020.2.10,MacIntel,60,61025ae37ef11b136ea224fe,,,,,,,,,396,51,-25,1,0,0,response3disk,,5,14,0,1,0,0,rectangle,14,0,1,0,0,14,0,1,0,0,0,150,150,18,1,,,,,,,,
,,,,,,,,,,,,,FF,,,,,,,,0.832,,,,,,,,,,,,,,,,,,,,,,61036710e1eb1d931b7a34a6,61036e70db302659b0568e5b,2021-07-29_23h14.24.866,Simcolourproject_2stim_asymm_v5,2020.2.10,MacIntel,60,61025ae37ef11b136ea224fe,,,,,,,,,1180,-36,28,1,0,0,response7disk,,1,-24,-13,1,0,0,rectangle,-24,-13,1,0,0,-24,-13,1,0,0,0,151,151,120,1,,,,,,,,
,,,,,,,,,,,,,FF,,,,,,,,0.983,,,,,,,,,,,,,,,,,,,,,,61036710e1eb1d931b7a34a6,61036e70db302659b0568e5b,2021-07-29_23h14.24.866,Simcolourproject_2stim_asymm_v5,2020.2.10,MacIntel,60,61025ae37ef11b136ea224fe,,,,,,,,,3778,-64,19,1,0,0,response7disk,,1,-29,10,1,0,0,rectangle,-29,10,1,0,0,-29,10,1,0,0,0,152,152,129,1,,,,,,,,
,,,,,,,,,,,,,FF,,,,,,,,0.832,,,,,,,,,,,,,,,,,,,,,,61036710e1eb1d931b7a34a6,61036e70db302659b0568e5b,2021-07-29_23h14.24.866,Simcolourproject_2stim_asymm_v5,2020.2.10,MacIntel,60,61025ae37ef11b136ea224fe,,,,,,,,,449,-30,-61,1,0,0,response5disk,,3,-14,-14,1,0,0,rectangle,-14,-14,1,0,0,-14,-14,1,0,0,0,153,153,35,1,,,,,,,,
,,,,,,,,,,,,,FF,,,,,,,,1.267,,,,,,,,,,,,,,,,,,,,,,61036710e1eb1d931b7a34a6,61036e70db302659b0568e5b,2021-07-29_23h14.24.866,Simcolourproject_2stim_asymm_v5,2020.2.10,MacIntel,60,61025ae37ef11b136ea224fe,,,,,,,,,3285,-37,-74,1,0,0,response5disk,,3,-7,-16,1,0,0,rectangle,-7,-16,1,0,0,-7,-16,1,0,0,0,154,154,156,1,,,,,,,,
,,,,,,,,,,,,,FF,,,,,,,,0.883,,,,,,,,,,,,,,,,,,,,,,61036710e1eb1d931b7a34a6,61036e70db302659b0568e5b,2021-07-29_23h14.24.866,Simcolourproject_2stim_asymm_v5,2020.2.10,MacIntel,60,61025ae37ef11b136ea224fe,,,,,,,,,1224,54,-25,1,0,0,response3disk,,5,15,-11,1,0,0,rectangle,15,-11,1,0,0,15,-11,1,0,0,0,155,155,84,1,,,,,,,,
,,,,,,,,,,,,,FF,,,,,,,,0.749,,,,,,,,,,,,,,,,,,,,,,61036710e1eb1d931b7a34a6,61036e70db302659b0568e5b,2021-07-29_23h14.24.866,Simcolourproject_2stim_asymm_v5,2020.2.10,MacIntel,60,61025ae37ef11b136ea224fe,,,,,,,,,4356,-36,21,1,0,0,response7disk,,1,-14,2,1,0,0,rectangle,-14,2,1,0,0,-14,2,1,0,0,0,156,156,114,1,,,,,,,,
,,,,,,,,,,,,,FF,,,,,,,,1.351,,,,,,,,,,,,,,,,,,,,,,61036710e1eb1d931b7a34a6,61036e70db302659b0568e5b,2021-07-29_23h14.24.866,Simcolourproject_2stim_asymm_v5,2020.2.10,MacIntel,60,61025ae37ef11b136ea224fe,,,,,,,,,3898,60,-26,1,0,0,response3disk,,5,9,-2,1,0,0,rectangle,9,-2,1,0,0,9,-2,1,0,0,0,157,157,130,1,,,,,,,,
,,,,,,,,,,,,,FF,,,,,,,,0.866,,,,,,,,,,,,,,,,,,,,,,61036710e1eb1d931b7a34a6,61036e70db302659b0568e5b,2021-07-29_23h14.24.866,Simcolourproject_2stim_asymm_v5,2020.2.10,MacIntel,60,61025ae37ef11b136ea224fe,,,,,,,,,1601,36,-58,1,0,0,response3disk,,4,13,-6,1,0,0,rectangle,13,-6,1,0,0,13,-6,1,0,0,0,158,158,46,1,,,,,,,,
,,,,,,,,,,,,,FF,,,,,,,,0.751,,,,,,,,,,,,,,,,,,,,,,61036710e1eb1d931b7a34a6,61036e70db302659b0568e5b,2021-07-29_23h14.24.866,Simcolourproject_2stim_asymm_v5,2020.2.10,MacIntel,60,61025ae37ef11b136ea224fe,,,,,,,,,2181,28,-46,1,0,0,response3disk,,4,28,0,1,0,0,rectangle,28,0,1,0,0,28,0,1,0,0,0,159,159,116,1,,,,,,,,
,,,,,,,,,,,,,FF,,,,,,,,1.149,,,,,,,,,,,,,,,,,,,,,,61036710e1eb1d931b7a34a6,61036e70db302659b0568e5b,2021-07-29_23h14.24.866,Simcolourproject_2stim_asymm_v5,2020.2.10,MacIntel,60,61025ae37ef11b136ea224fe,,,,,,,,,2034,25,-57,1,0,0,response3disk,,4,23,1,1,0,0,rectangle,23,1,1,0,0,23,1,1,0,0,1,0,160,22,1,,,,,,,,
,,,,,,,,,,,,,FF,,,,,,,,0.751,,,,,,,,,,,,,,,,,,,,,,61036710e1eb1d931b7a34a6,61036e70db302659b0568e5b,2021-07-29_23h14.24.866,Simcolourproject_2stim_asymm_v5,2020.2.10,MacIntel,60,61025ae37ef11b136ea224fe,,,,,,,,,3323,68,34,1,0,0,response1disk,,6,12,-18,1,0,0,rectangle,12,-18,1,0,0,12,-18,1,0,0,1,1,161,40,1,,,,,,,,
,,,,,,,,,,,,,FF,,,,,,,,0.917,,,,,,,,,,,,,,,,,,,,,,61036710e1eb1d931b7a34a6,61036e70db302659b0568e5b,2021-07-29_23h14.24.866,Simcolourproject_2stim_asymm_v5,2020.2.10,MacIntel,60,61025ae37ef11b136ea224fe,,,,,,,,,2059,28,65,1,0,0,response1disk,,7,0,13,1,0,0,rectangle,0,13,1,0,0,0,13,1,0,0,1,2,162,5,1,,,,,,,,
,,,,,,,,,,,,,FF,,,,,,,,0.816,,,,,,,,,,,,,,,,,,,,,,61036710e1eb1d931b7a34a6,61036e70db302659b0568e5b,2021-07-29_23h14.24.866,Simcolourproject_2stim_asymm_v5,2020.2.10,MacIntel,60,61025ae37ef11b136ea224fe,,,,,,,,,1092,22,59,1,0,0,response1disk,,7,-7,-8,1,0,0,rectangle,-7,-8,1,0,0,-7,-8,1,0,0,1,3,163,24,1,,,,,,,,
,,,,,,,,,,,,,FF,,,,,,,,0.799,,,,,,,,,,,,,,,,,,,,,,61036710e1eb1d931b7a34a6,61036e70db302659b0568e5b,2021-07-29_23h14.24.866,Simcolourproject_2stim_asymm_v5,2020.2.10,MacIntel,60,61025ae37ef11b136ea224fe,,,,,,,,,3045,-42,-42,1,0,0,response5disk,,2,-12,-9,1,0,0,rectangle,-12,-9,1,0,0,-12,-9,1,0,0,1,4,164,100,1,,,,,,,,
,,,,,,,,,,,,,FF,,,,,,,,0.784,,,,,,,,,,,,,,,,,,,,,,61036710e1eb1d931b7a34a6,61036e70db302659b0568e5b,2021-07-29_23h14.24.866,Simcolourproject_2stim_asymm_v5,2020.2.10,MacIntel,60,61025ae37ef11b136ea224fe,,,,,,,,,2880,20,-38,1,0,0,response3disk,,4,14,-4,1,0,0,rectangle,14,-4,1,0,0,14,-4,1,0,0,1,5,165,91,1,,,,,,,,
,,,,,,,,,,,,,FF,,,,,,,,0.868,,,,,,,,,,,,,,,,,,,,,,61036710e1eb1d931b7a34a6,61036e70db302659b0568e5b,2021-07-29_23h14.24.866,Simcolourproject_2stim_asymm_v5,2020.2.10,MacIntel,60,61025ae37ef11b136ea224fe,,,,,,,,,1269,53,28,1,0,0,response1disk,,6,13,-12,1,0,0,rectangle,13,-12,1,0,0,13,-12,1,0,0,1,6,166,16,1,,,,,,,,
,,,,,,,,,,,,,FF,,,,,,,,0.7,,,,,,,,,,,,,,,,,,,,,,61036710e1eb1d931b7a34a6,61036e70db302659b0568e5b,2021-07-29_23h14.24.866,Simcolourproject_2stim_asymm_v5,2020.2.10,MacIntel,60,61025ae37ef11b136ea224fe,,,,,,,,,3863,51,26,1,0,0,response1disk,,6,12,-5,1,0,0,rectangle,12,-5,1,0,0,12,-5,1,0,0,1,7,167,69,1,,,,,,,,
,,,,,,,,,,,,,FF,,,,,,,,0.55,,,,,,,,,,,,,,,,,,,,,,61036710e1eb1d931b7a34a6,61036e70db302659b0568e5b,2021-07-29_23h14.24.866,Simcolourproject_2stim_asymm_v5,2020.2.10,MacIntel,60,61025ae37ef11b136ea224fe,,,,,,,,,4077,48,26,1,0,0,response1disk,,6,11,2,1,0,0,rectangle,11,2,1,0,0,11,2,1,0,0,1,8,168,93,1,,,,,,,,
,,,,,,,,,,,,,FF,,,,,,,,0.933,,,,,,,,,,,,,,,,,,,,,,61036710e1eb1d931b7a34a6,61036e70db302659b0568e5b,2021-07-29_23h14.24.866,Simcolourproject_2stim_asymm_v5,2020.2.10,MacIntel,60,61025ae37ef11b136ea224fe,,,,,,,,,635,50,29,1,0,0,response1disk,,6,18,14,1,0,0,rectangle,18,14,1,0,0,18,14,1,0,0,1,9,169,36,1,,,,,,,,
,,,,,,,,,,,,,FF,,,,,,,,0.933,,,,,,,,,,,,,,,,,,,,,,61036710e1eb1d931b7a34a6,61036e70db302659b0568e5b,2021-07-29_23h14.24.866,Simcolourproject_2stim_asymm_v5,2020.2.10,MacIntel,60,61025ae37ef11b136ea224fe,,,,,,,,,4108,22,68,1,0,0,response1disk,,7,8,-2,1,0,0,rectangle,8,-2,1,0,0,8,-2,1,0,0,1,10,170,51,1,,,,,,,,
,,,,,,,,,,,,,FF,,,,,,,,0.617,,,,,,,,,,,,,,,,,,,,,,61036710e1eb1d931b7a34a6,61036e70db302659b0568e5b,2021-07-29_23h14.24.866,Simcolourproject_2stim_asymm_v5,2020.2.10,MacIntel,60,61025ae37ef11b136ea224fe,,,,,,,,,599,63,44,1,0,0,response1disk,,6,7,-1,1,0,0,rectangle,7,-1,1,0,0,7,-1,1,0,0,1,11,171,9,1,,,,,,,,
,,,,,,,,,,,,,FF,,,,,,,,1.366,,,,,,,,,,,,,,,,,,,,,,61036710e1eb1d931b7a34a6,61036e70db302659b0568e5b,2021-07-29_23h14.24.866,Simcolourproject_2stim_asymm_v5,2020.2.10,MacIntel,60,61025ae37ef11b136ea224fe,,,,,,,,,1766,57,37,1,0,0,response1disk,,6,4,4,1,0,0,rectangle,4,4,1,0,0,4,4,1,0,0,1,12,172,48,1,,,,,,,,
,,,,,,,,,,,,,FF,,,,,,,,0.867,,,,,,,,,,,,,,,,,,,,,,61036710e1eb1d931b7a34a6,61036e70db302659b0568e5b,2021-07-29_23h14.24.866,Simcolourproject_2stim_asymm_v5,2020.2.10,MacIntel,60,61025ae37ef11b136ea224fe,,,,,,,,,3865,23,59,1,0,0,response1disk,,7,-15,-10,1,0,0,rectangle,-15,-10,1,0,0,-15,-10,1,0,0,1,13,173,137,1,,,,,,,,
,,,,,,,,,,,,,FF,,,,,,,,1.417,,,,,,,,,,,,,,,,,,,,,,61036710e1eb1d931b7a34a6,61036e70db302659b0568e5b,2021-07-29_23h14.24.866,Simcolourproject_2stim_asymm_v5,2020.2.10,MacIntel,60,61025ae37ef11b136ea224fe,,,,,,,,,2739,56,26,1,0,0,response1disk,,6,-1,4,1,0,0,rectangle,-1,4,1,0,0,-1,4,1,0,0,1,14,174,157,1,,,,,,,,
,,,,,,,,,,,,,FF,,,,,,,,1.366,,,,,,,,,,,,,,,,,,,,,,61036710e1eb1d931b7a34a6,61036e70db302659b0568e5b,2021-07-29_23h14.24.866,Simcolourproject_2stim_asymm_v5,2020.2.10,MacIntel,60,61025ae37ef11b136ea224fe,,,,,,,,,3827,29,66,1,0,0,response1disk,,7,4,3,1,0,0,rectangle,4,3,1,0,0,4,3,1,0,0,1,15,175,119,1,,,,,,,,
,,,,,,,,,,,,,FF,,,,,,,,1,,,,,,,,,,,,,,,,,,,,,,61036710e1eb1d931b7a34a6,61036e70db302659b0568e5b,2021-07-29_23h14.24.866,Simcolourproject_2stim_asymm_v5,2020.2.10,MacIntel,60,61025ae37ef11b136ea224fe,,,,,,,,,720,-32,-57,1,0,0,response5disk,,3,-3,5,1,0,0,rectangle,-3,5,1,0,0,-3,5,1,0,0,1,16,176,144,1,,,,,,,,
,,,,,,,,,,,,,FF,,,,,,,,0.667,,,,,,,,,,,,,,,,,,,,,,61036710e1eb1d931b7a34a6,61036e70db302659b0568e5b,2021-07-29_23h14.24.866,Simcolourproject_2stim_asymm_v5,2020.2.10,MacIntel,60,61025ae37ef11b136ea224fe,,,,,,,,,1776,47,26,1,0,0,response1disk,,6,9,1,1,0,0,rectangle,9,1,1,0,0,9,1,1,0,0,1,17,177,109,1,,,,,,,,
,,,,,,,,,,,,,FF,,,,,,,,0.733,,,,,,,,,,,,,,,,,,,,,,61036710e1eb1d931b7a34a6,61036e70db302659b0568e5b,2021-07-29_23h14.24.866,Simcolourproject_2stim_asymm_v5,2020.2.10,MacIntel,60,61025ae37ef11b136ea224fe,,,,,,,,,3061,77,52,1,0,0,response1disk,,6,20,16,1,0,0,rectangle,20,16,1,0,0,20,16,1,0,0,1,18,178,2,1,,,,,,,,
,,,,,,,,,,,,,FF,,,,,,,,1.182,,,,,,,,,,,,,,,,,,,,,,61036710e1eb1d931b7a34a6,61036e70db302659b0568e5b,2021-07-29_23h14.24.866,Simcolourproject_2stim_asymm_v5,2020.2.10,MacIntel,60,61025ae37ef11b136ea224fe,,,,,,,,,3192,66,-22,1,0,0,response3disk,,5,-9,-7,1,0,0,rectangle,-9,-7,1,0,0,-9,-7,1,0,0,1,19,179,42,1,,,,,,,,
,,,,,,,,,,,,,FF,,,,,,,,2.283,,,,,,,,,,,,,,,,,,,,,,61036710e1eb1d931b7a34a6,61036e70db302659b0568e5b,2021-07-29_23h14.24.866,Simcolourproject_2stim_asymm_v5,2020.2.10,MacIntel,60,61025ae37ef11b136ea224fe,,,,,,,,,1541,54,42,1,0,0,response1disk,,6,13,2,1,0,0,rectangle,13,2,1,0,0,13,2,1,0,0,1,20,180,70,1,,,,,,,,
,,,,,,,,,,,,,FF,,,,,,,,0.618,,,,,,,,,,,,,,,,,,,,,,61036710e1eb1d931b7a34a6,61036e70db302659b0568e5b,2021-07-29_23h14.24.866,Simcolourproject_2stim_asymm_v5,2020.2.10,MacIntel,60,61025ae37ef11b136ea224fe,,,,,,,,,1525,56,-27,1,0,0,response3disk,,5,24,-15,1,0,0,rectangle,24,-15,1,0,0,24,-15,1,0,0,1,21,181,49,1,,,,,,,,
,,,,,,,,,,,,,FF,,,,,,,,1.201,,,,,,,,,,,,,,,,,,,,,,61036710e1eb1d931b7a34a6,61036e70db302659b0568e5b,2021-07-29_23h14.24.866,Simcolourproject_2stim_asymm_v5,2020.2.10,MacIntel,60,61025ae37ef11b136ea224fe,,,,,,,,,2110,38,46,1,0,0,response1disk,,7,-1,-17,1,0,0,rectangle,89,62,1,0,0,11,4,1,0,0,1,22,182,20,1,,response1disk_3,TRUE,6,6,"[72,52,29,298,267,228,316,50,237,284,88,6,256,73,220,10,183,11,150,53]",1.277,rectangle
,,,,,,,,,,,,,FF,,,,,,,,0.817,,,,,,,,,,,,,,,,,,,,,,61036710e1eb1d931b7a34a6,61036e70db302659b0568e5b,2021-07-29_23h14.24.866,Simcolourproject_2stim_asymm_v5,2020.2.10,MacIntel,60,61025ae37ef11b136ea224fe,,,,,,,,,1946,29,-32,1,0,0,response3disk,,4,15,-1,1,0,0,rectangle,15,-1,1,0,0,15,-1,1,0,0,1,23,183,10,1,,,,,,,,
,,,,,,,,,,,,,FF,,,,,,,,0.632,,,,,,,,,,,,,,,,,,,,,,61036710e1eb1d931b7a34a6,61036e70db302659b0568e5b,2021-07-29_23h14.24.866,Simcolourproject_2stim_asymm_v5,2020.2.10,MacIntel,60,61025ae37ef11b136ea224fe,,,,,,,,,562,21,-65,1,0,0,response3disk,,4,21,9,1,0,0,rectangle,21,9,1,0,0,21,9,1,0,0,1,24,184,56,1,,,,,,,,
,,,,,,,,,,,,,FF,,,,,,,,1.016,,,,,,,,,,,,,,,,,,,,,,61036710e1eb1d931b7a34a6,61036e70db302659b0568e5b,2021-07-29_23h14.24.866,Simcolourproject_2stim_asymm_v5,2020.2.10,MacIntel,60,61025ae37ef11b136ea224fe,,,,,,,,,3759,59,35,1,0,0,response1disk,,6,-11,-11,1,0,0,rectangle,-11,-11,1,0,0,-11,-11,1,0,0,1,25,185,6,1,,,,,,,,
,,,,,,,,,,,,,FF,,,,,,,,1.184,,,,,,,,,,,,,,,,,,,,,,61036710e1eb1d931b7a34a6,61036e70db302659b0568e5b,2021-07-29_23h14.24.866,Simcolourproject_2stim_asymm_v5,2020.2.10,MacIntel,60,61025ae37ef11b136ea224fe,,,,,,,,,3082,39,43,1,0,0,response1disk,,7,-21,-14,1,0,0,rectangle,-21,-14,1,0,0,-21,-14,1,0,0,1,26,186,94,1,,,,,,,,
,,,,,,,,,,,,,FF,,,,,,,,1.017,,,,,,,,,,,,,,,,,,,,,,61036710e1eb1d931b7a34a6,61036e70db302659b0568e5b,2021-07-29_23h14.24.866,Simcolourproject_2stim_asymm_v5,2020.2.10,MacIntel,60,61025ae37ef11b136ea224fe,,,,,,,,,326,69,20,1,0,0,response1disk,,6,3,-12,1,0,0,rectangle,3,-12,1,0,0,3,-12,1,0,0,1,27,187,104,1,,,,,,,,
,,,,,,,,,,,,,FF,,,,,,,,0.849,,,,,,,,,,,,,,,,,,,,,,61036710e1eb1d931b7a34a6,61036e70db302659b0568e5b,2021-07-29_23h14.24.866,Simcolourproject_2stim_asymm_v5,2020.2.10,MacIntel,60,61025ae37ef11b136ea224fe,,,,,,,,,2006,31,52,1,0,0,response1disk,,7,4,11,1,0,0,rectangle,4,11,1,0,0,4,11,1,0,0,1,28,188,129,1,,,,,,,,
,,,,,,,,,,,,,FF,,,,,,,,0.884,,,,,,,,,,,,,,,,,,,,,,61036710e1eb1d931b7a34a6,61036e70db302659b0568e5b,2021-07-29_23h14.24.866,Simcolourproject_2stim_asymm_v5,2020.2.10,MacIntel,60,61025ae37ef11b136ea224fe,,,,,,,,,2150,68,35,1,0,0,response1disk,,6,13,10,1,0,0,rectangle,13,10,1,0,0,13,10,1,0,0,1,29,189,138,1,,,,,,,,
,,,,,,,,,,,,,FF,,,,,,,,0.716,,,,,,,,,,,,,,,,,,,,,,61036710e1eb1d931b7a34a6,61036e70db302659b0568e5b,2021-07-29_23h14.24.866,Simcolourproject_2stim_asymm_v5,2020.2.10,MacIntel,60,61025ae37ef11b136ea224fe,,,,,,,,,2613,45,-26,1,0,0,response3disk,,5,-1,0,1,0,0,rectangle,-1,0,1,0,0,-1,0,1,0,0,1,30,190,50,1,,,,,,,,
,,,,,,,,,,,,,FF,,,,,,,,0.599,,,,,,,,,,,,,,,,,,,,,,61036710e1eb1d931b7a34a6,61036e70db302659b0568e5b,2021-07-29_23h14.24.866,Simcolourproject_2stim_asymm_v5,2020.2.10,MacIntel,60,61025ae37ef11b136ea224fe,,,,,,,,,2852,44,32,1,0,0,response1disk,,6,10,6,1,0,0,rectangle,10,6,1,0,0,10,6,1,0,0,1,31,191,99,1,,,,,,,,
,,,,,,,,,,,,,FF,,,,,,,,0.951,,,,,,,,,,,,,,,,,,,,,,61036710e1eb1d931b7a34a6,61036e70db302659b0568e5b,2021-07-29_23h14.24.866,Simcolourproject_2stim_asymm_v5,2020.2.10,MacIntel,60,61025ae37ef11b136ea224fe,,,,,,,,,17,34,67,1,0,0,response1disk,,7,5,10,1,0,0,rectangle,5,10,1,0,0,5,10,1,0,0,1,32,192,116,1,,,,,,,,
,,,,,,,,,,,,,FF,,,,,,,,0.65,,,,,,,,,,,,,,,,,,,,,,61036710e1eb1d931b7a34a6,61036e70db302659b0568e5b,2021-07-29_23h14.24.866,Simcolourproject_2stim_asymm_v5,2020.2.10,MacIntel,60,61025ae37ef11b136ea224fe,,,,,,,,,2763,29,46,1,0,0,response1disk,,7,2,1,1,0,0,rectangle,2,1,1,0,0,2,1,1,0,0,1,33,193,23,1,,,,,,,,
,,,,,,,,,,,,,FF,,,,,,,,0.616,,,,,,,,,,,,,,,,,,,,,,61036710e1eb1d931b7a34a6,61036e70db302659b0568e5b,2021-07-29_23h14.24.866,Simcolourproject_2stim_asymm_v5,2020.2.10,MacIntel,60,61025ae37ef11b136ea224fe,,,,,,,,,461,44,-72,1,0,0,response3disk,,4,20,-2,1,0,0,rectangle,20,-2,1,0,0,20,-2,1,0,0,1,34,194,67,1,,,,,,,,
,,,,,,,,,,,,,FF,,,,,,,,0.683,,,,,,,,,,,,,,,,,,,,,,61036710e1eb1d931b7a34a6,61036e70db302659b0568e5b,2021-07-29_23h14.24.866,Simcolourproject_2stim_asymm_v5,2020.2.10,MacIntel,60,61025ae37ef11b136ea224fe,,,,,,,,,4174,46,19,1,0,0,response1disk,,6,7,3,1,0,0,rectangle,7,3,1,0,0,7,3,1,0,0,1,35,195,60,1,,,,,,,,
,,,,,,,,,,,,,FF,,,,,,,,0.866,,,,,,,,,,,,,,,,,,,,,,61036710e1eb1d931b7a34a6,61036e70db302659b0568e5b,2021-07-29_23h14.24.866,Simcolourproject_2stim_asymm_v5,2020.2.10,MacIntel,60,61025ae37ef11b136ea224fe,,,,,,,,,806,27,-30,1,0,0,response3disk,,4,7,-13,1,0,0,rectangle,7,-13,1,0,0,7,-13,1,0,0,1,36,196,77,1,,,,,,,,
,,,,,,,,,,,,,FF,,,,,,,,0.733,,,,,,,,,,,,,,,,,,,,,,61036710e1eb1d931b7a34a6,61036e70db302659b0568e5b,2021-07-29_23h14.24.866,Simcolourproject_2stim_asymm_v5,2020.2.10,MacIntel,60,61025ae37ef11b136ea224fe,,,,,,,,,2934,-46,-55,1,0,0,response5disk,,3,-29,-16,1,0,0,rectangle,-29,-16,1,0,0,-29,-16,1,0,0,1,37,197,154,1,,,,,,,,
,,,,,,,,,,,,,FF,,,,,,,,0.7,,,,,,,,,,,,,,,,,,,,,,61036710e1eb1d931b7a34a6,61036e70db302659b0568e5b,2021-07-29_23h14.24.866,Simcolourproject_2stim_asymm_v5,2020.2.10,MacIntel,60,61025ae37ef11b136ea224fe,,,,,,,,,1539,27,59,1,0,0,response1disk,,7,2,-9,1,0,0,rectangle,2,-9,1,0,0,2,-9,1,0,0,1,38,198,90,1,,,,,,,,
,,,,,,,,,,,,,FF,,,,,,,,0.483,,,,,,,,,,,,,,,,,,,,,,61036710e1eb1d931b7a34a6,61036e70db302659b0568e5b,2021-07-29_23h14.24.866,Simcolourproject_2stim_asymm_v5,2020.2.10,MacIntel,60,61025ae37ef11b136ea224fe,,,,,,,,,2439,31,44,1,0,0,response1disk,,7,1,-6,1,0,0,rectangle,1,-6,1,0,0,1,-6,1,0,0,1,39,199,82,1,,,,,,,,
,,,,,,,,,,,,,FF,,,,,,,,1.001,,,,,,,,,,,,,,,,,,,,,,61036710e1eb1d931b7a34a6,61036e70db302659b0568e5b,2021-07-29_23h14.24.866,Simcolourproject_2stim_asymm_v5,2020.2.10,MacIntel,60,61025ae37ef11b136ea224fe,,,,,,,,,641,55,26,1,0,0,response1disk,,6,14,4,1,0,0,rectangle,14,4,1,0,0,14,4,1,0,0,1,40,200,118,1,,,,,,,,
,,,,,,,,,,,,,FF,,,,,,,,0.968,,,,,,,,,,,,,,,,,,,,,,61036710e1eb1d931b7a34a6,61036e70db302659b0568e5b,2021-07-29_23h14.24.866,Simcolourproject_2stim_asymm_v5,2020.2.10,MacIntel,60,61025ae37ef11b136ea224fe,,,,,,,,,4038,53,34,1,0,0,response1disk,,6,11,3,1,0,0,rectangle,11,3,1,0,0,11,3,1,0,0,1,41,201,25,1,,,,,,,,
,,,,,,,,,,,,,FF,,,,,,,,1.284,,,,,,,,,,,,,,,,,,,,,,61036710e1eb1d931b7a34a6,61036e70db302659b0568e5b,2021-07-29_23h14.24.866,Simcolourproject_2stim_asymm_v5,2020.2.10,MacIntel,60,61025ae37ef11b136ea224fe,,,,,,,,,307,42,27,1,0,0,response1disk,,6,7,0,1,0,0,rectangle,7,0,1,0,0,7,0,1,0,0,1,42,202,92,1,,,,,,,,
,,,,,,,,,,,,,FF,,,,,,,,0.517,,,,,,,,,,,,,,,,,,,,,,61036710e1eb1d931b7a34a6,61036e70db302659b0568e5b,2021-07-29_23h14.24.866,Simcolourproject_2stim_asymm_v5,2020.2.10,MacIntel,60,61025ae37ef11b136ea224fe,,,,,,,,,3521,34,69,1,0,0,response1disk,,7,4,-6,1,0,0,rectangle,4,-6,1,0,0,4,-6,1,0,0,1,43,203,76,1,,,,,,,,
,,,,,,,,,,,,,FF,,,,,,,,1.098,,,,,,,,,,,,,,,,,,,,,,61036710e1eb1d931b7a34a6,61036e70db302659b0568e5b,2021-07-29_23h14.24.866,Simcolourproject_2stim_asymm_v5,2020.2.10,MacIntel,60,61025ae37ef11b136ea224fe,,,,,,,,,3974,44,-31,1,0,0,response3disk,,5,11,-16,1,0,0,rectangle,11,-16,1,0,0,11,-16,1,0,0,1,44,204,37,1,,,,,,,,
,,,,,,,,,,,,,FF,,,,,,,,0.917,,,,,,,,,,,,,,,,,,,,,,61036710e1eb1d931b7a34a6,61036e70db302659b0568e5b,2021-07-29_23h14.24.866,Simcolourproject_2stim_asymm_v5,2020.2.10,MacIntel,60,61025ae37ef11b136ea224fe,,,,,,,,,29,33,61,1,0,0,response1disk,,7,10,4,1,0,0,rectangle,10,4,1,0,0,10,4,1,0,0,1,45,205,105,1,,,,,,,,
,,,,,,,,,,,,,FF,,,,,,,,1.217,,,,,,,,,,,,,,,,,,,,,,61036710e1eb1d931b7a34a6,61036e70db302659b0568e5b,2021-07-29_23h14.24.866,Simcolourproject_2stim_asymm_v5,2020.2.10,MacIntel,60,61025ae37ef11b136ea224fe,,,,,,,,,832,51,41,1,0,0,response1disk,,6,-1,0,1,0,0,rectangle,-1,0,1,0,0,-1,0,1,0,0,1,46,206,29,1,,,,,,,,
,,,,,,,,,,,,,FF,,,,,,,,1.116,,,,,,,,,,,,,,,,,,,,,,61036710e1eb1d931b7a34a6,61036e70db302659b0568e5b,2021-07-29_23h14.24.866,Simcolourproject_2stim_asymm_v5,2020.2.10,MacIntel,60,61025ae37ef11b136ea224fe,,,,,,,,,436,21,-49,1,0,0,response3disk,,4,6,0,1,0,0,rectangle,6,0,1,0,0,6,0,1,0,0,1,47,207,54,1,,,,,,,,
,,,,,,,,,,,,,FF,,,,,,,,1.049,,,,,,,,,,,,,,,,,,,,,,61036710e1eb1d931b7a34a6,61036e70db302659b0568e5b,2021-07-29_23h14.24.866,Simcolourproject_2stim_asymm_v5,2020.2.10,MacIntel,60,61025ae37ef11b136ea224fe,,,,,,,,,295,26,76,1,0,0,response1disk,,7,2,-1,1,0,0,rectangle,2,-1,1,0,0,2,-1,1,0,0,1,48,208,8,1,,,,,,,,
,,,,,,,,,,,,,FF,,,,,,,,0.665,,,,,,,,,,,,,,,,,,,,,,61036710e1eb1d931b7a34a6,61036e70db302659b0568e5b,2021-07-29_23h14.24.866,Simcolourproject_2stim_asymm_v5,2020.2.10,MacIntel,60,61025ae37ef11b136ea224fe,,,,,,,,,803,-23,-55,1,0,0,response5disk,,3,-6,7,1,0,0,rectangle,-6,7,1,0,0,-6,7,1,0,0,1,49,209,71,1,,,,,,,,
,,,,,,,,,,,,,FF,,,,,,,,0.766,,,,,,,,,,,,,,,,,,,,,,61036710e1eb1d931b7a34a6,61036e70db302659b0568e5b,2021-07-29_23h14.24.866,Simcolourproject_2stim_asymm_v5,2020.2.10,MacIntel,60,61025ae37ef11b136ea224fe,,,,,,,,,1264,46,-18,1,0,0,response3disk,,5,19,1,1,0,0,rectangle,19,1,1,0,0,19,1,1,0,0,1,50,210,123,1,,,,,,,,
,,,,,,,,,,,,,FF,,,,,,,,0.584,,,,,,,,,,,,,,,,,,,,,,61036710e1eb1d931b7a34a6,61036e70db302659b0568e5b,2021-07-29_23h14.24.866,Simcolourproject_2stim_asymm_v5,2020.2.10,MacIntel,60,61025ae37ef11b136ea224fe,,,,,,,,,2292,-28,27,1,0,0,response7disk,,1,8,11,1,0,0,rectangle,8,11,1,0,0,8,11,1,0,0,1,51,211,57,1,,,,,,,,
,,,,,,,,,,,,,FF,,,,,,,,0.783,,,,,,,,,,,,,,,,,,,,,,61036710e1eb1d931b7a34a6,61036e70db302659b0568e5b,2021-07-29_23h14.24.866,Simcolourproject_2stim_asymm_v5,2020.2.10,MacIntel,60,61025ae37ef11b136ea224fe,,,,,,,,,273,-20,-45,1,0,0,response5disk,,3,-10,-9,1,0,0,rectangle,-10,-9,1,0,0,-10,-9,1,0,0,1,52,212,3,1,,,,,,,,
,,,,,,,,,,,,,FF,,,,,,,,0.583,,,,,,,,,,,,,,,,,,,,,,61036710e1eb1d931b7a34a6,61036e70db302659b0568e5b,2021-07-29_23h14.24.866,Simcolourproject_2stim_asymm_v5,2020.2.10,MacIntel,60,61025ae37ef11b136ea224fe,,,,,,,,,3255,20,-56,1,0,0,response3disk,,4,20,-11,1,0,0,rectangle,20,-11,1,0,0,20,-11,1,0,0,1,53,213,15,1,,,,,,,,
,,,,,,,,,,,,,FF,,,,,,,,0.999,,,,,,,,,,,,,,,,,,,,,,61036710e1eb1d931b7a34a6,61036e70db302659b0568e5b,2021-07-29_23h14.24.866,Simcolourproject_2stim_asymm_v5,2020.2.10,MacIntel,60,61025ae37ef11b136ea224fe,,,,,,,,,1186,59,-38,1,0,0,response3disk,,5,5,-7,1,0,0,rectangle,5,-7,1,0,0,5,-7,1,0,0,1,54,214,159,1,,,,,,,,
,,,,,,,,,,,,,FF,,,,,,,,0.616,,,,,,,,,,,,,,,,,,,,,,61036710e1eb1d931b7a34a6,61036e70db302659b0568e5b,2021-07-29_23h14.24.866,Simcolourproject_2stim_asymm_v5,2020.2.10,MacIntel,60,61025ae37ef11b136ea224fe,,,,,,,,,3671,-64,29,1,0,0,response7disk,,1,-17,-9,1,0,0,rectangle,-17,-9,1,0,0,-17,-9,1,0,0,1,55,215,81,1,,,,,,,,
,,,,,,,,,,,,,FF,,,,,,,,0.516,,,,,,,,,,,,,,,,,,,,,,61036710e1eb1d931b7a34a6,61036e70db302659b0568e5b,2021-07-29_23h14.24.866,Simcolourproject_2stim_asymm_v5,2020.2.10,MacIntel,60,61025ae37ef11b136ea224fe,,,,,,,,,1162,31,-30,1,0,0,response3disk,,5,4,-12,1,0,0,rectangle,4,-12,1,0,0,4,-12,1,0,0,1,56,216,158,1,,,,,,,,
,,,,,,,,,,,,,FF,,,,,,,,0.966,,,,,,,,,,,,,,,,,,,,,,61036710e1eb1d931b7a34a6,61036e70db302659b0568e5b,2021-07-29_23h14.24.866,Simcolourproject_2stim_asymm_v5,2020.2.10,MacIntel,60,61025ae37ef11b136ea224fe,,,,,,,,,3809,49,-30,1,0,0,response3disk,,5,-24,6,1,0,0,rectangle,-24,6,1,0,0,-24,6,1,0,0,1,57,217,126,1,,,,,,,,
,,,,,,,,,,,,,FF,,,,,,,,0.567,,,,,,,,,,,,,,,,,,,,,,61036710e1eb1d931b7a34a6,61036e70db302659b0568e5b,2021-07-29_23h14.24.866,Simcolourproject_2stim_asymm_v5,2020.2.10,MacIntel,60,61025ae37ef11b136ea224fe,,,,,,,,,762,39,31,1,0,0,response1disk,,6,3,8,1,0,0,rectangle,3,8,1,0,0,3,8,1,0,0,1,58,218,140,1,,,,,,,,
,,,,,,,,,,,,,FF,,,,,,,,0.684,,,,,,,,,,,,,,,,,,,,,,61036710e1eb1d931b7a34a6,61036e70db302659b0568e5b,2021-07-29_23h14.24.866,Simcolourproject_2stim_asymm_v5,2020.2.10,MacIntel,60,61025ae37ef11b136ea224fe,,,,,,,,,268,47,32,1,0,0,response1disk,,6,9,4,1,0,0,rectangle,99,37,1,0,0,-2,-8,1,0,0,1,59,219,79,1,,response1disk_3,TRUE,6,6,"[72,52,29,298,267,228,316,50,237,284,88,6,256,73,220,10,183,11,150,53]",1.549,rectangle
,,,,,,,,,,,,,FF,,,,,,,,0.933,,,,,,,,,,,,,,,,,,,,,,61036710e1eb1d931b7a34a6,61036e70db302659b0568e5b,2021-07-29_23h14.24.866,Simcolourproject_2stim_asymm_v5,2020.2.10,MacIntel,60,61025ae37ef11b136ea224fe,,,,,,,,,875,22,-42,1,0,0,response3disk,,4,18,7,1,0,0,rectangle,18,7,1,0,0,18,7,1,0,0,1,60,220,96,1,,,,,,,,
,,,,,,,,,,,,,FF,,,,,,,,0.785,,,,,,,,,,,,,,,,,,,,,,61036710e1eb1d931b7a34a6,61036e70db302659b0568e5b,2021-07-29_23h14.24.866,Simcolourproject_2stim_asymm_v5,2020.2.10,MacIntel,60,61025ae37ef11b136ea224fe,,,,,,,,,47,49,69,1,0,0,response1disk,,7,12,-3,1,0,0,rectangle,12,-3,1,0,0,12,-3,1,0,0,1,61,221,121,1,,,,,,,,
,,,,,,,,,,,,,FF,,,,,,,,0.65,,,,,,,,,,,,,,,,,,,,,,61036710e1eb1d931b7a34a6,61036e70db302659b0568e5b,2021-07-29_23h14.24.866,Simcolourproject_2stim_asymm_v5,2020.2.10,MacIntel,60,61025ae37ef11b136ea224fe,,,,,,,,,1832,-52,-21,1,0,0,response5disk,,2,-11,-12,1,0,0,rectangle,-11,-12,1,0,0,-11,-12,1,0,0,1,62,222,142,1,,,,,,,,
,,,,,,,,,,,,,FF,,,,,,,,1.132,,,,,,,,,,,,,,,,,,,,,,61036710e1eb1d931b7a34a6,61036e70db302659b0568e5b,2021-07-29_23h14.24.866,Simcolourproject_2stim_asymm_v5,2020.2.10,MacIntel,60,61025ae37ef11b136ea224fe,,,,,,,,,3142,20,-58,1,0,0,response3disk,,4,14,6,1,0,0,rectangle,14,6,1,0,0,14,6,1,0,0,1,63,223,107,1,,,,,,,,
,,,,,,,,,,,,,FF,,,,,,,,0.682,,,,,,,,,,,,,,,,,,,,,,61036710e1eb1d931b7a34a6,61036e70db302659b0568e5b,2021-07-29_23h14.24.866,Simcolourproject_2stim_asymm_v5,2020.2.10,MacIntel,60,61025ae37ef11b136ea224fe,,,,,,,,,2651,-32,-86,1,0,0,response5disk,,3,-8,-7,1,0,0,rectangle,-8,-7,1,0,0,-8,-7,1,0,0,1,64,224,80,1,,,,,,,,
,,,,,,,,,,,,,FF,,,,,,,,0.65,,,,,,,,,,,,,,,,,,,,,,61036710e1eb1d931b7a34a6,61036e70db302659b0568e5b,2021-07-29_23h14.24.866,Simcolourproject_2stim_asymm_v5,2020.2.10,MacIntel,60,61025ae37ef11b136ea224fe,,,,,,,,,1015,49,28,1,0,0,response1disk,,6,18,5,1,0,0,rectangle,18,5,1,0,0,18,5,1,0,0,1,65,225,44,1,,,,,,,,
,,,,,,,,,,,,,FF,,,,,,,,0.599,,,,,,,,,,,,,,,,,,,,,,61036710e1eb1d931b7a34a6,61036e70db302659b0568e5b,2021-07-29_23h14.24.866,Simcolourproject_2stim_asymm_v5,2020.2.10,MacIntel,60,61025ae37ef11b136ea224fe,,,,,,,,,1388,45,22,1,0,0,response1disk,,6,9,2,1,0,0,rectangle,9,2,1,0,0,9,2,1,0,0,1,66,226,31,1,,,,,,,,
,,,,,,,,,,,,,FF,,,,,,,,1.249,,,,,,,,,,,,,,,,,,,,,,61036710e1eb1d931b7a34a6,61036e70db302659b0568e5b,2021-07-29_23h14.24.866,Simcolourproject_2stim_asymm_v5,2020.2.10,MacIntel,60,61025ae37ef11b136ea224fe,,,,,,,,,113,56,-20,1,0,0,response3disk,,5,26,2,1,0,0,rectangle,100,55,1,0,0,13,0,1,0,0,1,67,227,156,1,,response1disk_3,TRUE,6,6,"[72,52,29,298,267,228,316,50,237,284,88,6,256,73,220,10,183,11,150,53]",1.266,rectangle
,,,,,,,,,,,,,FF,,,,,,,,0.751,,,,,,,,,,,,,,,,,,,,,,61036710e1eb1d931b7a34a6,61036e70db302659b0568e5b,2021-07-29_23h14.24.866,Simcolourproject_2stim_asymm_v5,2020.2.10,MacIntel,60,61025ae37ef11b136ea224fe,,,,,,,,,3283,-40,-17,1,0,0,response5disk,,2,6,9,1,0,0,rectangle,6,9,1,0,0,6,9,1,0,0,1,68,228,132,1,,,,,,,,
,,,,,,,,,,,,,FF,,,,,,,,1.116,,,,,,,,,,,,,,,,,,,,,,61036710e1eb1d931b7a34a6,61036e70db302659b0568e5b,2021-07-29_23h14.24.866,Simcolourproject_2stim_asymm_v5,2020.2.10,MacIntel,60,61025ae37ef11b136ea224fe,,,,,,,,,3051,45,-51,1,0,0,response3disk,,4,26,-5,1,0,0,rectangle,26,-5,1,0,0,26,-5,1,0,0,1,69,229,124,1,,,,,,,,
,,,,,,,,,,,,,FF,,,,,,,,0.899,,,,,,,,,,,,,,,,,,,,,,61036710e1eb1d931b7a34a6,61036e70db302659b0568e5b,2021-07-29_23h14.24.866,Simcolourproject_2stim_asymm_v5,2020.2.10,MacIntel,60,61025ae37ef11b136ea224fe,,,,,,,,,3960,-30,-75,1,0,0,response5disk,,3,3,-16,1,0,0,rectangle,3,-16,1,0,0,3,-16,1,0,0,1,70,230,55,1,,,,,,,,
,,,,,,,,,,,,,FF,,,,,,,,0.718,,,,,,,,,,,,,,,,,,,,,,61036710e1eb1d931b7a34a6,61036e70db302659b0568e5b,2021-07-29_23h14.24.866,Simcolourproject_2stim_asymm_v5,2020.2.10,MacIntel,60,61025ae37ef11b136ea224fe,,,,,,,,,1347,50,22,1,0,0,response1disk,,6,11,0,1,0,0,rectangle,11,0,1,0,0,11,0,1,0,0,1,71,231,39,1,,,,,,,,
,,,,,,,,,,,,,FF,,,,,,,,1.001,,,,,,,,,,,,,,,,,,,,,,61036710e1eb1d931b7a34a6,61036e70db302659b0568e5b,2021-07-29_23h14.24.866,Simcolourproject_2stim_asymm_v5,2020.2.10,MacIntel,60,61025ae37ef11b136ea224fe,,,,,,,,,1820,61,-27,1,0,0,response3disk,,5,0,0,1,0,0,rectangle,0,0,1,0,0,0,0,1,0,0,1,72,232,98,1,,,,,,,,
,,,,,,,,,,,,,FF,,,,,,,,0.633,,,,,,,,,,,,,,,,,,,,,,61036710e1eb1d931b7a34a6,61036e70db302659b0568e5b,2021-07-29_23h14.24.866,Simcolourproject_2stim_asymm_v5,2020.2.10,MacIntel,60,61025ae37ef11b136ea224fe,,,,,,,,,3191,-25,-57,1,0,0,response5disk,,3,-8,-2,1,0,0,rectangle,-8,-2,1,0,0,-8,-2,1,0,0,1,73,233,63,1,,,,,,,,
,,,,,,,,,,,,,FF,,,,,,,,1.017,,,,,,,,,,,,,,,,,,,,,,61036710e1eb1d931b7a34a6,61036e70db302659b0568e5b,2021-07-29_23h14.24.866,Simcolourproject_2stim_asymm_v5,2020.2.10,MacIntel,60,61025ae37ef11b136ea224fe,,,,,,,,,1456,42,-24,1,0,0,response3disk,,5,9,11,1,0,0,rectangle,9,11,1,0,0,9,11,1,0,0,1,74,234,110,1,,,,,,,,
,,,,,,,,,,,,,FF,,,,,,,,0.633,,,,,,,,,,,,,,,,,,,,,,61036710e1eb1d931b7a34a6,61036e70db302659b0568e5b,2021-07-29_23h14.24.866,Simcolourproject_2stim_asymm_v5,2020.2.10,MacIntel,60,61025ae37ef11b136ea224fe,,,,,,,,,4015,45,26,1,0,0,response1disk,,6,3,-9,1,0,0,rectangle,3,-9,1,0,0,3,-9,1,0,0,1,75,235,66,1,,,,,,,,
,,,,,,,,,,,,,FF,,,,,,,,0.65,,,,,,,,,,,,,,,,,,,,,,61036710e1eb1d931b7a34a6,61036e70db302659b0568e5b,2021-07-29_23h14.24.866,Simcolourproject_2stim_asymm_v5,2020.2.10,MacIntel,60,61025ae37ef11b136ea224fe,,,,,,,,,2754,27,40,1,0,0,response1disk,,7,-2,-13,1,0,0,rectangle,70,65,1,0,0,4,-9,1,0,0,1,76,236,11,1,,response1disk_3,TRUE,6,6,"[72,52,29,298,267,228,316,50,237,284,88,6,256,73,220,10,183,11,150,53]",1.184,rectangle
,,,,,,,,,,,,,FF,,,,,,,,0.699,,,,,,,,,,,,,,,,,,,,,,61036710e1eb1d931b7a34a6,61036e70db302659b0568e5b,2021-07-29_23h14.24.866,Simcolourproject_2stim_asymm_v5,2020.2.10,MacIntel,60,61025ae37ef11b136ea224fe,,,,,,,,,3267,45,16,1,0,0,response1disk,,6,16,2,1,0,0,rectangle,16,2,1,0,0,16,2,1,0,0,1,77,237,27,1,,,,,,,,
,,,,,,,,,,,,,FF,,,,,,,,0.933,,,,,,,,,,,,,,,,,,,,,,61036710e1eb1d931b7a34a6,61036e70db302659b0568e5b,2021-07-29_23h14.24.866,Simcolourproject_2stim_asymm_v5,2020.2.10,MacIntel,60,61025ae37ef11b136ea224fe,,,,,,,,,2301,55,-30,1,0,0,response3disk,,5,19,0,1,0,0,rectangle,19,0,1,0,0,19,0,1,0,0,1,78,238,19,1,,,,,,,,
,,,,,,,,,,,,,FF,,,,,,,,0.649,,,,,,,,,,,,,,,,,,,,,,61036710e1eb1d931b7a34a6,61036e70db302659b0568e5b,2021-07-29_23h14.24.866,Simcolourproject_2stim_asymm_v5,2020.2.10,MacIntel,60,61025ae37ef11b136ea224fe,,,,,,,,,3152,31,-48,1,0,0,response3disk,,4,19,8,1,0,0,rectangle,19,8,1,0,0,19,8,1,0,0,1,79,239,43,1,,,,,,,,
,,,,,,,,,,,,,FF,,,,,,,,0.934,,,,,,,,,,,,,,,,,,,,,,61036710e1eb1d931b7a34a6,61036e70db302659b0568e5b,2021-07-29_23h14.24.866,Simcolourproject_2stim_asymm_v5,2020.2.10,MacIntel,60,61025ae37ef11b136ea224fe,,,,,,,,,2202,31,-56,1,0,0,response3disk,,4,25,12,1,0,0,rectangle,25,12,1,0,0,25,12,1,0,0,1,80,240,149,1,,,,,,,,
,,,,,,,,,,,,,FF,,,,,,,,0.567,,,,,,,,,,,,,,,,,,,,,,61036710e1eb1d931b7a34a6,61036e70db302659b0568e5b,2021-07-29_23h14.24.866,Simcolourproject_2stim_asymm_v5,2020.2.10,MacIntel,60,61025ae37ef11b136ea224fe,,,,,,,,,1167,42,22,1,0,0,response1disk,,6,8,-2,1,0,0,rectangle,8,-2,1,0,0,8,-2,1,0,0,1,81,241,18,1,,,,,,,,
,,,,,,,,,,,,,FF,,,,,,,,0.767,,,,,,,,,,,,,,,,,,,,,,61036710e1eb1d931b7a34a6,61036e70db302659b0568e5b,2021-07-29_23h14.24.866,Simcolourproject_2stim_asymm_v5,2020.2.10,MacIntel,60,61025ae37ef11b136ea224fe,,,,,,,,,10,41,29,1,0,0,response1disk,,6,2,6,1,0,0,rectangle,2,6,1,0,0,2,6,1,0,0,1,82,242,125,1,,,,,,,,
,,,,,,,,,,,,,FF,,,,,,,,0.75,,,,,,,,,,,,,,,,,,,,,,61036710e1eb1d931b7a34a6,61036e70db302659b0568e5b,2021-07-29_23h14.24.866,Simcolourproject_2stim_asymm_v5,2020.2.10,MacIntel,60,61025ae37ef11b136ea224fe,,,,,,,,,2088,56,-32,1,0,0,response3disk,,5,-4,-11,1,0,0,rectangle,-4,-11,1,0,0,-4,-11,1,0,0,1,83,243,26,1,,,,,,,,
,,,,,,,,,,,,,FF,,,,,,,,0.566,,,,,,,,,,,,,,,,,,,,,,61036710e1eb1d931b7a34a6,61036e70db302659b0568e5b,2021-07-29_23h14.24.866,Simcolourproject_2stim_asymm_v5,2020.2.10,MacIntel,60,61025ae37ef11b136ea224fe,,,,,,,,,1178,30,60,1,0,0,response1disk,,7,-5,-17,1,0,0,rectangle,-5,-17,1,0,0,-5,-17,1,0,0,1,84,244,95,1,,,,,,,,
,,,,,,,,,,,,,FF,,,,,,,,0.349,,,,,,,,,,,,,,,,,,,,,,61036710e1eb1d931b7a34a6,61036e70db302659b0568e5b,2021-07-29_23h14.24.866,Simcolourproject_2stim_asymm_v5,2020.2.10,MacIntel,60,61025ae37ef11b136ea224fe,,,,,,,,,3415,22,41,1,0,0,response1disk,,7,3,-1,1,0,0,rectangle,3,-1,1,0,0,3,-1,1,0,0,1,85,245,30,1,,,,,,,,
,,,,,,,,,,,,,FF,,,,,,,,0.416,,,,,,,,,,,,,,,,,,,,,,61036710e1eb1d931b7a34a6,61036e70db302659b0568e5b,2021-07-29_23h14.24.866,Simcolourproject_2stim_asymm_v5,2020.2.10,MacIntel,60,61025ae37ef11b136ea224fe,,,,,,,,,2316,37,69,1,0,0,response1disk,,7,11,6,1,0,0,rectangle,11,6,1,0,0,11,6,1,0,0,1,86,246,7,1,,,,,,,,
,,,,,,,,,,,,,FF,,,,,,,,0.633,,,,,,,,,,,,,,,,,,,,,,61036710e1eb1d931b7a34a6,61036e70db302659b0568e5b,2021-07-29_23h14.24.866,Simcolourproject_2stim_asymm_v5,2020.2.10,MacIntel,60,61025ae37ef11b136ea224fe,,,,,,,,,4219,31,66,1,0,0,response1disk,,7,10,-3,1,0,0,rectangle,10,-3,1,0,0,10,-3,1,0,0,1,87,247,139,1,,,,,,,,
,,,,,,,,,,,,,FF,,,,,,,,1.7,,,,,,,,,,,,,,,,,,,,,,61036710e1eb1d931b7a34a6,61036e70db302659b0568e5b,2021-07-29_23h14.24.866,Simcolourproject_2stim_asymm_v5,2020.2.10,MacIntel,60,61025ae37ef11b136ea224fe,,,,,,,,,4078,52,-25,1,0,0,response3disk,,5,1,-13,1,0,0,rectangle,1,-13,1,0,0,1,-13,1,0,0,1,88,248,111,1,,,,,,,,
,,,,,,,,,,,,,FF,,,,,,,,1.334,,,,,,,,,,,,,,,,,,,,,,61036710e1eb1d931b7a34a6,61036e70db302659b0568e5b,2021-07-29_23h14.24.866,Simcolourproject_2stim_asymm_v5,2020.2.10,MacIntel,60,61025ae37ef11b136ea224fe,,,,,,,,,2667,38,-63,1,0,0,response3disk,,4,24,-10,1,0,0,rectangle,24,-10,1,0,0,24,-10,1,0,0,1,89,249,122,1,,,,,,,,
,,,,,,,,,,,,,FF,,,,,,,,0.717,,,,,,,,,,,,,,,,,,,,,,61036710e1eb1d931b7a34a6,61036e70db302659b0568e5b,2021-07-29_23h14.24.866,Simcolourproject_2stim_asymm_v5,2020.2.10,MacIntel,60,61025ae37ef11b136ea224fe,,,,,,,,,4204,51,-20,1,0,0,response3disk,,5,13,-2,1,0,0,rectangle,13,-2,1,0,0,13,-2,1,0,0,1,90,250,136,1,,,,,,,,
,,,,,,,,,,,,,FF,,,,,,,,0.668,,,,,,,,,,,,,,,,,,,,,,61036710e1eb1d931b7a34a6,61036e70db302659b0568e5b,2021-07-29_23h14.24.866,Simcolourproject_2stim_asymm_v5,2020.2.10,MacIntel,60,61025ae37ef11b136ea224fe,,,,,,,,,2888,-26,-64,1,0,0,response5disk,,3,-18,-17,1,0,0,rectangle,-18,-17,1,0,0,-18,-17,1,0,0,1,91,251,59,1,,,,,,,,
,,,,,,,,,,,,,FF,,,,,,,,2.334,,,,,,,,,,,,,,,,,,,,,,61036710e1eb1d931b7a34a6,61036e70db302659b0568e5b,2021-07-29_23h14.24.866,Simcolourproject_2stim_asymm_v5,2020.2.10,MacIntel,60,61025ae37ef11b136ea224fe,,,,,,,,,4100,31,-67,1,0,0,response3disk,,4,16,-2,1,0,0,rectangle,16,-2,1,0,0,16,-2,1,0,0,1,92,252,101,1,,,,,,,,
,,,,,,,,,,,,,FF,,,,,,,,0.748,,,,,,,,,,,,,,,,,,,,,,61036710e1eb1d931b7a34a6,61036e70db302659b0568e5b,2021-07-29_23h14.24.866,Simcolourproject_2stim_asymm_v5,2020.2.10,MacIntel,60,61025ae37ef11b136ea224fe,,,,,,,,,2020,57,31,1,0,0,response1disk,,6,11,-6,1,0,0,rectangle,11,-6,1,0,0,11,-6,1,0,0,1,93,253,84,1,,,,,,,,
,,,,,,,,,,,,,FF,,,,,,,,0.366,,,,,,,,,,,,,,,,,,,,,,61036710e1eb1d931b7a34a6,61036e70db302659b0568e5b,2021-07-29_23h14.24.866,Simcolourproject_2stim_asymm_v5,2020.2.10,MacIntel,60,61025ae37ef11b136ea224fe,,,,,,,,,302,53,37,1,0,0,response1disk,,6,19,6,1,0,0,rectangle,19,6,1,0,0,19,6,1,0,0,1,94,254,117,1,,,,,,,,
,,,,,,,,,,,,,FF,,,,,,,,0.5,,,,,,,,,,,,,,,,,,,,,,61036710e1eb1d931b7a34a6,61036e70db302659b0568e5b,2021-07-29_23h14.24.866,Simcolourproject_2stim_asymm_v5,2020.2.10,MacIntel,60,61025ae37ef11b136ea224fe,,,,,,,,,56,50,31,1,0,0,response1disk,,6,12,-7,1,0,0,rectangle,26,69,1,0,0,1,-7,1,0,0,1,95,255,41,1,,response1disk_3,TRUE,7,7,"[72,52,29,298,267,228,316,50,237,284,88,6,256,73,220,10,183,11,150,53]",1.332,rectangle
,,,,,,,,,,,,,FF,,,,,,,,2.167,,,,,,,,,,,,,,,,,,,,,,61036710e1eb1d931b7a34a6,61036e70db302659b0568e5b,2021-07-29_23h14.24.866,Simcolourproject_2stim_asymm_v5,2020.2.10,MacIntel,60,61025ae37ef11b136ea224fe,,,,,,,,,1624,33,-21,1,0,0,response3disk,,5,0,0,1,0,0,rectangle,0,0,1,0,0,0,0,1,0,0,1,96,256,78,1,,,,,,,,
,,,,,,,,,,,,,FF,,,,,,,,0.734,,,,,,,,,,,,,,,,,,,,,,61036710e1eb1d931b7a34a6,61036e70db302659b0568e5b,2021-07-29_23h14.24.866,Simcolourproject_2stim_asymm_v5,2020.2.10,MacIntel,60,61025ae37ef11b136ea224fe,,,,,,,,,4161,-31,-62,1,0,0,response5disk,,3,-17,-15,1,0,0,rectangle,-17,-15,1,0,0,-17,-15,1,0,0,1,97,257,103,1,,,,,,,,
,,,,,,,,,,,,,FF,,,,,,,,0.734,,,,,,,,,,,,,,,,,,,,,,61036710e1eb1d931b7a34a6,61036e70db302659b0568e5b,2021-07-29_23h14.24.866,Simcolourproject_2stim_asymm_v5,2020.2.10,MacIntel,60,61025ae37ef11b136ea224fe,,,,,,,,,2827,22,-54,1,0,0,response3disk,,4,19,2,1,0,0,rectangle,19,2,1,0,0,19,2,1,0,0,1,98,258,13,1,,,,,,,,
,,,,,,,,,,,,,FF,,,,,,,,0.516,,,,,,,,,,,,,,,,,,,,,,61036710e1eb1d931b7a34a6,61036e70db302659b0568e5b,2021-07-29_23h14.24.866,Simcolourproject_2stim_asymm_v5,2020.2.10,MacIntel,60,61025ae37ef11b136ea224fe,,,,,,,,,3103,-38,-28,1,0,0,response5disk,,2,3,-9,1,0,0,rectangle,3,-9,1,0,0,3,-9,1,0,0,1,99,259,33,1,,,,,,,,
,,,,,,,,,,,,,FF,,,,,,,,0.7,,,,,,,,,,,,,,,,,,,,,,61036710e1eb1d931b7a34a6,61036e70db302659b0568e5b,2021-07-29_23h14.24.866,Simcolourproject_2stim_asymm_v5,2020.2.10,MacIntel,60,61025ae37ef11b136ea224fe,,,,,,,,,3203,-53,-21,1,0,0,response5disk,,2,-3,-12,1,0,0,rectangle,-3,-12,1,0,0,-3,-12,1,0,0,1,100,260,127,1,,,,,,,,
,,,,,,,,,,,,,FF,,,,,,,,0.766,,,,,,,,,,,,,,,,,,,,,,61036710e1eb1d931b7a34a6,61036e70db302659b0568e5b,2021-07-29_23h14.24.866,Simcolourproject_2stim_asymm_v5,2020.2.10,MacIntel,60,61025ae37ef11b136ea224fe,,,,,,,,,1787,34,-53,1,0,0,response3disk,,4,5,-8,1,0,0,rectangle,5,-8,1,0,0,5,-8,1,0,0,1,101,261,130,1,,,,,,,,
,,,,,,,,,,,,,FF,,,,,,,,1.433,,,,,,,,,,,,,,,,,,,,,,61036710e1eb1d931b7a34a6,61036e70db302659b0568e5b,2021-07-29_23h14.24.866,Simcolourproject_2stim_asymm_v5,2020.2.10,MacIntel,60,61025ae37ef11b136ea224fe,,,,,,,,,108,32,-63,1,0,0,response3disk,,4,26,0,1,0,0,rectangle,26,0,1,0,0,26,0,1,0,0,1,102,262,61,1,,,,,,,,
,,,,,,,,,,,,,FF,,,,,,,,0.8,,,,,,,,,,,,,,,,,,,,,,61036710e1eb1d931b7a34a6,61036e70db302659b0568e5b,2021-07-29_23h14.24.866,Simcolourproject_2stim_asymm_v5,2020.2.10,MacIntel,60,61025ae37ef11b136ea224fe,,,,,,,,,240,59,18,1,0,0,response1disk,,6,9,-18,1,0,0,rectangle,9,-18,1,0,0,9,-18,1,0,0,1,103,263,83,1,,,,,,,,
,,,,,,,,,,,,,FF,,,,,,,,2.051,,,,,,,,,,,,,,,,,,,,,,61036710e1eb1d931b7a34a6,61036e70db302659b0568e5b,2021-07-29_23h14.24.866,Simcolourproject_2stim_asymm_v5,2020.2.10,MacIntel,60,61025ae37ef11b136ea224fe,,,,,,,,,1873,29,78,1,0,0,response1disk,,7,5,0,1,0,0,rectangle,5,0,1,0,0,5,0,1,0,0,1,104,264,28,1,,,,,,,,
,,,,,,,,,,,,,FF,,,,,,,,0.783,,,,,,,,,,,,,,,,,,,,,,61036710e1eb1d931b7a34a6,61036e70db302659b0568e5b,2021-07-29_23h14.24.866,Simcolourproject_2stim_asymm_v5,2020.2.10,MacIntel,60,61025ae37ef11b136ea224fe,,,,,,,,,1951,46,-20,1,0,0,response3disk,,5,21,-8,1,0,0,rectangle,21,-8,1,0,0,21,-8,1,0,0,1,105,265,52,1,,,,,,,,
,,,,,,,,,,,,,FF,,,,,,,,0.667,,,,,,,,,,,,,,,,,,,,,,61036710e1eb1d931b7a34a6,61036e70db302659b0568e5b,2021-07-29_23h14.24.866,Simcolourproject_2stim_asymm_v5,2020.2.10,MacIntel,60,61025ae37ef11b136ea224fe,,,,,,,,,2725,-22,-58,1,0,0,response5disk,,3,-13,-14,1,0,0,rectangle,-82,41,1,0,0,-16,0,1,0,0,1,106,266,150,1,,response7disk_3,TRUE,1,1,"[72,52,29,298,267,228,316,50,237,284,88,6,256,73,220,10,183,11,150,53]",1.166,rectangle
,,,,,,,,,,,,,FF,,,,,,,,1.199,,,,,,,,,,,,,,,,,,,,,,61036710e1eb1d931b7a34a6,61036e70db302659b0568e5b,2021-07-29_23h14.24.866,Simcolourproject_2stim_asymm_v5,2020.2.10,MacIntel,60,61025ae37ef11b136ea224fe,,,,,,,,,1334,34,51,1,0,0,response1disk,,7,-2,2,1,0,0,rectangle,-2,2,1,0,0,-2,2,1,0,0,1,107,267,152,1,,,,,,,,
,,,,,,,,,,,,,FF,,,,,,,,0.751,,,,,,,,,,,,,,,,,,,,,,61036710e1eb1d931b7a34a6,61036e70db302659b0568e5b,2021-07-29_23h14.24.866,Simcolourproject_2stim_asymm_v5,2020.2.10,MacIntel,60,61025ae37ef11b136ea224fe,,,,,,,,,969,-50,-46,1,0,0,response5disk,,2,-12,4,1,0,0,rectangle,-12,4,1,0,0,-12,4,1,0,0,1,108,268,87,1,,,,,,,,
,,,,,,,,,,,,,FF,,,,,,,,1.299,,,,,,,,,,,,,,,,,,,,,,61036710e1eb1d931b7a34a6,61036e70db302659b0568e5b,2021-07-29_23h14.24.866,Simcolourproject_2stim_asymm_v5,2020.2.10,MacIntel,60,61025ae37ef11b136ea224fe,,,,,,,,,2961,74,-29,1,0,0,response3disk,,5,19,7,1,0,0,rectangle,19,7,1,0,0,19,7,1,0,0,1,109,269,153,1,,,,,,,,
,,,,,,,,,,,,,FF,,,,,,,,0.565,,,,,,,,,,,,,,,,,,,,,,61036710e1eb1d931b7a34a6,61036e70db302659b0568e5b,2021-07-29_23h14.24.866,Simcolourproject_2stim_asymm_v5,2020.2.10,MacIntel,60,61025ae37ef11b136ea224fe,,,,,,,,,3117,77,27,1,0,0,response1disk,,6,2,5,1,0,0,rectangle,2,5,1,0,0,2,5,1,0,0,1,110,270,133,1,,,,,,,,
,,,,,,,,,,,,,FF,,,,,,,,0.649,,,,,,,,,,,,,,,,,,,,,,61036710e1eb1d931b7a34a6,61036e70db302659b0568e5b,2021-07-29_23h14.24.866,Simcolourproject_2stim_asymm_v5,2020.2.10,MacIntel,60,61025ae37ef11b136ea224fe,,,,,,,,,3711,30,-51,1,0,0,response3disk,,4,26,0,1,0,0,rectangle,26,0,1,0,0,26,0,1,0,0,1,111,271,72,1,,,,,,,,
,,,,,,,,,,,,,FF,,,,,,,,0.749,,,,,,,,,,,,,,,,,,,,,,61036710e1eb1d931b7a34a6,61036e70db302659b0568e5b,2021-07-29_23h14.24.866,Simcolourproject_2stim_asymm_v5,2020.2.10,MacIntel,60,61025ae37ef11b136ea224fe,,,,,,,,,3357,-28,-57,1,0,0,response5disk,,3,-8,-10,1,0,0,rectangle,-8,-10,1,0,0,-8,-10,1,0,0,1,112,272,73,1,,,,,,,,
,,,,,,,,,,,,,FF,,,,,,,,0.983,,,,,,,,,,,,,,,,,,,,,,61036710e1eb1d931b7a34a6,61036e70db302659b0568e5b,2021-07-29_23h14.24.866,Simcolourproject_2stim_asymm_v5,2020.2.10,MacIntel,60,61025ae37ef11b136ea224fe,,,,,,,,,2431,49,-41,1,0,0,response3disk,,5,1,-15,1,0,0,rectangle,1,-15,1,0,0,1,-15,1,0,0,1,113,273,147,1,,,,,,,,
,,,,,,,,,,,,,FF,,,,,,,,2.1,,,,,,,,,,,,,,,,,,,,,,61036710e1eb1d931b7a34a6,61036e70db302659b0568e5b,2021-07-29_23h14.24.866,Simcolourproject_2stim_asymm_v5,2020.2.10,MacIntel,60,61025ae37ef11b136ea224fe,,,,,,,,,2319,66,49,1,0,0,response1disk,,6,14,11,1,0,0,rectangle,14,11,1,0,0,14,11,1,0,0,1,114,274,46,1,,,,,,,,
,,,,,,,,,,,,,FF,,,,,,,,0.867,,,,,,,,,,,,,,,,,,,,,,61036710e1eb1d931b7a34a6,61036e70db302659b0568e5b,2021-07-29_23h14.24.866,Simcolourproject_2stim_asymm_v5,2020.2.10,MacIntel,60,61025ae37ef11b136ea224fe,,,,,,,,,1982,34,59,1,0,0,response1disk,,7,-12,-13,1,0,0,rectangle,-12,-13,1,0,0,-12,-13,1,0,0,1,115,275,12,1,,,,,,,,
,,,,,,,,,,,,,FF,,,,,,,,0.65,,,,,,,,,,,,,,,,,,,,,,61036710e1eb1d931b7a34a6,61036e70db302659b0568e5b,2021-07-29_23h14.24.866,Simcolourproject_2stim_asymm_v5,2020.2.10,MacIntel,60,61025ae37ef11b136ea224fe,,,,,,,,,3474,-35,-47,1,0,0,response5disk,,3,-17,-6,1,0,0,rectangle,-17,-6,1,0,0,-17,-6,1,0,0,1,116,276,65,1,,,,,,,,
,,,,,,,,,,,,,FF,,,,,,,,0.634,,,,,,,,,,,,,,,,,,,,,,61036710e1eb1d931b7a34a6,61036e70db302659b0568e5b,2021-07-29_23h14.24.866,Simcolourproject_2stim_asymm_v5,2020.2.10,MacIntel,60,61025ae37ef11b136ea224fe,,,,,,,,,2057,66,-18,1,0,0,response3disk,,5,24,-2,1,0,0,rectangle,24,-2,1,0,0,24,-2,1,0,0,1,117,277,1,1,,,,,,,,
,,,,,,,,,,,,,FF,,,,,,,,0.767,,,,,,,,,,,,,,,,,,,,,,61036710e1eb1d931b7a34a6,61036e70db302659b0568e5b,2021-07-29_23h14.24.866,Simcolourproject_2stim_asymm_v5,2020.2.10,MacIntel,60,61025ae37ef11b136ea224fe,,,,,,,,,3306,36,44,1,0,0,response1disk,,7,6,-12,1,0,0,rectangle,6,-12,1,0,0,6,-12,1,0,0,1,118,278,34,1,,,,,,,,
,,,,,,,,,,,,,FF,,,,,,,,0.501,,,,,,,,,,,,,,,,,,,,,,61036710e1eb1d931b7a34a6,61036e70db302659b0568e5b,2021-07-29_23h14.24.866,Simcolourproject_2stim_asymm_v5,2020.2.10,MacIntel,60,61025ae37ef11b136ea224fe,,,,,,,,,2957,33,56,1,0,0,response1disk,,7,-4,-2,1,0,0,rectangle,-4,-2,1,0,0,-4,-2,1,0,0,1,119,279,14,1,,,,,,,,
,,,,,,,,,,,,,FF,,,,,,,,0.933,,,,,,,,,,,,,,,,,,,,,,61036710e1eb1d931b7a34a6,61036e70db302659b0568e5b,2021-07-29_23h14.24.866,Simcolourproject_2stim_asymm_v5,2020.2.10,MacIntel,60,61025ae37ef11b136ea224fe,,,,,,,,,2929,27,79,1,0,0,response1disk,,7,-6,-15,1,0,0,rectangle,-6,-15,1,0,0,-6,-15,1,0,0,1,120,280,143,1,,,,,,,,
,,,,,,,,,,,,,FF,,,,,,,,0.618,,,,,,,,,,,,,,,,,,,,,,61036710e1eb1d931b7a34a6,61036e70db302659b0568e5b,2021-07-29_23h14.24.866,Simcolourproject_2stim_asymm_v5,2020.2.10,MacIntel,60,61025ae37ef11b136ea224fe,,,,,,,,,1939,57,30,1,0,0,response1disk,,6,0,0,1,0,0,rectangle,0,0,1,0,0,0,0,1,0,0,1,121,281,68,1,,,,,,,,
,,,,,,,,,,,,,FF,,,,,,,,1.249,,,,,,,,,,,,,,,,,,,,,,61036710e1eb1d931b7a34a6,61036e70db302659b0568e5b,2021-07-29_23h14.24.866,Simcolourproject_2stim_asymm_v5,2020.2.10,MacIntel,60,61025ae37ef11b136ea224fe,,,,,,,,,3333,61,33,1,0,0,response1disk,,6,-2,10,1,0,0,rectangle,-2,10,1,0,0,-2,10,1,0,0,1,122,282,155,1,,,,,,,,
,,,,,,,,,,,,,FF,,,,,,,,0.783,,,,,,,,,,,,,,,,,,,,,,61036710e1eb1d931b7a34a6,61036e70db302659b0568e5b,2021-07-29_23h14.24.866,Simcolourproject_2stim_asymm_v5,2020.2.10,MacIntel,60,61025ae37ef11b136ea224fe,,,,,,,,,1039,47,38,1,0,0,response1disk,,6,2,8,1,0,0,rectangle,-26,100,1,0,0,-3,-2,1,0,0,1,123,283,32,1,,response7disk_3,TRUE,0,0,"[72,52,29,298,267,228,316,50,237,284,88,6,256,73,220,10,183,11,150,53]",1.432,rectangle
,,,,,,,,,,,,,FF,,,,,,,,0.733,,,,,,,,,,,,,,,,,,,,,,61036710e1eb1d931b7a34a6,61036e70db302659b0568e5b,2021-07-29_23h14.24.866,Simcolourproject_2stim_asymm_v5,2020.2.10,MacIntel,60,61025ae37ef11b136ea224fe,,,,,,,,,1806,59,-24,1,0,0,response3disk,,5,10,-11,1,0,0,rectangle,10,-11,1,0,0,10,-11,1,0,0,1,124,284,0,1,,,,,,,,
,,,,,,,,,,,,,FF,,,,,,,,0.601,,,,,,,,,,,,,,,,,,,,,,61036710e1eb1d931b7a34a6,61036e70db302659b0568e5b,2021-07-29_23h14.24.866,Simcolourproject_2stim_asymm_v5,2020.2.10,MacIntel,60,61025ae37ef11b136ea224fe,,,,,,,,,25,61,27,1,0,0,response1disk,,6,7,0,1,0,0,rectangle,7,0,1,0,0,7,0,1,0,0,1,125,285,106,1,,,,,,,,
,,,,,,,,,,,,,FF,,,,,,,,0.666,,,,,,,,,,,,,,,,,,,,,,61036710e1eb1d931b7a34a6,61036e70db302659b0568e5b,2021-07-29_23h14.24.866,Simcolourproject_2stim_asymm_v5,2020.2.10,MacIntel,60,61025ae37ef11b136ea224fe,,,,,,,,,1485,18,58,1,0,0,response1disk,,7,12,-16,1,0,0,rectangle,12,-16,1,0,0,12,-16,1,0,0,1,126,286,114,1,,,,,,,,
,,,,,,,,,,,,,FF,,,,,,,,0.699,,,,,,,,,,,,,,,,,,,,,,61036710e1eb1d931b7a34a6,61036e70db302659b0568e5b,2021-07-29_23h14.24.866,Simcolourproject_2stim_asymm_v5,2020.2.10,MacIntel,60,61025ae37ef11b136ea224fe,,,,,,,,,1909,47,-24,1,0,0,response3disk,,5,17,-13,1,0,0,rectangle,17,-13,1,0,0,17,-13,1,0,0,1,127,287,134,1,,,,,,,,
,,,,,,,,,,,,,FF,,,,,,,,0.916,,,,,,,,,,,,,,,,,,,,,,61036710e1eb1d931b7a34a6,61036e70db302659b0568e5b,2021-07-29_23h14.24.866,Simcolourproject_2stim_asymm_v5,2020.2.10,MacIntel,60,61025ae37ef11b136ea224fe,,,,,,,,,1380,64,36,1,0,0,response1disk,,6,20,11,1,0,0,rectangle,20,11,1,0,0,20,11,1,0,0,1,128,288,21,1,,,,,,,,
,,,,,,,,,,,,,FF,,,,,,,,1.117,,,,,,,,,,,,,,,,,,,,,,61036710e1eb1d931b7a34a6,61036e70db302659b0568e5b,2021-07-29_23h14.24.866,Simcolourproject_2stim_asymm_v5,2020.2.10,MacIntel,60,61025ae37ef11b136ea224fe,,,,,,,,,779,35,49,1,0,0,response1disk,,7,10,2,1,0,0,rectangle,10,2,1,0,0,10,2,1,0,0,1,129,289,62,1,,,,,,,,
,,,,,,,,,,,,,FF,,,,,,,,0.799,,,,,,,,,,,,,,,,,,,,,,61036710e1eb1d931b7a34a6,61036e70db302659b0568e5b,2021-07-29_23h14.24.866,Simcolourproject_2stim_asymm_v5,2020.2.10,MacIntel,60,61025ae37ef11b136ea224fe,,,,,,,,,3909,45,-34,1,0,0,response3disk,,5,1,-4,1,0,0,rectangle,1,-4,1,0,0,1,-4,1,0,0,1,130,290,38,1,,,,,,,,
,,,,,,,,,,,,,FF,,,,,,,,0.982,,,,,,,,,,,,,,,,,,,,,,61036710e1eb1d931b7a34a6,61036e70db302659b0568e5b,2021-07-29_23h14.24.866,Simcolourproject_2stim_asymm_v5,2020.2.10,MacIntel,60,61025ae37ef11b136ea224fe,,,,,,,,,3258,36,-57,1,0,0,response3disk,,4,14,10,1,0,0,rectangle,14,10,1,0,0,14,10,1,0,0,1,131,291,47,1,,,,,,,,
,,,,,,,,,,,,,FF,,,,,,,,0.748,,,,,,,,,,,,,,,,,,,,,,61036710e1eb1d931b7a34a6,61036e70db302659b0568e5b,2021-07-29_23h14.24.866,Simcolourproject_2stim_asymm_v5,2020.2.10,MacIntel,60,61025ae37ef11b136ea224fe,,,,,,,,,1059,34,63,1,0,0,response1disk,,7,12,11,1,0,0,rectangle,12,11,1,0,0,12,11,1,0,0,1,132,292,131,1,,,,,,,,
,,,,,,,,,,,,,FF,,,,,,,,2.15,,,,,,,,,,,,,,,,,,,,,,61036710e1eb1d931b7a34a6,61036e70db302659b0568e5b,2021-07-29_23h14.24.866,Simcolourproject_2stim_asymm_v5,2020.2.10,MacIntel,60,61025ae37ef11b136ea224fe,,,,,,,,,3456,62,44,1,0,0,response1disk,,6,17,9,1,0,0,rectangle,17,9,1,0,0,17,9,1,0,0,1,133,293,45,1,,,,,,,,
,,,,,,,,,,,,,FF,,,,,,,,0.866,,,,,,,,,,,,,,,,,,,,,,61036710e1eb1d931b7a34a6,61036e70db302659b0568e5b,2021-07-29_23h14.24.866,Simcolourproject_2stim_asymm_v5,2020.2.10,MacIntel,60,61025ae37ef11b136ea224fe,,,,,,,,,4195,35,-65,1,0,0,response3disk,,4,27,-2,1,0,0,rectangle,27,-2,1,0,0,27,-2,1,0,0,1,134,294,64,1,,,,,,,,
,,,,,,,,,,,,,FF,,,,,,,,0.683,,,,,,,,,,,,,,,,,,,,,,61036710e1eb1d931b7a34a6,61036e70db302659b0568e5b,2021-07-29_23h14.24.866,Simcolourproject_2stim_asymm_v5,2020.2.10,MacIntel,60,61025ae37ef11b136ea224fe,,,,,,,,,1321,30,51,1,0,0,response1disk,,7,15,-4,1,0,0,rectangle,15,-4,1,0,0,15,-4,1,0,0,1,135,295,113,1,,,,,,,,
,,,,,,,,,,,,,FF,,,,,,,,0.833,,,,,,,,,,,,,,,,,,,,,,61036710e1eb1d931b7a34a6,61036e70db302659b0568e5b,2021-07-29_23h14.24.866,Simcolourproject_2stim_asymm_v5,2020.2.10,MacIntel,60,61025ae37ef11b136ea224fe,,,,,,,,,4291,22,55,1,0,0,response1disk,,7,12,1,1,0,0,rectangle,12,1,1,0,0,12,1,1,0,0,1,136,296,108,1,,,,,,,,
,,,,,,,,,,,,,FF,,,,,,,,1.316,,,,,,,,,,,,,,,,,,,,,,61036710e1eb1d931b7a34a6,61036e70db302659b0568e5b,2021-07-29_23h14.24.866,Simcolourproject_2stim_asymm_v5,2020.2.10,MacIntel,60,61025ae37ef11b136ea224fe,,,,,,,,,1924,54,-21,1,0,0,response3disk,,5,19,-1,1,0,0,rectangle,-35,98,1,0,0,-21,-9,1,0,0,1,137,297,89,1,,response7disk_3,TRUE,0,0,"[72,52,29,298,267,228,316,50,237,284,88,6,256,73,220,10,183,11,150,53]",1.25,rectangle
,,,,,,,,,,,,,FF,,,,,,,,0.65,,,,,,,,,,,,,,,,,,,,,,61036710e1eb1d931b7a34a6,61036e70db302659b0568e5b,2021-07-29_23h14.24.866,Simcolourproject_2stim_asymm_v5,2020.2.10,MacIntel,60,61025ae37ef11b136ea224fe,,,,,,,,,1900,-33,-55,1,0,0,response5disk,,3,-19,7,1,0,0,rectangle,-19,7,1,0,0,-19,7,1,0,0,1,138,298,146,1,,,,,,,,
,,,,,,,,,,,,,FF,,,,,,,,0.767,,,,,,,,,,,,,,,,,,,,,,61036710e1eb1d931b7a34a6,61036e70db302659b0568e5b,2021-07-29_23h14.24.866,Simcolourproject_2stim_asymm_v5,2020.2.10,MacIntel,60,61025ae37ef11b136ea224fe,,,,,,,,,484,31,-39,1,0,0,response3disk,,4,23,16,1,0,0,rectangle,23,16,1,0,0,23,16,1,0,0,1,139,299,88,1,,,,,,,,
