key_resp.keys,key_resp.rt,key_resp_14.keys,key_resp_14.rt,key_resp_15.keys,key_resp_15.rt,key_resp_17.keys,key_resp_17.rt,key_resp_9.keys,key_resp_9.rt,key_resp_10.keys,key_resp_10.rt,practice_comparison,Ecc,mouse_5.x,mouse_5.y,mouse_5.leftButton,mouse_5.midButton,mouse_5.rightButton,mouse_5.clicked_name,pracsimilarity,response_time,mouse_10.x,mouse_10.y,mouse_10.leftButton,mouse_10.midButton,mouse_10.rightButton,mouse_10.clicked_name,mouse_7.x,mouse_7.y,mouse_7.leftButton,mouse_7.midButton,mouse_7.rightButton,mouse_6.x,mouse_6.y,mouse_6.leftButton,mouse_6.midButton,mouse_6.rightButton,duringprac.thisRepN,duringprac.thisTrialN,duringprac.thisN,duringprac.thisIndex,duringprac.ran,participant,session,date,expName,psychopyVersion,OS,frameRate,study_id,mouse_7.clicked_name,catchpracsimilarity,catch_response_time,catchnumberprac,catchtrialorderprac,mouse_6.clicked_name,key_resp_22.keys,key_resp_22.rt,realcomparison,mouse.x,mouse.y,mouse.leftButton,mouse.midButton,mouse.rightButton,mouse.clicked_name,Colour2,similarity,mouse_2.x,mouse_2.y,mouse_2.leftButton,mouse_2.midButton,mouse_2.rightButton,mouse_2.clicked_name,mouse_3.x,mouse_3.y,mouse_3.leftButton,mouse_3.midButton,mouse_3.rightButton,mouse_11.x,mouse_11.y,mouse_11.leftButton,mouse_11.midButton,mouse_11.rightButton,trials_2.thisRepN,trials_2.thisTrialN,trials_2.thisN,trials_2.thisIndex,trials_2.ran,Colour1,mouse_3.clicked_name,catchornah,catchsimilarity,catchnumber,catchtrialorder,catchRT,mouse_11.clicked_name
space,1.3532,space,16.3596,space,24.1717,space,8.275900001,space,1.0361,space,15.8993,103,FF,-68,52,1,0,0,response7disk_5,1,2.8231,-2,7,1,0,0,rectangle_8,-2,7,1,0,0,-2,7,1,0,0,0,0,0,5,1,610311f92fb14a35337137e7,610368e807a4a531425213df,2021-07-29_22h55.40.351,Simcolourproject_2stim_asymm_v5,2020.2.10,Win32,60,61025ae37ef11b136ea224fe,,,,,,,,,,,,,,,,,,,,,,,,,,,,,,,,,,,,,,,,,,,,,,
,,,,,,,,,,,,125,PF,43,71,1,0,0,response1disk_5,7,2.3154,-11,-3,1,0,0,rectangle_8,-71,-29,1,0,0,1,-3,1,0,0,0,1,1,1,1,610311f92fb14a35337137e7,610368e807a4a531425213df,2021-07-29_22h55.40.351,Simcolourproject_2stim_asymm_v5,2020.2.10,Win32,60,61025ae37ef11b136ea224fe,response5disk_7,2,3.344200001,2,"[2,5]",rectangle_4,,,,,,,,,,,,,,,,,,,,,,,,,,,,,,,,,,,,,,,,
,,,,,,,,,,,,48,FF,80,35,1,0,0,response1disk_5,6,2.1033,-3,7,1,0,0,rectangle_8,-3,7,1,0,0,-3,7,1,0,0,0,2,2,3,1,610311f92fb14a35337137e7,610368e807a4a531425213df,2021-07-29_22h55.40.351,Simcolourproject_2stim_asymm_v5,2020.2.10,Win32,60,61025ae37ef11b136ea224fe,,,,,,,,,,,,,,,,,,,,,,,,,,,,,,,,,,,,,,,,,,,,,,
,,,,,,,,,,,,25,PF,-81,36,1,0,0,response7disk_5,1,3.1652,-15,9,1,0,0,rectangle_8,-15,9,1,0,0,-15,9,1,0,0,0,3,3,6,1,610311f92fb14a35337137e7,610368e807a4a531425213df,2021-07-29_22h55.40.351,Simcolourproject_2stim_asymm_v5,2020.2.10,Win32,60,61025ae37ef11b136ea224fe,,,,,,,,,,,,,,,,,,,,,,,,,,,,,,,,,,,,,,,,,,,,,,
,,,,,,,,,,,,118,PF,44,-105,1,0,0,response3disk_5,4,3.0853,-1,3,1,0,0,rectangle_8,-112,-57,1,0,0,-11,-5,1,0,0,0,4,4,4,1,610311f92fb14a35337137e7,610368e807a4a531425213df,2021-07-29_22h55.40.351,Simcolourproject_2stim_asymm_v5,2020.2.10,Win32,60,61025ae37ef11b136ea224fe,response5disk_7,2,2.7659,2,"[2,5]",rectangle_4,,,,,,,,,,,,,,,,,,,,,,,,,,,,,,,,,,,,,,,,
,,,,,,,,,,,,40,FF,-38,-97,1,0,0,response5disk_5,3,2.0183,-6,11,1,0,0,rectangle_8,-6,11,1,0,0,-6,11,1,0,0,0,5,5,0,1,610311f92fb14a35337137e7,610368e807a4a531425213df,2021-07-29_22h55.40.351,Simcolourproject_2stim_asymm_v5,2020.2.10,Win32,60,61025ae37ef11b136ea224fe,,,,,,,,,,,,,,,,,,,,,,,,,,,,,,,,,,,,,,,,,,,,,,
,,,,,,,,,,,,113,PF,42,74,1,0,0,response1disk_5,7,1.1753,1,-2,1,0,0,rectangle_8,1,-2,1,0,0,1,-2,1,0,0,0,6,6,2,1,610311f92fb14a35337137e7,610368e807a4a531425213df,2021-07-29_22h55.40.351,Simcolourproject_2stim_asymm_v5,2020.2.10,Win32,60,61025ae37ef11b136ea224fe,,,,,,,,,,,,,,,,,,,,,,,,,,,,,,,,,,,,,,,,,,,,,,
,,,,,,,,,,,,,FF,,,,,,,,2.0875,,,,,,,,,,,,,,,,,,,,,,610311f92fb14a35337137e7,610368e807a4a531425213df,2021-07-29_22h55.40.351,Simcolourproject_2stim_asymm_v5,2020.2.10,Win32,60,61025ae37ef11b136ea224fe,,,,,,,space,2.4024,2124,80,45,1,0,0,response1disk,,6,-18,9,1,0,0,rectangle,-18,9,1,0,0,-18,9,1,0,0,0,0,0,10,1,,,,,,,,
,,,,,,,,,,,,,FF,,,,,,,,2.184599999,,,,,,,,,,,,,,,,,,,,,,610311f92fb14a35337137e7,610368e807a4a531425213df,2021-07-29_22h55.40.351,Simcolourproject_2stim_asymm_v5,2020.2.10,Win32,60,61025ae37ef11b136ea224fe,,,,,,,,,1373,-40,94,1,0,0,response7disk,,0,-7,3,1,0,0,rectangle,-43,-101,1,0,0,-4,-4,1,0,0,0,1,1,13,1,,response5disk_3,TRUE,3,3,"[179,288,9,264,233,231,48,310,111,287,66,212,235,2,192,228,94,263,215,36]",2.6512,rectangle
,,,,,,,,,,,,,FF,,,,,,,,2.781,,,,,,,,,,,,,,,,,,,,,,610311f92fb14a35337137e7,610368e807a4a531425213df,2021-07-29_22h55.40.351,Simcolourproject_2stim_asymm_v5,2020.2.10,Win32,60,61025ae37ef11b136ea224fe,,,,,,,,,1729,48,-102,1,0,0,response3disk,,4,2,-2,1,0,0,rectangle,2,-2,1,0,0,2,-2,1,0,0,0,2,2,102,1,,,,,,,,
,,,,,,,,,,,,,FF,,,,,,,,2.1506,,,,,,,,,,,,,,,,,,,,,,610311f92fb14a35337137e7,610368e807a4a531425213df,2021-07-29_22h55.40.351,Simcolourproject_2stim_asymm_v5,2020.2.10,Win32,60,61025ae37ef11b136ea224fe,,,,,,,,,4217,103,21,1,0,0,response1disk,,6,-3,1,1,0,0,rectangle,-3,1,1,0,0,-3,1,1,0,0,0,3,3,15,1,,,,,,,,
,,,,,,,,,,,,,FF,,,,,,,,2.1139,,,,,,,,,,,,,,,,,,,,,,610311f92fb14a35337137e7,610368e807a4a531425213df,2021-07-29_22h55.40.351,Simcolourproject_2stim_asymm_v5,2020.2.10,Win32,60,61025ae37ef11b136ea224fe,,,,,,,,,996,-44,-101,1,0,0,response5disk,,3,-1,3,1,0,0,rectangle,-1,3,1,0,0,-1,3,1,0,0,0,4,4,137,1,,,,,,,,
,,,,,,,,,,,,,FF,,,,,,,,2.9429,,,,,,,,,,,,,,,,,,,,,,610311f92fb14a35337137e7,610368e807a4a531425213df,2021-07-29_22h55.40.351,Simcolourproject_2stim_asymm_v5,2020.2.10,Win32,60,61025ae37ef11b136ea224fe,,,,,,,,,2882,-96,-69,1,0,0,response5disk,,2,0,11,1,0,0,rectangle,0,11,1,0,0,0,11,1,0,0,0,5,5,56,1,,,,,,,,
,,,,,,,,,,,,,FF,,,,,,,,1.475200001,,,,,,,,,,,,,,,,,,,,,,610311f92fb14a35337137e7,610368e807a4a531425213df,2021-07-29_22h55.40.351,Simcolourproject_2stim_asymm_v5,2020.2.10,Win32,60,61025ae37ef11b136ea224fe,,,,,,,,,642,-31,-87,1,0,0,response5disk,,3,2,11,1,0,0,rectangle,2,11,1,0,0,2,11,1,0,0,0,6,6,153,1,,,,,,,,
,,,,,,,,,,,,,FF,,,,,,,,4.3804,,,,,,,,,,,,,,,,,,,,,,610311f92fb14a35337137e7,610368e807a4a531425213df,2021-07-29_22h55.40.351,Simcolourproject_2stim_asymm_v5,2020.2.10,Win32,60,61025ae37ef11b136ea224fe,,,,,,,,,1620,-84,-38,1,0,0,response5disk,,2,-6,-12,1,0,0,rectangle,-6,-12,1,0,0,-6,-12,1,0,0,0,7,7,124,1,,,,,,,,
,,,,,,,,,,,,,FF,,,,,,,,1.478099999,,,,,,,,,,,,,,,,,,,,,,610311f92fb14a35337137e7,610368e807a4a531425213df,2021-07-29_22h55.40.351,Simcolourproject_2stim_asymm_v5,2020.2.10,Win32,60,61025ae37ef11b136ea224fe,,,,,,,,,1083,27,-95,1,0,0,response3disk,,4,-12,1,1,0,0,rectangle,-43,-92,1,0,0,4,-7,1,0,0,0,8,8,142,1,,response5disk_3,TRUE,3,3,"[179,288,9,264,233,231,48,310,111,287,66,212,235,2,192,228,94,263,215,36]",1.696,rectangle
,,,,,,,,,,,,,FF,,,,,,,,1.3177,,,,,,,,,,,,,,,,,,,,,,610311f92fb14a35337137e7,610368e807a4a531425213df,2021-07-29_22h55.40.351,Simcolourproject_2stim_asymm_v5,2020.2.10,Win32,60,61025ae37ef11b136ea224fe,,,,,,,,,3048,-71,33,1,0,0,response7disk,,1,12,-11,1,0,0,rectangle,12,-11,1,0,0,12,-11,1,0,0,0,9,9,18,1,,,,,,,,
,,,,,,,,,,,,,FF,,,,,,,,1.7335,,,,,,,,,,,,,,,,,,,,,,610311f92fb14a35337137e7,610368e807a4a531425213df,2021-07-29_22h55.40.351,Simcolourproject_2stim_asymm_v5,2020.2.10,Win32,60,61025ae37ef11b136ea224fe,,,,,,,,,1348,52,-77,1,0,0,response3disk,,4,-14,-8,1,0,0,rectangle,-14,-8,1,0,0,-14,-8,1,0,0,0,10,10,78,1,,,,,,,,
,,,,,,,,,,,,,FF,,,,,,,,3.1211,,,,,,,,,,,,,,,,,,,,,,610311f92fb14a35337137e7,610368e807a4a531425213df,2021-07-29_22h55.40.351,Simcolourproject_2stim_asymm_v5,2020.2.10,Win32,60,61025ae37ef11b136ea224fe,,,,,,,,,1199,-99,-41,1,0,0,response5disk,,2,7,5,1,0,0,rectangle,7,5,1,0,0,7,5,1,0,0,0,11,11,47,1,,,,,,,,
,,,,,,,,,,,,,FF,,,,,,,,1.085799999,,,,,,,,,,,,,,,,,,,,,,610311f92fb14a35337137e7,610368e807a4a531425213df,2021-07-29_22h55.40.351,Simcolourproject_2stim_asymm_v5,2020.2.10,Win32,60,61025ae37ef11b136ea224fe,,,,,,,,,3906,-31,85,1,0,0,response7disk,,0,12,14,1,0,0,rectangle,12,14,1,0,0,12,14,1,0,0,0,12,12,29,1,,,,,,,,
,,,,,,,,,,,,,FF,,,,,,,,1.7213,,,,,,,,,,,,,,,,,,,,,,610311f92fb14a35337137e7,610368e807a4a531425213df,2021-07-29_22h55.40.351,Simcolourproject_2stim_asymm_v5,2020.2.10,Win32,60,61025ae37ef11b136ea224fe,,,,,,,,,311,98,35,1,0,0,response1disk,,6,15,1,1,0,0,rectangle,15,1,1,0,0,15,1,1,0,0,0,13,13,156,1,,,,,,,,
,,,,,,,,,,,,,FF,,,,,,,,1.0038,,,,,,,,,,,,,,,,,,,,,,610311f92fb14a35337137e7,610368e807a4a531425213df,2021-07-29_22h55.40.351,Simcolourproject_2stim_asymm_v5,2020.2.10,Win32,60,61025ae37ef11b136ea224fe,,,,,,,,,4245,88,-45,1,0,0,response3disk,,5,-14,1,1,0,0,rectangle,-14,1,1,0,0,-14,1,1,0,0,0,14,14,107,1,,,,,,,,
,,,,,,,,,,,,,FF,,,,,,,,1.879400001,,,,,,,,,,,,,,,,,,,,,,610311f92fb14a35337137e7,610368e807a4a531425213df,2021-07-29_22h55.40.351,Simcolourproject_2stim_asymm_v5,2020.2.10,Win32,60,61025ae37ef11b136ea224fe,,,,,,,,,198,49,-74,1,0,0,response3disk,,4,6,4,1,0,0,rectangle,6,4,1,0,0,6,4,1,0,0,0,15,15,88,1,,,,,,,,
,,,,,,,,,,,,,FF,,,,,,,,1.8558,,,,,,,,,,,,,,,,,,,,,,610311f92fb14a35337137e7,610368e807a4a531425213df,2021-07-29_22h55.40.351,Simcolourproject_2stim_asymm_v5,2020.2.10,Win32,60,61025ae37ef11b136ea224fe,,,,,,,,,3194,35,110,1,0,0,response1disk,,7,5,15,1,0,0,rectangle,5,15,1,0,0,5,15,1,0,0,0,16,16,138,1,,,,,,,,
,,,,,,,,,,,,,FF,,,,,,,,1.5372,,,,,,,,,,,,,,,,,,,,,,610311f92fb14a35337137e7,610368e807a4a531425213df,2021-07-29_22h55.40.351,Simcolourproject_2stim_asymm_v5,2020.2.10,Win32,60,61025ae37ef11b136ea224fe,,,,,,,,,1010,71,-39,1,0,0,response3disk,,5,13,1,1,0,0,rectangle,13,1,1,0,0,13,1,1,0,0,0,17,17,95,1,,,,,,,,
,,,,,,,,,,,,,FF,,,,,,,,1.4864,,,,,,,,,,,,,,,,,,,,,,610311f92fb14a35337137e7,610368e807a4a531425213df,2021-07-29_22h55.40.351,Simcolourproject_2stim_asymm_v5,2020.2.10,Win32,60,61025ae37ef11b136ea224fe,,,,,,,,,4021,-45,90,1,0,0,response7disk,,0,-28,11,1,0,0,rectangle,-28,11,1,0,0,-28,11,1,0,0,0,18,18,4,1,,,,,,,,
,,,,,,,,,,,,,FF,,,,,,,,2.9067,,,,,,,,,,,,,,,,,,,,,,610311f92fb14a35337137e7,610368e807a4a531425213df,2021-07-29_22h55.40.351,Simcolourproject_2stim_asymm_v5,2020.2.10,Win32,60,61025ae37ef11b136ea224fe,,,,,,,,,1195,80,-21,1,0,0,response3disk,,5,16,4,1,0,0,rectangle,16,4,1,0,0,16,4,1,0,0,0,19,19,93,1,,,,,,,,
,,,,,,,,,,,,,FF,,,,,,,,3.541900001,,,,,,,,,,,,,,,,,,,,,,610311f92fb14a35337137e7,610368e807a4a531425213df,2021-07-29_22h55.40.351,Simcolourproject_2stim_asymm_v5,2020.2.10,Win32,60,61025ae37ef11b136ea224fe,,,,,,,,,1816,30,-86,1,0,0,response3disk,,4,-28,-7,1,0,0,rectangle,-28,-7,1,0,0,-28,-7,1,0,0,0,20,20,85,1,,,,,,,,
,,,,,,,,,,,,,FF,,,,,,,,1.212400001,,,,,,,,,,,,,,,,,,,,,,610311f92fb14a35337137e7,610368e807a4a531425213df,2021-07-29_22h55.40.351,Simcolourproject_2stim_asymm_v5,2020.2.10,Win32,60,61025ae37ef11b136ea224fe,,,,,,,,,777,54,83,1,0,0,response1disk,,7,1,-4,1,0,0,rectangle,1,-4,1,0,0,1,-4,1,0,0,0,21,21,19,1,,,,,,,,
,,,,,,,,,,,,,FF,,,,,,,,0.7333,,,,,,,,,,,,,,,,,,,,,,610311f92fb14a35337137e7,610368e807a4a531425213df,2021-07-29_22h55.40.351,Simcolourproject_2stim_asymm_v5,2020.2.10,Win32,60,61025ae37ef11b136ea224fe,,,,,,,,,3513,93,28,1,0,0,response1disk,,6,-1,6,1,0,0,rectangle,-1,6,1,0,0,-1,6,1,0,0,0,22,22,43,1,,,,,,,,
,,,,,,,,,,,,,FF,,,,,,,,2.926599999,,,,,,,,,,,,,,,,,,,,,,610311f92fb14a35337137e7,610368e807a4a531425213df,2021-07-29_22h55.40.351,Simcolourproject_2stim_asymm_v5,2020.2.10,Win32,60,61025ae37ef11b136ea224fe,,,,,,,,,546,87,28,1,0,0,response1disk,,6,12,10,1,0,0,rectangle,12,10,1,0,0,12,10,1,0,0,0,23,23,94,1,,,,,,,,
,,,,,,,,,,,,,FF,,,,,,,,1.4234,,,,,,,,,,,,,,,,,,,,,,610311f92fb14a35337137e7,610368e807a4a531425213df,2021-07-29_22h55.40.351,Simcolourproject_2stim_asymm_v5,2020.2.10,Win32,60,61025ae37ef11b136ea224fe,,,,,,,,,175,-77,26,1,0,0,response7disk,,1,0,5,1,0,0,rectangle,0,5,1,0,0,0,5,1,0,0,0,24,24,154,1,,,,,,,,
,,,,,,,,,,,,,FF,,,,,,,,1.1176,,,,,,,,,,,,,,,,,,,,,,610311f92fb14a35337137e7,610368e807a4a531425213df,2021-07-29_22h55.40.351,Simcolourproject_2stim_asymm_v5,2020.2.10,Win32,60,61025ae37ef11b136ea224fe,,,,,,,,,3926,-92,-33,1,0,0,response5disk,,2,2,-9,1,0,0,rectangle,2,-9,1,0,0,2,-9,1,0,0,0,25,25,112,1,,,,,,,,
,,,,,,,,,,,,,FF,,,,,,,,0.9428,,,,,,,,,,,,,,,,,,,,,,610311f92fb14a35337137e7,610368e807a4a531425213df,2021-07-29_22h55.40.351,Simcolourproject_2stim_asymm_v5,2020.2.10,Win32,60,61025ae37ef11b136ea224fe,,,,,,,,,1218,-37,90,1,0,0,response7disk,,0,-8,5,1,0,0,rectangle,-8,5,1,0,0,-8,5,1,0,0,0,26,26,86,1,,,,,,,,
,,,,,,,,,,,,,FF,,,,,,,,0.8245,,,,,,,,,,,,,,,,,,,,,,610311f92fb14a35337137e7,610368e807a4a531425213df,2021-07-29_22h55.40.351,Simcolourproject_2stim_asymm_v5,2020.2.10,Win32,60,61025ae37ef11b136ea224fe,,,,,,,,,3971,-78,44,1,0,0,response7disk,,1,-4,6,1,0,0,rectangle,-4,6,1,0,0,-4,6,1,0,0,0,27,27,148,1,,,,,,,,
,,,,,,,,,,,,,FF,,,,,,,,1.3693,,,,,,,,,,,,,,,,,,,,,,610311f92fb14a35337137e7,610368e807a4a531425213df,2021-07-29_22h55.40.351,Simcolourproject_2stim_asymm_v5,2020.2.10,Win32,60,61025ae37ef11b136ea224fe,,,,,,,,,64,-42,-101,1,0,0,response5disk,,3,-10,5,1,0,0,rectangle,-10,5,1,0,0,-10,5,1,0,0,0,28,28,87,1,,,,,,,,
,,,,,,,,,,,,,FF,,,,,,,,0.883400001,,,,,,,,,,,,,,,,,,,,,,610311f92fb14a35337137e7,610368e807a4a531425213df,2021-07-29_22h55.40.351,Simcolourproject_2stim_asymm_v5,2020.2.10,Win32,60,61025ae37ef11b136ea224fe,,,,,,,,,4118,-46,94,1,0,0,response7disk,,0,-2,2,1,0,0,rectangle,-2,2,1,0,0,-2,2,1,0,0,0,29,29,3,1,,,,,,,,
,,,,,,,,,,,,,FF,,,,,,,,1.466299999,,,,,,,,,,,,,,,,,,,,,,610311f92fb14a35337137e7,610368e807a4a531425213df,2021-07-29_22h55.40.351,Simcolourproject_2stim_asymm_v5,2020.2.10,Win32,60,61025ae37ef11b136ea224fe,,,,,,,,,3838,80,-22,1,0,0,response3disk,,5,7,0,1,0,0,rectangle,7,0,1,0,0,7,0,1,0,0,0,30,30,98,1,,,,,,,,
,,,,,,,,,,,,,FF,,,,,,,,1.5523,,,,,,,,,,,,,,,,,,,,,,610311f92fb14a35337137e7,610368e807a4a531425213df,2021-07-29_22h55.40.351,Simcolourproject_2stim_asymm_v5,2020.2.10,Win32,60,61025ae37ef11b136ea224fe,,,,,,,,,2555,-43,-96,1,0,0,response5disk,,3,8,7,1,0,0,rectangle,8,7,1,0,0,8,7,1,0,0,0,31,31,72,1,,,,,,,,
,,,,,,,,,,,,,FF,,,,,,,,2.499900001,,,,,,,,,,,,,,,,,,,,,,610311f92fb14a35337137e7,610368e807a4a531425213df,2021-07-29_22h55.40.351,Simcolourproject_2stim_asymm_v5,2020.2.10,Win32,60,61025ae37ef11b136ea224fe,,,,,,,,,4340,-80,-35,1,0,0,response5disk,,2,-14,3,1,0,0,rectangle,-14,3,1,0,0,-14,3,1,0,0,0,32,32,104,1,,,,,,,,
,,,,,,,,,,,,,FF,,,,,,,,1.9373,,,,,,,,,,,,,,,,,,,,,,610311f92fb14a35337137e7,610368e807a4a531425213df,2021-07-29_22h55.40.351,Simcolourproject_2stim_asymm_v5,2020.2.10,Win32,60,61025ae37ef11b136ea224fe,,,,,,,,,3548,82,-48,1,0,0,response3disk,,5,-16,7,1,0,0,rectangle,-16,7,1,0,0,-16,7,1,0,0,0,33,33,52,1,,,,,,,,
,,,,,,,,,,,,,FF,,,,,,,,1.1401,,,,,,,,,,,,,,,,,,,,,,610311f92fb14a35337137e7,610368e807a4a531425213df,2021-07-29_22h55.40.351,Simcolourproject_2stim_asymm_v5,2020.2.10,Win32,60,61025ae37ef11b136ea224fe,,,,,,,,,2543,-100,28,1,0,0,response7disk,,1,-8,6,1,0,0,rectangle,-8,6,1,0,0,-8,6,1,0,0,0,34,34,39,1,,,,,,,,
,,,,,,,,,,,,,FF,,,,,,,,0.936799999,,,,,,,,,,,,,,,,,,,,,,610311f92fb14a35337137e7,610368e807a4a531425213df,2021-07-29_22h55.40.351,Simcolourproject_2stim_asymm_v5,2020.2.10,Win32,60,61025ae37ef11b136ea224fe,,,,,,,,,2244,-77,-29,1,0,0,response5disk,,2,-10,6,1,0,0,rectangle,-55,-99,1,0,0,9,10,1,0,0,0,35,35,105,1,,response5disk_3,TRUE,3,3,"[179,288,9,264,233,231,48,310,111,287,66,212,235,2,192,228,94,263,215,36]",1.8104,rectangle
,,,,,,,,,,,,,FF,,,,,,,,0.835400001,,,,,,,,,,,,,,,,,,,,,,610311f92fb14a35337137e7,610368e807a4a531425213df,2021-07-29_22h55.40.351,Simcolourproject_2stim_asymm_v5,2020.2.10,Win32,60,61025ae37ef11b136ea224fe,,,,,,,,,3742,-95,41,1,0,0,response7disk,,1,-2,2,1,0,0,rectangle,-2,2,1,0,0,-2,2,1,0,0,0,36,36,6,1,,,,,,,,
,,,,,,,,,,,,,FF,,,,,,,,1.587400001,,,,,,,,,,,,,,,,,,,,,,610311f92fb14a35337137e7,610368e807a4a531425213df,2021-07-29_22h55.40.351,Simcolourproject_2stim_asymm_v5,2020.2.10,Win32,60,61025ae37ef11b136ea224fe,,,,,,,,,1721,71,-107,1,0,0,response3disk,,4,3,-2,1,0,0,rectangle,3,-2,1,0,0,3,-2,1,0,0,0,37,37,60,1,,,,,,,,
,,,,,,,,,,,,,FF,,,,,,,,1.228900001,,,,,,,,,,,,,,,,,,,,,,610311f92fb14a35337137e7,610368e807a4a531425213df,2021-07-29_22h55.40.351,Simcolourproject_2stim_asymm_v5,2020.2.10,Win32,60,61025ae37ef11b136ea224fe,,,,,,,,,1402,90,-32,1,0,0,response3disk,,5,-6,-4,1,0,0,rectangle,-6,-4,1,0,0,-6,-4,1,0,0,0,38,38,157,1,,,,,,,,
,,,,,,,,,,,,,FF,,,,,,,,0.8949,,,,,,,,,,,,,,,,,,,,,,610311f92fb14a35337137e7,610368e807a4a531425213df,2021-07-29_22h55.40.351,Simcolourproject_2stim_asymm_v5,2020.2.10,Win32,60,61025ae37ef11b136ea224fe,,,,,,,,,1639,78,-38,1,0,0,response3disk,,5,4,3,1,0,0,rectangle,4,3,1,0,0,4,3,1,0,0,0,39,39,117,1,,,,,,,,
,,,,,,,,,,,,,FF,,,,,,,,1.6796,,,,,,,,,,,,,,,,,,,,,,610311f92fb14a35337137e7,610368e807a4a531425213df,2021-07-29_22h55.40.351,Simcolourproject_2stim_asymm_v5,2020.2.10,Win32,60,61025ae37ef11b136ea224fe,,,,,,,,,1196,77,-34,1,0,0,response3disk,,5,0,-4,1,0,0,rectangle,0,-4,1,0,0,0,-4,1,0,0,0,40,40,22,1,,,,,,,,
,,,,,,,,,,,,,FF,,,,,,,,1.116700001,,,,,,,,,,,,,,,,,,,,,,610311f92fb14a35337137e7,610368e807a4a531425213df,2021-07-29_22h55.40.351,Simcolourproject_2stim_asymm_v5,2020.2.10,Win32,60,61025ae37ef11b136ea224fe,,,,,,,,,401,44,-92,1,0,0,response3disk,,4,-2,3,1,0,0,rectangle,-2,3,1,0,0,-2,3,1,0,0,0,41,41,53,1,,,,,,,,
,,,,,,,,,,,,,FF,,,,,,,,1.0178,,,,,,,,,,,,,,,,,,,,,,610311f92fb14a35337137e7,610368e807a4a531425213df,2021-07-29_22h55.40.351,Simcolourproject_2stim_asymm_v5,2020.2.10,Win32,60,61025ae37ef11b136ea224fe,,,,,,,,,1646,90,-54,1,0,0,response3disk,,5,2,10,1,0,0,rectangle,2,10,1,0,0,2,10,1,0,0,0,42,42,59,1,,,,,,,,
,,,,,,,,,,,,,FF,,,,,,,,2.48,,,,,,,,,,,,,,,,,,,,,,610311f92fb14a35337137e7,610368e807a4a531425213df,2021-07-29_22h55.40.351,Simcolourproject_2stim_asymm_v5,2020.2.10,Win32,60,61025ae37ef11b136ea224fe,,,,,,,,,3501,37,101,1,0,0,response1disk,,7,0,4,1,0,0,rectangle,0,4,1,0,0,0,4,1,0,0,0,43,43,14,1,,,,,,,,
,,,,,,,,,,,,,FF,,,,,,,,1.3002,,,,,,,,,,,,,,,,,,,,,,610311f92fb14a35337137e7,610368e807a4a531425213df,2021-07-29_22h55.40.351,Simcolourproject_2stim_asymm_v5,2020.2.10,Win32,60,61025ae37ef11b136ea224fe,,,,,,,,,4314,93,40,1,0,0,response1disk,,6,-1,4,1,0,0,rectangle,-1,4,1,0,0,-1,4,1,0,0,0,44,44,99,1,,,,,,,,
,,,,,,,,,,,,,FF,,,,,,,,5.3374,,,,,,,,,,,,,,,,,,,,,,610311f92fb14a35337137e7,610368e807a4a531425213df,2021-07-29_22h55.40.351,Simcolourproject_2stim_asymm_v5,2020.2.10,Win32,60,61025ae37ef11b136ea224fe,,,,,,,,,673,42,-90,1,0,0,response3disk,,4,-10,2,1,0,0,rectangle,-10,2,1,0,0,-10,2,1,0,0,0,45,45,1,1,,,,,,,,
,,,,,,,,,,,,,FF,,,,,,,,1.1061,,,,,,,,,,,,,,,,,,,,,,610311f92fb14a35337137e7,610368e807a4a531425213df,2021-07-29_22h55.40.351,Simcolourproject_2stim_asymm_v5,2020.2.10,Win32,60,61025ae37ef11b136ea224fe,,,,,,,,,814,-47,-84,1,0,0,response5disk,,3,9,3,1,0,0,rectangle,9,3,1,0,0,9,3,1,0,0,0,46,46,21,1,,,,,,,,
,,,,,,,,,,,,,FF,,,,,,,,1.961,,,,,,,,,,,,,,,,,,,,,,610311f92fb14a35337137e7,610368e807a4a531425213df,2021-07-29_22h55.40.351,Simcolourproject_2stim_asymm_v5,2020.2.10,Win32,60,61025ae37ef11b136ea224fe,,,,,,,,,4248,79,-38,1,0,0,response3disk,,5,8,-4,1,0,0,rectangle,37,91,1,0,0,-4,0,1,0,0,0,47,47,101,1,,response1disk_3,TRUE,7,7,"[179,288,9,264,233,231,48,310,111,287,66,212,235,2,192,228,94,263,215,36]",1.517400001,rectangle
,,,,,,,,,,,,,FF,,,,,,,,7.927400001,,,,,,,,,,,,,,,,,,,,,,610311f92fb14a35337137e7,610368e807a4a531425213df,2021-07-29_22h55.40.351,Simcolourproject_2stim_asymm_v5,2020.2.10,Win32,60,61025ae37ef11b136ea224fe,,,,,,,,,2199,87,-36,1,0,0,response3disk,,5,-9,7,1,0,0,rectangle,-9,7,1,0,0,-9,7,1,0,0,0,48,48,68,1,,,,,,,,
,,,,,,,,,,,,,FF,,,,,,,,1.5071,,,,,,,,,,,,,,,,,,,,,,610311f92fb14a35337137e7,610368e807a4a531425213df,2021-07-29_22h55.40.351,Simcolourproject_2stim_asymm_v5,2020.2.10,Win32,60,61025ae37ef11b136ea224fe,,,,,,,,,2302,-79,-27,1,0,0,response5disk,,2,-6,3,1,0,0,rectangle,-6,3,1,0,0,-6,3,1,0,0,0,49,49,118,1,,,,,,,,
,,,,,,,,,,,,,FF,,,,,,,,0.9176,,,,,,,,,,,,,,,,,,,,,,610311f92fb14a35337137e7,610368e807a4a531425213df,2021-07-29_22h55.40.351,Simcolourproject_2stim_asymm_v5,2020.2.10,Win32,60,61025ae37ef11b136ea224fe,,,,,,,,,498,79,-35,1,0,0,response3disk,,5,-3,0,1,0,0,rectangle,-3,0,1,0,0,-3,0,1,0,0,0,50,50,73,1,,,,,,,,
,,,,,,,,,,,,,FF,,,,,,,,9.3817,,,,,,,,,,,,,,,,,,,,,,610311f92fb14a35337137e7,610368e807a4a531425213df,2021-07-29_22h55.40.351,Simcolourproject_2stim_asymm_v5,2020.2.10,Win32,60,61025ae37ef11b136ea224fe,,,,,,,,,1113,81,-32,1,0,0,response3disk,,5,-26,5,1,0,0,rectangle,-26,5,1,0,0,-26,5,1,0,0,0,51,51,51,1,,,,,,,,
,,,,,,,,,,,,,FF,,,,,,,,0.834099999,,,,,,,,,,,,,,,,,,,,,,610311f92fb14a35337137e7,610368e807a4a531425213df,2021-07-29_22h55.40.351,Simcolourproject_2stim_asymm_v5,2020.2.10,Win32,60,61025ae37ef11b136ea224fe,,,,,,,,,1295,-86,49,1,0,0,response7disk,,1,11,-10,1,0,0,rectangle,11,-10,1,0,0,11,-10,1,0,0,0,52,52,7,1,,,,,,,,
,,,,,,,,,,,,,FF,,,,,,,,1.102900001,,,,,,,,,,,,,,,,,,,,,,610311f92fb14a35337137e7,610368e807a4a531425213df,2021-07-29_22h55.40.351,Simcolourproject_2stim_asymm_v5,2020.2.10,Win32,60,61025ae37ef11b136ea224fe,,,,,,,,,2119,84,-51,1,0,0,response3disk,,5,7,-2,1,0,0,rectangle,7,-2,1,0,0,7,-2,1,0,0,0,53,53,44,1,,,,,,,,
,,,,,,,,,,,,,FF,,,,,,,,1.3907,,,,,,,,,,,,,,,,,,,,,,610311f92fb14a35337137e7,610368e807a4a531425213df,2021-07-29_22h55.40.351,Simcolourproject_2stim_asymm_v5,2020.2.10,Win32,60,61025ae37ef11b136ea224fe,,,,,,,,,3756,52,-86,0,0,1,response3disk,,4,0,4,1,0,0,rectangle,0,4,1,0,0,0,4,1,0,0,0,54,54,103,1,,,,,,,,
,,,,,,,,,,,,,FF,,,,,,,,1.0204,,,,,,,,,,,,,,,,,,,,,,610311f92fb14a35337137e7,610368e807a4a531425213df,2021-07-29_22h55.40.351,Simcolourproject_2stim_asymm_v5,2020.2.10,Win32,60,61025ae37ef11b136ea224fe,,,,,,,,,130,92,-43,1,0,0,response3disk,,5,1,2,1,0,0,rectangle,1,2,1,0,0,1,2,1,0,0,0,55,55,24,1,,,,,,,,
,,,,,,,,,,,,,FF,,,,,,,,4.5528,,,,,,,,,,,,,,,,,,,,,,610311f92fb14a35337137e7,610368e807a4a531425213df,2021-07-29_22h55.40.351,Simcolourproject_2stim_asymm_v5,2020.2.10,Win32,60,61025ae37ef11b136ea224fe,,,,,,,,,3020,-41,-89,1,0,0,response5disk,,3,-2,0,1,0,0,rectangle,-2,0,1,0,0,-2,0,1,0,0,0,56,56,151,1,,,,,,,,
,,,,,,,,,,,,,FF,,,,,,,,0.9333,,,,,,,,,,,,,,,,,,,,,,610311f92fb14a35337137e7,610368e807a4a531425213df,2021-07-29_22h55.40.351,Simcolourproject_2stim_asymm_v5,2020.2.10,Win32,60,61025ae37ef11b136ea224fe,,,,,,,,,1528,-86,34,1,0,0,response7disk,,1,5,5,1,0,0,rectangle,5,5,1,0,0,5,5,1,0,0,0,57,57,128,1,,,,,,,,
,,,,,,,,,,,,,FF,,,,,,,,5.3615,,,,,,,,,,,,,,,,,,,,,,610311f92fb14a35337137e7,610368e807a4a531425213df,2021-07-29_22h55.40.351,Simcolourproject_2stim_asymm_v5,2020.2.10,Win32,60,61025ae37ef11b136ea224fe,,,,,,,,,661,-89,-28,1,0,0,response5disk,,2,-8,5,1,0,0,rectangle,-8,5,1,0,0,-8,5,1,0,0,0,58,58,125,1,,,,,,,,
,,,,,,,,,,,,,FF,,,,,,,,1.0517,,,,,,,,,,,,,,,,,,,,,,610311f92fb14a35337137e7,610368e807a4a531425213df,2021-07-29_22h55.40.351,Simcolourproject_2stim_asymm_v5,2020.2.10,Win32,60,61025ae37ef11b136ea224fe,,,,,,,,,674,61,-23,1,0,0,response3disk,,5,-2,1,1,0,0,rectangle,-2,1,1,0,0,-2,1,1,0,0,0,59,59,25,1,,,,,,,,
,,,,,,,,,,,,,FF,,,,,,,,1.4832,,,,,,,,,,,,,,,,,,,,,,610311f92fb14a35337137e7,610368e807a4a531425213df,2021-07-29_22h55.40.351,Simcolourproject_2stim_asymm_v5,2020.2.10,Win32,60,61025ae37ef11b136ea224fe,,,,,,,,,1726,89,-19,1,0,0,response3disk,,5,-5,6,1,0,0,rectangle,-5,6,1,0,0,-5,6,1,0,0,0,60,60,80,1,,,,,,,,
,,,,,,,,,,,,,FF,,,,,,,,1.1345,,,,,,,,,,,,,,,,,,,,,,610311f92fb14a35337137e7,610368e807a4a531425213df,2021-07-29_22h55.40.351,Simcolourproject_2stim_asymm_v5,2020.2.10,Win32,60,61025ae37ef11b136ea224fe,,,,,,,,,4150,-104,52,1,0,0,response7disk,,1,1,2,1,0,0,rectangle,1,2,1,0,0,1,2,1,0,0,0,61,61,113,1,,,,,,,,
,,,,,,,,,,,,,FF,,,,,,,,1.390799999,,,,,,,,,,,,,,,,,,,,,,610311f92fb14a35337137e7,610368e807a4a531425213df,2021-07-29_22h55.40.351,Simcolourproject_2stim_asymm_v5,2020.2.10,Win32,60,61025ae37ef11b136ea224fe,,,,,,,,,2799,-38,-87,1,0,0,response5disk,,3,-18,1,1,0,0,rectangle,-18,1,1,0,0,-18,1,1,0,0,0,62,62,152,1,,,,,,,,
,,,,,,,,,,,,,FF,,,,,,,,1.261799999,,,,,,,,,,,,,,,,,,,,,,610311f92fb14a35337137e7,610368e807a4a531425213df,2021-07-29_22h55.40.351,Simcolourproject_2stim_asymm_v5,2020.2.10,Win32,60,61025ae37ef11b136ea224fe,,,,,,,,,3344,47,-88,1,0,0,response3disk,,4,-9,14,1,0,0,rectangle,-9,14,1,0,0,-9,14,1,0,0,0,63,63,58,1,,,,,,,,
,,,,,,,,,,,,,FF,,,,,,,,25.6991,,,,,,,,,,,,,,,,,,,,,,610311f92fb14a35337137e7,610368e807a4a531425213df,2021-07-29_22h55.40.351,Simcolourproject_2stim_asymm_v5,2020.2.10,Win32,60,61025ae37ef11b136ea224fe,,,,,,,,,955,72,-36,1,0,0,response3disk,,5,-3,-1,1,0,0,rectangle,-3,-1,1,0,0,-3,-1,1,0,0,0,64,64,54,1,,,,,,,,
,,,,,,,,,,,,,FF,,,,,,,,0.799599999,,,,,,,,,,,,,,,,,,,,,,610311f92fb14a35337137e7,610368e807a4a531425213df,2021-07-29_22h55.40.351,Simcolourproject_2stim_asymm_v5,2020.2.10,Win32,60,61025ae37ef11b136ea224fe,,,,,,,,,2972,42,-81,1,0,0,response3disk,,4,0,8,1,0,0,rectangle,47,100,1,0,0,2,8,1,0,0,0,65,65,144,1,,response1disk_3,TRUE,7,7,"[179,288,9,264,233,231,48,310,111,287,66,212,235,2,192,228,94,263,215,36]",1.463799999,rectangle
,,,,,,,,,,,,,FF,,,,,,,,3.1997,,,,,,,,,,,,,,,,,,,,,,610311f92fb14a35337137e7,610368e807a4a531425213df,2021-07-29_22h55.40.351,Simcolourproject_2stim_asymm_v5,2020.2.10,Win32,60,61025ae37ef11b136ea224fe,,,,,,,,,2980,39,-96,1,0,0,response3disk,,4,-4,2,1,0,0,rectangle,-4,2,1,0,0,-4,2,1,0,0,0,66,66,41,1,,,,,,,,
,,,,,,,,,,,,,FF,,,,,,,,2.4518,,,,,,,,,,,,,,,,,,,,,,610311f92fb14a35337137e7,610368e807a4a531425213df,2021-07-29_22h55.40.351,Simcolourproject_2stim_asymm_v5,2020.2.10,Win32,60,61025ae37ef11b136ea224fe,,,,,,,,,4058,86,-39,1,0,0,response3disk,,5,7,-10,1,0,0,rectangle,7,-10,1,0,0,7,-10,1,0,0,0,67,67,71,1,,,,,,,,
,,,,,,,,,,,,,FF,,,,,,,,0.9487,,,,,,,,,,,,,,,,,,,,,,610311f92fb14a35337137e7,610368e807a4a531425213df,2021-07-29_22h55.40.351,Simcolourproject_2stim_asymm_v5,2020.2.10,Win32,60,61025ae37ef11b136ea224fe,,,,,,,,,3251,-90,42,1,0,0,response7disk,,1,-1,-5,1,0,0,rectangle,-1,-5,1,0,0,-1,-5,1,0,0,0,68,68,135,1,,,,,,,,
,,,,,,,,,,,,,FF,,,,,,,,1.4297,,,,,,,,,,,,,,,,,,,,,,610311f92fb14a35337137e7,610368e807a4a531425213df,2021-07-29_22h55.40.351,Simcolourproject_2stim_asymm_v5,2020.2.10,Win32,60,61025ae37ef11b136ea224fe,,,,,,,,,1708,83,36,1,0,0,response1disk,,6,-8,2,1,0,0,rectangle,-8,2,1,0,0,-8,2,1,0,0,0,69,69,133,1,,,,,,,,
,,,,,,,,,,,,,FF,,,,,,,,1.1522,,,,,,,,,,,,,,,,,,,,,,610311f92fb14a35337137e7,610368e807a4a531425213df,2021-07-29_22h55.40.351,Simcolourproject_2stim_asymm_v5,2020.2.10,Win32,60,61025ae37ef11b136ea224fe,,,,,,,,,4275,32,82,1,0,0,response1disk,,7,13,2,1,0,0,rectangle,13,2,1,0,0,13,2,1,0,0,0,70,70,66,1,,,,,,,,
,,,,,,,,,,,,,FF,,,,,,,,0.8808,,,,,,,,,,,,,,,,,,,,,,610311f92fb14a35337137e7,610368e807a4a531425213df,2021-07-29_22h55.40.351,Simcolourproject_2stim_asymm_v5,2020.2.10,Win32,60,61025ae37ef11b136ea224fe,,,,,,,,,3903,78,31,1,0,0,response1disk,,6,0,-1,1,0,0,rectangle,0,-1,1,0,0,0,-1,1,0,0,0,71,71,16,1,,,,,,,,
,,,,,,,,,,,,,FF,,,,,,,,1.5207,,,,,,,,,,,,,,,,,,,,,,610311f92fb14a35337137e7,610368e807a4a531425213df,2021-07-29_22h55.40.351,Simcolourproject_2stim_asymm_v5,2020.2.10,Win32,60,61025ae37ef11b136ea224fe,,,,,,,,,2174,-68,30,1,0,0,response7disk,,1,-7,5,1,0,0,rectangle,-7,5,1,0,0,-7,5,1,0,0,0,72,72,149,1,,,,,,,,
,,,,,,,,,,,,,FF,,,,,,,,1.4267,,,,,,,,,,,,,,,,,,,,,,610311f92fb14a35337137e7,610368e807a4a531425213df,2021-07-29_22h55.40.351,Simcolourproject_2stim_asymm_v5,2020.2.10,Win32,60,61025ae37ef11b136ea224fe,,,,,,,,,4055,92,-34,1,0,0,response3disk,,5,-16,5,1,0,0,rectangle,-16,5,1,0,0,-16,5,1,0,0,0,73,73,140,1,,,,,,,,
,,,,,,,,,,,,,FF,,,,,,,,1.4733,,,,,,,,,,,,,,,,,,,,,,610311f92fb14a35337137e7,610368e807a4a531425213df,2021-07-29_22h55.40.351,Simcolourproject_2stim_asymm_v5,2020.2.10,Win32,60,61025ae37ef11b136ea224fe,,,,,,,,,3851,-45,99,1,0,0,response7disk,,0,-21,14,1,0,0,rectangle,-21,14,1,0,0,-21,14,1,0,0,0,74,74,158,1,,,,,,,,
,,,,,,,,,,,,,FF,,,,,,,,0.716700001,,,,,,,,,,,,,,,,,,,,,,610311f92fb14a35337137e7,610368e807a4a531425213df,2021-07-29_22h55.40.351,Simcolourproject_2stim_asymm_v5,2020.2.10,Win32,60,61025ae37ef11b136ea224fe,,,,,,,,,2775,-32,89,1,0,0,response7disk,,0,-5,4,1,0,0,rectangle,-5,4,1,0,0,-5,4,1,0,0,0,75,75,55,1,,,,,,,,
,,,,,,,,,,,,,FF,,,,,,,,0.789099999,,,,,,,,,,,,,,,,,,,,,,610311f92fb14a35337137e7,610368e807a4a531425213df,2021-07-29_22h55.40.351,Simcolourproject_2stim_asymm_v5,2020.2.10,Win32,60,61025ae37ef11b136ea224fe,,,,,,,,,3843,-54,110,1,0,0,response7disk,,0,-12,13,1,0,0,rectangle,-12,13,1,0,0,-12,13,1,0,0,0,76,76,139,1,,,,,,,,
,,,,,,,,,,,,,FF,,,,,,,,11.8193,,,,,,,,,,,,,,,,,,,,,,610311f92fb14a35337137e7,610368e807a4a531425213df,2021-07-29_22h55.40.351,Simcolourproject_2stim_asymm_v5,2020.2.10,Win32,60,61025ae37ef11b136ea224fe,,,,,,,,,706,-32,97,1,0,0,response7disk,,0,3,8,1,0,0,rectangle,3,8,1,0,0,3,8,1,0,0,0,77,77,5,1,,,,,,,,
,,,,,,,,,,,,,FF,,,,,,,,1.555599999,,,,,,,,,,,,,,,,,,,,,,610311f92fb14a35337137e7,610368e807a4a531425213df,2021-07-29_22h55.40.351,Simcolourproject_2stim_asymm_v5,2020.2.10,Win32,60,61025ae37ef11b136ea224fe,,,,,,,,,4079,80,-47,1,0,0,response3disk,,5,7,8,1,0,0,rectangle,7,8,1,0,0,7,8,1,0,0,0,78,78,120,1,,,,,,,,
,,,,,,,,,,,,,FF,,,,,,,,1.3776,,,,,,,,,,,,,,,,,,,,,,610311f92fb14a35337137e7,610368e807a4a531425213df,2021-07-29_22h55.40.351,Simcolourproject_2stim_asymm_v5,2020.2.10,Win32,60,61025ae37ef11b136ea224fe,,,,,,,,,968,-41,88,1,0,0,response7disk,,0,-1,-11,1,0,0,rectangle,-1,-11,1,0,0,-1,-11,1,0,0,0,79,79,109,1,,,,,,,,
,,,,,,,,,,,,,FF,,,,,,,,3.555299999,,,,,,,,,,,,,,,,,,,,,,610311f92fb14a35337137e7,610368e807a4a531425213df,2021-07-29_22h55.40.351,Simcolourproject_2stim_asymm_v5,2020.2.10,Win32,60,61025ae37ef11b136ea224fe,,,,,,,,,1024,-44,-88,1,0,0,response5disk,,3,-6,-1,1,0,0,rectangle,-6,-1,1,0,0,-6,-1,1,0,0,0,80,80,62,1,,,,,,,,
,,,,,,,,,,,,,FF,,,,,,,,1.2022,,,,,,,,,,,,,,,,,,,,,,610311f92fb14a35337137e7,610368e807a4a531425213df,2021-07-29_22h55.40.351,Simcolourproject_2stim_asymm_v5,2020.2.10,Win32,60,61025ae37ef11b136ea224fe,,,,,,,,,4198,71,-16,1,0,0,response3disk,,5,3,-1,1,0,0,rectangle,3,-1,1,0,0,3,-1,1,0,0,0,81,81,147,1,,,,,,,,
,,,,,,,,,,,,,FF,,,,,,,,1.334299999,,,,,,,,,,,,,,,,,,,,,,610311f92fb14a35337137e7,610368e807a4a531425213df,2021-07-29_22h55.40.351,Simcolourproject_2stim_asymm_v5,2020.2.10,Win32,60,61025ae37ef11b136ea224fe,,,,,,,,,3639,47,-95,1,0,0,response3disk,,4,-7,3,1,0,0,rectangle,-7,3,1,0,0,-7,3,1,0,0,0,82,82,155,1,,,,,,,,
,,,,,,,,,,,,,FF,,,,,,,,1.3638,,,,,,,,,,,,,,,,,,,,,,610311f92fb14a35337137e7,610368e807a4a531425213df,2021-07-29_22h55.40.351,Simcolourproject_2stim_asymm_v5,2020.2.10,Win32,60,61025ae37ef11b136ea224fe,,,,,,,,,2438,-80,32,1,0,0,response7disk,,1,-3,1,1,0,0,rectangle,-3,1,1,0,0,-3,1,1,0,0,0,83,83,122,1,,,,,,,,
,,,,,,,,,,,,,FF,,,,,,,,1.3038,,,,,,,,,,,,,,,,,,,,,,610311f92fb14a35337137e7,610368e807a4a531425213df,2021-07-29_22h55.40.351,Simcolourproject_2stim_asymm_v5,2020.2.10,Win32,60,61025ae37ef11b136ea224fe,,,,,,,,,863,31,-84,1,0,0,response3disk,,4,-2,10,1,0,0,rectangle,-2,10,1,0,0,-2,10,1,0,0,0,84,84,2,1,,,,,,,,
,,,,,,,,,,,,,FF,,,,,,,,4.7186,,,,,,,,,,,,,,,,,,,,,,610311f92fb14a35337137e7,610368e807a4a531425213df,2021-07-29_22h55.40.351,Simcolourproject_2stim_asymm_v5,2020.2.10,Win32,60,61025ae37ef11b136ea224fe,,,,,,,,,1591,-89,-32,1,0,0,response5disk,,2,6,0,1,0,0,rectangle,6,0,1,0,0,6,0,1,0,0,0,85,85,100,1,,,,,,,,
,,,,,,,,,,,,,FF,,,,,,,,0.8015,,,,,,,,,,,,,,,,,,,,,,610311f92fb14a35337137e7,610368e807a4a531425213df,2021-07-29_22h55.40.351,Simcolourproject_2stim_asymm_v5,2020.2.10,Win32,60,61025ae37ef11b136ea224fe,,,,,,,,,1975,-90,40,1,0,0,response7disk,,1,-3,15,1,0,0,rectangle,-3,15,1,0,0,-3,15,1,0,0,0,86,86,130,1,,,,,,,,
,,,,,,,,,,,,,FF,,,,,,,,4.986799999,,,,,,,,,,,,,,,,,,,,,,610311f92fb14a35337137e7,610368e807a4a531425213df,2021-07-29_22h55.40.351,Simcolourproject_2stim_asymm_v5,2020.2.10,Win32,60,61025ae37ef11b136ea224fe,,,,,,,,,168,-82,38,1,0,0,response7disk,,1,2,-10,1,0,0,rectangle,2,-10,1,0,0,2,-10,1,0,0,0,87,87,136,1,,,,,,,,
,,,,,,,,,,,,,FF,,,,,,,,0.8353,,,,,,,,,,,,,,,,,,,,,,610311f92fb14a35337137e7,610368e807a4a531425213df,2021-07-29_22h55.40.351,Simcolourproject_2stim_asymm_v5,2020.2.10,Win32,60,61025ae37ef11b136ea224fe,,,,,,,,,830,-80,-33,1,0,0,response5disk,,2,-14,7,1,0,0,rectangle,-14,7,1,0,0,-14,7,1,0,0,0,88,88,31,1,,,,,,,,
,,,,,,,,,,,,,FF,,,,,,,,3.6101,,,,,,,,,,,,,,,,,,,,,,610311f92fb14a35337137e7,610368e807a4a531425213df,2021-07-29_22h55.40.351,Simcolourproject_2stim_asymm_v5,2020.2.10,Win32,60,61025ae37ef11b136ea224fe,,,,,,,,,1102,-35,-95,1,0,0,response5disk,,3,-3,-12,1,0,0,rectangle,-3,-12,1,0,0,-3,-12,1,0,0,0,89,89,121,1,,,,,,,,
,,,,,,,,,,,,,FF,,,,,,,,1.8714,,,,,,,,,,,,,,,,,,,,,,610311f92fb14a35337137e7,610368e807a4a531425213df,2021-07-29_22h55.40.351,Simcolourproject_2stim_asymm_v5,2020.2.10,Win32,60,61025ae37ef11b136ea224fe,,,,,,,,,3263,86,33,1,0,0,response1disk,,6,-4,-6,1,0,0,rectangle,-4,-6,1,0,0,-4,-6,1,0,0,0,90,90,159,1,,,,,,,,
,,,,,,,,,,,,,FF,,,,,,,,0.8333,,,,,,,,,,,,,,,,,,,,,,610311f92fb14a35337137e7,610368e807a4a531425213df,2021-07-29_22h55.40.351,Simcolourproject_2stim_asymm_v5,2020.2.10,Win32,60,61025ae37ef11b136ea224fe,,,,,,,,,93,-41,104,1,0,0,response7disk,,0,-1,-9,1,0,0,rectangle,-1,-9,1,0,0,-1,-9,1,0,0,0,91,91,108,1,,,,,,,,
,,,,,,,,,,,,,FF,,,,,,,,1.4702,,,,,,,,,,,,,,,,,,,,,,610311f92fb14a35337137e7,610368e807a4a531425213df,2021-07-29_22h55.40.351,Simcolourproject_2stim_asymm_v5,2020.2.10,Win32,60,61025ae37ef11b136ea224fe,,,,,,,,,3697,-50,-77,1,0,0,response5disk,,3,-6,3,1,0,0,rectangle,-6,3,1,0,0,-6,3,1,0,0,0,92,92,45,1,,,,,,,,
,,,,,,,,,,,,,FF,,,,,,,,10.6793,,,,,,,,,,,,,,,,,,,,,,610311f92fb14a35337137e7,610368e807a4a531425213df,2021-07-29_22h55.40.351,Simcolourproject_2stim_asymm_v5,2020.2.10,Win32,60,61025ae37ef11b136ea224fe,,,,,,,,,337,-37,-90,1,0,0,response5disk,,3,6,1,1,0,0,rectangle,-86,-30,1,0,0,1,-2,1,0,0,0,93,93,28,1,,response5disk_3,TRUE,2,2,"[179,288,9,264,233,231,48,310,111,287,66,212,235,2,192,228,94,263,215,36]",1.4831,rectangle
,,,,,,,,,,,,,FF,,,,,,,,0.837,,,,,,,,,,,,,,,,,,,,,,610311f92fb14a35337137e7,610368e807a4a531425213df,2021-07-29_22h55.40.351,Simcolourproject_2stim_asymm_v5,2020.2.10,Win32,60,61025ae37ef11b136ea224fe,,,,,,,,,455,-45,102,1,0,0,response7disk,,0,1,5,1,0,0,rectangle,1,5,1,0,0,1,5,1,0,0,0,94,94,110,1,,,,,,,,
,,,,,,,,,,,,,FF,,,,,,,,4.414900001,,,,,,,,,,,,,,,,,,,,,,610311f92fb14a35337137e7,610368e807a4a531425213df,2021-07-29_22h55.40.351,Simcolourproject_2stim_asymm_v5,2020.2.10,Win32,60,61025ae37ef11b136ea224fe,,,,,,,,,825,-87,28,1,0,0,response7disk,,1,0,-12,1,0,0,rectangle,0,-12,1,0,0,0,-12,1,0,0,0,95,95,26,1,,,,,,,,
,,,,,,,,,,,,,FF,,,,,,,,0.5686,,,,,,,,,,,,,,,,,,,,,,610311f92fb14a35337137e7,610368e807a4a531425213df,2021-07-29_22h55.40.351,Simcolourproject_2stim_asymm_v5,2020.2.10,Win32,60,61025ae37ef11b136ea224fe,,,,,,,,,2608,-58,40,1,0,0,response7disk,,1,-1,-7,1,0,0,rectangle,-1,-7,1,0,0,-1,-7,1,0,0,0,96,96,9,1,,,,,,,,
,,,,,,,,,,,,,FF,,,,,,,,0.586900001,,,,,,,,,,,,,,,,,,,,,,610311f92fb14a35337137e7,610368e807a4a531425213df,2021-07-29_22h55.40.351,Simcolourproject_2stim_asymm_v5,2020.2.10,Win32,60,61025ae37ef11b136ea224fe,,,,,,,,,1815,-77,43,1,0,0,response7disk,,1,-9,15,1,0,0,rectangle,-9,15,1,0,0,-9,15,1,0,0,0,97,97,38,1,,,,,,,,
,,,,,,,,,,,,,FF,,,,,,,,0.945,,,,,,,,,,,,,,,,,,,,,,610311f92fb14a35337137e7,610368e807a4a531425213df,2021-07-29_22h55.40.351,Simcolourproject_2stim_asymm_v5,2020.2.10,Win32,60,61025ae37ef11b136ea224fe,,,,,,,,,3124,-42,-104,1,0,0,response5disk,,3,6,12,1,0,0,rectangle,6,12,1,0,0,6,12,1,0,0,0,98,98,106,1,,,,,,,,
,,,,,,,,,,,,,FF,,,,,,,,0.8161,,,,,,,,,,,,,,,,,,,,,,610311f92fb14a35337137e7,610368e807a4a531425213df,2021-07-29_22h55.40.351,Simcolourproject_2stim_asymm_v5,2020.2.10,Win32,60,61025ae37ef11b136ea224fe,,,,,,,,,2539,51,-57,1,0,0,response3disk,,4,-2,-9,1,0,0,rectangle,-2,-9,1,0,0,-2,-9,1,0,0,0,99,99,111,1,,,,,,,,
,,,,,,,,,,,,,FF,,,,,,,,0.6021,,,,,,,,,,,,,,,,,,,,,,610311f92fb14a35337137e7,610368e807a4a531425213df,2021-07-29_22h55.40.351,Simcolourproject_2stim_asymm_v5,2020.2.10,Win32,60,61025ae37ef11b136ea224fe,,,,,,,,,3010,32,-76,1,0,0,response3disk,,4,-4,-7,1,0,0,rectangle,-4,-7,1,0,0,-4,-7,1,0,0,0,100,100,42,1,,,,,,,,
,,,,,,,,,,,,,FF,,,,,,,,1.3107,,,,,,,,,,,,,,,,,,,,,,610311f92fb14a35337137e7,610368e807a4a531425213df,2021-07-29_22h55.40.351,Simcolourproject_2stim_asymm_v5,2020.2.10,Win32,60,61025ae37ef11b136ea224fe,,,,,,,,,2943,-78,52,1,0,0,response7disk,,1,-4,-11,1,0,0,rectangle,-4,-11,1,0,0,-4,-11,1,0,0,0,101,101,23,1,,,,,,,,
,,,,,,,,,,,,,FF,,,,,,,,1.7023,,,,,,,,,,,,,,,,,,,,,,610311f92fb14a35337137e7,610368e807a4a531425213df,2021-07-29_22h55.40.351,Simcolourproject_2stim_asymm_v5,2020.2.10,Win32,60,61025ae37ef11b136ea224fe,,,,,,,,,1713,-44,-98,1,0,0,response5disk,,3,-3,1,1,0,0,rectangle,-3,1,1,0,0,-3,1,1,0,0,0,102,102,79,1,,,,,,,,
,,,,,,,,,,,,,FF,,,,,,,,1.5598,,,,,,,,,,,,,,,,,,,,,,610311f92fb14a35337137e7,610368e807a4a531425213df,2021-07-29_22h55.40.351,Simcolourproject_2stim_asymm_v5,2020.2.10,Win32,60,61025ae37ef11b136ea224fe,,,,,,,,,2403,28,-113,1,0,0,response3disk,,4,3,6,1,0,0,rectangle,3,6,1,0,0,3,6,1,0,0,0,103,103,92,1,,,,,,,,
,,,,,,,,,,,,,FF,,,,,,,,4.9021,,,,,,,,,,,,,,,,,,,,,,610311f92fb14a35337137e7,610368e807a4a531425213df,2021-07-29_22h55.40.351,Simcolourproject_2stim_asymm_v5,2020.2.10,Win32,60,61025ae37ef11b136ea224fe,,,,,,,,,681,-80,36,1,0,0,response7disk,,1,-2,11,1,0,0,rectangle,-2,11,1,0,0,-2,11,1,0,0,0,104,104,64,1,,,,,,,,
,,,,,,,,,,,,,FF,,,,,,,,0.7515,,,,,,,,,,,,,,,,,,,,,,610311f92fb14a35337137e7,610368e807a4a531425213df,2021-07-29_22h55.40.351,Simcolourproject_2stim_asymm_v5,2020.2.10,Win32,60,61025ae37ef11b136ea224fe,,,,,,,,,1459,-90,48,1,0,0,response7disk,,1,-2,6,1,0,0,rectangle,-2,6,1,0,0,-2,6,1,0,0,0,105,105,33,1,,,,,,,,
,,,,,,,,,,,,,FF,,,,,,,,0.7603,,,,,,,,,,,,,,,,,,,,,,610311f92fb14a35337137e7,610368e807a4a531425213df,2021-07-29_22h55.40.351,Simcolourproject_2stim_asymm_v5,2020.2.10,Win32,60,61025ae37ef11b136ea224fe,,,,,,,,,3195,-50,34,1,0,0,response7disk,,1,9,-12,1,0,0,rectangle,9,-12,1,0,0,9,-12,1,0,0,0,106,106,134,1,,,,,,,,
,,,,,,,,,,,,,FF,,,,,,,,6.5083,,,,,,,,,,,,,,,,,,,,,,610311f92fb14a35337137e7,610368e807a4a531425213df,2021-07-29_22h55.40.351,Simcolourproject_2stim_asymm_v5,2020.2.10,Win32,60,61025ae37ef11b136ea224fe,,,,,,,,,2293,-40,-88,1,0,0,response5disk,,3,8,-2,1,0,0,rectangle,8,-2,1,0,0,8,-2,1,0,0,0,107,107,81,1,,,,,,,,
,,,,,,,,,,,,,FF,,,,,,,,0.8369,,,,,,,,,,,,,,,,,,,,,,610311f92fb14a35337137e7,610368e807a4a531425213df,2021-07-29_22h55.40.351,Simcolourproject_2stim_asymm_v5,2020.2.10,Win32,60,61025ae37ef11b136ea224fe,,,,,,,,,4012,39,-94,1,0,0,response3disk,,4,7,4,1,0,0,rectangle,7,4,1,0,0,7,4,1,0,0,0,108,108,75,1,,,,,,,,
,,,,,,,,,,,,,FF,,,,,,,,0.6606,,,,,,,,,,,,,,,,,,,,,,610311f92fb14a35337137e7,610368e807a4a531425213df,2021-07-29_22h55.40.351,Simcolourproject_2stim_asymm_v5,2020.2.10,Win32,60,61025ae37ef11b136ea224fe,,,,,,,,,3737,53,-105,1,0,0,response3disk,,4,10,5,1,0,0,rectangle,10,5,1,0,0,10,5,1,0,0,0,109,109,35,1,,,,,,,,
,,,,,,,,,,,,,FF,,,,,,,,1.8825,,,,,,,,,,,,,,,,,,,,,,610311f92fb14a35337137e7,610368e807a4a531425213df,2021-07-29_22h55.40.351,Simcolourproject_2stim_asymm_v5,2020.2.10,Win32,60,61025ae37ef11b136ea224fe,,,,,,,,,2847,-86,-23,1,0,0,response5disk,,2,1,12,1,0,0,rectangle,26,75,1,0,0,-2,-7,1,0,0,0,110,110,34,1,,response1disk_3,TRUE,7,7,"[179,288,9,264,233,231,48,310,111,287,66,212,235,2,192,228,94,263,215,36]",1.9321,rectangle
,,,,,,,,,,,,,FF,,,,,,,,1.509200001,,,,,,,,,,,,,,,,,,,,,,610311f92fb14a35337137e7,610368e807a4a531425213df,2021-07-29_22h55.40.351,Simcolourproject_2stim_asymm_v5,2020.2.10,Win32,60,61025ae37ef11b136ea224fe,,,,,,,,,2547,-91,31,1,0,0,response7disk,,1,-13,10,1,0,0,rectangle,-13,10,1,0,0,-13,10,1,0,0,0,111,111,17,1,,,,,,,,
,,,,,,,,,,,,,FF,,,,,,,,1.0338,,,,,,,,,,,,,,,,,,,,,,610311f92fb14a35337137e7,610368e807a4a531425213df,2021-07-29_22h55.40.351,Simcolourproject_2stim_asymm_v5,2020.2.10,Win32,60,61025ae37ef11b136ea224fe,,,,,,,,,2188,-61,-88,1,0,0,response5disk,,3,-13,-8,1,0,0,rectangle,-13,-8,1,0,0,-13,-8,1,0,0,0,112,112,96,1,,,,,,,,
,,,,,,,,,,,,,FF,,,,,,,,1.0247,,,,,,,,,,,,,,,,,,,,,,610311f92fb14a35337137e7,610368e807a4a531425213df,2021-07-29_22h55.40.351,Simcolourproject_2stim_asymm_v5,2020.2.10,Win32,60,61025ae37ef11b136ea224fe,,,,,,,,,3560,-77,35,1,0,0,response7disk,,1,1,8,1,0,0,rectangle,1,8,1,0,0,1,8,1,0,0,0,113,113,116,1,,,,,,,,
,,,,,,,,,,,,,FF,,,,,,,,4.0699,,,,,,,,,,,,,,,,,,,,,,610311f92fb14a35337137e7,610368e807a4a531425213df,2021-07-29_22h55.40.351,Simcolourproject_2stim_asymm_v5,2020.2.10,Win32,60,61025ae37ef11b136ea224fe,,,,,,,,,2937,-39,-93,1,0,0,response5disk,,3,-1,-4,1,0,0,rectangle,-1,-4,1,0,0,-1,-4,1,0,0,0,114,114,48,1,,,,,,,,
,,,,,,,,,,,,,FF,,,,,,,,2.553,,,,,,,,,,,,,,,,,,,,,,610311f92fb14a35337137e7,610368e807a4a531425213df,2021-07-29_22h55.40.351,Simcolourproject_2stim_asymm_v5,2020.2.10,Win32,60,61025ae37ef11b136ea224fe,,,,,,,,,2075,73,-49,1,0,0,response3disk,,5,-10,3,1,0,0,rectangle,-10,3,1,0,0,-10,3,1,0,0,0,115,115,89,1,,,,,,,,
,,,,,,,,,,,,,FF,,,,,,,,4.094799999,,,,,,,,,,,,,,,,,,,,,,610311f92fb14a35337137e7,610368e807a4a531425213df,2021-07-29_22h55.40.351,Simcolourproject_2stim_asymm_v5,2020.2.10,Win32,60,61025ae37ef11b136ea224fe,,,,,,,,,229,22,-94,1,0,0,response3disk,,4,19,6,1,0,0,rectangle,19,6,1,0,0,19,6,1,0,0,0,116,116,97,1,,,,,,,,
,,,,,,,,,,,,,FF,,,,,,,,0.9891,,,,,,,,,,,,,,,,,,,,,,610311f92fb14a35337137e7,610368e807a4a531425213df,2021-07-29_22h55.40.351,Simcolourproject_2stim_asymm_v5,2020.2.10,Win32,60,61025ae37ef11b136ea224fe,,,,,,,,,2410,-51,-97,1,0,0,response5disk,,3,-1,13,1,0,0,rectangle,-1,13,1,0,0,-1,13,1,0,0,0,117,117,83,1,,,,,,,,
,,,,,,,,,,,,,FF,,,,,,,,1.2194,,,,,,,,,,,,,,,,,,,,,,610311f92fb14a35337137e7,610368e807a4a531425213df,2021-07-29_22h55.40.351,Simcolourproject_2stim_asymm_v5,2020.2.10,Win32,60,61025ae37ef11b136ea224fe,,,,,,,,,446,78,-35,1,0,0,response3disk,,5,-23,12,1,0,0,rectangle,-23,12,1,0,0,-23,12,1,0,0,0,118,118,76,1,,,,,,,,
,,,,,,,,,,,,,FF,,,,,,,,1.050099999,,,,,,,,,,,,,,,,,,,,,,610311f92fb14a35337137e7,610368e807a4a531425213df,2021-07-29_22h55.40.351,Simcolourproject_2stim_asymm_v5,2020.2.10,Win32,60,61025ae37ef11b136ea224fe,,,,,,,,,1811,63,-32,1,0,0,response3disk,,5,-34,13,1,0,0,rectangle,-34,13,1,0,0,-34,13,1,0,0,0,119,119,57,1,,,,,,,,
,,,,,,,,,,,,,FF,,,,,,,,1.0723,,,,,,,,,,,,,,,,,,,,,,610311f92fb14a35337137e7,610368e807a4a531425213df,2021-07-29_22h55.40.351,Simcolourproject_2stim_asymm_v5,2020.2.10,Win32,60,61025ae37ef11b136ea224fe,,,,,,,,,2515,54,-89,1,0,0,response3disk,,4,1,4,1,0,0,rectangle,1,4,1,0,0,1,4,1,0,0,0,120,120,61,1,,,,,,,,
,,,,,,,,,,,,,FF,,,,,,,,10.9648,,,,,,,,,,,,,,,,,,,,,,610311f92fb14a35337137e7,610368e807a4a531425213df,2021-07-29_22h55.40.351,Simcolourproject_2stim_asymm_v5,2020.2.10,Win32,60,61025ae37ef11b136ea224fe,,,,,,,,,569,21,-52,1,0,0,response3disk,,4,2,1,1,0,0,rectangle,2,1,1,0,0,2,1,1,0,0,0,121,121,143,1,,,,,,,,
,,,,,,,,,,,,,FF,,,,,,,,11.8323,,,,,,,,,,,,,,,,,,,,,,610311f92fb14a35337137e7,610368e807a4a531425213df,2021-07-29_22h55.40.351,Simcolourproject_2stim_asymm_v5,2020.2.10,Win32,60,61025ae37ef11b136ea224fe,,,,,,,,,2181,34,-72,1,0,0,response3disk,,4,10,-6,1,0,0,rectangle,10,-6,1,0,0,10,-6,1,0,0,0,122,122,131,1,,,,,,,,
,,,,,,,,,,,,,FF,,,,,,,,0.9153,,,,,,,,,,,,,,,,,,,,,,610311f92fb14a35337137e7,610368e807a4a531425213df,2021-07-29_22h55.40.351,Simcolourproject_2stim_asymm_v5,2020.2.10,Win32,60,61025ae37ef11b136ea224fe,,,,,,,,,2240,-53,24,1,0,0,response7disk,,1,-4,1,1,0,0,rectangle,-4,1,1,0,0,-4,1,1,0,0,0,123,123,115,1,,,,,,,,
,,,,,,,,,,,,,FF,,,,,,,,0.733099999,,,,,,,,,,,,,,,,,,,,,,610311f92fb14a35337137e7,610368e807a4a531425213df,2021-07-29_22h55.40.351,Simcolourproject_2stim_asymm_v5,2020.2.10,Win32,60,61025ae37ef11b136ea224fe,,,,,,,,,3156,-78,64,1,0,0,response7disk,,1,-8,5,1,0,0,rectangle,-8,5,1,0,0,-8,5,1,0,0,0,124,124,49,1,,,,,,,,
,,,,,,,,,,,,,FF,,,,,,,,1.5276,,,,,,,,,,,,,,,,,,,,,,610311f92fb14a35337137e7,610368e807a4a531425213df,2021-07-29_22h55.40.351,Simcolourproject_2stim_asymm_v5,2020.2.10,Win32,60,61025ae37ef11b136ea224fe,,,,,,,,,327,79,-41,1,0,0,response3disk,,5,1,8,1,0,0,rectangle,1,8,1,0,0,1,8,1,0,0,0,125,125,141,1,,,,,,,,
,,,,,,,,,,,,,FF,,,,,,,,1.334299999,,,,,,,,,,,,,,,,,,,,,,610311f92fb14a35337137e7,610368e807a4a531425213df,2021-07-29_22h55.40.351,Simcolourproject_2stim_asymm_v5,2020.2.10,Win32,60,61025ae37ef11b136ea224fe,,,,,,,,,999,-51,-87,1,0,0,response5disk,,3,1,-8,1,0,0,rectangle,1,-8,1,0,0,1,-8,1,0,0,0,126,126,36,1,,,,,,,,
,,,,,,,,,,,,,FF,,,,,,,,1.6167,,,,,,,,,,,,,,,,,,,,,,610311f92fb14a35337137e7,610368e807a4a531425213df,2021-07-29_22h55.40.351,Simcolourproject_2stim_asymm_v5,2020.2.10,Win32,60,61025ae37ef11b136ea224fe,,,,,,,,,3313,58,-36,1,0,0,response3disk,,5,-7,7,1,0,0,rectangle,-7,7,1,0,0,-7,7,1,0,0,0,127,127,77,1,,,,,,,,
,,,,,,,,,,,,,FF,,,,,,,,0.990599999,,,,,,,,,,,,,,,,,,,,,,610311f92fb14a35337137e7,610368e807a4a531425213df,2021-07-29_22h55.40.351,Simcolourproject_2stim_asymm_v5,2020.2.10,Win32,60,61025ae37ef11b136ea224fe,,,,,,,,,3542,65,-33,1,0,0,response3disk,,5,13,9,1,0,0,rectangle,13,9,1,0,0,13,9,1,0,0,0,128,128,67,1,,,,,,,,
,,,,,,,,,,,,,FF,,,,,,,,0.934400001,,,,,,,,,,,,,,,,,,,,,,610311f92fb14a35337137e7,610368e807a4a531425213df,2021-07-29_22h55.40.351,Simcolourproject_2stim_asymm_v5,2020.2.10,Win32,60,61025ae37ef11b136ea224fe,,,,,,,,,2574,59,-32,1,0,0,response3disk,,5,0,4,1,0,0,rectangle,0,4,1,0,0,0,4,1,0,0,0,129,129,11,1,,,,,,,,
,,,,,,,,,,,,,FF,,,,,,,,1.0257,,,,,,,,,,,,,,,,,,,,,,610311f92fb14a35337137e7,610368e807a4a531425213df,2021-07-29_22h55.40.351,Simcolourproject_2stim_asymm_v5,2020.2.10,Win32,60,61025ae37ef11b136ea224fe,,,,,,,,,1029,-81,28,1,0,0,response7disk,,1,-19,-1,1,0,0,rectangle,-19,-1,1,0,0,-19,-1,1,0,0,0,130,130,70,1,,,,,,,,
,,,,,,,,,,,,,FF,,,,,,,,0.964299999,,,,,,,,,,,,,,,,,,,,,,610311f92fb14a35337137e7,610368e807a4a531425213df,2021-07-29_22h55.40.351,Simcolourproject_2stim_asymm_v5,2020.2.10,Win32,60,61025ae37ef11b136ea224fe,,,,,,,,,3777,-52,85,1,0,0,response7disk,,0,-16,11,1,0,0,rectangle,-16,11,1,0,0,-16,11,1,0,0,0,131,131,82,1,,,,,,,,
,,,,,,,,,,,,,FF,,,,,,,,1.735400001,,,,,,,,,,,,,,,,,,,,,,610311f92fb14a35337137e7,610368e807a4a531425213df,2021-07-29_22h55.40.351,Simcolourproject_2stim_asymm_v5,2020.2.10,Win32,60,61025ae37ef11b136ea224fe,,,,,,,,,1441,-83,-42,1,0,0,response5disk,,2,-1,-4,1,0,0,rectangle,-1,-4,1,0,0,-1,-4,1,0,0,0,132,132,123,1,,,,,,,,
,,,,,,,,,,,,,FF,,,,,,,,1.385099999,,,,,,,,,,,,,,,,,,,,,,610311f92fb14a35337137e7,610368e807a4a531425213df,2021-07-29_22h55.40.351,Simcolourproject_2stim_asymm_v5,2020.2.10,Win32,60,61025ae37ef11b136ea224fe,,,,,,,,,1709,78,-21,1,0,0,response3disk,,5,5,2,1,0,0,rectangle,5,2,1,0,0,5,2,1,0,0,0,133,133,114,1,,,,,,,,
,,,,,,,,,,,,,FF,,,,,,,,0.8873,,,,,,,,,,,,,,,,,,,,,,610311f92fb14a35337137e7,610368e807a4a531425213df,2021-07-29_22h55.40.351,Simcolourproject_2stim_asymm_v5,2020.2.10,Win32,60,61025ae37ef11b136ea224fe,,,,,,,,,191,-82,74,1,0,0,response7disk,,1,-6,10,1,0,0,rectangle,-6,10,1,0,0,-6,10,1,0,0,0,134,134,129,1,,,,,,,,
,,,,,,,,,,,,,FF,,,,,,,,0.954099999,,,,,,,,,,,,,,,,,,,,,,610311f92fb14a35337137e7,610368e807a4a531425213df,2021-07-29_22h55.40.351,Simcolourproject_2stim_asymm_v5,2020.2.10,Win32,60,61025ae37ef11b136ea224fe,,,,,,,,,3042,-49,-87,1,0,0,response5disk,,3,-1,2,1,0,0,rectangle,-1,2,1,0,0,-1,2,1,0,0,0,135,135,145,1,,,,,,,,
,,,,,,,,,,,,,FF,,,,,,,,1.001200001,,,,,,,,,,,,,,,,,,,,,,610311f92fb14a35337137e7,610368e807a4a531425213df,2021-07-29_22h55.40.351,Simcolourproject_2stim_asymm_v5,2020.2.10,Win32,60,61025ae37ef11b136ea224fe,,,,,,,,,366,-45,83,1,0,0,response7disk,,0,-5,7,1,0,0,rectangle,-5,7,1,0,0,-5,7,1,0,0,0,136,136,90,1,,,,,,,,
,,,,,,,,,,,,,FF,,,,,,,,0.8117,,,,,,,,,,,,,,,,,,,,,,610311f92fb14a35337137e7,610368e807a4a531425213df,2021-07-29_22h55.40.351,Simcolourproject_2stim_asymm_v5,2020.2.10,Win32,60,61025ae37ef11b136ea224fe,,,,,,,,,3278,88,-42,1,0,0,response3disk,,5,19,-11,1,0,0,rectangle,19,-11,1,0,0,19,-11,1,0,0,0,137,137,150,1,,,,,,,,
,,,,,,,,,,,,,FF,,,,,,,,0.8776,,,,,,,,,,,,,,,,,,,,,,610311f92fb14a35337137e7,610368e807a4a531425213df,2021-07-29_22h55.40.351,Simcolourproject_2stim_asymm_v5,2020.2.10,Win32,60,61025ae37ef11b136ea224fe,,,,,,,,,2722,-76,40,1,0,0,response7disk,,1,-24,6,1,0,0,rectangle,-24,6,1,0,0,-24,6,1,0,0,0,138,138,30,1,,,,,,,,
,,,,,,,,,,,,,FF,,,,,,,,1.170599999,,,,,,,,,,,,,,,,,,,,,,610311f92fb14a35337137e7,610368e807a4a531425213df,2021-07-29_22h55.40.351,Simcolourproject_2stim_asymm_v5,2020.2.10,Win32,60,61025ae37ef11b136ea224fe,,,,,,,,,3610,-32,-87,1,0,0,response5disk,,3,3,-5,1,0,0,rectangle,3,-5,1,0,0,3,-5,1,0,0,0,139,139,91,1,,,,,,,,
,,,,,,,,,,,,,FF,,,,,,,,0.8022,,,,,,,,,,,,,,,,,,,,,,610311f92fb14a35337137e7,610368e807a4a531425213df,2021-07-29_22h55.40.351,Simcolourproject_2stim_asymm_v5,2020.2.10,Win32,60,61025ae37ef11b136ea224fe,,,,,,,,,2241,-65,23,1,0,0,response7disk,,1,-17,7,1,0,0,rectangle,-17,7,1,0,0,-17,7,1,0,0,0,140,140,119,1,,,,,,,,
,,,,,,,,,,,,,FF,,,,,,,,0.8557,,,,,,,,,,,,,,,,,,,,,,610311f92fb14a35337137e7,610368e807a4a531425213df,2021-07-29_22h55.40.351,Simcolourproject_2stim_asymm_v5,2020.2.10,Win32,60,61025ae37ef11b136ea224fe,,,,,,,,,3236,-69,-59,1,0,0,response5disk,,2,-3,-3,1,0,0,rectangle,-3,-3,1,0,0,-3,-3,1,0,0,0,141,141,63,1,,,,,,,,
,,,,,,,,,,,,,FF,,,,,,,,0.832099999,,,,,,,,,,,,,,,,,,,,,,610311f92fb14a35337137e7,610368e807a4a531425213df,2021-07-29_22h55.40.351,Simcolourproject_2stim_asymm_v5,2020.2.10,Win32,60,61025ae37ef11b136ea224fe,,,,,,,,,3941,-94,-57,1,0,0,response5disk,,2,-12,10,1,0,0,rectangle,-12,10,1,0,0,-12,10,1,0,0,0,142,142,32,1,,,,,,,,
,,,,,,,,,,,,,FF,,,,,,,,1.180299999,,,,,,,,,,,,,,,,,,,,,,610311f92fb14a35337137e7,610368e807a4a531425213df,2021-07-29_22h55.40.351,Simcolourproject_2stim_asymm_v5,2020.2.10,Win32,60,61025ae37ef11b136ea224fe,,,,,,,,,2737,-40,-93,1,0,0,response5disk,,3,1,-12,1,0,0,rectangle,1,-12,1,0,0,1,-12,1,0,0,0,143,143,132,1,,,,,,,,
,,,,,,,,,,,,,FF,,,,,,,,1.2994,,,,,,,,,,,,,,,,,,,,,,610311f92fb14a35337137e7,610368e807a4a531425213df,2021-07-29_22h55.40.351,Simcolourproject_2stim_asymm_v5,2020.2.10,Win32,60,61025ae37ef11b136ea224fe,,,,,,,,,1566,38,-91,1,0,0,response3disk,,4,10,-4,1,0,0,rectangle,10,-4,1,0,0,10,-4,1,0,0,0,144,144,0,1,,,,,,,,
,,,,,,,,,,,,,FF,,,,,,,,0.8204,,,,,,,,,,,,,,,,,,,,,,610311f92fb14a35337137e7,610368e807a4a531425213df,2021-07-29_22h55.40.351,Simcolourproject_2stim_asymm_v5,2020.2.10,Win32,60,61025ae37ef11b136ea224fe,,,,,,,,,1819,-72,39,1,0,0,response7disk,,1,0,-4,1,0,0,rectangle,0,-4,1,0,0,0,-4,1,0,0,0,145,145,65,1,,,,,,,,
,,,,,,,,,,,,,FF,,,,,,,,1.9996,,,,,,,,,,,,,,,,,,,,,,610311f92fb14a35337137e7,610368e807a4a531425213df,2021-07-29_22h55.40.351,Simcolourproject_2stim_asymm_v5,2020.2.10,Win32,60,61025ae37ef11b136ea224fe,,,,,,,,,1881,-36,-96,1,0,0,response5disk,,3,-6,-12,1,0,0,rectangle,-6,-12,1,0,0,-6,-12,1,0,0,0,146,146,46,1,,,,,,,,
,,,,,,,,,,,,,FF,,,,,,,,1.2038,,,,,,,,,,,,,,,,,,,,,,610311f92fb14a35337137e7,610368e807a4a531425213df,2021-07-29_22h55.40.351,Simcolourproject_2stim_asymm_v5,2020.2.10,Win32,60,61025ae37ef11b136ea224fe,,,,,,,,,3877,-86,22,1,0,0,response7disk,,1,-2,9,1,0,0,rectangle,-2,9,1,0,0,-2,9,1,0,0,0,147,147,27,1,,,,,,,,
,,,,,,,,,,,,,FF,,,,,,,,1.315200001,,,,,,,,,,,,,,,,,,,,,,610311f92fb14a35337137e7,610368e807a4a531425213df,2021-07-29_22h55.40.351,Simcolourproject_2stim_asymm_v5,2020.2.10,Win32,60,61025ae37ef11b136ea224fe,,,,,,,,,1469,-89,32,1,0,0,response7disk,,1,-7,0,1,0,0,rectangle,-7,0,1,0,0,-7,0,1,0,0,0,148,148,127,1,,,,,,,,
,,,,,,,,,,,,,FF,,,,,,,,0.7098,,,,,,,,,,,,,,,,,,,,,,610311f92fb14a35337137e7,610368e807a4a531425213df,2021-07-29_22h55.40.351,Simcolourproject_2stim_asymm_v5,2020.2.10,Win32,60,61025ae37ef11b136ea224fe,,,,,,,,,1365,-72,42,1,0,0,response7disk,,1,-19,11,1,0,0,rectangle,-19,11,1,0,0,-19,11,1,0,0,0,149,149,50,1,,,,,,,,
,,,,,,,,,,,,,FF,,,,,,,,0.7701,,,,,,,,,,,,,,,,,,,,,,610311f92fb14a35337137e7,610368e807a4a531425213df,2021-07-29_22h55.40.351,Simcolourproject_2stim_asymm_v5,2020.2.10,Win32,60,61025ae37ef11b136ea224fe,,,,,,,,,3277,-93,-30,1,0,0,response5disk,,2,-5,4,1,0,0,rectangle,-5,4,1,0,0,-5,4,1,0,0,0,150,150,8,1,,,,,,,,
,,,,,,,,,,,,,FF,,,,,,,,1.8566,,,,,,,,,,,,,,,,,,,,,,610311f92fb14a35337137e7,610368e807a4a531425213df,2021-07-29_22h55.40.351,Simcolourproject_2stim_asymm_v5,2020.2.10,Win32,60,61025ae37ef11b136ea224fe,,,,,,,,,1742,-42,-110,1,0,0,response5disk,,3,0,9,1,0,0,rectangle,0,9,1,0,0,0,9,1,0,0,0,151,151,12,1,,,,,,,,
,,,,,,,,,,,,,FF,,,,,,,,0.7566,,,,,,,,,,,,,,,,,,,,,,610311f92fb14a35337137e7,610368e807a4a531425213df,2021-07-29_22h55.40.351,Simcolourproject_2stim_asymm_v5,2020.2.10,Win32,60,61025ae37ef11b136ea224fe,,,,,,,,,2647,-63,39,1,0,0,response7disk,,1,-8,11,1,0,0,rectangle,-8,11,1,0,0,-8,11,1,0,0,0,152,152,40,1,,,,,,,,
,,,,,,,,,,,,,FF,,,,,,,,29.9689,,,,,,,,,,,,,,,,,,,,,,610311f92fb14a35337137e7,610368e807a4a531425213df,2021-07-29_22h55.40.351,Simcolourproject_2stim_asymm_v5,2020.2.10,Win32,60,61025ae37ef11b136ea224fe,,,,,,,,,1197,41,-94,1,0,0,response3disk,,4,-10,14,1,0,0,rectangle,-10,14,1,0,0,-10,14,1,0,0,0,153,153,126,1,,,,,,,,
,,,,,,,,,,,,,FF,,,,,,,,1.025599999,,,,,,,,,,,,,,,,,,,,,,610311f92fb14a35337137e7,610368e807a4a531425213df,2021-07-29_22h55.40.351,Simcolourproject_2stim_asymm_v5,2020.2.10,Win32,60,61025ae37ef11b136ea224fe,,,,,,,,,54,-42,-101,1,0,0,response5disk,,3,5,2,1,0,0,rectangle,5,2,1,0,0,5,2,1,0,0,0,154,154,74,1,,,,,,,,
,,,,,,,,,,,,,FF,,,,,,,,1.2041,,,,,,,,,,,,,,,,,,,,,,610311f92fb14a35337137e7,610368e807a4a531425213df,2021-07-29_22h55.40.351,Simcolourproject_2stim_asymm_v5,2020.2.10,Win32,60,61025ae37ef11b136ea224fe,,,,,,,,,1530,-54,86,1,0,0,response7disk,,0,-4,14,1,0,0,rectangle,-4,14,1,0,0,-4,14,1,0,0,0,155,155,146,1,,,,,,,,
,,,,,,,,,,,,,FF,,,,,,,,0.8448,,,,,,,,,,,,,,,,,,,,,,610311f92fb14a35337137e7,610368e807a4a531425213df,2021-07-29_22h55.40.351,Simcolourproject_2stim_asymm_v5,2020.2.10,Win32,60,61025ae37ef11b136ea224fe,,,,,,,,,1466,-49,84,1,0,0,response7disk,,0,-2,7,1,0,0,rectangle,-2,7,1,0,0,-2,7,1,0,0,0,156,156,37,1,,,,,,,,
,,,,,,,,,,,,,FF,,,,,,,,0.5525,,,,,,,,,,,,,,,,,,,,,,610311f92fb14a35337137e7,610368e807a4a531425213df,2021-07-29_22h55.40.351,Simcolourproject_2stim_asymm_v5,2020.2.10,Win32,60,61025ae37ef11b136ea224fe,,,,,,,,,4134,-59,33,1,0,0,response7disk,,1,-27,4,1,0,0,rectangle,-27,4,1,0,0,-27,4,1,0,0,0,157,157,20,1,,,,,,,,
,,,,,,,,,,,,,FF,,,,,,,,0.8332,,,,,,,,,,,,,,,,,,,,,,610311f92fb14a35337137e7,610368e807a4a531425213df,2021-07-29_22h55.40.351,Simcolourproject_2stim_asymm_v5,2020.2.10,Win32,60,61025ae37ef11b136ea224fe,,,,,,,,,3061,-41,-68,1,0,0,response5disk,,3,9,14,1,0,0,rectangle,9,14,1,0,0,9,14,1,0,0,0,158,158,84,1,,,,,,,,
,,,,,,,,,,,,,FF,,,,,,,,2.5308,,,,,,,,,,,,,,,,,,,,,,610311f92fb14a35337137e7,610368e807a4a531425213df,2021-07-29_22h55.40.351,Simcolourproject_2stim_asymm_v5,2020.2.10,Win32,60,61025ae37ef11b136ea224fe,,,,,,,,,2122,75,34,1,0,0,response1disk,,6,-16,1,1,0,0,rectangle,-16,1,1,0,0,-16,1,1,0,0,0,159,159,69,1,,,,,,,,
,,,,,,,,,,,,,FF,,,,,,,,1.3333,,,,,,,,,,,,,,,,,,,,,,610311f92fb14a35337137e7,610368e807a4a531425213df,2021-07-29_22h55.40.351,Simcolourproject_2stim_asymm_v5,2020.2.10,Win32,60,61025ae37ef11b136ea224fe,,,,,,,,,2124,36,-111,1,0,0,response3disk,,4,3,-3,1,0,0,rectangle,3,-3,1,0,0,3,-3,1,0,0,1,0,160,47,1,,,,,,,,
,,,,,,,,,,,,,FF,,,,,,,,0.840900001,,,,,,,,,,,,,,,,,,,,,,610311f92fb14a35337137e7,610368e807a4a531425213df,2021-07-29_22h55.40.351,Simcolourproject_2stim_asymm_v5,2020.2.10,Win32,60,61025ae37ef11b136ea224fe,,,,,,,,,1373,-66,43,1,0,0,response7disk,,1,-3,-1,1,0,0,rectangle,-3,-1,1,0,0,-3,-1,1,0,0,1,1,161,27,1,,,,,,,,
,,,,,,,,,,,,,FF,,,,,,,,1.213599999,,,,,,,,,,,,,,,,,,,,,,610311f92fb14a35337137e7,610368e807a4a531425213df,2021-07-29_22h55.40.351,Simcolourproject_2stim_asymm_v5,2020.2.10,Win32,60,61025ae37ef11b136ea224fe,,,,,,,,,1729,-48,-89,1,0,0,response5disk,,3,-6,7,1,0,0,rectangle,-6,7,1,0,0,-6,7,1,0,0,1,2,162,157,1,,,,,,,,
,,,,,,,,,,,,,FF,,,,,,,,0.8722,,,,,,,,,,,,,,,,,,,,,,610311f92fb14a35337137e7,610368e807a4a531425213df,2021-07-29_22h55.40.351,Simcolourproject_2stim_asymm_v5,2020.2.10,Win32,60,61025ae37ef11b136ea224fe,,,,,,,,,4217,72,-41,1,0,0,response3disk,,5,25,-4,1,0,0,rectangle,25,-4,1,0,0,25,-4,1,0,0,1,3,163,61,1,,,,,,,,
,,,,,,,,,,,,,FF,,,,,,,,0.7504,,,,,,,,,,,,,,,,,,,,,,610311f92fb14a35337137e7,610368e807a4a531425213df,2021-07-29_22h55.40.351,Simcolourproject_2stim_asymm_v5,2020.2.10,Win32,60,61025ae37ef11b136ea224fe,,,,,,,,,996,-41,-83,1,0,0,response5disk,,3,-5,4,1,0,0,rectangle,-5,4,1,0,0,-5,4,1,0,0,1,4,164,105,1,,,,,,,,
,,,,,,,,,,,,,FF,,,,,,,,0.6147,,,,,,,,,,,,,,,,,,,,,,610311f92fb14a35337137e7,610368e807a4a531425213df,2021-07-29_22h55.40.351,Simcolourproject_2stim_asymm_v5,2020.2.10,Win32,60,61025ae37ef11b136ea224fe,,,,,,,,,2882,-59,-19,1,0,0,response5disk,,2,-3,-8,1,0,0,rectangle,-3,-8,1,0,0,-3,-8,1,0,0,1,5,165,8,1,,,,,,,,
,,,,,,,,,,,,,FF,,,,,,,,0.8383,,,,,,,,,,,,,,,,,,,,,,610311f92fb14a35337137e7,610368e807a4a531425213df,2021-07-29_22h55.40.351,Simcolourproject_2stim_asymm_v5,2020.2.10,Win32,60,61025ae37ef11b136ea224fe,,,,,,,,,642,-71,36,1,0,0,response7disk,,1,15,10,1,0,0,rectangle,15,10,1,0,0,15,10,1,0,0,1,6,166,51,1,,,,,,,,
,,,,,,,,,,,,,FF,,,,,,,,0.4684,,,,,,,,,,,,,,,,,,,,,,610311f92fb14a35337137e7,610368e807a4a531425213df,2021-07-29_22h55.40.351,Simcolourproject_2stim_asymm_v5,2020.2.10,Win32,60,61025ae37ef11b136ea224fe,,,,,,,,,1620,-62,-76,1,0,0,response5disk,,3,-18,12,1,0,0,rectangle,-18,12,1,0,0,-18,12,1,0,0,1,7,167,108,1,,,,,,,,
,,,,,,,,,,,,,FF,,,,,,,,0.817700001,,,,,,,,,,,,,,,,,,,,,,610311f92fb14a35337137e7,610368e807a4a531425213df,2021-07-29_22h55.40.351,Simcolourproject_2stim_asymm_v5,2020.2.10,Win32,60,61025ae37ef11b136ea224fe,,,,,,,,,1083,-49,-92,1,0,0,response5disk,,3,-14,6,1,0,0,rectangle,-14,6,1,0,0,-14,6,1,0,0,1,8,168,110,1,,,,,,,,
,,,,,,,,,,,,,FF,,,,,,,,0.914099999,,,,,,,,,,,,,,,,,,,,,,610311f92fb14a35337137e7,610368e807a4a531425213df,2021-07-29_22h55.40.351,Simcolourproject_2stim_asymm_v5,2020.2.10,Win32,60,61025ae37ef11b136ea224fe,,,,,,,,,3048,33,-75,1,0,0,response3disk,,4,-1,0,1,0,0,rectangle,-1,0,1,0,0,-1,0,1,0,0,1,9,169,46,1,,,,,,,,
,,,,,,,,,,,,,FF,,,,,,,,1.0303,,,,,,,,,,,,,,,,,,,,,,610311f92fb14a35337137e7,610368e807a4a531425213df,2021-07-29_22h55.40.351,Simcolourproject_2stim_asymm_v5,2020.2.10,Win32,60,61025ae37ef11b136ea224fe,,,,,,,,,1348,19,-76,1,0,0,response3disk,,4,0,1,1,0,0,rectangle,0,1,1,0,0,0,1,1,0,0,1,10,170,3,1,,,,,,,,
,,,,,,,,,,,,,FF,,,,,,,,0.7922,,,,,,,,,,,,,,,,,,,,,,610311f92fb14a35337137e7,610368e807a4a531425213df,2021-07-29_22h55.40.351,Simcolourproject_2stim_asymm_v5,2020.2.10,Win32,60,61025ae37ef11b136ea224fe,,,,,,,,,1199,-90,-53,1,0,0,response5disk,,2,-24,-9,1,0,0,rectangle,-24,-9,1,0,0,-24,-9,1,0,0,1,11,171,55,1,,,,,,,,
,,,,,,,,,,,,,FF,,,,,,,,0.733900001,,,,,,,,,,,,,,,,,,,,,,610311f92fb14a35337137e7,610368e807a4a531425213df,2021-07-29_22h55.40.351,Simcolourproject_2stim_asymm_v5,2020.2.10,Win32,60,61025ae37ef11b136ea224fe,,,,,,,,,3906,-34,94,1,0,0,response7disk,,0,5,8,1,0,0,rectangle,5,8,1,0,0,5,8,1,0,0,1,12,172,89,1,,,,,,,,
,,,,,,,,,,,,,FF,,,,,,,,0.6755,,,,,,,,,,,,,,,,,,,,,,610311f92fb14a35337137e7,610368e807a4a531425213df,2021-07-29_22h55.40.351,Simcolourproject_2stim_asymm_v5,2020.2.10,Win32,60,61025ae37ef11b136ea224fe,,,,,,,,,311,-107,-50,1,0,0,response5disk,,2,-3,1,1,0,0,rectangle,-3,1,1,0,0,-3,1,1,0,0,1,13,173,104,1,,,,,,,,
,,,,,,,,,,,,,FF,,,,,,,,0.7248,,,,,,,,,,,,,,,,,,,,,,610311f92fb14a35337137e7,610368e807a4a531425213df,2021-07-29_22h55.40.351,Simcolourproject_2stim_asymm_v5,2020.2.10,Win32,60,61025ae37ef11b136ea224fe,,,,,,,,,4245,-80,-38,1,0,0,response5disk,,2,-13,-6,1,0,0,rectangle,-13,-6,1,0,0,-13,-6,1,0,0,1,14,174,132,1,,,,,,,,
,,,,,,,,,,,,,FF,,,,,,,,0.7455,,,,,,,,,,,,,,,,,,,,,,610311f92fb14a35337137e7,610368e807a4a531425213df,2021-07-29_22h55.40.351,Simcolourproject_2stim_asymm_v5,2020.2.10,Win32,60,61025ae37ef11b136ea224fe,,,,,,,,,198,-39,-91,1,0,0,response5disk,,3,3,6,1,0,0,rectangle,3,6,1,0,0,3,6,1,0,0,1,15,175,96,1,,,,,,,,
,,,,,,,,,,,,,FF,,,,,,,,0.77,,,,,,,,,,,,,,,,,,,,,,610311f92fb14a35337137e7,610368e807a4a531425213df,2021-07-29_22h55.40.351,Simcolourproject_2stim_asymm_v5,2020.2.10,Win32,60,61025ae37ef11b136ea224fe,,,,,,,,,3194,-37,-100,1,0,0,response5disk,,3,1,4,1,0,0,rectangle,1,4,1,0,0,1,4,1,0,0,1,16,176,71,1,,,,,,,,
,,,,,,,,,,,,,FF,,,,,,,,0.957,,,,,,,,,,,,,,,,,,,,,,610311f92fb14a35337137e7,610368e807a4a531425213df,2021-07-29_22h55.40.351,Simcolourproject_2stim_asymm_v5,2020.2.10,Win32,60,61025ae37ef11b136ea224fe,,,,,,,,,1010,70,-26,1,0,0,response3disk,,5,-6,12,1,0,0,rectangle,-6,12,1,0,0,-6,12,1,0,0,1,17,177,5,1,,,,,,,,
,,,,,,,,,,,,,FF,,,,,,,,1.0153,,,,,,,,,,,,,,,,,,,,,,610311f92fb14a35337137e7,610368e807a4a531425213df,2021-07-29_22h55.40.351,Simcolourproject_2stim_asymm_v5,2020.2.10,Win32,60,61025ae37ef11b136ea224fe,,,,,,,,,4021,-40,97,1,0,0,response7disk,,0,16,-9,1,0,0,rectangle,-27,-110,1,0,0,-8,-8,1,0,0,1,18,178,62,1,,response5disk_3,TRUE,3,3,"[179,288,9,264,233,231,48,310,111,287,66,212,235,2,192,228,94,263,215,36]",2.047200001,rectangle
,,,,,,,,,,,,,FF,,,,,,,,0.8242,,,,,,,,,,,,,,,,,,,,,,610311f92fb14a35337137e7,610368e807a4a531425213df,2021-07-29_22h55.40.351,Simcolourproject_2stim_asymm_v5,2020.2.10,Win32,60,61025ae37ef11b136ea224fe,,,,,,,,,1195,35,-58,1,0,0,response3disk,,4,14,5,1,0,0,rectangle,14,5,1,0,0,14,5,1,0,0,1,19,179,151,1,,,,,,,,
,,,,,,,,,,,,,FF,,,,,,,,1.084,,,,,,,,,,,,,,,,,,,,,,610311f92fb14a35337137e7,610368e807a4a531425213df,2021-07-29_22h55.40.351,Simcolourproject_2stim_asymm_v5,2020.2.10,Win32,60,61025ae37ef11b136ea224fe,,,,,,,,,1816,-33,104,1,0,0,response7disk,,0,16,-5,1,0,0,rectangle,16,-5,1,0,0,16,-5,1,0,0,1,20,180,78,1,,,,,,,,
,,,,,,,,,,,,,FF,,,,,,,,1.205700001,,,,,,,,,,,,,,,,,,,,,,610311f92fb14a35337137e7,610368e807a4a531425213df,2021-07-29_22h55.40.351,Simcolourproject_2stim_asymm_v5,2020.2.10,Win32,60,61025ae37ef11b136ea224fe,,,,,,,,,777,94,-22,1,0,0,response3disk,,5,1,5,1,0,0,rectangle,1,5,1,0,0,1,5,1,0,0,1,21,181,54,1,,,,,,,,
,,,,,,,,,,,,,FF,,,,,,,,0.842200001,,,,,,,,,,,,,,,,,,,,,,610311f92fb14a35337137e7,610368e807a4a531425213df,2021-07-29_22h55.40.351,Simcolourproject_2stim_asymm_v5,2020.2.10,Win32,60,61025ae37ef11b136ea224fe,,,,,,,,,3513,95,43,1,0,0,response1disk,,6,-9,5,1,0,0,rectangle,-9,5,1,0,0,-9,5,1,0,0,1,22,182,117,1,,,,,,,,
,,,,,,,,,,,,,FF,,,,,,,,2.102900001,,,,,,,,,,,,,,,,,,,,,,610311f92fb14a35337137e7,610368e807a4a531425213df,2021-07-29_22h55.40.351,Simcolourproject_2stim_asymm_v5,2020.2.10,Win32,60,61025ae37ef11b136ea224fe,,,,,,,,,546,-88,-36,1,0,0,response5disk,,2,-13,-3,1,0,0,rectangle,-13,-3,1,0,0,-13,-3,1,0,0,1,23,183,19,1,,,,,,,,
,,,,,,,,,,,,,FF,,,,,,,,1.166599999,,,,,,,,,,,,,,,,,,,,,,610311f92fb14a35337137e7,610368e807a4a531425213df,2021-07-29_22h55.40.351,Simcolourproject_2stim_asymm_v5,2020.2.10,Win32,60,61025ae37ef11b136ea224fe,,,,,,,,,175,75,-32,1,0,0,response3disk,,5,-13,-2,1,0,0,rectangle,-13,-2,1,0,0,-13,-2,1,0,0,1,24,184,134,1,,,,,,,,
,,,,,,,,,,,,,FF,,,,,,,,0.812799999,,,,,,,,,,,,,,,,,,,,,,610311f92fb14a35337137e7,610368e807a4a531425213df,2021-07-29_22h55.40.351,Simcolourproject_2stim_asymm_v5,2020.2.10,Win32,60,61025ae37ef11b136ea224fe,,,,,,,,,3926,76,-38,1,0,0,response3disk,,5,19,-7,1,0,0,rectangle,19,-7,1,0,0,19,-7,1,0,0,1,25,185,130,1,,,,,,,,
,,,,,,,,,,,,,FF,,,,,,,,0.8879,,,,,,,,,,,,,,,,,,,,,,610311f92fb14a35337137e7,610368e807a4a531425213df,2021-07-29_22h55.40.351,Simcolourproject_2stim_asymm_v5,2020.2.10,Win32,60,61025ae37ef11b136ea224fe,,,,,,,,,1218,-28,94,1,0,0,response7disk,,0,4,6,1,0,0,rectangle,4,6,1,0,0,4,6,1,0,0,1,26,186,7,1,,,,,,,,
,,,,,,,,,,,,,FF,,,,,,,,0.9023,,,,,,,,,,,,,,,,,,,,,,610311f92fb14a35337137e7,610368e807a4a531425213df,2021-07-29_22h55.40.351,Simcolourproject_2stim_asymm_v5,2020.2.10,Win32,60,61025ae37ef11b136ea224fe,,,,,,,,,3971,-27,83,1,0,0,response7disk,,0,-2,9,1,0,0,rectangle,-2,9,1,0,0,-2,9,1,0,0,1,27,187,116,1,,,,,,,,
,,,,,,,,,,,,,FF,,,,,,,,0.946,,,,,,,,,,,,,,,,,,,,,,610311f92fb14a35337137e7,610368e807a4a531425213df,2021-07-29_22h55.40.351,Simcolourproject_2stim_asymm_v5,2020.2.10,Win32,60,61025ae37ef11b136ea224fe,,,,,,,,,64,82,46,1,0,0,response1disk,,6,1,5,1,0,0,rectangle,1,5,1,0,0,1,5,1,0,0,1,28,188,31,1,,,,,,,,
,,,,,,,,,,,,,FF,,,,,,,,0.8521,,,,,,,,,,,,,,,,,,,,,,610311f92fb14a35337137e7,610368e807a4a531425213df,2021-07-29_22h55.40.351,Simcolourproject_2stim_asymm_v5,2020.2.10,Win32,60,61025ae37ef11b136ea224fe,,,,,,,,,4118,-29,89,1,0,0,response7disk,,0,10,9,1,0,0,rectangle,10,9,1,0,0,10,9,1,0,0,1,29,189,81,1,,,,,,,,
,,,,,,,,,,,,,FF,,,,,,,,1.5621,,,,,,,,,,,,,,,,,,,,,,610311f92fb14a35337137e7,610368e807a4a531425213df,2021-07-29_22h55.40.351,Simcolourproject_2stim_asymm_v5,2020.2.10,Win32,60,61025ae37ef11b136ea224fe,,,,,,,,,3838,-43,-91,1,0,0,response5disk,,3,6,-5,1,0,0,rectangle,6,-5,1,0,0,6,-5,1,0,0,1,30,190,37,1,,,,,,,,
,,,,,,,,,,,,,FF,,,,,,,,0.8866,,,,,,,,,,,,,,,,,,,,,,610311f92fb14a35337137e7,610368e807a4a531425213df,2021-07-29_22h55.40.351,Simcolourproject_2stim_asymm_v5,2020.2.10,Win32,60,61025ae37ef11b136ea224fe,,,,,,,,,2555,71,-31,1,0,0,response3disk,,5,8,1,1,0,0,rectangle,-89,48,1,0,0,-6,4,1,0,0,1,31,191,17,1,,response7disk_3,TRUE,1,1,"[179,288,9,264,233,231,48,310,111,287,66,212,235,2,192,228,94,263,215,36]",1.589799999,rectangle
,,,,,,,,,,,,,FF,,,,,,,,0.9313,,,,,,,,,,,,,,,,,,,,,,610311f92fb14a35337137e7,610368e807a4a531425213df,2021-07-29_22h55.40.351,Simcolourproject_2stim_asymm_v5,2020.2.10,Win32,60,61025ae37ef11b136ea224fe,,,,,,,,,4340,67,19,1,0,0,response1disk,,6,-8,3,1,0,0,rectangle,-8,3,1,0,0,-8,3,1,0,0,1,32,192,91,1,,,,,,,,
,,,,,,,,,,,,,FF,,,,,,,,0.7578,,,,,,,,,,,,,,,,,,,,,,610311f92fb14a35337137e7,610368e807a4a531425213df,2021-07-29_22h55.40.351,Simcolourproject_2stim_asymm_v5,2020.2.10,Win32,60,61025ae37ef11b136ea224fe,,,,,,,,,3548,41,91,1,0,0,response1disk,,7,5,1,1,0,0,rectangle,5,1,1,0,0,5,1,1,0,0,1,33,193,121,1,,,,,,,,
,,,,,,,,,,,,,FF,,,,,,,,1.746,,,,,,,,,,,,,,,,,,,,,,610311f92fb14a35337137e7,610368e807a4a531425213df,2021-07-29_22h55.40.351,Simcolourproject_2stim_asymm_v5,2020.2.10,Win32,60,61025ae37ef11b136ea224fe,,,,,,,,,2543,-80,35,1,0,0,response7disk,,1,-12,-6,1,0,0,rectangle,-12,-6,1,0,0,-12,-6,1,0,0,1,34,194,94,1,,,,,,,,
,,,,,,,,,,,,,FF,,,,,,,,1.0737,,,,,,,,,,,,,,,,,,,,,,610311f92fb14a35337137e7,610368e807a4a531425213df,2021-07-29_22h55.40.351,Simcolourproject_2stim_asymm_v5,2020.2.10,Win32,60,61025ae37ef11b136ea224fe,,,,,,,,,2244,-52,-82,1,0,0,response5disk,,3,-1,-15,1,0,0,rectangle,-1,-15,1,0,0,-1,-15,1,0,0,1,35,195,109,1,,,,,,,,
,,,,,,,,,,,,,FF,,,,,,,,0.6855,,,,,,,,,,,,,,,,,,,,,,610311f92fb14a35337137e7,610368e807a4a531425213df,2021-07-29_22h55.40.351,Simcolourproject_2stim_asymm_v5,2020.2.10,Win32,60,61025ae37ef11b136ea224fe,,,,,,,,,3742,-33,81,1,0,0,response7disk,,0,-6,8,1,0,0,rectangle,-6,8,1,0,0,-6,8,1,0,0,1,36,196,122,1,,,,,,,,
,,,,,,,,,,,,,FF,,,,,,,,1.2634,,,,,,,,,,,,,,,,,,,,,,610311f92fb14a35337137e7,610368e807a4a531425213df,2021-07-29_22h55.40.351,Simcolourproject_2stim_asymm_v5,2020.2.10,Win32,60,61025ae37ef11b136ea224fe,,,,,,,,,1721,30,114,1,0,0,response1disk,,7,14,8,1,0,0,rectangle,14,8,1,0,0,14,8,1,0,0,1,37,197,77,1,,,,,,,,
,,,,,,,,,,,,,FF,,,,,,,,0.7563,,,,,,,,,,,,,,,,,,,,,,610311f92fb14a35337137e7,610368e807a4a531425213df,2021-07-29_22h55.40.351,Simcolourproject_2stim_asymm_v5,2020.2.10,Win32,60,61025ae37ef11b136ea224fe,,,,,,,,,1402,67,-56,1,0,0,response3disk,,5,3,-14,1,0,0,rectangle,3,-14,1,0,0,3,-14,1,0,0,1,38,198,152,1,,,,,,,,
,,,,,,,,,,,,,FF,,,,,,,,0.722799999,,,,,,,,,,,,,,,,,,,,,,610311f92fb14a35337137e7,610368e807a4a531425213df,2021-07-29_22h55.40.351,Simcolourproject_2stim_asymm_v5,2020.2.10,Win32,60,61025ae37ef11b136ea224fe,,,,,,,,,1639,68,-26,1,0,0,response3disk,,5,1,10,1,0,0,rectangle,1,10,1,0,0,1,10,1,0,0,1,39,199,106,1,,,,,,,,
,,,,,,,,,,,,,FF,,,,,,,,1.9399,,,,,,,,,,,,,,,,,,,,,,610311f92fb14a35337137e7,610368e807a4a531425213df,2021-07-29_22h55.40.351,Simcolourproject_2stim_asymm_v5,2020.2.10,Win32,60,61025ae37ef11b136ea224fe,,,,,,,,,1196,-22,-86,1,0,0,response5disk,,3,-7,1,1,0,0,rectangle,-7,1,1,0,0,-7,1,1,0,0,1,40,200,80,1,,,,,,,,
,,,,,,,,,,,,,FF,,,,,,,,0.945,,,,,,,,,,,,,,,,,,,,,,610311f92fb14a35337137e7,610368e807a4a531425213df,2021-07-29_22h55.40.351,Simcolourproject_2stim_asymm_v5,2020.2.10,Win32,60,61025ae37ef11b136ea224fe,,,,,,,,,401,47,85,1,0,0,response1disk,,7,7,15,1,0,0,rectangle,7,15,1,0,0,7,15,1,0,0,1,41,201,126,1,,,,,,,,
,,,,,,,,,,,,,FF,,,,,,,,1.5538,,,,,,,,,,,,,,,,,,,,,,610311f92fb14a35337137e7,610368e807a4a531425213df,2021-07-29_22h55.40.351,Simcolourproject_2stim_asymm_v5,2020.2.10,Win32,60,61025ae37ef11b136ea224fe,,,,,,,,,1646,99,-26,1,0,0,response3disk,,5,-14,15,1,0,0,rectangle,-14,15,1,0,0,-14,15,1,0,0,1,42,202,6,1,,,,,,,,
,,,,,,,,,,,,,FF,,,,,,,,0.8185,,,,,,,,,,,,,,,,,,,,,,610311f92fb14a35337137e7,610368e807a4a531425213df,2021-07-29_22h55.40.351,Simcolourproject_2stim_asymm_v5,2020.2.10,Win32,60,61025ae37ef11b136ea224fe,,,,,,,,,3501,64,102,1,0,0,response1disk,,7,17,11,1,0,0,rectangle,17,11,1,0,0,17,11,1,0,0,1,43,203,35,1,,,,,,,,
,,,,,,,,,,,,,FF,,,,,,,,1.610099999,,,,,,,,,,,,,,,,,,,,,,610311f92fb14a35337137e7,610368e807a4a531425213df,2021-07-29_22h55.40.351,Simcolourproject_2stim_asymm_v5,2020.2.10,Win32,60,61025ae37ef11b136ea224fe,,,,,,,,,4314,35,111,1,0,0,response1disk,,7,0,3,1,0,0,rectangle,0,3,1,0,0,0,3,1,0,0,1,44,204,4,1,,,,,,,,
,,,,,,,,,,,,,FF,,,,,,,,0.8973,,,,,,,,,,,,,,,,,,,,,,610311f92fb14a35337137e7,610368e807a4a531425213df,2021-07-29_22h55.40.351,Simcolourproject_2stim_asymm_v5,2020.2.10,Win32,60,61025ae37ef11b136ea224fe,,,,,,,,,673,97,28,1,0,0,response1disk,,6,7,3,1,0,0,rectangle,7,3,1,0,0,7,3,1,0,0,1,45,205,56,1,,,,,,,,
,,,,,,,,,,,,,FF,,,,,,,,0.6337,,,,,,,,,,,,,,,,,,,,,,610311f92fb14a35337137e7,610368e807a4a531425213df,2021-07-29_22h55.40.351,Simcolourproject_2stim_asymm_v5,2020.2.10,Win32,60,61025ae37ef11b136ea224fe,,,,,,,,,814,73,-39,1,0,0,response3disk,,5,-14,-7,1,0,0,rectangle,-14,-7,1,0,0,-14,-7,1,0,0,1,46,206,113,1,,,,,,,,
,,,,,,,,,,,,,FF,,,,,,,,0.9174,,,,,,,,,,,,,,,,,,,,,,610311f92fb14a35337137e7,610368e807a4a531425213df,2021-07-29_22h55.40.351,Simcolourproject_2stim_asymm_v5,2020.2.10,Win32,60,61025ae37ef11b136ea224fe,,,,,,,,,4248,45,-84,1,0,0,response3disk,,4,-2,-5,1,0,0,rectangle,-2,-5,1,0,0,-2,-5,1,0,0,1,47,207,70,1,,,,,,,,
,,,,,,,,,,,,,FF,,,,,,,,1.154400001,,,,,,,,,,,,,,,,,,,,,,610311f92fb14a35337137e7,610368e807a4a531425213df,2021-07-29_22h55.40.351,Simcolourproject_2stim_asymm_v5,2020.2.10,Win32,60,61025ae37ef11b136ea224fe,,,,,,,,,2199,38,89,1,0,0,response1disk,,7,11,6,1,0,0,rectangle,11,6,1,0,0,11,6,1,0,0,1,48,208,99,1,,,,,,,,
,,,,,,,,,,,,,FF,,,,,,,,0.9881,,,,,,,,,,,,,,,,,,,,,,610311f92fb14a35337137e7,610368e807a4a531425213df,2021-07-29_22h55.40.351,Simcolourproject_2stim_asymm_v5,2020.2.10,Win32,60,61025ae37ef11b136ea224fe,,,,,,,,,2302,-84,51,1,0,0,response7disk,,1,-10,11,1,0,0,rectangle,-10,11,1,0,0,-10,11,1,0,0,1,49,209,1,1,,,,,,,,
,,,,,,,,,,,,,FF,,,,,,,,1.488099999,,,,,,,,,,,,,,,,,,,,,,610311f92fb14a35337137e7,610368e807a4a531425213df,2021-07-29_22h55.40.351,Simcolourproject_2stim_asymm_v5,2020.2.10,Win32,60,61025ae37ef11b136ea224fe,,,,,,,,,498,86,38,1,0,0,response1disk,,6,-9,3,1,0,0,rectangle,-9,3,1,0,0,-9,3,1,0,0,1,50,210,18,1,,,,,,,,
,,,,,,,,,,,,,FF,,,,,,,,0.766900001,,,,,,,,,,,,,,,,,,,,,,610311f92fb14a35337137e7,610368e807a4a531425213df,2021-07-29_22h55.40.351,Simcolourproject_2stim_asymm_v5,2020.2.10,Win32,60,61025ae37ef11b136ea224fe,,,,,,,,,1113,34,73,1,0,0,response1disk,,7,-5,9,1,0,0,rectangle,-62,73,1,0,0,2,5,1,0,0,1,51,211,156,1,,response7disk_3,TRUE,0,0,"[179,288,9,264,233,231,48,310,111,287,66,212,235,2,192,228,94,263,215,36]",1.5086,rectangle
,,,,,,,,,,,,,FF,,,,,,,,1.2041,,,,,,,,,,,,,,,,,,,,,,610311f92fb14a35337137e7,610368e807a4a531425213df,2021-07-29_22h55.40.351,Simcolourproject_2stim_asymm_v5,2020.2.10,Win32,60,61025ae37ef11b136ea224fe,,,,,,,,,1295,-91,59,1,0,0,response7disk,,1,-12,-5,1,0,0,rectangle,-12,-5,1,0,0,-12,-5,1,0,0,1,52,212,140,1,,,,,,,,
,,,,,,,,,,,,,FF,,,,,,,,7.1166,,,,,,,,,,,,,,,,,,,,,,610311f92fb14a35337137e7,610368e807a4a531425213df,2021-07-29_22h55.40.351,Simcolourproject_2stim_asymm_v5,2020.2.10,Win32,60,61025ae37ef11b136ea224fe,,,,,,,,,2119,-72,44,1,0,0,response7disk,,1,-6,5,1,0,0,rectangle,-6,5,1,0,0,-6,5,1,0,0,1,53,213,148,1,,,,,,,,
,,,,,,,,,,,,,FF,,,,,,,,0.7376,,,,,,,,,,,,,,,,,,,,,,610311f92fb14a35337137e7,610368e807a4a531425213df,2021-07-29_22h55.40.351,Simcolourproject_2stim_asymm_v5,2020.2.10,Win32,60,61025ae37ef11b136ea224fe,,,,,,,,,3756,-62,-71,1,0,0,response5disk,,3,-6,3,1,0,0,rectangle,-92,-42,1,0,0,9,14,1,0,0,1,54,214,67,1,,response5disk_3,TRUE,2,2,"[179,288,9,264,233,231,48,310,111,287,66,212,235,2,192,228,94,263,215,36]",2.8163,rectangle
,,,,,,,,,,,,,FF,,,,,,,,0.9293,,,,,,,,,,,,,,,,,,,,,,610311f92fb14a35337137e7,610368e807a4a531425213df,2021-07-29_22h55.40.351,Simcolourproject_2stim_asymm_v5,2020.2.10,Win32,60,61025ae37ef11b136ea224fe,,,,,,,,,130,64,-32,1,0,0,response3disk,,5,-10,1,1,0,0,rectangle,-10,1,1,0,0,-10,1,1,0,0,1,55,215,93,1,,,,,,,,
,,,,,,,,,,,,,FF,,,,,,,,1.3775,,,,,,,,,,,,,,,,,,,,,,610311f92fb14a35337137e7,610368e807a4a531425213df,2021-07-29_22h55.40.351,Simcolourproject_2stim_asymm_v5,2020.2.10,Win32,60,61025ae37ef11b136ea224fe,,,,,,,,,3020,82,-41,1,0,0,response3disk,,5,26,-11,1,0,0,rectangle,26,-11,1,0,0,26,-11,1,0,0,1,56,216,65,1,,,,,,,,
,,,,,,,,,,,,,FF,,,,,,,,0.9107,,,,,,,,,,,,,,,,,,,,,,610311f92fb14a35337137e7,610368e807a4a531425213df,2021-07-29_22h55.40.351,Simcolourproject_2stim_asymm_v5,2020.2.10,Win32,60,61025ae37ef11b136ea224fe,,,,,,,,,1528,-86,42,1,0,0,response7disk,,1,-8,-6,1,0,0,rectangle,-8,-6,1,0,0,-8,-6,1,0,0,1,57,217,131,1,,,,,,,,
,,,,,,,,,,,,,FF,,,,,,,,0.7317,,,,,,,,,,,,,,,,,,,,,,610311f92fb14a35337137e7,610368e807a4a531425213df,2021-07-29_22h55.40.351,Simcolourproject_2stim_asymm_v5,2020.2.10,Win32,60,61025ae37ef11b136ea224fe,,,,,,,,,661,61,34,1,0,0,response1disk,,6,2,10,1,0,0,rectangle,2,10,1,0,0,2,10,1,0,0,1,58,218,60,1,,,,,,,,
,,,,,,,,,,,,,FF,,,,,,,,0.7002,,,,,,,,,,,,,,,,,,,,,,610311f92fb14a35337137e7,610368e807a4a531425213df,2021-07-29_22h55.40.351,Simcolourproject_2stim_asymm_v5,2020.2.10,Win32,60,61025ae37ef11b136ea224fe,,,,,,,,,674,63,27,1,0,0,response1disk,,6,-1,7,1,0,0,rectangle,-1,7,1,0,0,-1,7,1,0,0,1,59,219,141,1,,,,,,,,
,,,,,,,,,,,,,FF,,,,,,,,1.0297,,,,,,,,,,,,,,,,,,,,,,610311f92fb14a35337137e7,610368e807a4a531425213df,2021-07-29_22h55.40.351,Simcolourproject_2stim_asymm_v5,2020.2.10,Win32,60,61025ae37ef11b136ea224fe,,,,,,,,,1726,98,-33,1,0,0,response3disk,,5,-8,-1,1,0,0,rectangle,-8,-1,1,0,0,-8,-1,1,0,0,1,60,220,143,1,,,,,,,,
,,,,,,,,,,,,,FF,,,,,,,,1.0003,,,,,,,,,,,,,,,,,,,,,,610311f92fb14a35337137e7,610368e807a4a531425213df,2021-07-29_22h55.40.351,Simcolourproject_2stim_asymm_v5,2020.2.10,Win32,60,61025ae37ef11b136ea224fe,,,,,,,,,4150,-77,-22,1,0,0,response5disk,,2,-14,6,1,0,0,rectangle,-14,6,1,0,0,-14,6,1,0,0,1,61,221,103,1,,,,,,,,
,,,,,,,,,,,,,FF,,,,,,,,1.3375,,,,,,,,,,,,,,,,,,,,,,610311f92fb14a35337137e7,610368e807a4a531425213df,2021-07-29_22h55.40.351,Simcolourproject_2stim_asymm_v5,2020.2.10,Win32,60,61025ae37ef11b136ea224fe,,,,,,,,,2799,-50,-99,1,0,0,response5disk,,3,9,8,1,0,0,rectangle,9,8,1,0,0,9,8,1,0,0,1,62,222,84,1,,,,,,,,
,,,,,,,,,,,,,FF,,,,,,,,0.8629,,,,,,,,,,,,,,,,,,,,,,610311f92fb14a35337137e7,610368e807a4a531425213df,2021-07-29_22h55.40.351,Simcolourproject_2stim_asymm_v5,2020.2.10,Win32,60,61025ae37ef11b136ea224fe,,,,,,,,,3344,-77,21,1,0,0,response7disk,,1,-21,2,1,0,0,rectangle,-21,2,1,0,0,-21,2,1,0,0,1,63,223,128,1,,,,,,,,
,,,,,,,,,,,,,FF,,,,,,,,1.321599999,,,,,,,,,,,,,,,,,,,,,,610311f92fb14a35337137e7,610368e807a4a531425213df,2021-07-29_22h55.40.351,Simcolourproject_2stim_asymm_v5,2020.2.10,Win32,60,61025ae37ef11b136ea224fe,,,,,,,,,955,-75,-81,1,0,0,response5disk,,3,-2,-6,1,0,0,rectangle,-2,-6,1,0,0,-2,-6,1,0,0,1,64,224,29,1,,,,,,,,
,,,,,,,,,,,,,FF,,,,,,,,0.8448,,,,,,,,,,,,,,,,,,,,,,610311f92fb14a35337137e7,610368e807a4a531425213df,2021-07-29_22h55.40.351,Simcolourproject_2stim_asymm_v5,2020.2.10,Win32,60,61025ae37ef11b136ea224fe,,,,,,,,,2972,59,-45,1,0,0,response3disk,,5,6,-12,1,0,0,rectangle,6,-12,1,0,0,6,-12,1,0,0,1,65,225,2,1,,,,,,,,
,,,,,,,,,,,,,FF,,,,,,,,0.705700001,,,,,,,,,,,,,,,,,,,,,,610311f92fb14a35337137e7,610368e807a4a531425213df,2021-07-29_22h55.40.351,Simcolourproject_2stim_asymm_v5,2020.2.10,Win32,60,61025ae37ef11b136ea224fe,,,,,,,,,2980,40,-82,1,0,0,response3disk,,4,12,7,1,0,0,rectangle,12,7,1,0,0,12,7,1,0,0,1,66,226,154,1,,,,,,,,
,,,,,,,,,,,,,FF,,,,,,,,0.886599999,,,,,,,,,,,,,,,,,,,,,,610311f92fb14a35337137e7,610368e807a4a531425213df,2021-07-29_22h55.40.351,Simcolourproject_2stim_asymm_v5,2020.2.10,Win32,60,61025ae37ef11b136ea224fe,,,,,,,,,4058,-104,-38,1,0,0,response5disk,,2,-16,7,1,0,0,rectangle,43,86,1,0,0,4,-1,1,0,0,1,67,227,12,1,,response1disk_3,TRUE,7,7,"[179,288,9,264,233,231,48,310,111,287,66,212,235,2,192,228,94,263,215,36]",1.343099999,rectangle
,,,,,,,,,,,,,FF,,,,,,,,1.0309,,,,,,,,,,,,,,,,,,,,,,610311f92fb14a35337137e7,610368e807a4a531425213df,2021-07-29_22h55.40.351,Simcolourproject_2stim_asymm_v5,2020.2.10,Win32,60,61025ae37ef11b136ea224fe,,,,,,,,,3251,84,27,1,0,0,response1disk,,6,3,10,1,0,0,rectangle,3,10,1,0,0,3,10,1,0,0,1,68,228,21,1,,,,,,,,
,,,,,,,,,,,,,FF,,,,,,,,3.931599999,,,,,,,,,,,,,,,,,,,,,,610311f92fb14a35337137e7,610368e807a4a531425213df,2021-07-29_22h55.40.351,Simcolourproject_2stim_asymm_v5,2020.2.10,Win32,60,61025ae37ef11b136ea224fe,,,,,,,,,1708,37,-100,1,0,0,response3disk,,4,-8,5,1,0,0,rectangle,-8,5,1,0,0,-8,5,1,0,0,1,69,229,144,1,,,,,,,,
,,,,,,,,,,,,,FF,,,,,,,,2.1466,,,,,,,,,,,,,,,,,,,,,,610311f92fb14a35337137e7,610368e807a4a531425213df,2021-07-29_22h55.40.351,Simcolourproject_2stim_asymm_v5,2020.2.10,Win32,60,61025ae37ef11b136ea224fe,,,,,,,,,4275,81,-38,1,0,0,response3disk,,5,8,-2,1,0,0,rectangle,-26,59,1,0,0,11,-6,1,0,0,1,70,230,75,1,,response7disk_3,TRUE,0,0,"[179,288,9,264,233,231,48,310,111,287,66,212,235,2,192,228,94,263,215,36]",1.4051,rectangle
,,,,,,,,,,,,,FF,,,,,,,,0.9424,,,,,,,,,,,,,,,,,,,,,,610311f92fb14a35337137e7,610368e807a4a531425213df,2021-07-29_22h55.40.351,Simcolourproject_2stim_asymm_v5,2020.2.10,Win32,60,61025ae37ef11b136ea224fe,,,,,,,,,3903,28,-64,1,0,0,response3disk,,4,-20,9,1,0,0,rectangle,-20,9,1,0,0,-20,9,1,0,0,1,71,231,44,1,,,,,,,,
,,,,,,,,,,,,,FF,,,,,,,,0.9302,,,,,,,,,,,,,,,,,,,,,,610311f92fb14a35337137e7,610368e807a4a531425213df,2021-07-29_22h55.40.351,Simcolourproject_2stim_asymm_v5,2020.2.10,Win32,60,61025ae37ef11b136ea224fe,,,,,,,,,2174,-39,121,1,0,0,response7disk,,0,10,5,1,0,0,rectangle,25,78,1,0,0,0,7,1,0,0,1,72,232,102,1,,response1disk_3,TRUE,7,7,"[179,288,9,264,233,231,48,310,111,287,66,212,235,2,192,228,94,263,215,36]",1.1946,rectangle
,,,,,,,,,,,,,FF,,,,,,,,1.8605,,,,,,,,,,,,,,,,,,,,,,610311f92fb14a35337137e7,610368e807a4a531425213df,2021-07-29_22h55.40.351,Simcolourproject_2stim_asymm_v5,2020.2.10,Win32,60,61025ae37ef11b136ea224fe,,,,,,,,,4055,75,-15,1,0,0,response3disk,,5,16,10,1,0,0,rectangle,16,10,1,0,0,16,10,1,0,0,1,73,233,79,1,,,,,,,,
,,,,,,,,,,,,,FF,,,,,,,,1.2203,,,,,,,,,,,,,,,,,,,,,,610311f92fb14a35337137e7,610368e807a4a531425213df,2021-07-29_22h55.40.351,Simcolourproject_2stim_asymm_v5,2020.2.10,Win32,60,61025ae37ef11b136ea224fe,,,,,,,,,3851,-82,59,1,0,0,response7disk,,1,-1,3,1,0,0,rectangle,-32,79,1,0,0,4,7,1,0,0,1,74,234,82,1,,response7disk_3,TRUE,0,0,"[179,288,9,264,233,231,48,310,111,287,66,212,235,2,192,228,94,263,215,36]",1.1271,rectangle
,,,,,,,,,,,,,FF,,,,,,,,0.733099999,,,,,,,,,,,,,,,,,,,,,,610311f92fb14a35337137e7,610368e807a4a531425213df,2021-07-29_22h55.40.351,Simcolourproject_2stim_asymm_v5,2020.2.10,Win32,60,61025ae37ef11b136ea224fe,,,,,,,,,2775,-49,106,1,0,0,response7disk,,0,-8,12,1,0,0,rectangle,-8,12,1,0,0,-8,12,1,0,0,1,75,235,24,1,,,,,,,,
,,,,,,,,,,,,,FF,,,,,,,,0.685,,,,,,,,,,,,,,,,,,,,,,610311f92fb14a35337137e7,610368e807a4a531425213df,2021-07-29_22h55.40.351,Simcolourproject_2stim_asymm_v5,2020.2.10,Win32,60,61025ae37ef11b136ea224fe,,,,,,,,,3843,-34,73,1,0,0,response7disk,,0,-2,-5,1,0,0,rectangle,-2,-5,1,0,0,-2,-5,1,0,0,1,76,236,124,1,,,,,,,,
,,,,,,,,,,,,,FF,,,,,,,,0.8641,,,,,,,,,,,,,,,,,,,,,,610311f92fb14a35337137e7,610368e807a4a531425213df,2021-07-29_22h55.40.351,Simcolourproject_2stim_asymm_v5,2020.2.10,Win32,60,61025ae37ef11b136ea224fe,,,,,,,,,706,-73,-31,1,0,0,response5disk,,2,10,0,1,0,0,rectangle,10,0,1,0,0,10,0,1,0,0,1,77,237,155,1,,,,,,,,
,,,,,,,,,,,,,FF,,,,,,,,1.1261,,,,,,,,,,,,,,,,,,,,,,610311f92fb14a35337137e7,610368e807a4a531425213df,2021-07-29_22h55.40.351,Simcolourproject_2stim_asymm_v5,2020.2.10,Win32,60,61025ae37ef11b136ea224fe,,,,,,,,,4079,92,-38,1,0,0,response3disk,,5,-15,-10,1,0,0,rectangle,-15,-10,1,0,0,-15,-10,1,0,0,1,78,238,15,1,,,,,,,,
,,,,,,,,,,,,,FF,,,,,,,,0.6658,,,,,,,,,,,,,,,,,,,,,,610311f92fb14a35337137e7,610368e807a4a531425213df,2021-07-29_22h55.40.351,Simcolourproject_2stim_asymm_v5,2020.2.10,Win32,60,61025ae37ef11b136ea224fe,,,,,,,,,968,-44,85,1,0,0,response7disk,,0,-1,-9,1,0,0,rectangle,-1,-9,1,0,0,-1,-9,1,0,0,1,79,239,25,1,,,,,,,,
,,,,,,,,,,,,,FF,,,,,,,,1.766099999,,,,,,,,,,,,,,,,,,,,,,610311f92fb14a35337137e7,610368e807a4a531425213df,2021-07-29_22h55.40.351,Simcolourproject_2stim_asymm_v5,2020.2.10,Win32,60,61025ae37ef11b136ea224fe,,,,,,,,,1024,47,-99,1,0,0,response3disk,,4,-4,9,1,0,0,rectangle,-4,9,1,0,0,-4,9,1,0,0,1,80,240,133,1,,,,,,,,
,,,,,,,,,,,,,FF,,,,,,,,0.8595,,,,,,,,,,,,,,,,,,,,,,610311f92fb14a35337137e7,610368e807a4a531425213df,2021-07-29_22h55.40.351,Simcolourproject_2stim_asymm_v5,2020.2.10,Win32,60,61025ae37ef11b136ea224fe,,,,,,,,,4198,-26,-79,1,0,0,response5disk,,3,4,-4,1,0,0,rectangle,4,-4,1,0,0,4,-4,1,0,0,1,81,241,40,1,,,,,,,,
,,,,,,,,,,,,,FF,,,,,,,,1.917900001,,,,,,,,,,,,,,,,,,,,,,610311f92fb14a35337137e7,610368e807a4a531425213df,2021-07-29_22h55.40.351,Simcolourproject_2stim_asymm_v5,2020.2.10,Win32,60,61025ae37ef11b136ea224fe,,,,,,,,,3639,83,29,1,0,0,response1disk,,6,-9,1,1,0,0,rectangle,-9,1,1,0,0,-9,1,1,0,0,1,82,242,10,1,,,,,,,,
,,,,,,,,,,,,,FF,,,,,,,,0.7672,,,,,,,,,,,,,,,,,,,,,,610311f92fb14a35337137e7,610368e807a4a531425213df,2021-07-29_22h55.40.351,Simcolourproject_2stim_asymm_v5,2020.2.10,Win32,60,61025ae37ef11b136ea224fe,,,,,,,,,2438,75,32,1,0,0,response1disk,,6,-5,1,1,0,0,rectangle,-5,1,1,0,0,-5,1,1,0,0,1,83,243,23,1,,,,,,,,
,,,,,,,,,,,,,FF,,,,,,,,0.6637,,,,,,,,,,,,,,,,,,,,,,610311f92fb14a35337137e7,610368e807a4a531425213df,2021-07-29_22h55.40.351,Simcolourproject_2stim_asymm_v5,2020.2.10,Win32,60,61025ae37ef11b136ea224fe,,,,,,,,,863,46,66,1,0,0,response1disk,,7,2,3,1,0,0,rectangle,2,3,1,0,0,2,3,1,0,0,1,84,244,14,1,,,,,,,,
,,,,,,,,,,,,,FF,,,,,,,,1.983400001,,,,,,,,,,,,,,,,,,,,,,610311f92fb14a35337137e7,610368e807a4a531425213df,2021-07-29_22h55.40.351,Simcolourproject_2stim_asymm_v5,2020.2.10,Win32,60,61025ae37ef11b136ea224fe,,,,,,,,,1591,23,-92,1,0,0,response3disk,,4,6,15,1,0,0,rectangle,6,15,1,0,0,6,15,1,0,0,1,85,245,74,1,,,,,,,,
,,,,,,,,,,,,,FF,,,,,,,,0.833599999,,,,,,,,,,,,,,,,,,,,,,610311f92fb14a35337137e7,610368e807a4a531425213df,2021-07-29_22h55.40.351,Simcolourproject_2stim_asymm_v5,2020.2.10,Win32,60,61025ae37ef11b136ea224fe,,,,,,,,,1975,79,54,1,0,0,response1disk,,6,-2,2,1,0,0,rectangle,-2,2,1,0,0,-2,2,1,0,0,1,86,246,48,1,,,,,,,,
,,,,,,,,,,,,,FF,,,,,,,,1.3203,,,,,,,,,,,,,,,,,,,,,,610311f92fb14a35337137e7,610368e807a4a531425213df,2021-07-29_22h55.40.351,Simcolourproject_2stim_asymm_v5,2020.2.10,Win32,60,61025ae37ef11b136ea224fe,,,,,,,,,168,-80,-23,1,0,0,response5disk,,2,-27,10,1,0,0,rectangle,-27,10,1,0,0,-27,10,1,0,0,1,87,247,13,1,,,,,,,,
,,,,,,,,,,,,,FF,,,,,,,,1.1546,,,,,,,,,,,,,,,,,,,,,,610311f92fb14a35337137e7,610368e807a4a531425213df,2021-07-29_22h55.40.351,Simcolourproject_2stim_asymm_v5,2020.2.10,Win32,60,61025ae37ef11b136ea224fe,,,,,,,,,830,-35,-65,1,0,0,response5disk,,3,17,-9,1,0,0,rectangle,17,-9,1,0,0,17,-9,1,0,0,1,88,248,88,1,,,,,,,,
,,,,,,,,,,,,,FF,,,,,,,,0.8009,,,,,,,,,,,,,,,,,,,,,,610311f92fb14a35337137e7,610368e807a4a531425213df,2021-07-29_22h55.40.351,Simcolourproject_2stim_asymm_v5,2020.2.10,Win32,60,61025ae37ef11b136ea224fe,,,,,,,,,1102,46,-94,1,0,0,response3disk,,4,-16,8,1,0,0,rectangle,-16,8,1,0,0,-16,8,1,0,0,1,89,249,9,1,,,,,,,,
,,,,,,,,,,,,,FF,,,,,,,,0.748599999,,,,,,,,,,,,,,,,,,,,,,610311f92fb14a35337137e7,610368e807a4a531425213df,2021-07-29_22h55.40.351,Simcolourproject_2stim_asymm_v5,2020.2.10,Win32,60,61025ae37ef11b136ea224fe,,,,,,,,,3263,60,-37,1,0,0,response3disk,,5,-1,5,1,0,0,rectangle,-1,5,1,0,0,-1,5,1,0,0,1,90,250,68,1,,,,,,,,
,,,,,,,,,,,,,FF,,,,,,,,1.068700001,,,,,,,,,,,,,,,,,,,,,,610311f92fb14a35337137e7,610368e807a4a531425213df,2021-07-29_22h55.40.351,Simcolourproject_2stim_asymm_v5,2020.2.10,Win32,60,61025ae37ef11b136ea224fe,,,,,,,,,93,-53,104,1,0,0,response7disk,,0,7,-5,1,0,0,rectangle,7,-5,1,0,0,7,-5,1,0,0,1,91,251,85,1,,,,,,,,
,,,,,,,,,,,,,FF,,,,,,,,0.8834,,,,,,,,,,,,,,,,,,,,,,610311f92fb14a35337137e7,610368e807a4a531425213df,2021-07-29_22h55.40.351,Simcolourproject_2stim_asymm_v5,2020.2.10,Win32,60,61025ae37ef11b136ea224fe,,,,,,,,,3697,-23,-73,1,0,0,response5disk,,3,5,7,1,0,0,rectangle,5,7,1,0,0,5,7,1,0,0,1,92,252,50,1,,,,,,,,
,,,,,,,,,,,,,FF,,,,,,,,0.700900001,,,,,,,,,,,,,,,,,,,,,,610311f92fb14a35337137e7,610368e807a4a531425213df,2021-07-29_22h55.40.351,Simcolourproject_2stim_asymm_v5,2020.2.10,Win32,60,61025ae37ef11b136ea224fe,,,,,,,,,337,60,-31,1,0,0,response3disk,,5,-4,14,1,0,0,rectangle,-4,14,1,0,0,-4,14,1,0,0,1,93,253,136,1,,,,,,,,
,,,,,,,,,,,,,FF,,,,,,,,0.7462,,,,,,,,,,,,,,,,,,,,,,610311f92fb14a35337137e7,610368e807a4a531425213df,2021-07-29_22h55.40.351,Simcolourproject_2stim_asymm_v5,2020.2.10,Win32,60,61025ae37ef11b136ea224fe,,,,,,,,,455,-37,88,1,0,0,response7disk,,0,2,6,1,0,0,rectangle,2,6,1,0,0,2,6,1,0,0,1,94,254,107,1,,,,,,,,
,,,,,,,,,,,,,FF,,,,,,,,1.4877,,,,,,,,,,,,,,,,,,,,,,610311f92fb14a35337137e7,610368e807a4a531425213df,2021-07-29_22h55.40.351,Simcolourproject_2stim_asymm_v5,2020.2.10,Win32,60,61025ae37ef11b136ea224fe,,,,,,,,,825,36,22,1,0,0,response1disk,,6,-3,7,1,0,0,rectangle,-3,7,1,0,0,-3,7,1,0,0,1,95,255,97,1,,,,,,,,
,,,,,,,,,,,,,FF,,,,,,,,0.565,,,,,,,,,,,,,,,,,,,,,,610311f92fb14a35337137e7,610368e807a4a531425213df,2021-07-29_22h55.40.351,Simcolourproject_2stim_asymm_v5,2020.2.10,Win32,60,61025ae37ef11b136ea224fe,,,,,,,,,2608,-33,75,1,0,0,response7disk,,0,-8,12,1,0,0,rectangle,-8,12,1,0,0,-8,12,1,0,0,1,96,256,120,1,,,,,,,,
,,,,,,,,,,,,,FF,,,,,,,,1.4742,,,,,,,,,,,,,,,,,,,,,,610311f92fb14a35337137e7,610368e807a4a531425213df,2021-07-29_22h55.40.351,Simcolourproject_2stim_asymm_v5,2020.2.10,Win32,60,61025ae37ef11b136ea224fe,,,,,,,,,1815,-32,56,1,0,0,response7disk,,0,-1,10,1,0,0,rectangle,-1,10,1,0,0,-1,10,1,0,0,1,97,257,98,1,,,,,,,,
,,,,,,,,,,,,,FF,,,,,,,,0.7254,,,,,,,,,,,,,,,,,,,,,,610311f92fb14a35337137e7,610368e807a4a531425213df,2021-07-29_22h55.40.351,Simcolourproject_2stim_asymm_v5,2020.2.10,Win32,60,61025ae37ef11b136ea224fe,,,,,,,,,3124,47,-32,1,0,0,response3disk,,5,-1,-1,1,0,0,rectangle,-1,-1,1,0,0,-1,-1,1,0,0,1,98,258,76,1,,,,,,,,
,,,,,,,,,,,,,FF,,,,,,,,1.097599999,,,,,,,,,,,,,,,,,,,,,,610311f92fb14a35337137e7,610368e807a4a531425213df,2021-07-29_22h55.40.351,Simcolourproject_2stim_asymm_v5,2020.2.10,Win32,60,61025ae37ef11b136ea224fe,,,,,,,,,2539,-50,-76,1,0,0,response5disk,,3,-4,0,1,0,0,rectangle,-4,0,1,0,0,-4,0,1,0,0,1,99,259,100,1,,,,,,,,
,,,,,,,,,,,,,FF,,,,,,,,0.7656,,,,,,,,,,,,,,,,,,,,,,610311f92fb14a35337137e7,610368e807a4a531425213df,2021-07-29_22h55.40.351,Simcolourproject_2stim_asymm_v5,2020.2.10,Win32,60,61025ae37ef11b136ea224fe,,,,,,,,,3010,60,-28,1,0,0,response3disk,,5,-7,12,1,0,0,rectangle,-7,12,1,0,0,-7,12,1,0,0,1,100,260,145,1,,,,,,,,
,,,,,,,,,,,,,FF,,,,,,,,0.7813,,,,,,,,,,,,,,,,,,,,,,610311f92fb14a35337137e7,610368e807a4a531425213df,2021-07-29_22h55.40.351,Simcolourproject_2stim_asymm_v5,2020.2.10,Win32,60,61025ae37ef11b136ea224fe,,,,,,,,,2943,70,-50,1,0,0,response3disk,,5,-4,6,1,0,0,rectangle,-4,6,1,0,0,-4,6,1,0,0,1,101,261,73,1,,,,,,,,
,,,,,,,,,,,,,FF,,,,,,,,1.2167,,,,,,,,,,,,,,,,,,,,,,610311f92fb14a35337137e7,610368e807a4a531425213df,2021-07-29_22h55.40.351,Simcolourproject_2stim_asymm_v5,2020.2.10,Win32,60,61025ae37ef11b136ea224fe,,,,,,,,,1713,77,-52,1,0,0,response3disk,,5,2,13,1,0,0,rectangle,-87,-32,1,0,0,-5,-6,1,0,0,1,102,262,159,1,,response5disk_3,TRUE,2,2,"[179,288,9,264,233,231,48,310,111,287,66,212,235,2,192,228,94,263,215,36]",1.6002,rectangle
,,,,,,,,,,,,,FF,,,,,,,,2.5017,,,,,,,,,,,,,,,,,,,,,,610311f92fb14a35337137e7,610368e807a4a531425213df,2021-07-29_22h55.40.351,Simcolourproject_2stim_asymm_v5,2020.2.10,Win32,60,61025ae37ef11b136ea224fe,,,,,,,,,2403,42,-97,1,0,0,response3disk,,4,8,-10,1,0,0,rectangle,-87,-47,1,0,0,-19,-6,1,0,0,1,103,263,63,1,,response5disk_3,TRUE,2,2,"[179,288,9,264,233,231,48,310,111,287,66,212,235,2,192,228,94,263,215,36]",1.5359,rectangle
,,,,,,,,,,,,,FF,,,,,,,,1.8244,,,,,,,,,,,,,,,,,,,,,,610311f92fb14a35337137e7,610368e807a4a531425213df,2021-07-29_22h55.40.351,Simcolourproject_2stim_asymm_v5,2020.2.10,Win32,60,61025ae37ef11b136ea224fe,,,,,,,,,681,-52,-89,1,0,0,response5disk,,3,3,-13,1,0,0,rectangle,3,-13,1,0,0,3,-13,1,0,0,1,104,264,137,1,,,,,,,,
,,,,,,,,,,,,,FF,,,,,,,,0.6551,,,,,,,,,,,,,,,,,,,,,,610311f92fb14a35337137e7,610368e807a4a531425213df,2021-07-29_22h55.40.351,Simcolourproject_2stim_asymm_v5,2020.2.10,Win32,60,61025ae37ef11b136ea224fe,,,,,,,,,1459,-38,79,1,0,0,response7disk,,0,6,-6,1,0,0,rectangle,6,-6,1,0,0,6,-6,1,0,0,1,105,265,58,1,,,,,,,,
,,,,,,,,,,,,,FF,,,,,,,,0.585200001,,,,,,,,,,,,,,,,,,,,,,610311f92fb14a35337137e7,610368e807a4a531425213df,2021-07-29_22h55.40.351,Simcolourproject_2stim_asymm_v5,2020.2.10,Win32,60,61025ae37ef11b136ea224fe,,,,,,,,,3195,-50,77,1,0,0,response7disk,,0,-7,8,1,0,0,rectangle,-7,8,1,0,0,-7,8,1,0,0,1,106,266,34,1,,,,,,,,
,,,,,,,,,,,,,FF,,,,,,,,1.0226,,,,,,,,,,,,,,,,,,,,,,610311f92fb14a35337137e7,610368e807a4a531425213df,2021-07-29_22h55.40.351,Simcolourproject_2stim_asymm_v5,2020.2.10,Win32,60,61025ae37ef11b136ea224fe,,,,,,,,,2293,-77,43,1,0,0,response7disk,,1,-2,14,1,0,0,rectangle,-2,14,1,0,0,-2,14,1,0,0,1,107,267,150,1,,,,,,,,
,,,,,,,,,,,,,FF,,,,,,,,1.1647,,,,,,,,,,,,,,,,,,,,,,610311f92fb14a35337137e7,610368e807a4a531425213df,2021-07-29_22h55.40.351,Simcolourproject_2stim_asymm_v5,2020.2.10,Win32,60,61025ae37ef11b136ea224fe,,,,,,,,,4012,-54,-78,1,0,0,response5disk,,3,-11,7,1,0,0,rectangle,-11,7,1,0,0,-11,7,1,0,0,1,108,268,41,1,,,,,,,,
,,,,,,,,,,,,,FF,,,,,,,,0.756,,,,,,,,,,,,,,,,,,,,,,610311f92fb14a35337137e7,610368e807a4a531425213df,2021-07-29_22h55.40.351,Simcolourproject_2stim_asymm_v5,2020.2.10,Win32,60,61025ae37ef11b136ea224fe,,,,,,,,,3737,73,-50,1,0,0,response3disk,,5,-7,13,1,0,0,rectangle,-7,13,1,0,0,-7,13,1,0,0,1,109,269,45,1,,,,,,,,
,,,,,,,,,,,,,FF,,,,,,,,0.803,,,,,,,,,,,,,,,,,,,,,,610311f92fb14a35337137e7,610368e807a4a531425213df,2021-07-29_22h55.40.351,Simcolourproject_2stim_asymm_v5,2020.2.10,Win32,60,61025ae37ef11b136ea224fe,,,,,,,,,2847,68,-33,1,0,0,response3disk,,5,5,-7,1,0,0,rectangle,5,-7,1,0,0,5,-7,1,0,0,1,110,270,101,1,,,,,,,,
,,,,,,,,,,,,,FF,,,,,,,,0.7845,,,,,,,,,,,,,,,,,,,,,,610311f92fb14a35337137e7,610368e807a4a531425213df,2021-07-29_22h55.40.351,Simcolourproject_2stim_asymm_v5,2020.2.10,Win32,60,61025ae37ef11b136ea224fe,,,,,,,,,2547,-87,31,1,0,0,response7disk,,1,-12,4,1,0,0,rectangle,-12,4,1,0,0,-12,4,1,0,0,1,111,271,52,1,,,,,,,,
,,,,,,,,,,,,,FF,,,,,,,,1.2766,,,,,,,,,,,,,,,,,,,,,,610311f92fb14a35337137e7,610368e807a4a531425213df,2021-07-29_22h55.40.351,Simcolourproject_2stim_asymm_v5,2020.2.10,Win32,60,61025ae37ef11b136ea224fe,,,,,,,,,2188,81,-38,1,0,0,response3disk,,5,10,2,1,0,0,rectangle,10,2,1,0,0,10,2,1,0,0,1,112,272,49,1,,,,,,,,
,,,,,,,,,,,,,FF,,,,,,,,1.1712,,,,,,,,,,,,,,,,,,,,,,610311f92fb14a35337137e7,610368e807a4a531425213df,2021-07-29_22h55.40.351,Simcolourproject_2stim_asymm_v5,2020.2.10,Win32,60,61025ae37ef11b136ea224fe,,,,,,,,,3560,-80,38,1,0,0,response7disk,,1,3,-8,1,0,0,rectangle,3,-8,1,0,0,3,-8,1,0,0,1,113,273,129,1,,,,,,,,
,,,,,,,,,,,,,FF,,,,,,,,1.1347,,,,,,,,,,,,,,,,,,,,,,610311f92fb14a35337137e7,610368e807a4a531425213df,2021-07-29_22h55.40.351,Simcolourproject_2stim_asymm_v5,2020.2.10,Win32,60,61025ae37ef11b136ea224fe,,,,,,,,,2937,-39,-78,1,0,0,response5disk,,3,3,-8,1,0,0,rectangle,3,-8,1,0,0,3,-8,1,0,0,1,114,274,123,1,,,,,,,,
,,,,,,,,,,,,,FF,,,,,,,,1.0459,,,,,,,,,,,,,,,,,,,,,,610311f92fb14a35337137e7,610368e807a4a531425213df,2021-07-29_22h55.40.351,Simcolourproject_2stim_asymm_v5,2020.2.10,Win32,60,61025ae37ef11b136ea224fe,,,,,,,,,2075,48,-41,1,0,0,response3disk,,5,-5,-7,1,0,0,rectangle,-5,-7,1,0,0,-5,-7,1,0,0,1,115,275,127,1,,,,,,,,
,,,,,,,,,,,,,FF,,,,,,,,0.7328,,,,,,,,,,,,,,,,,,,,,,610311f92fb14a35337137e7,610368e807a4a531425213df,2021-07-29_22h55.40.351,Simcolourproject_2stim_asymm_v5,2020.2.10,Win32,60,61025ae37ef11b136ea224fe,,,,,,,,,229,41,-66,1,0,0,response3disk,,4,3,2,1,0,0,rectangle,3,2,1,0,0,3,2,1,0,0,1,116,276,135,1,,,,,,,,
,,,,,,,,,,,,,FF,,,,,,,,1.3179,,,,,,,,,,,,,,,,,,,,,,610311f92fb14a35337137e7,610368e807a4a531425213df,2021-07-29_22h55.40.351,Simcolourproject_2stim_asymm_v5,2020.2.10,Win32,60,61025ae37ef11b136ea224fe,,,,,,,,,2410,-99,-28,1,0,0,response5disk,,2,-16,-1,1,0,0,rectangle,-16,-1,1,0,0,-16,-1,1,0,0,1,117,277,42,1,,,,,,,,
,,,,,,,,,,,,,FF,,,,,,,,0.851400001,,,,,,,,,,,,,,,,,,,,,,610311f92fb14a35337137e7,610368e807a4a531425213df,2021-07-29_22h55.40.351,Simcolourproject_2stim_asymm_v5,2020.2.10,Win32,60,61025ae37ef11b136ea224fe,,,,,,,,,446,33,63,1,0,0,response1disk,,7,-5,8,1,0,0,rectangle,-5,8,1,0,0,-5,8,1,0,0,1,118,278,64,1,,,,,,,,
,,,,,,,,,,,,,FF,,,,,,,,2.0496,,,,,,,,,,,,,,,,,,,,,,610311f92fb14a35337137e7,610368e807a4a531425213df,2021-07-29_22h55.40.351,Simcolourproject_2stim_asymm_v5,2020.2.10,Win32,60,61025ae37ef11b136ea224fe,,,,,,,,,1811,-85,-41,1,0,0,response5disk,,2,-4,-6,1,0,0,rectangle,-4,-6,1,0,0,-4,-6,1,0,0,1,119,279,57,1,,,,,,,,
,,,,,,,,,,,,,FF,,,,,,,,0.8687,,,,,,,,,,,,,,,,,,,,,,610311f92fb14a35337137e7,610368e807a4a531425213df,2021-07-29_22h55.40.351,Simcolourproject_2stim_asymm_v5,2020.2.10,Win32,60,61025ae37ef11b136ea224fe,,,,,,,,,2515,43,97,1,0,0,response1disk,,7,5,2,1,0,0,rectangle,5,2,1,0,0,5,2,1,0,0,1,120,280,146,1,,,,,,,,
,,,,,,,,,,,,,FF,,,,,,,,1.2071,,,,,,,,,,,,,,,,,,,,,,610311f92fb14a35337137e7,610368e807a4a531425213df,2021-07-29_22h55.40.351,Simcolourproject_2stim_asymm_v5,2020.2.10,Win32,60,61025ae37ef11b136ea224fe,,,,,,,,,569,41,80,1,0,0,response1disk,,7,12,-11,1,0,0,rectangle,12,-11,1,0,0,12,-11,1,0,0,1,121,281,95,1,,,,,,,,
,,,,,,,,,,,,,FF,,,,,,,,1.1728,,,,,,,,,,,,,,,,,,,,,,610311f92fb14a35337137e7,610368e807a4a531425213df,2021-07-29_22h55.40.351,Simcolourproject_2stim_asymm_v5,2020.2.10,Win32,60,61025ae37ef11b136ea224fe,,,,,,,,,2181,-73,-32,1,0,0,response5disk,,2,7,10,1,0,0,rectangle,7,10,1,0,0,7,10,1,0,0,1,122,282,118,1,,,,,,,,
,,,,,,,,,,,,,FF,,,,,,,,1.2047,,,,,,,,,,,,,,,,,,,,,,610311f92fb14a35337137e7,610368e807a4a531425213df,2021-07-29_22h55.40.351,Simcolourproject_2stim_asymm_v5,2020.2.10,Win32,60,61025ae37ef11b136ea224fe,,,,,,,,,2240,-78,40,1,0,0,response7disk,,1,-25,12,1,0,0,rectangle,-25,12,1,0,0,-25,12,1,0,0,1,123,283,86,1,,,,,,,,
,,,,,,,,,,,,,FF,,,,,,,,1.004799999,,,,,,,,,,,,,,,,,,,,,,610311f92fb14a35337137e7,610368e807a4a531425213df,2021-07-29_22h55.40.351,Simcolourproject_2stim_asymm_v5,2020.2.10,Win32,60,61025ae37ef11b136ea224fe,,,,,,,,,3156,-92,26,1,0,0,response7disk,,1,-14,-2,1,0,0,rectangle,-14,-2,1,0,0,-14,-2,1,0,0,1,124,284,59,1,,,,,,,,
,,,,,,,,,,,,,FF,,,,,,,,1.136400001,,,,,,,,,,,,,,,,,,,,,,610311f92fb14a35337137e7,610368e807a4a531425213df,2021-07-29_22h55.40.351,Simcolourproject_2stim_asymm_v5,2020.2.10,Win32,60,61025ae37ef11b136ea224fe,,,,,,,,,327,61,82,1,0,0,response1disk,,7,-5,9,1,0,0,rectangle,-5,9,1,0,0,-5,9,1,0,0,1,125,285,92,1,,,,,,,,
,,,,,,,,,,,,,FF,,,,,,,,0.7986,,,,,,,,,,,,,,,,,,,,,,610311f92fb14a35337137e7,610368e807a4a531425213df,2021-07-29_22h55.40.351,Simcolourproject_2stim_asymm_v5,2020.2.10,Win32,60,61025ae37ef11b136ea224fe,,,,,,,,,999,31,87,1,0,0,response1disk,,7,6,8,1,0,0,rectangle,29,68,1,0,0,-3,-3,1,0,0,1,126,286,114,1,,response1disk_3,TRUE,7,7,"[179,288,9,264,233,231,48,310,111,287,66,212,235,2,192,228,94,263,215,36]",1.433200001,rectangle
,,,,,,,,,,,,,FF,,,,,,,,8.355599999,,,,,,,,,,,,,,,,,,,,,,610311f92fb14a35337137e7,610368e807a4a531425213df,2021-07-29_22h55.40.351,Simcolourproject_2stim_asymm_v5,2020.2.10,Win32,60,61025ae37ef11b136ea224fe,,,,,,,,,3313,71,34,1,0,0,response1disk,,6,12,-7,1,0,0,rectangle,-43,77,1,0,0,-14,1,1,0,0,1,127,287,153,1,,response7disk_3,TRUE,0,0,"[179,288,9,264,233,231,48,310,111,287,66,212,235,2,192,228,94,263,215,36]",1.2822,rectangle
,,,,,,,,,,,,,FF,,,,,,,,7.1339,,,,,,,,,,,,,,,,,,,,,,610311f92fb14a35337137e7,610368e807a4a531425213df,2021-07-29_22h55.40.351,Simcolourproject_2stim_asymm_v5,2020.2.10,Win32,60,61025ae37ef11b136ea224fe,,,,,,,,,3542,39,100,1,0,0,response1disk,,7,5,5,1,0,0,rectangle,5,5,1,0,0,5,5,1,0,0,1,128,288,26,1,,,,,,,,
,,,,,,,,,,,,,FF,,,,,,,,0.9027,,,,,,,,,,,,,,,,,,,,,,610311f92fb14a35337137e7,610368e807a4a531425213df,2021-07-29_22h55.40.351,Simcolourproject_2stim_asymm_v5,2020.2.10,Win32,60,61025ae37ef11b136ea224fe,,,,,,,,,2574,58,76,1,0,0,response1disk,,7,0,9,1,0,0,rectangle,0,9,1,0,0,0,9,1,0,0,1,129,289,28,1,,,,,,,,
,,,,,,,,,,,,,FF,,,,,,,,1.0475,,,,,,,,,,,,,,,,,,,,,,610311f92fb14a35337137e7,610368e807a4a531425213df,2021-07-29_22h55.40.351,Simcolourproject_2stim_asymm_v5,2020.2.10,Win32,60,61025ae37ef11b136ea224fe,,,,,,,,,1029,-106,47,1,0,0,response7disk,,1,-14,-7,1,0,0,rectangle,-14,-7,1,0,0,-14,-7,1,0,0,1,130,290,142,1,,,,,,,,
,,,,,,,,,,,,,FF,,,,,,,,1.3813,,,,,,,,,,,,,,,,,,,,,,610311f92fb14a35337137e7,610368e807a4a531425213df,2021-07-29_22h55.40.351,Simcolourproject_2stim_asymm_v5,2020.2.10,Win32,60,61025ae37ef11b136ea224fe,,,,,,,,,3777,-72,48,1,0,0,response7disk,,1,-1,10,1,0,0,rectangle,-1,10,1,0,0,-1,10,1,0,0,1,131,291,38,1,,,,,,,,
,,,,,,,,,,,,,FF,,,,,,,,1.4722,,,,,,,,,,,,,,,,,,,,,,610311f92fb14a35337137e7,610368e807a4a531425213df,2021-07-29_22h55.40.351,Simcolourproject_2stim_asymm_v5,2020.2.10,Win32,60,61025ae37ef11b136ea224fe,,,,,,,,,1441,29,-92,1,0,0,response3disk,,4,5,0,1,0,0,rectangle,5,0,1,0,0,5,0,1,0,0,1,132,292,0,1,,,,,,,,
,,,,,,,,,,,,,FF,,,,,,,,1.6292,,,,,,,,,,,,,,,,,,,,,,610311f92fb14a35337137e7,610368e807a4a531425213df,2021-07-29_22h55.40.351,Simcolourproject_2stim_asymm_v5,2020.2.10,Win32,60,61025ae37ef11b136ea224fe,,,,,,,,,1709,51,96,1,0,0,response1disk,,7,16,-3,1,0,0,rectangle,16,-3,1,0,0,16,-3,1,0,0,1,133,293,32,1,,,,,,,,
,,,,,,,,,,,,,FF,,,,,,,,0.9517,,,,,,,,,,,,,,,,,,,,,,610311f92fb14a35337137e7,610368e807a4a531425213df,2021-07-29_22h55.40.351,Simcolourproject_2stim_asymm_v5,2020.2.10,Win32,60,61025ae37ef11b136ea224fe,,,,,,,,,191,-75,35,1,0,0,response7disk,,1,-16,-5,1,0,0,rectangle,-16,-5,1,0,0,-16,-5,1,0,0,1,134,294,83,1,,,,,,,,
,,,,,,,,,,,,,FF,,,,,,,,1.5267,,,,,,,,,,,,,,,,,,,,,,610311f92fb14a35337137e7,610368e807a4a531425213df,2021-07-29_22h55.40.351,Simcolourproject_2stim_asymm_v5,2020.2.10,Win32,60,61025ae37ef11b136ea224fe,,,,,,,,,3042,89,38,1,0,0,response1disk,,6,7,7,1,0,0,rectangle,7,7,1,0,0,7,7,1,0,0,1,135,295,69,1,,,,,,,,
,,,,,,,,,,,,,FF,,,,,,,,1.1792,,,,,,,,,,,,,,,,,,,,,,610311f92fb14a35337137e7,610368e807a4a531425213df,2021-07-29_22h55.40.351,Simcolourproject_2stim_asymm_v5,2020.2.10,Win32,60,61025ae37ef11b136ea224fe,,,,,,,,,366,-48,87,1,0,0,response7disk,,0,-1,-2,1,0,0,rectangle,-1,-2,1,0,0,-1,-2,1,0,0,1,136,296,11,1,,,,,,,,
,,,,,,,,,,,,,FF,,,,,,,,6.7209,,,,,,,,,,,,,,,,,,,,,,610311f92fb14a35337137e7,610368e807a4a531425213df,2021-07-29_22h55.40.351,Simcolourproject_2stim_asymm_v5,2020.2.10,Win32,60,61025ae37ef11b136ea224fe,,,,,,,,,3278,68,-49,1,0,0,response3disk,,5,-22,5,1,0,0,rectangle,-22,5,1,0,0,-22,5,1,0,0,1,137,297,33,1,,,,,,,,
,,,,,,,,,,,,,FF,,,,,,,,1.1868,,,,,,,,,,,,,,,,,,,,,,610311f92fb14a35337137e7,610368e807a4a531425213df,2021-07-29_22h55.40.351,Simcolourproject_2stim_asymm_v5,2020.2.10,Win32,60,61025ae37ef11b136ea224fe,,,,,,,,,2722,-77,54,1,0,0,response7disk,,1,4,5,1,0,0,rectangle,4,5,1,0,0,4,5,1,0,0,1,138,298,112,1,,,,,,,,
,,,,,,,,,,,,,FF,,,,,,,,1.043299999,,,,,,,,,,,,,,,,,,,,,,610311f92fb14a35337137e7,610368e807a4a531425213df,2021-07-29_22h55.40.351,Simcolourproject_2stim_asymm_v5,2020.2.10,Win32,60,61025ae37ef11b136ea224fe,,,,,,,,,3610,-37,-104,1,0,0,response5disk,,3,26,12,1,0,0,rectangle,26,12,1,0,0,26,12,1,0,0,1,139,299,16,1,,,,,,,,
,,,,,,,,,,,,,FF,,,,,,,,0.747,,,,,,,,,,,,,,,,,,,,,,610311f92fb14a35337137e7,610368e807a4a531425213df,2021-07-29_22h55.40.351,Simcolourproject_2stim_asymm_v5,2020.2.10,Win32,60,61025ae37ef11b136ea224fe,,,,,,,,,2241,-89,38,1,0,0,response7disk,,1,-13,4,1,0,0,rectangle,-13,4,1,0,0,-13,4,1,0,0,1,140,300,111,1,,,,,,,,
