key_resp.keys,key_resp.rt,key_resp_14.keys,key_resp_14.rt,key_resp_15.keys,key_resp_15.rt,key_resp_17.keys,key_resp_17.rt,key_resp_9.keys,key_resp_9.rt,key_resp_10.keys,key_resp_10.rt,practice_comparison,Ecc,mouse_5.x,mouse_5.y,mouse_5.leftButton,mouse_5.midButton,mouse_5.rightButton,mouse_5.clicked_name,pracsimilarity,response_time,mouse_10.x,mouse_10.y,mouse_10.leftButton,mouse_10.midButton,mouse_10.rightButton,mouse_10.clicked_name,mouse_7.x,mouse_7.y,mouse_7.leftButton,mouse_7.midButton,mouse_7.rightButton,mouse_6.x,mouse_6.y,mouse_6.leftButton,mouse_6.midButton,mouse_6.rightButton,duringprac.thisRepN,duringprac.thisTrialN,duringprac.thisN,duringprac.thisIndex,duringprac.ran,participant,session,date,expName,psychopyVersion,OS,frameRate,study_id,mouse_7.clicked_name,catchpracsimilarity,catch_response_time,catchnumberprac,catchtrialorderprac,mouse_6.clicked_name,key_resp_22.keys,key_resp_22.rt,realcomparison,mouse.x,mouse.y,mouse.leftButton,mouse.midButton,mouse.rightButton,mouse.clicked_name,Colour2,similarity,mouse_2.x,mouse_2.y,mouse_2.leftButton,mouse_2.midButton,mouse_2.rightButton,mouse_2.clicked_name,mouse_3.x,mouse_3.y,mouse_3.leftButton,mouse_3.midButton,mouse_3.rightButton,mouse_11.x,mouse_11.y,mouse_11.leftButton,mouse_11.midButton,mouse_11.rightButton,trials_2.thisRepN,trials_2.thisTrialN,trials_2.thisN,trials_2.thisIndex,trials_2.ran,Colour1,mouse_3.clicked_name,catchornah,catchsimilarity,catchnumber,catchtrialorder,catchRT,mouse_11.clicked_name
space,1.179,space,21.6271,space,31.9823,space,8.5207,space,1.2157,space,4.4876,29,FF,40.60546875,96.8359375,1,0,0,response1disk_5,7,8.8038,-1.8828125,-1.64453125,1,0,0,rectangle_8,-1.8828125,-1.64453125,1,0,0,-1.8828125,-1.64453125,1,0,0,0,0,0,5,1,61035aefabf4c24bbcec1b7b,610377b24d9b832d1f35422d,2021-07-29_22h57.42.461,Simcolourproject_2stim_asymm_v5,2020.2.10,MacIntel,60,61025ae37ef11b136ea224fe,,,,,,,,,,,,,,,,,,,,,,,,,,,,,,,,,,,,,,,,,,,,,,
,,,,,,,,,,,,36,FF,66.20703125,-94.62890625,1,0,0,response3disk_5,4,6.3344,2.1015625,-0.53125,1,0,0,rectangle_8,-35.33203125,-85.20703125,1,0,0,-5.421875,3.64453125,1,0,0,0,1,1,0,1,61035aefabf4c24bbcec1b7b,610377b24d9b832d1f35422d,2021-07-29_22h57.42.461,Simcolourproject_2stim_asymm_v5,2020.2.10,MacIntel,60,61025ae37ef11b136ea224fe,response5disk_7,3,2.6189,3,"[2,5]",rectangle_4,,,,,,,,,,,,,,,,,,,,,,,,,,,,,,,,,,,,,,,,
,,,,,,,,,,,,104,PF,73.12109375,-42.81640625,1,0,0,response3disk_5,5,2.8315,-8.05859375,-1.2734375,1,0,0,rectangle_8,-8.05859375,-1.2734375,1,0,0,-8.05859375,-1.2734375,1,0,0,0,2,2,2,1,61035aefabf4c24bbcec1b7b,610377b24d9b832d1f35422d,2021-07-29_22h57.42.461,Simcolourproject_2stim_asymm_v5,2020.2.10,MacIntel,60,61025ae37ef11b136ea224fe,,,,,,,,,,,,,,,,,,,,,,,,,,,,,,,,,,,,,,,,,,,,,,
,,,,,,,,,,,,57,PF,55.32421875,-99.12890625,1,0,0,response3disk_5,4,2.8182,-5.19140625,6.54296875,1,0,0,rectangle_8,-5.19140625,6.54296875,1,0,0,-5.19140625,6.54296875,1,0,0,0,3,3,1,1,61035aefabf4c24bbcec1b7b,610377b24d9b832d1f35422d,2021-07-29_22h57.42.461,Simcolourproject_2stim_asymm_v5,2020.2.10,MacIntel,60,61025ae37ef11b136ea224fe,,,,,,,,,,,,,,,,,,,,,,,,,,,,,,,,,,,,,,,,,,,,,,
,,,,,,,,,,,,139,PF,69.15234375,-32.5703125,1,0,0,response3disk_5,5,2.6818,-4.8203125,5.19140625,1,0,0,rectangle_8,-43.30859375,-89.8984375,1,0,0,-6.9375,-1.203125,1,0,0,0,4,4,4,1,61035aefabf4c24bbcec1b7b,610377b24d9b832d1f35422d,2021-07-29_22h57.42.461,Simcolourproject_2stim_asymm_v5,2020.2.10,MacIntel,60,61025ae37ef11b136ea224fe,response5disk_7,3,1.8828,3,"[2,5]",rectangle_4,,,,,,,,,,,,,,,,,,,,,,,,,,,,,,,,,,,,,,,,
,,,,,,,,,,,,116,FF,36.05859375,64.5703125,1,0,0,response1disk_5,7,1.6517,-3.41015625,4.65625,1,0,0,rectangle_8,-3.41015625,4.65625,1,0,0,-3.41015625,4.65625,1,0,0,0,5,5,3,1,61035aefabf4c24bbcec1b7b,610377b24d9b832d1f35422d,2021-07-29_22h57.42.461,Simcolourproject_2stim_asymm_v5,2020.2.10,MacIntel,60,61025ae37ef11b136ea224fe,,,,,,,,,,,,,,,,,,,,,,,,,,,,,,,,,,,,,,,,,,,,,,
,,,,,,,,,,,,117,PF,44.6015625,102.0625,1,0,0,response1disk_5,7,0.7845,2.3359375,3.16015625,1,0,0,rectangle_8,2.3359375,3.16015625,1,0,0,2.3359375,3.16015625,1,0,0,0,6,6,6,1,61035aefabf4c24bbcec1b7b,610377b24d9b832d1f35422d,2021-07-29_22h57.42.461,Simcolourproject_2stim_asymm_v5,2020.2.10,MacIntel,60,61025ae37ef11b136ea224fe,,,,,,,,,,,,,,,,,,,,,,,,,,,,,,,,,,,,,,,,,,,,,,
,,,,,,,,,,,,,FF,,,,,,,,6.0531,,,,,,,,,,,,,,,,,,,,,,61035aefabf4c24bbcec1b7b,610377b24d9b832d1f35422d,2021-07-29_22h57.42.461,Simcolourproject_2stim_asymm_v5,2020.2.10,MacIntel,60,61025ae37ef11b136ea224fe,,,,,,,space,3.2689,836,75.02734375,50.47265625,1,0,0,response1disk,,6,1.9453125,0.7265625,1,0,0,rectangle,1.9453125,0.7265625,1,0,0,1.9453125,0.7265625,1,0,0,0,0,0,139,1,,,,,,,,
,,,,,,,,,,,,,FF,,,,,,,,2.3666,,,,,,,,,,,,,,,,,,,,,,61035aefabf4c24bbcec1b7b,610377b24d9b832d1f35422d,2021-07-29_22h57.42.461,Simcolourproject_2stim_asymm_v5,2020.2.10,MacIntel,60,61025ae37ef11b136ea224fe,,,,,,,,,538,98.953125,65.47265625,1,0,0,response1disk,,6,-3.33203125,1.86328125,1,0,0,rectangle,-3.33203125,1.86328125,1,0,0,-3.33203125,1.86328125,1,0,0,0,1,1,15,1,,,,,,,,
,,,,,,,,,,,,,FF,,,,,,,,1.7178,,,,,,,,,,,,,,,,,,,,,,61035aefabf4c24bbcec1b7b,610377b24d9b832d1f35422d,2021-07-29_22h57.42.461,Simcolourproject_2stim_asymm_v5,2020.2.10,MacIntel,60,61025ae37ef11b136ea224fe,,,,,,,,,522,-42.625,-89.46484375,1,0,0,response5disk,,3,-2.5859375,2.16015625,1,0,0,rectangle,-2.5859375,2.16015625,1,0,0,-2.5859375,2.16015625,1,0,0,0,2,2,158,1,,,,,,,,
,,,,,,,,,,,,,FF,,,,,,,,1.0648,,,,,,,,,,,,,,,,,,,,,,61035aefabf4c24bbcec1b7b,610377b24d9b832d1f35422d,2021-07-29_22h57.42.461,Simcolourproject_2stim_asymm_v5,2020.2.10,MacIntel,60,61025ae37ef11b136ea224fe,,,,,,,,,2060,111.2890625,-47.63671875,1,0,0,response3disk,,5,0.2890625,3.15625,1,0,0,rectangle,0.2890625,3.15625,1,0,0,0.2890625,3.15625,1,0,0,0,3,3,45,1,,,,,,,,
,,,,,,,,,,,,,FF,,,,,,,,0.9019,,,,,,,,,,,,,,,,,,,,,,61035aefabf4c24bbcec1b7b,610377b24d9b832d1f35422d,2021-07-29_22h57.42.461,Simcolourproject_2stim_asymm_v5,2020.2.10,MacIntel,60,61025ae37ef11b136ea224fe,,,,,,,,,2215,42.4140625,71.43359375,1,0,0,response1disk,,7,-2.04296875,-0.6953125,1,0,0,rectangle,-2.04296875,-0.6953125,1,0,0,-2.04296875,-0.6953125,1,0,0,0,4,4,122,1,,,,,,,,
,,,,,,,,,,,,,FF,,,,,,,,1.1666,,,,,,,,,,,,,,,,,,,,,,61035aefabf4c24bbcec1b7b,610377b24d9b832d1f35422d,2021-07-29_22h57.42.461,Simcolourproject_2stim_asymm_v5,2020.2.10,MacIntel,60,61025ae37ef11b136ea224fe,,,,,,,,,2284,35.58203125,-88.1015625,1,0,0,response3disk,,4,-5.66796875,2.2890625,1,0,0,rectangle,-5.66796875,2.2890625,1,0,0,-5.66796875,2.2890625,1,0,0,0,5,5,23,1,,,,,,,,
,,,,,,,,,,,,,FF,,,,,,,,1.1501,,,,,,,,,,,,,,,,,,,,,,61035aefabf4c24bbcec1b7b,610377b24d9b832d1f35422d,2021-07-29_22h57.42.461,Simcolourproject_2stim_asymm_v5,2020.2.10,MacIntel,60,61025ae37ef11b136ea224fe,,,,,,,,,2853,103.7539063,41.86328125,1,0,0,response1disk,,6,-6.57421875,-0.6171875,1,0,0,rectangle,30.3828125,-99.984375,1,0,0,-4.92578125,6.1015625,1,0,0,0,6,6,116,1,,response3disk_3,TRUE,4,4,"[145,80,288,299,314,140,114,7,108,308,298,111,278,156,51,205,70,15,218,250]",1.5184,rectangle
,,,,,,,,,,,,,FF,,,,,,,,1.567,,,,,,,,,,,,,,,,,,,,,,61035aefabf4c24bbcec1b7b,610377b24d9b832d1f35422d,2021-07-29_22h57.42.461,Simcolourproject_2stim_asymm_v5,2020.2.10,MacIntel,60,61025ae37ef11b136ea224fe,,,,,,,,,3714,-85.8046875,-42.8125,1,0,0,response5disk,,2,-6.28125,-3.1328125,1,0,0,rectangle,-6.28125,-3.1328125,1,0,0,-6.28125,-3.1328125,1,0,0,0,7,7,72,1,,,,,,,,
,,,,,,,,,,,,,FF,,,,,,,,1.3486,,,,,,,,,,,,,,,,,,,,,,61035aefabf4c24bbcec1b7b,610377b24d9b832d1f35422d,2021-07-29_22h57.42.461,Simcolourproject_2stim_asymm_v5,2020.2.10,MacIntel,60,61025ae37ef11b136ea224fe,,,,,,,,,2385,95.453125,41.62890625,1,0,0,response1disk,,6,-5.546875,1.8828125,1,0,0,rectangle,-5.546875,1.8828125,1,0,0,-5.546875,1.8828125,1,0,0,0,8,8,40,1,,,,,,,,
,,,,,,,,,,,,,FF,,,,,,,,0.9824,,,,,,,,,,,,,,,,,,,,,,61035aefabf4c24bbcec1b7b,610377b24d9b832d1f35422d,2021-07-29_22h57.42.461,Simcolourproject_2stim_asymm_v5,2020.2.10,MacIntel,60,61025ae37ef11b136ea224fe,,,,,,,,,2169,46.16796875,-98.421875,1,0,0,response3disk,,4,-0.7890625,-4.25,1,0,0,rectangle,-0.7890625,-4.25,1,0,0,-0.7890625,-4.25,1,0,0,0,9,9,48,1,,,,,,,,
,,,,,,,,,,,,,FF,,,,,,,,1.698,,,,,,,,,,,,,,,,,,,,,,61035aefabf4c24bbcec1b7b,610377b24d9b832d1f35422d,2021-07-29_22h57.42.461,Simcolourproject_2stim_asymm_v5,2020.2.10,MacIntel,60,61025ae37ef11b136ea224fe,,,,,,,,,1363,92.15234375,-44.67578125,1,0,0,response3disk,,5,-8.08984375,8.6328125,1,0,0,rectangle,-8.08984375,8.6328125,1,0,0,-8.08984375,8.6328125,1,0,0,0,10,10,51,1,,,,,,,,
,,,,,,,,,,,,,FF,,,,,,,,0.9488,,,,,,,,,,,,,,,,,,,,,,61035aefabf4c24bbcec1b7b,610377b24d9b832d1f35422d,2021-07-29_22h57.42.461,Simcolourproject_2stim_asymm_v5,2020.2.10,MacIntel,60,61025ae37ef11b136ea224fe,,,,,,,,,34,36.4375,82.7109375,1,0,0,response1disk,,7,-2.7890625,5.265625,1,0,0,rectangle,-2.7890625,5.265625,1,0,0,-2.7890625,5.265625,1,0,0,0,11,11,62,1,,,,,,,,
,,,,,,,,,,,,,FF,,,,,,,,1.7496,,,,,,,,,,,,,,,,,,,,,,61035aefabf4c24bbcec1b7b,610377b24d9b832d1f35422d,2021-07-29_22h57.42.461,Simcolourproject_2stim_asymm_v5,2020.2.10,MacIntel,60,61025ae37ef11b136ea224fe,,,,,,,,,4206,-88.09765625,-32.84765625,1,0,0,response5disk,,2,-9.9296875,1.828125,1,0,0,rectangle,-9.9296875,1.828125,1,0,0,-9.9296875,1.828125,1,0,0,0,12,12,46,1,,,,,,,,
,,,,,,,,,,,,,FF,,,,,,,,1.0333,,,,,,,,,,,,,,,,,,,,,,61035aefabf4c24bbcec1b7b,610377b24d9b832d1f35422d,2021-07-29_22h57.42.461,Simcolourproject_2stim_asymm_v5,2020.2.10,MacIntel,60,61025ae37ef11b136ea224fe,,,,,,,,,349,-46.48046875,-107.9257813,1,0,0,response5disk,,3,-3.51953125,-2.8671875,1,0,0,rectangle,-3.51953125,-2.8671875,1,0,0,-3.51953125,-2.8671875,1,0,0,0,13,13,142,1,,,,,,,,
,,,,,,,,,,,,,FF,,,,,,,,2.0516,,,,,,,,,,,,,,,,,,,,,,61035aefabf4c24bbcec1b7b,610377b24d9b832d1f35422d,2021-07-29_22h57.42.461,Simcolourproject_2stim_asymm_v5,2020.2.10,MacIntel,60,61025ae37ef11b136ea224fe,,,,,,,,,1408,30.35546875,-93.4921875,1,0,0,response3disk,,4,-3.8203125,3.4140625,1,0,0,rectangle,85.140625,-34.4375,1,0,0,-3.29296875,0.5859375,1,0,0,0,14,14,65,1,,response3disk_3,TRUE,5,5,"[145,80,288,299,314,140,114,7,108,308,298,111,278,156,51,205,70,15,218,250]",1.6986,rectangle
,,,,,,,,,,,,,FF,,,,,,,,2.3357,,,,,,,,,,,,,,,,,,,,,,61035aefabf4c24bbcec1b7b,610377b24d9b832d1f35422d,2021-07-29_22h57.42.461,Simcolourproject_2stim_asymm_v5,2020.2.10,MacIntel,60,61025ae37ef11b136ea224fe,,,,,,,,,1098,97.83203125,45.08984375,1,0,0,response1disk,,6,3.609375,-1.16015625,1,0,0,rectangle,3.609375,-1.16015625,1,0,0,3.609375,-1.16015625,1,0,0,0,15,15,140,1,,,,,,,,
,,,,,,,,,,,,,FF,,,,,,,,2.3668,,,,,,,,,,,,,,,,,,,,,,61035aefabf4c24bbcec1b7b,610377b24d9b832d1f35422d,2021-07-29_22h57.42.461,Simcolourproject_2stim_asymm_v5,2020.2.10,MacIntel,60,61025ae37ef11b136ea224fe,,,,,,,,,366,-45.6640625,93.36328125,1,0,0,response7disk,,0,-1.21484375,-2.1796875,1,0,0,rectangle,-1.21484375,-2.1796875,1,0,0,-1.21484375,-2.1796875,1,0,0,0,16,16,134,1,,,,,,,,
,,,,,,,,,,,,,FF,,,,,,,,1.3002,,,,,,,,,,,,,,,,,,,,,,61035aefabf4c24bbcec1b7b,610377b24d9b832d1f35422d,2021-07-29_22h57.42.461,Simcolourproject_2stim_asymm_v5,2020.2.10,MacIntel,60,61025ae37ef11b136ea224fe,,,,,,,,,4331,-43.9921875,-94.99609375,1,0,0,response5disk,,3,-3.6484375,-4.43359375,1,0,0,rectangle,-3.6484375,-4.43359375,1,0,0,-3.6484375,-4.43359375,1,0,0,0,17,17,135,1,,,,,,,,
,,,,,,,,,,,,,FF,,,,,,,,1.1995,,,,,,,,,,,,,,,,,,,,,,61035aefabf4c24bbcec1b7b,610377b24d9b832d1f35422d,2021-07-29_22h57.42.461,Simcolourproject_2stim_asymm_v5,2020.2.10,MacIntel,60,61025ae37ef11b136ea224fe,,,,,,,,,149,101.2265625,43.1875,1,0,0,response1disk,,6,0.10546875,-2.66796875,1,0,0,rectangle,0.10546875,-2.66796875,1,0,0,0.10546875,-2.66796875,1,0,0,0,18,18,21,1,,,,,,,,
,,,,,,,,,,,,,FF,,,,,,,,0.8168,,,,,,,,,,,,,,,,,,,,,,61035aefabf4c24bbcec1b7b,610377b24d9b832d1f35422d,2021-07-29_22h57.42.461,Simcolourproject_2stim_asymm_v5,2020.2.10,MacIntel,60,61025ae37ef11b136ea224fe,,,,,,,,,534,35.93359375,96.11328125,1,0,0,response1disk,,7,-4.85546875,-1.328125,1,0,0,rectangle,-4.85546875,-1.328125,1,0,0,-4.85546875,-1.328125,1,0,0,0,19,19,29,1,,,,,,,,
,,,,,,,,,,,,,FF,,,,,,,,1.1486,,,,,,,,,,,,,,,,,,,,,,61035aefabf4c24bbcec1b7b,610377b24d9b832d1f35422d,2021-07-29_22h57.42.461,Simcolourproject_2stim_asymm_v5,2020.2.10,MacIntel,60,61025ae37ef11b136ea224fe,,,,,,,,,1738,104.8320313,38.0703125,1,0,0,response1disk,,6,0.40234375,-1.30859375,1,0,0,rectangle,0.40234375,-1.30859375,1,0,0,0.40234375,-1.30859375,1,0,0,0,20,20,71,1,,,,,,,,
,,,,,,,,,,,,,FF,,,,,,,,1.2724,,,,,,,,,,,,,,,,,,,,,,61035aefabf4c24bbcec1b7b,610377b24d9b832d1f35422d,2021-07-29_22h57.42.461,Simcolourproject_2stim_asymm_v5,2020.2.10,MacIntel,60,61025ae37ef11b136ea224fe,,,,,,,,,272,94.1640625,43.63671875,1,0,0,response1disk,,6,-2.04296875,-1.51953125,1,0,0,rectangle,-2.04296875,-1.51953125,1,0,0,-2.04296875,-1.51953125,1,0,0,0,21,21,54,1,,,,,,,,
,,,,,,,,,,,,,FF,,,,,,,,1.1496,,,,,,,,,,,,,,,,,,,,,,61035aefabf4c24bbcec1b7b,610377b24d9b832d1f35422d,2021-07-29_22h57.42.461,Simcolourproject_2stim_asymm_v5,2020.2.10,MacIntel,60,61025ae37ef11b136ea224fe,,,,,,,,,1972,-92.671875,-42.375,1,0,0,response5disk,,2,-1.28515625,-1.24609375,1,0,0,rectangle,-1.28515625,-1.24609375,1,0,0,-1.28515625,-1.24609375,1,0,0,0,22,22,101,1,,,,,,,,
,,,,,,,,,,,,,FF,,,,,,,,1.8834,,,,,,,,,,,,,,,,,,,,,,61035aefabf4c24bbcec1b7b,610377b24d9b832d1f35422d,2021-07-29_22h57.42.461,Simcolourproject_2stim_asymm_v5,2020.2.10,MacIntel,60,61025ae37ef11b136ea224fe,,,,,,,,,4229,84.46875,-39.23828125,1,0,0,response3disk,,5,-1.5078125,-0.83203125,1,0,0,rectangle,-1.5078125,-0.83203125,1,0,0,-1.5078125,-0.83203125,1,0,0,0,23,23,34,1,,,,,,,,
,,,,,,,,,,,,,FF,,,,,,,,1.0835,,,,,,,,,,,,,,,,,,,,,,61035aefabf4c24bbcec1b7b,610377b24d9b832d1f35422d,2021-07-29_22h57.42.461,Simcolourproject_2stim_asymm_v5,2020.2.10,MacIntel,60,61025ae37ef11b136ea224fe,,,,,,,,,3470,-92.79296875,-43.7734375,1,0,0,response5disk,,2,-2.7578125,0.421875,1,0,0,rectangle,-2.7578125,0.421875,1,0,0,-2.7578125,0.421875,1,0,0,0,24,24,150,1,,,,,,,,
,,,,,,,,,,,,,FF,,,,,,,,2.7004,,,,,,,,,,,,,,,,,,,,,,61035aefabf4c24bbcec1b7b,610377b24d9b832d1f35422d,2021-07-29_22h57.42.461,Simcolourproject_2stim_asymm_v5,2020.2.10,MacIntel,60,61025ae37ef11b136ea224fe,,,,,,,,,2724,27.203125,-98.33984375,1,0,0,response3disk,,4,0.25,-1.328125,1,0,0,rectangle,0.25,-1.328125,1,0,0,0.25,-1.328125,1,0,0,0,25,25,43,1,,,,,,,,
,,,,,,,,,,,,,FF,,,,,,,,0.984,,,,,,,,,,,,,,,,,,,,,,61035aefabf4c24bbcec1b7b,610377b24d9b832d1f35422d,2021-07-29_22h57.42.461,Simcolourproject_2stim_asymm_v5,2020.2.10,MacIntel,60,61025ae37ef11b136ea224fe,,,,,,,,,120,90.9453125,45.0078125,1,0,0,response1disk,,6,-6.16015625,-1.765625,1,0,0,rectangle,-6.16015625,-1.765625,1,0,0,-6.16015625,-1.765625,1,0,0,0,26,26,76,1,,,,,,,,
,,,,,,,,,,,,,FF,,,,,,,,0.8665,,,,,,,,,,,,,,,,,,,,,,61035aefabf4c24bbcec1b7b,610377b24d9b832d1f35422d,2021-07-29_22h57.42.461,Simcolourproject_2stim_asymm_v5,2020.2.10,MacIntel,60,61025ae37ef11b136ea224fe,,,,,,,,,2091,44.015625,101.5898438,1,0,0,response1disk,,7,-0.12890625,-3.07421875,1,0,0,rectangle,-0.12890625,-3.07421875,1,0,0,-0.12890625,-3.07421875,1,0,0,0,27,27,133,1,,,,,,,,
,,,,,,,,,,,,,FF,,,,,,,,1.3984,,,,,,,,,,,,,,,,,,,,,,61035aefabf4c24bbcec1b7b,610377b24d9b832d1f35422d,2021-07-29_22h57.42.461,Simcolourproject_2stim_asymm_v5,2020.2.10,MacIntel,60,61025ae37ef11b136ea224fe,,,,,,,,,3517,-91.2421875,-41.90625,1,0,0,response5disk,,2,-1.86328125,1.0859375,1,0,0,rectangle,-1.86328125,1.0859375,1,0,0,-1.86328125,1.0859375,1,0,0,0,28,28,74,1,,,,,,,,
,,,,,,,,,,,,,FF,,,,,,,,0.9002,,,,,,,,,,,,,,,,,,,,,,61035aefabf4c24bbcec1b7b,610377b24d9b832d1f35422d,2021-07-29_22h57.42.461,Simcolourproject_2stim_asymm_v5,2020.2.10,MacIntel,60,61025ae37ef11b136ea224fe,,,,,,,,,228,79.3046875,-39.328125,1,0,0,response3disk,,5,-2.578125,3.515625,1,0,0,rectangle,-2.578125,3.515625,1,0,0,-2.578125,3.515625,1,0,0,0,29,29,28,1,,,,,,,,
,,,,,,,,,,,,,FF,,,,,,,,1.2007,,,,,,,,,,,,,,,,,,,,,,61035aefabf4c24bbcec1b7b,610377b24d9b832d1f35422d,2021-07-29_22h57.42.461,Simcolourproject_2stim_asymm_v5,2020.2.10,MacIntel,60,61025ae37ef11b136ea224fe,,,,,,,,,3780,-88.796875,-32.01953125,1,0,0,response5disk,,2,-4.5703125,-0.91015625,1,0,0,rectangle,-4.5703125,-0.91015625,1,0,0,-4.5703125,-0.91015625,1,0,0,0,30,30,82,1,,,,,,,,
,,,,,,,,,,,,,FF,,,,,,,,2.6174,,,,,,,,,,,,,,,,,,,,,,61035aefabf4c24bbcec1b7b,610377b24d9b832d1f35422d,2021-07-29_22h57.42.461,Simcolourproject_2stim_asymm_v5,2020.2.10,MacIntel,60,61025ae37ef11b136ea224fe,,,,,,,,,1224,45.5546875,-97.5078125,1,0,0,response3disk,,4,-0.5859375,-1.70703125,1,0,0,rectangle,-0.5859375,-1.70703125,1,0,0,-0.5859375,-1.70703125,1,0,0,0,31,31,155,1,,,,,,,,
,,,,,,,,,,,,,FF,,,,,,,,0.8684,,,,,,,,,,,,,,,,,,,,,,61035aefabf4c24bbcec1b7b,610377b24d9b832d1f35422d,2021-07-29_22h57.42.461,Simcolourproject_2stim_asymm_v5,2020.2.10,MacIntel,60,61025ae37ef11b136ea224fe,,,,,,,,,4282,-89.71875,40,1,0,0,response7disk,,1,-3.08203125,0.984375,1,0,0,rectangle,-3.08203125,0.984375,1,0,0,-3.08203125,0.984375,1,0,0,0,32,32,137,1,,,,,,,,
,,,,,,,,,,,,,FF,,,,,,,,0.8166,,,,,,,,,,,,,,,,,,,,,,61035aefabf4c24bbcec1b7b,610377b24d9b832d1f35422d,2021-07-29_22h57.42.461,Simcolourproject_2stim_asymm_v5,2020.2.10,MacIntel,60,61025ae37ef11b136ea224fe,,,,,,,,,4246,109.453125,42.99609375,1,0,0,response1disk,,6,-6.1171875,-3.46484375,1,0,0,rectangle,-6.1171875,-3.46484375,1,0,0,-6.1171875,-3.46484375,1,0,0,0,33,33,44,1,,,,,,,,
,,,,,,,,,,,,,FF,,,,,,,,0.9664,,,,,,,,,,,,,,,,,,,,,,61035aefabf4c24bbcec1b7b,610377b24d9b832d1f35422d,2021-07-29_22h57.42.461,Simcolourproject_2stim_asymm_v5,2020.2.10,MacIntel,60,61025ae37ef11b136ea224fe,,,,,,,,,2349,33.19140625,101.4414063,1,0,0,response1disk,,7,3.42578125,0.625,1,0,0,rectangle,3.42578125,0.625,1,0,0,3.42578125,0.625,1,0,0,0,34,34,104,1,,,,,,,,
,,,,,,,,,,,,,FF,,,,,,,,1.5652,,,,,,,,,,,,,,,,,,,,,,61035aefabf4c24bbcec1b7b,610377b24d9b832d1f35422d,2021-07-29_22h57.42.461,Simcolourproject_2stim_asymm_v5,2020.2.10,MacIntel,60,61025ae37ef11b136ea224fe,,,,,,,,,2489,38.42578125,-88.26953125,1,0,0,response3disk,,4,-0.90234375,0.078125,1,0,0,rectangle,-0.90234375,0.078125,1,0,0,-0.90234375,0.078125,1,0,0,0,35,35,67,1,,,,,,,,
,,,,,,,,,,,,,FF,,,,,,,,9.3862,,,,,,,,,,,,,,,,,,,,,,61035aefabf4c24bbcec1b7b,610377b24d9b832d1f35422d,2021-07-29_22h57.42.461,Simcolourproject_2stim_asymm_v5,2020.2.10,MacIntel,60,61025ae37ef11b136ea224fe,,,,,,,,,1619,80.484375,-49.91015625,1,0,0,response3disk,,5,-0.765625,-0.19140625,1,0,0,rectangle,-0.765625,-0.19140625,1,0,0,-0.765625,-0.19140625,1,0,0,0,36,36,87,1,,,,,,,,
,,,,,,,,,,,,,FF,,,,,,,,1.8803,,,,,,,,,,,,,,,,,,,,,,61035aefabf4c24bbcec1b7b,610377b24d9b832d1f35422d,2021-07-29_22h57.42.461,Simcolourproject_2stim_asymm_v5,2020.2.10,MacIntel,60,61025ae37ef11b136ea224fe,,,,,,,,,3012,39.0078125,-97.4453125,1,0,0,response3disk,,4,0.1015625,-0.55859375,1,0,0,rectangle,0.1015625,-0.55859375,1,0,0,0.1015625,-0.55859375,1,0,0,0,37,37,138,1,,,,,,,,
,,,,,,,,,,,,,FF,,,,,,,,1.1007,,,,,,,,,,,,,,,,,,,,,,61035aefabf4c24bbcec1b7b,610377b24d9b832d1f35422d,2021-07-29_22h57.42.461,Simcolourproject_2stim_asymm_v5,2020.2.10,MacIntel,60,61025ae37ef11b136ea224fe,,,,,,,,,1406,40.6484375,95.51171875,1,0,0,response1disk,,7,-1.67578125,-2.9296875,1,0,0,rectangle,-1.67578125,-2.9296875,1,0,0,-1.67578125,-2.9296875,1,0,0,0,38,38,18,1,,,,,,,,
,,,,,,,,,,,,,FF,,,,,,,,0.7168,,,,,,,,,,,,,,,,,,,,,,61035aefabf4c24bbcec1b7b,610377b24d9b832d1f35422d,2021-07-29_22h57.42.461,Simcolourproject_2stim_asymm_v5,2020.2.10,MacIntel,60,61025ae37ef11b136ea224fe,,,,,,,,,301,35.67578125,95.18359375,1,0,0,response1disk,,7,-1.3828125,-3.7578125,1,0,0,rectangle,-1.3828125,-3.7578125,1,0,0,-1.3828125,-3.7578125,1,0,0,0,39,39,96,1,,,,,,,,
,,,,,,,,,,,,,FF,,,,,,,,2.2672,,,,,,,,,,,,,,,,,,,,,,61035aefabf4c24bbcec1b7b,610377b24d9b832d1f35422d,2021-07-29_22h57.42.461,Simcolourproject_2stim_asymm_v5,2020.2.10,MacIntel,60,61025ae37ef11b136ea224fe,,,,,,,,,4074,-41.87109375,-97.55859375,1,0,0,response5disk,,3,8.484375,2.6484375,1,0,0,rectangle,8.484375,2.6484375,1,0,0,8.484375,2.6484375,1,0,0,0,40,40,36,1,,,,,,,,
,,,,,,,,,,,,,FF,,,,,,,,1.098,,,,,,,,,,,,,,,,,,,,,,61035aefabf4c24bbcec1b7b,610377b24d9b832d1f35422d,2021-07-29_22h57.42.461,Simcolourproject_2stim_asymm_v5,2020.2.10,MacIntel,60,61025ae37ef11b136ea224fe,,,,,,,,,3344,80.5546875,-45.921875,1,0,0,response3disk,,5,-0.87890625,0.94921875,1,0,0,rectangle,-0.87890625,0.94921875,1,0,0,-0.87890625,0.94921875,1,0,0,0,41,41,7,1,,,,,,,,
,,,,,,,,,,,,,FF,,,,,,,,0.9668,,,,,,,,,,,,,,,,,,,,,,61035aefabf4c24bbcec1b7b,610377b24d9b832d1f35422d,2021-07-29_22h57.42.461,Simcolourproject_2stim_asymm_v5,2020.2.10,MacIntel,60,61025ae37ef11b136ea224fe,,,,,,,,,1366,100.3476563,30.66015625,1,0,0,response1disk,,6,-4.57421875,4.83203125,1,0,0,rectangle,-4.57421875,4.83203125,1,0,0,-4.57421875,4.83203125,1,0,0,0,42,42,17,1,,,,,,,,
,,,,,,,,,,,,,FF,,,,,,,,1.0181,,,,,,,,,,,,,,,,,,,,,,61035aefabf4c24bbcec1b7b,610377b24d9b832d1f35422d,2021-07-29_22h57.42.461,Simcolourproject_2stim_asymm_v5,2020.2.10,MacIntel,60,61025ae37ef11b136ea224fe,,,,,,,,,3980,-42.5234375,-98.671875,1,0,0,response5disk,,3,-0.359375,3.421875,1,0,0,rectangle,-0.359375,3.421875,1,0,0,-0.359375,3.421875,1,0,0,0,43,43,49,1,,,,,,,,
,,,,,,,,,,,,,FF,,,,,,,,0.9317,,,,,,,,,,,,,,,,,,,,,,61035aefabf4c24bbcec1b7b,610377b24d9b832d1f35422d,2021-07-29_22h57.42.461,Simcolourproject_2stim_asymm_v5,2020.2.10,MacIntel,60,61025ae37ef11b136ea224fe,,,,,,,,,2280,37.15625,94.640625,1,0,0,response1disk,,7,-7.28515625,-1.20703125,1,0,0,rectangle,-7.28515625,-1.20703125,1,0,0,-7.28515625,-1.20703125,1,0,0,0,44,44,47,1,,,,,,,,
,,,,,,,,,,,,,FF,,,,,,,,0.9686,,,,,,,,,,,,,,,,,,,,,,61035aefabf4c24bbcec1b7b,610377b24d9b832d1f35422d,2021-07-29_22h57.42.461,Simcolourproject_2stim_asymm_v5,2020.2.10,MacIntel,60,61025ae37ef11b136ea224fe,,,,,,,,,1532,87.98828125,-40.14453125,1,0,0,response3disk,,5,6.76171875,6.34765625,1,0,0,rectangle,6.76171875,6.34765625,1,0,0,6.76171875,6.34765625,1,0,0,0,45,45,80,1,,,,,,,,
,,,,,,,,,,,,,FF,,,,,,,,1.0812,,,,,,,,,,,,,,,,,,,,,,61035aefabf4c24bbcec1b7b,610377b24d9b832d1f35422d,2021-07-29_22h57.42.461,Simcolourproject_2stim_asymm_v5,2020.2.10,MacIntel,60,61025ae37ef11b136ea224fe,,,,,,,,,1359,38.94140625,104.7578125,1,0,0,response1disk,,7,-0.91796875,-2.5859375,1,0,0,rectangle,-0.91796875,-2.5859375,1,0,0,-0.91796875,-2.5859375,1,0,0,0,46,46,12,1,,,,,,,,
,,,,,,,,,,,,,FF,,,,,,,,1.7168,,,,,,,,,,,,,,,,,,,,,,61035aefabf4c24bbcec1b7b,610377b24d9b832d1f35422d,2021-07-29_22h57.42.461,Simcolourproject_2stim_asymm_v5,2020.2.10,MacIntel,60,61025ae37ef11b136ea224fe,,,,,,,,,2430,52.5,-93.77734375,1,0,0,response3disk,,4,-2.8359375,-7.9765625,1,0,0,rectangle,-2.8359375,-7.9765625,1,0,0,-2.8359375,-7.9765625,1,0,0,0,47,47,24,1,,,,,,,,
,,,,,,,,,,,,,FF,,,,,,,,1.1502,,,,,,,,,,,,,,,,,,,,,,61035aefabf4c24bbcec1b7b,610377b24d9b832d1f35422d,2021-07-29_22h57.42.461,Simcolourproject_2stim_asymm_v5,2020.2.10,MacIntel,60,61025ae37ef11b136ea224fe,,,,,,,,,1248,85.99609375,47.015625,1,0,0,response1disk,,6,2.40625,0.83203125,1,0,0,rectangle,2.40625,0.83203125,1,0,0,2.40625,0.83203125,1,0,0,0,48,48,1,1,,,,,,,,
,,,,,,,,,,,,,FF,,,,,,,,1.0183,,,,,,,,,,,,,,,,,,,,,,61035aefabf4c24bbcec1b7b,610377b24d9b832d1f35422d,2021-07-29_22h57.42.461,Simcolourproject_2stim_asymm_v5,2020.2.10,MacIntel,60,61025ae37ef11b136ea224fe,,,,,,,,,3162,-44.37109375,-100.5976563,1,0,0,response5disk,,3,-3.84765625,2.00390625,1,0,0,rectangle,-3.84765625,2.00390625,1,0,0,-3.84765625,2.00390625,1,0,0,0,49,49,123,1,,,,,,,,
,,,,,,,,,,,,,FF,,,,,,,,0.7996,,,,,,,,,,,,,,,,,,,,,,61035aefabf4c24bbcec1b7b,610377b24d9b832d1f35422d,2021-07-29_22h57.42.461,Simcolourproject_2stim_asymm_v5,2020.2.10,MacIntel,60,61025ae37ef11b136ea224fe,,,,,,,,,1643,37.703125,92.75390625,1,0,0,response1disk,,7,4.109375,-4.0546875,1,0,0,rectangle,-42.0546875,-98.3046875,1,0,0,2.3515625,-0.62109375,1,0,0,0,50,50,129,1,,response5disk_3,TRUE,3,3,"[145,80,288,299,314,140,114,7,108,308,298,111,278,156,51,205,70,15,218,250]",1.8363,rectangle
,,,,,,,,,,,,,FF,,,,,,,,1.4355,,,,,,,,,,,,,,,,,,,,,,61035aefabf4c24bbcec1b7b,610377b24d9b832d1f35422d,2021-07-29_22h57.42.461,Simcolourproject_2stim_asymm_v5,2020.2.10,MacIntel,60,61025ae37ef11b136ea224fe,,,,,,,,,4168,-90.52734375,37.078125,1,0,0,response7disk,,1,6.89453125,-3.6015625,1,0,0,rectangle,6.89453125,-3.6015625,1,0,0,6.89453125,-3.6015625,1,0,0,0,51,51,124,1,,,,,,,,
,,,,,,,,,,,,,FF,,,,,,,,0.8509,,,,,,,,,,,,,,,,,,,,,,61035aefabf4c24bbcec1b7b,610377b24d9b832d1f35422d,2021-07-29_22h57.42.461,Simcolourproject_2stim_asymm_v5,2020.2.10,MacIntel,60,61025ae37ef11b136ea224fe,,,,,,,,,1698,-43.31640625,-96.1953125,1,0,0,response5disk,,3,1.20703125,-1.57421875,1,0,0,rectangle,1.20703125,-1.57421875,1,0,0,1.20703125,-1.57421875,1,0,0,0,52,52,105,1,,,,,,,,
,,,,,,,,,,,,,FF,,,,,,,,1.0163,,,,,,,,,,,,,,,,,,,,,,61035aefabf4c24bbcec1b7b,610377b24d9b832d1f35422d,2021-07-29_22h57.42.461,Simcolourproject_2stim_asymm_v5,2020.2.10,MacIntel,60,61025ae37ef11b136ea224fe,,,,,,,,,4128,95.21484375,29.59375,1,0,0,response1disk,,6,-0.1875,-1.3984375,1,0,0,rectangle,-0.1875,-1.3984375,1,0,0,-0.1875,-1.3984375,1,0,0,0,53,53,53,1,,,,,,,,
,,,,,,,,,,,,,FF,,,,,,,,0.9497,,,,,,,,,,,,,,,,,,,,,,61035aefabf4c24bbcec1b7b,610377b24d9b832d1f35422d,2021-07-29_22h57.42.461,Simcolourproject_2stim_asymm_v5,2020.2.10,MacIntel,60,61025ae37ef11b136ea224fe,,,,,,,,,3512,-90.93359375,-39.28515625,1,0,0,response5disk,,2,-3.78125,3.71484375,1,0,0,rectangle,-3.78125,3.71484375,1,0,0,-3.78125,3.71484375,1,0,0,0,54,54,32,1,,,,,,,,
,,,,,,,,,,,,,FF,,,,,,,,0.9333,,,,,,,,,,,,,,,,,,,,,,61035aefabf4c24bbcec1b7b,610377b24d9b832d1f35422d,2021-07-29_22h57.42.461,Simcolourproject_2stim_asymm_v5,2020.2.10,MacIntel,60,61025ae37ef11b136ea224fe,,,,,,,,,2384,40.5234375,-102.2851563,1,0,0,response3disk,,4,-1.05859375,-0.78515625,1,0,0,rectangle,-1.05859375,-0.78515625,1,0,0,-1.05859375,-0.78515625,1,0,0,0,55,55,97,1,,,,,,,,
,,,,,,,,,,,,,FF,,,,,,,,0.968,,,,,,,,,,,,,,,,,,,,,,61035aefabf4c24bbcec1b7b,610377b24d9b832d1f35422d,2021-07-29_22h57.42.461,Simcolourproject_2stim_asymm_v5,2020.2.10,MacIntel,60,61025ae37ef11b136ea224fe,,,,,,,,,588,44.91796875,99.3359375,1,0,0,response1disk,,7,0.36328125,-3.640625,1,0,0,rectangle,0.36328125,-3.640625,1,0,0,0.36328125,-3.640625,1,0,0,0,56,56,148,1,,,,,,,,
,,,,,,,,,,,,,FF,,,,,,,,1.4676,,,,,,,,,,,,,,,,,,,,,,61035aefabf4c24bbcec1b7b,610377b24d9b832d1f35422d,2021-07-29_22h57.42.461,Simcolourproject_2stim_asymm_v5,2020.2.10,MacIntel,60,61025ae37ef11b136ea224fe,,,,,,,,,1749,95.6875,28.63671875,1,0,0,response1disk,,6,0.30078125,5.796875,1,0,0,rectangle,0.30078125,5.796875,1,0,0,0.30078125,5.796875,1,0,0,0,57,57,146,1,,,,,,,,
,,,,,,,,,,,,,FF,,,,,,,,4.5359,,,,,,,,,,,,,,,,,,,,,,61035aefabf4c24bbcec1b7b,610377b24d9b832d1f35422d,2021-07-29_22h57.42.461,Simcolourproject_2stim_asymm_v5,2020.2.10,MacIntel,60,61025ae37ef11b136ea224fe,,,,,,,,,3030,52.28125,-107.9609375,1,0,0,response3disk,,4,-0.19140625,-10.13671875,1,0,0,rectangle,-0.19140625,-10.13671875,1,0,0,-0.19140625,-10.13671875,1,0,0,0,58,58,52,1,,,,,,,,
,,,,,,,,,,,,,FF,,,,,,,,1.267,,,,,,,,,,,,,,,,,,,,,,61035aefabf4c24bbcec1b7b,610377b24d9b832d1f35422d,2021-07-29_22h57.42.461,Simcolourproject_2stim_asymm_v5,2020.2.10,MacIntel,60,61025ae37ef11b136ea224fe,,,,,,,,,515,88.60546875,-34.90234375,1,0,0,response3disk,,5,-1.7265625,-0.44921875,1,0,0,rectangle,-1.7265625,-0.44921875,1,0,0,-1.7265625,-0.44921875,1,0,0,0,59,59,69,1,,,,,,,,
,,,,,,,,,,,,,FF,,,,,,,,0.9828,,,,,,,,,,,,,,,,,,,,,,61035aefabf4c24bbcec1b7b,610377b24d9b832d1f35422d,2021-07-29_22h57.42.461,Simcolourproject_2stim_asymm_v5,2020.2.10,MacIntel,60,61025ae37ef11b136ea224fe,,,,,,,,,258,-93.609375,-49.21484375,1,0,0,response5disk,,2,-0.91796875,-0.27734375,1,0,0,rectangle,-0.91796875,-0.27734375,1,0,0,-0.91796875,-0.27734375,1,0,0,0,60,60,119,1,,,,,,,,
,,,,,,,,,,,,,FF,,,,,,,,0.8332,,,,,,,,,,,,,,,,,,,,,,61035aefabf4c24bbcec1b7b,610377b24d9b832d1f35422d,2021-07-29_22h57.42.461,Simcolourproject_2stim_asymm_v5,2020.2.10,MacIntel,60,61025ae37ef11b136ea224fe,,,,,,,,,3460,-33.50390625,-91.69921875,1,0,0,response5disk,,3,-0.578125,2.36328125,1,0,0,rectangle,-0.578125,2.36328125,1,0,0,-0.578125,2.36328125,1,0,0,0,61,61,103,1,,,,,,,,
,,,,,,,,,,,,,FF,,,,,,,,0.9528,,,,,,,,,,,,,,,,,,,,,,61035aefabf4c24bbcec1b7b,610377b24d9b832d1f35422d,2021-07-29_22h57.42.461,Simcolourproject_2stim_asymm_v5,2020.2.10,MacIntel,60,61025ae37ef11b136ea224fe,,,,,,,,,3242,96.76953125,39.6640625,1,0,0,response1disk,,6,-5.0078125,3.01953125,1,0,0,rectangle,-5.0078125,3.01953125,1,0,0,-5.0078125,3.01953125,1,0,0,0,62,62,10,1,,,,,,,,
,,,,,,,,,,,,,FF,,,,,,,,1.1838,,,,,,,,,,,,,,,,,,,,,,61035aefabf4c24bbcec1b7b,610377b24d9b832d1f35422d,2021-07-29_22h57.42.461,Simcolourproject_2stim_asymm_v5,2020.2.10,MacIntel,60,61025ae37ef11b136ea224fe,,,,,,,,,3955,36.51953125,-106.6875,1,0,0,response3disk,,4,1.10546875,-0.09375,1,0,0,rectangle,1.10546875,-0.09375,1,0,0,1.10546875,-0.09375,1,0,0,0,63,63,75,1,,,,,,,,
,,,,,,,,,,,,,FF,,,,,,,,0.915,,,,,,,,,,,,,,,,,,,,,,61035aefabf4c24bbcec1b7b,610377b24d9b832d1f35422d,2021-07-29_22h57.42.461,Simcolourproject_2stim_asymm_v5,2020.2.10,MacIntel,60,61025ae37ef11b136ea224fe,,,,,,,,,1818,-95.9375,-36.26953125,1,0,0,response5disk,,2,-4.484375,-1.22265625,1,0,0,rectangle,-4.484375,-1.22265625,1,0,0,-4.484375,-1.22265625,1,0,0,0,64,64,147,1,,,,,,,,
,,,,,,,,,,,,,FF,,,,,,,,0.8825,,,,,,,,,,,,,,,,,,,,,,61035aefabf4c24bbcec1b7b,610377b24d9b832d1f35422d,2021-07-29_22h57.42.461,Simcolourproject_2stim_asymm_v5,2020.2.10,MacIntel,60,61025ae37ef11b136ea224fe,,,,,,,,,2245,101.0117188,-47.09765625,1,0,0,response3disk,,5,1.6015625,-0.203125,1,0,0,rectangle,1.6015625,-0.203125,1,0,0,1.6015625,-0.203125,1,0,0,0,65,65,141,1,,,,,,,,
,,,,,,,,,,,,,FF,,,,,,,,1.286,,,,,,,,,,,,,,,,,,,,,,61035aefabf4c24bbcec1b7b,610377b24d9b832d1f35422d,2021-07-29_22h57.42.461,Simcolourproject_2stim_asymm_v5,2020.2.10,MacIntel,60,61025ae37ef11b136ea224fe,,,,,,,,,591,92.53515625,45.77734375,1,0,0,response1disk,,6,0.98828125,-3.5234375,1,0,0,rectangle,0.98828125,-3.5234375,1,0,0,0.98828125,-3.5234375,1,0,0,0,66,66,114,1,,,,,,,,
,,,,,,,,,,,,,FF,,,,,,,,2.6664,,,,,,,,,,,,,,,,,,,,,,61035aefabf4c24bbcec1b7b,610377b24d9b832d1f35422d,2021-07-29_22h57.42.461,Simcolourproject_2stim_asymm_v5,2020.2.10,MacIntel,60,61025ae37ef11b136ea224fe,,,,,,,,,2255,83.59765625,-30.33984375,1,0,0,response3disk,,5,0.97265625,15.1640625,1,0,0,rectangle,0.97265625,15.1640625,1,0,0,0.97265625,15.1640625,1,0,0,0,67,67,102,1,,,,,,,,
,,,,,,,,,,,,,FF,,,,,,,,0.9854,,,,,,,,,,,,,,,,,,,,,,61035aefabf4c24bbcec1b7b,610377b24d9b832d1f35422d,2021-07-29_22h57.42.461,Simcolourproject_2stim_asymm_v5,2020.2.10,MacIntel,60,61025ae37ef11b136ea224fe,,,,,,,,,3000,-89.9921875,41.4609375,1,0,0,response7disk,,1,2.26953125,-2.41015625,1,0,0,rectangle,2.26953125,-2.41015625,1,0,0,2.26953125,-2.41015625,1,0,0,0,68,68,38,1,,,,,,,,
,,,,,,,,,,,,,FF,,,,,,,,0.834,,,,,,,,,,,,,,,,,,,,,,61035aefabf4c24bbcec1b7b,610377b24d9b832d1f35422d,2021-07-29_22h57.42.461,Simcolourproject_2stim_asymm_v5,2020.2.10,MacIntel,60,61025ae37ef11b136ea224fe,,,,,,,,,684,32.7578125,-106.6914063,1,0,0,response3disk,,4,2.30859375,-3.3125,1,0,0,rectangle,-83.7109375,-41.39453125,1,0,0,-3.69921875,2.41796875,1,0,0,0,69,69,154,1,,response5disk_3,TRUE,2,2,"[145,80,288,299,314,140,114,7,108,308,298,111,278,156,51,205,70,15,218,250]",1.8644,rectangle
,,,,,,,,,,,,,FF,,,,,,,,1.4827,,,,,,,,,,,,,,,,,,,,,,61035aefabf4c24bbcec1b7b,610377b24d9b832d1f35422d,2021-07-29_22h57.42.461,Simcolourproject_2stim_asymm_v5,2020.2.10,MacIntel,60,61025ae37ef11b136ea224fe,,,,,,,,,2766,53.84375,98.3359375,1,0,0,response1disk,,7,-1.56640625,-2.484375,1,0,0,rectangle,-1.56640625,-2.484375,1,0,0,-1.56640625,-2.484375,1,0,0,0,70,70,39,1,,,,,,,,
,,,,,,,,,,,,,FF,,,,,,,,1.8519,,,,,,,,,,,,,,,,,,,,,,61035aefabf4c24bbcec1b7b,610377b24d9b832d1f35422d,2021-07-29_22h57.42.461,Simcolourproject_2stim_asymm_v5,2020.2.10,MacIntel,60,61025ae37ef11b136ea224fe,,,,,,,,,1293,-34.6796875,-104.0390625,1,0,0,response5disk,,3,1.4296875,-1.17578125,1,0,0,rectangle,1.4296875,-1.17578125,1,0,0,1.4296875,-1.17578125,1,0,0,0,71,71,128,1,,,,,,,,
,,,,,,,,,,,,,FF,,,,,,,,1.2001,,,,,,,,,,,,,,,,,,,,,,61035aefabf4c24bbcec1b7b,610377b24d9b832d1f35422d,2021-07-29_22h57.42.461,Simcolourproject_2stim_asymm_v5,2020.2.10,MacIntel,60,61025ae37ef11b136ea224fe,,,,,,,,,4077,84.58203125,-31.87109375,1,0,0,response3disk,,5,-2.55078125,0.13671875,1,0,0,rectangle,-2.55078125,0.13671875,1,0,0,-2.55078125,0.13671875,1,0,0,0,72,72,143,1,,,,,,,,
,,,,,,,,,,,,,FF,,,,,,,,1.5335,,,,,,,,,,,,,,,,,,,,,,61035aefabf4c24bbcec1b7b,610377b24d9b832d1f35422d,2021-07-29_22h57.42.461,Simcolourproject_2stim_asymm_v5,2020.2.10,MacIntel,60,61025ae37ef11b136ea224fe,,,,,,,,,3190,44.08203125,-104.1914063,1,0,0,response3disk,,4,-8.3203125,-1.87109375,1,0,0,rectangle,-8.3203125,-1.87109375,1,0,0,-8.3203125,-1.87109375,1,0,0,0,73,73,111,1,,,,,,,,
,,,,,,,,,,,,,FF,,,,,,,,2.4851,,,,,,,,,,,,,,,,,,,,,,61035aefabf4c24bbcec1b7b,610377b24d9b832d1f35422d,2021-07-29_22h57.42.461,Simcolourproject_2stim_asymm_v5,2020.2.10,MacIntel,60,61025ae37ef11b136ea224fe,,,,,,,,,1528,101.1367188,44.96484375,1,0,0,response1disk,,6,5.6875,-2.2890625,1,0,0,rectangle,5.6875,-2.2890625,1,0,0,5.6875,-2.2890625,1,0,0,0,74,74,152,1,,,,,,,,
,,,,,,,,,,,,,FF,,,,,,,,1.3982,,,,,,,,,,,,,,,,,,,,,,61035aefabf4c24bbcec1b7b,610377b24d9b832d1f35422d,2021-07-29_22h57.42.461,Simcolourproject_2stim_asymm_v5,2020.2.10,MacIntel,60,61025ae37ef11b136ea224fe,,,,,,,,,3179,35.2109375,85.6484375,1,0,0,response1disk,,7,-4.56640625,6.359375,1,0,0,rectangle,-4.56640625,6.359375,1,0,0,-4.56640625,6.359375,1,0,0,0,75,75,107,1,,,,,,,,
,,,,,,,,,,,,,FF,,,,,,,,1.2983,,,,,,,,,,,,,,,,,,,,,,61035aefabf4c24bbcec1b7b,610377b24d9b832d1f35422d,2021-07-29_22h57.42.461,Simcolourproject_2stim_asymm_v5,2020.2.10,MacIntel,60,61025ae37ef11b136ea224fe,,,,,,,,,3001,30.83203125,-86.85546875,1,0,0,response3disk,,4,-3.109375,-8.23828125,1,0,0,rectangle,-3.109375,-8.23828125,1,0,0,-3.109375,-8.23828125,1,0,0,0,76,76,73,1,,,,,,,,
,,,,,,,,,,,,,FF,,,,,,,,1.0979,,,,,,,,,,,,,,,,,,,,,,61035aefabf4c24bbcec1b7b,610377b24d9b832d1f35422d,2021-07-29_22h57.42.461,Simcolourproject_2stim_asymm_v5,2020.2.10,MacIntel,60,61025ae37ef11b136ea224fe,,,,,,,,,960,102.96875,42.375,1,0,0,response1disk,,6,-0.76953125,-1.91015625,1,0,0,rectangle,-0.76953125,-1.91015625,1,0,0,-0.76953125,-1.91015625,1,0,0,0,77,77,110,1,,,,,,,,
,,,,,,,,,,,,,FF,,,,,,,,4.2499,,,,,,,,,,,,,,,,,,,,,,61035aefabf4c24bbcec1b7b,610377b24d9b832d1f35422d,2021-07-29_22h57.42.461,Simcolourproject_2stim_asymm_v5,2020.2.10,MacIntel,60,61025ae37ef11b136ea224fe,,,,,,,,,1371,27.59765625,-92.57421875,1,0,0,response3disk,,4,-3.19140625,-4.4375,1,0,0,rectangle,-3.19140625,-4.4375,1,0,0,-3.19140625,-4.4375,1,0,0,0,78,78,33,1,,,,,,,,
,,,,,,,,,,,,,FF,,,,,,,,1.1833,,,,,,,,,,,,,,,,,,,,,,61035aefabf4c24bbcec1b7b,610377b24d9b832d1f35422d,2021-07-29_22h57.42.461,Simcolourproject_2stim_asymm_v5,2020.2.10,MacIntel,60,61025ae37ef11b136ea224fe,,,,,,,,,3424,97.7421875,32.40625,1,0,0,response1disk,,6,-0.57421875,-1.046875,1,0,0,rectangle,-51.0546875,-107.265625,1,0,0,-7.14453125,-0.15234375,1,0,0,0,79,79,112,1,,response5disk_3,TRUE,3,3,"[145,80,288,299,314,140,114,7,108,308,298,111,278,156,51,205,70,15,218,250]",1.8487,rectangle
,,,,,,,,,,,,,FF,,,,,,,,0.8339,,,,,,,,,,,,,,,,,,,,,,61035aefabf4c24bbcec1b7b,610377b24d9b832d1f35422d,2021-07-29_22h57.42.461,Simcolourproject_2stim_asymm_v5,2020.2.10,MacIntel,60,61025ae37ef11b136ea224fe,,,,,,,,,3053,-41.109375,-91.94921875,1,0,0,response5disk,,3,-4.59765625,1.37890625,1,0,0,rectangle,-4.59765625,1.37890625,1,0,0,-4.59765625,1.37890625,1,0,0,0,80,80,55,1,,,,,,,,
,,,,,,,,,,,,,FF,,,,,,,,0.7498,,,,,,,,,,,,,,,,,,,,,,61035aefabf4c24bbcec1b7b,610377b24d9b832d1f35422d,2021-07-29_22h57.42.461,Simcolourproject_2stim_asymm_v5,2020.2.10,MacIntel,60,61025ae37ef11b136ea224fe,,,,,,,,,2446,36.6015625,85.06640625,1,0,0,response1disk,,7,-4.06640625,-5.82421875,1,0,0,rectangle,-4.06640625,-5.82421875,1,0,0,-4.06640625,-5.82421875,1,0,0,0,81,81,61,1,,,,,,,,
,,,,,,,,,,,,,FF,,,,,,,,0.8823,,,,,,,,,,,,,,,,,,,,,,61035aefabf4c24bbcec1b7b,610377b24d9b832d1f35422d,2021-07-29_22h57.42.461,Simcolourproject_2stim_asymm_v5,2020.2.10,MacIntel,60,61025ae37ef11b136ea224fe,,,,,,,,,2642,86.9375,44.515625,1,0,0,response1disk,,6,0.47265625,-4.74609375,1,0,0,rectangle,0.47265625,-4.74609375,1,0,0,0.47265625,-4.74609375,1,0,0,0,82,82,131,1,,,,,,,,
,,,,,,,,,,,,,FF,,,,,,,,0.6831,,,,,,,,,,,,,,,,,,,,,,61035aefabf4c24bbcec1b7b,610377b24d9b832d1f35422d,2021-07-29_22h57.42.461,Simcolourproject_2stim_asymm_v5,2020.2.10,MacIntel,60,61025ae37ef11b136ea224fe,,,,,,,,,406,44.265625,96.0546875,1,0,0,response1disk,,7,-3.08984375,-1.0546875,1,0,0,rectangle,-3.08984375,-1.0546875,1,0,0,-3.08984375,-1.0546875,1,0,0,0,83,83,16,1,,,,,,,,
,,,,,,,,,,,,,FF,,,,,,,,1.1011,,,,,,,,,,,,,,,,,,,,,,61035aefabf4c24bbcec1b7b,610377b24d9b832d1f35422d,2021-07-29_22h57.42.461,Simcolourproject_2stim_asymm_v5,2020.2.10,MacIntel,60,61025ae37ef11b136ea224fe,,,,,,,,,2359,39.2890625,-94.453125,1,0,0,response3disk,,4,-0.3203125,1.77734375,1,0,0,rectangle,-0.3203125,1.77734375,1,0,0,-0.3203125,1.77734375,1,0,0,0,84,84,113,1,,,,,,,,
,,,,,,,,,,,,,FF,,,,,,,,1.0166,,,,,,,,,,,,,,,,,,,,,,61035aefabf4c24bbcec1b7b,610377b24d9b832d1f35422d,2021-07-29_22h57.42.461,Simcolourproject_2stim_asymm_v5,2020.2.10,MacIntel,60,61025ae37ef11b136ea224fe,,,,,,,,,3009,31.57421875,116.390625,1,0,0,response1disk,,7,-1.9453125,-1.15625,1,0,0,rectangle,-1.9453125,-1.15625,1,0,0,-1.9453125,-1.15625,1,0,0,0,85,85,98,1,,,,,,,,
,,,,,,,,,,,,,FF,,,,,,,,0.5827,,,,,,,,,,,,,,,,,,,,,,61035aefabf4c24bbcec1b7b,610377b24d9b832d1f35422d,2021-07-29_22h57.42.461,Simcolourproject_2stim_asymm_v5,2020.2.10,MacIntel,60,61025ae37ef11b136ea224fe,,,,,,,,,1636,31.79296875,93.25390625,1,0,0,response1disk,,7,-0.6484375,-4.68359375,1,0,0,rectangle,-0.6484375,-4.68359375,1,0,0,-0.6484375,-4.68359375,1,0,0,0,86,86,153,1,,,,,,,,
,,,,,,,,,,,,,FF,,,,,,,,0.9035,,,,,,,,,,,,,,,,,,,,,,61035aefabf4c24bbcec1b7b,610377b24d9b832d1f35422d,2021-07-29_22h57.42.461,Simcolourproject_2stim_asymm_v5,2020.2.10,MacIntel,60,61025ae37ef11b136ea224fe,,,,,,,,,956,45.484375,-100.0625,1,0,0,response3disk,,4,-1.03515625,-6.46875,1,0,0,rectangle,-1.03515625,-6.46875,1,0,0,-1.03515625,-6.46875,1,0,0,0,87,87,37,1,,,,,,,,
,,,,,,,,,,,,,FF,,,,,,,,0.8997,,,,,,,,,,,,,,,,,,,,,,61035aefabf4c24bbcec1b7b,610377b24d9b832d1f35422d,2021-07-29_22h57.42.461,Simcolourproject_2stim_asymm_v5,2020.2.10,MacIntel,60,61025ae37ef11b136ea224fe,,,,,,,,,3566,89.90625,-39.8828125,1,0,0,response3disk,,5,0.44140625,-2.796875,1,0,0,rectangle,0.44140625,-2.796875,1,0,0,0.44140625,-2.796875,1,0,0,0,88,88,6,1,,,,,,,,
,,,,,,,,,,,,,FF,,,,,,,,1.3011,,,,,,,,,,,,,,,,,,,,,,61035aefabf4c24bbcec1b7b,610377b24d9b832d1f35422d,2021-07-29_22h57.42.461,Simcolourproject_2stim_asymm_v5,2020.2.10,MacIntel,60,61025ae37ef11b136ea224fe,,,,,,,,,63,95.01171875,-50.27734375,1,0,0,response3disk,,5,0.23046875,3.3984375,1,0,0,rectangle,0.23046875,3.3984375,1,0,0,0.23046875,3.3984375,1,0,0,0,89,89,30,1,,,,,,,,
,,,,,,,,,,,,,FF,,,,,,,,1.4174,,,,,,,,,,,,,,,,,,,,,,61035aefabf4c24bbcec1b7b,610377b24d9b832d1f35422d,2021-07-29_22h57.42.461,Simcolourproject_2stim_asymm_v5,2020.2.10,MacIntel,60,61025ae37ef11b136ea224fe,,,,,,,,,3028,93.27734375,37.6875,1,0,0,response1disk,,6,-4.80078125,6.63671875,1,0,0,rectangle,-4.80078125,6.63671875,1,0,0,-4.80078125,6.63671875,1,0,0,0,90,90,35,1,,,,,,,,
,,,,,,,,,,,,,FF,,,,,,,,1.0974,,,,,,,,,,,,,,,,,,,,,,61035aefabf4c24bbcec1b7b,610377b24d9b832d1f35422d,2021-07-29_22h57.42.461,Simcolourproject_2stim_asymm_v5,2020.2.10,MacIntel,60,61025ae37ef11b136ea224fe,,,,,,,,,799,44.42578125,91.84375,1,0,0,response1disk,,7,-1.96875,1.66796875,1,0,0,rectangle,-1.96875,1.66796875,1,0,0,-1.96875,1.66796875,1,0,0,0,91,91,66,1,,,,,,,,
,,,,,,,,,,,,,FF,,,,,,,,0.7827,,,,,,,,,,,,,,,,,,,,,,61035aefabf4c24bbcec1b7b,610377b24d9b832d1f35422d,2021-07-29_22h57.42.461,Simcolourproject_2stim_asymm_v5,2020.2.10,MacIntel,60,61025ae37ef11b136ea224fe,,,,,,,,,4262,41.88671875,81.24609375,1,0,0,response1disk,,7,-0.078125,-4.48046875,1,0,0,rectangle,-0.078125,-4.48046875,1,0,0,-0.078125,-4.48046875,1,0,0,0,92,92,130,1,,,,,,,,
,,,,,,,,,,,,,FF,,,,,,,,0.5334,,,,,,,,,,,,,,,,,,,,,,61035aefabf4c24bbcec1b7b,610377b24d9b832d1f35422d,2021-07-29_22h57.42.461,Simcolourproject_2stim_asymm_v5,2020.2.10,MacIntel,60,61025ae37ef11b136ea224fe,,,,,,,,,183,46.95703125,90.8984375,1,0,0,response1disk,,7,-0.78515625,-2.234375,1,0,0,rectangle,-0.78515625,-2.234375,1,0,0,-0.78515625,-2.234375,1,0,0,0,93,93,31,1,,,,,,,,
,,,,,,,,,,,,,FF,,,,,,,,0.7,,,,,,,,,,,,,,,,,,,,,,61035aefabf4c24bbcec1b7b,610377b24d9b832d1f35422d,2021-07-29_22h57.42.461,Simcolourproject_2stim_asymm_v5,2020.2.10,MacIntel,60,61025ae37ef11b136ea224fe,,,,,,,,,4314,24.46875,78.671875,1,0,0,response1disk,,7,-1.33203125,-9.45703125,1,0,0,rectangle,-1.33203125,-9.45703125,1,0,0,-1.33203125,-9.45703125,1,0,0,0,94,94,11,1,,,,,,,,
,,,,,,,,,,,,,FF,,,,,,,,0.8338,,,,,,,,,,,,,,,,,,,,,,61035aefabf4c24bbcec1b7b,610377b24d9b832d1f35422d,2021-07-29_22h57.42.461,Simcolourproject_2stim_asymm_v5,2020.2.10,MacIntel,60,61025ae37ef11b136ea224fe,,,,,,,,,4166,-48,-100.5898438,1,0,0,response5disk,,3,2.41796875,11.8828125,1,0,0,rectangle,2.41796875,11.8828125,1,0,0,2.41796875,11.8828125,1,0,0,0,95,95,5,1,,,,,,,,
,,,,,,,,,,,,,FF,,,,,,,,0.9356,,,,,,,,,,,,,,,,,,,,,,61035aefabf4c24bbcec1b7b,610377b24d9b832d1f35422d,2021-07-29_22h57.42.461,Simcolourproject_2stim_asymm_v5,2020.2.10,MacIntel,60,61025ae37ef11b136ea224fe,,,,,,,,,656,91.23828125,-42.6328125,1,0,0,response3disk,,5,4.28125,-5.2421875,1,0,0,rectangle,4.28125,-5.2421875,1,0,0,4.28125,-5.2421875,1,0,0,0,96,96,2,1,,,,,,,,
,,,,,,,,,,,,,FF,,,,,,,,0.883,,,,,,,,,,,,,,,,,,,,,,61035aefabf4c24bbcec1b7b,610377b24d9b832d1f35422d,2021-07-29_22h57.42.461,Simcolourproject_2stim_asymm_v5,2020.2.10,MacIntel,60,61025ae37ef11b136ea224fe,,,,,,,,,933,97.76171875,35.2421875,1,0,0,response1disk,,6,-0.96484375,-8.09765625,1,0,0,rectangle,-0.96484375,-8.09765625,1,0,0,-0.96484375,-8.09765625,1,0,0,0,97,97,151,1,,,,,,,,
,,,,,,,,,,,,,FF,,,,,,,,1.4502,,,,,,,,,,,,,,,,,,,,,,61035aefabf4c24bbcec1b7b,610377b24d9b832d1f35422d,2021-07-29_22h57.42.461,Simcolourproject_2stim_asymm_v5,2020.2.10,MacIntel,60,61025ae37ef11b136ea224fe,,,,,,,,,287,100.9140625,59.5390625,1,0,0,response1disk,,6,-8.16015625,-2.796875,1,0,0,rectangle,-8.16015625,-2.796875,1,0,0,-8.16015625,-2.796875,1,0,0,0,98,98,81,1,,,,,,,,
,,,,,,,,,,,,,FF,,,,,,,,12.271,,,,,,,,,,,,,,,,,,,,,,61035aefabf4c24bbcec1b7b,610377b24d9b832d1f35422d,2021-07-29_22h57.42.461,Simcolourproject_2stim_asymm_v5,2020.2.10,MacIntel,60,61025ae37ef11b136ea224fe,,,,,,,,,3021,91.2265625,49.2265625,1,0,0,response1disk,,6,-1.109375,4.5078125,1,0,0,rectangle,-1.109375,4.5078125,1,0,0,-1.109375,4.5078125,1,0,0,0,99,99,157,1,,,,,,,,
,,,,,,,,,,,,,FF,,,,,,,,1.3669,,,,,,,,,,,,,,,,,,,,,,61035aefabf4c24bbcec1b7b,610377b24d9b832d1f35422d,2021-07-29_22h57.42.461,Simcolourproject_2stim_asymm_v5,2020.2.10,MacIntel,60,61025ae37ef11b136ea224fe,,,,,,,,,2498,34.4609375,82.6953125,1,0,0,response1disk,,7,-1.23046875,2.96875,1,0,0,rectangle,-1.23046875,2.96875,1,0,0,-1.23046875,2.96875,1,0,0,0,100,100,109,1,,,,,,,,
,,,,,,,,,,,,,FF,,,,,,,,0.8171,,,,,,,,,,,,,,,,,,,,,,61035aefabf4c24bbcec1b7b,610377b24d9b832d1f35422d,2021-07-29_22h57.42.461,Simcolourproject_2stim_asymm_v5,2020.2.10,MacIntel,60,61025ae37ef11b136ea224fe,,,,,,,,,707,41.94921875,96.140625,1,0,0,response1disk,,7,-3.60546875,-0.5390625,1,0,0,rectangle,-3.60546875,-0.5390625,1,0,0,-3.60546875,-0.5390625,1,0,0,0,101,101,91,1,,,,,,,,
,,,,,,,,,,,,,FF,,,,,,,,1.1335,,,,,,,,,,,,,,,,,,,,,,61035aefabf4c24bbcec1b7b,610377b24d9b832d1f35422d,2021-07-29_22h57.42.461,Simcolourproject_2stim_asymm_v5,2020.2.10,MacIntel,60,61025ae37ef11b136ea224fe,,,,,,,,,572,105.9296875,47.87109375,1,0,0,response1disk,,6,-12.84765625,4.90625,1,0,0,rectangle,-12.84765625,4.90625,1,0,0,-12.84765625,4.90625,1,0,0,0,102,102,118,1,,,,,,,,
,,,,,,,,,,,,,FF,,,,,,,,0.9493,,,,,,,,,,,,,,,,,,,,,,61035aefabf4c24bbcec1b7b,610377b24d9b832d1f35422d,2021-07-29_22h57.42.461,Simcolourproject_2stim_asymm_v5,2020.2.10,MacIntel,60,61025ae37ef11b136ea224fe,,,,,,,,,4355,76.70703125,-35.1875,1,0,0,response3disk,,5,-4.51171875,10.36328125,1,0,0,rectangle,-4.51171875,10.36328125,1,0,0,-4.51171875,10.36328125,1,0,0,0,103,103,42,1,,,,,,,,
,,,,,,,,,,,,,FF,,,,,,,,1.0162,,,,,,,,,,,,,,,,,,,,,,61035aefabf4c24bbcec1b7b,610377b24d9b832d1f35422d,2021-07-29_22h57.42.461,Simcolourproject_2stim_asymm_v5,2020.2.10,MacIntel,60,61025ae37ef11b136ea224fe,,,,,,,,,1904,84.8984375,-46.859375,1,0,0,response3disk,,5,1.19140625,6.87890625,1,0,0,rectangle,1.19140625,6.87890625,1,0,0,1.19140625,6.87890625,1,0,0,0,104,104,89,1,,,,,,,,
,,,,,,,,,,,,,FF,,,,,,,,1.0977,,,,,,,,,,,,,,,,,,,,,,61035aefabf4c24bbcec1b7b,610377b24d9b832d1f35422d,2021-07-29_22h57.42.461,Simcolourproject_2stim_asymm_v5,2020.2.10,MacIntel,60,61025ae37ef11b136ea224fe,,,,,,,,,353,-85.1796875,-37.57421875,1,0,0,response5disk,,2,2.78125,2.67578125,1,0,0,rectangle,2.78125,2.67578125,1,0,0,2.78125,2.67578125,1,0,0,0,105,105,58,1,,,,,,,,
,,,,,,,,,,,,,FF,,,,,,,,2.2661,,,,,,,,,,,,,,,,,,,,,,61035aefabf4c24bbcec1b7b,610377b24d9b832d1f35422d,2021-07-29_22h57.42.461,Simcolourproject_2stim_asymm_v5,2020.2.10,MacIntel,60,61025ae37ef11b136ea224fe,,,,,,,,,670,85.8984375,36.7265625,1,0,0,response1disk,,6,-1.09375,7.06640625,1,0,0,rectangle,-1.09375,7.06640625,1,0,0,-1.09375,7.06640625,1,0,0,0,106,106,26,1,,,,,,,,
,,,,,,,,,,,,,FF,,,,,,,,0.7002,,,,,,,,,,,,,,,,,,,,,,61035aefabf4c24bbcec1b7b,610377b24d9b832d1f35422d,2021-07-29_22h57.42.461,Simcolourproject_2stim_asymm_v5,2020.2.10,MacIntel,60,61025ae37ef11b136ea224fe,,,,,,,,,1434,41.44140625,92.671875,1,0,0,response1disk,,7,1.203125,-4.14453125,1,0,0,rectangle,-98.40234375,56.84375,1,0,0,-2.02734375,-3.75390625,1,0,0,0,107,107,136,1,,response7disk_3,TRUE,1,1,"[145,80,288,299,314,140,114,7,108,308,298,111,278,156,51,205,70,15,218,250]",1.9009,rectangle
,,,,,,,,,,,,,FF,,,,,,,,1.5002,,,,,,,,,,,,,,,,,,,,,,61035aefabf4c24bbcec1b7b,610377b24d9b832d1f35422d,2021-07-29_22h57.42.461,Simcolourproject_2stim_asymm_v5,2020.2.10,MacIntel,60,61025ae37ef11b136ea224fe,,,,,,,,,1772,42.12890625,-102.0820313,1,0,0,response3disk,,4,-3.09765625,-3.05078125,1,0,0,rectangle,-3.09765625,-3.05078125,1,0,0,-3.09765625,-3.05078125,1,0,0,0,108,108,156,1,,,,,,,,
,,,,,,,,,,,,,FF,,,,,,,,0.8997,,,,,,,,,,,,,,,,,,,,,,61035aefabf4c24bbcec1b7b,610377b24d9b832d1f35422d,2021-07-29_22h57.42.461,Simcolourproject_2stim_asymm_v5,2020.2.10,MacIntel,60,61025ae37ef11b136ea224fe,,,,,,,,,3108,-43.97265625,-91.9921875,1,0,0,response5disk,,3,-7.71484375,2.26953125,1,0,0,rectangle,-7.71484375,2.26953125,1,0,0,-7.71484375,2.26953125,1,0,0,0,109,109,95,1,,,,,,,,
,,,,,,,,,,,,,FF,,,,,,,,0.7505,,,,,,,,,,,,,,,,,,,,,,61035aefabf4c24bbcec1b7b,610377b24d9b832d1f35422d,2021-07-29_22h57.42.461,Simcolourproject_2stim_asymm_v5,2020.2.10,MacIntel,60,61025ae37ef11b136ea224fe,,,,,,,,,2369,-43.73828125,-90.140625,1,0,0,response5disk,,3,-2.12890625,-5.08984375,1,0,0,rectangle,-105.7148438,42,1,0,0,-7.1171875,4.2578125,1,0,0,0,110,110,85,1,,response7disk_3,TRUE,1,1,"[145,80,288,299,314,140,114,7,108,308,298,111,278,156,51,205,70,15,218,250]",4.7149,rectangle
,,,,,,,,,,,,,FF,,,,,,,,0.9844,,,,,,,,,,,,,,,,,,,,,,61035aefabf4c24bbcec1b7b,610377b24d9b832d1f35422d,2021-07-29_22h57.42.461,Simcolourproject_2stim_asymm_v5,2020.2.10,MacIntel,60,61025ae37ef11b136ea224fe,,,,,,,,,398,85.30859375,-36.81640625,1,0,0,response3disk,,5,-0.828125,3.8125,1,0,0,rectangle,-0.828125,3.8125,1,0,0,-0.828125,3.8125,1,0,0,0,111,111,117,1,,,,,,,,
,,,,,,,,,,,,,FF,,,,,,,,0.8338,,,,,,,,,,,,,,,,,,,,,,61035aefabf4c24bbcec1b7b,610377b24d9b832d1f35422d,2021-07-29_22h57.42.461,Simcolourproject_2stim_asymm_v5,2020.2.10,MacIntel,60,61025ae37ef11b136ea224fe,,,,,,,,,2635,91.625,29.34375,1,0,0,response1disk,,6,-1.12890625,1.4375,1,0,0,rectangle,-1.12890625,1.4375,1,0,0,-1.12890625,1.4375,1,0,0,0,112,112,19,1,,,,,,,,
,,,,,,,,,,,,,FF,,,,,,,,1.0673,,,,,,,,,,,,,,,,,,,,,,61035aefabf4c24bbcec1b7b,610377b24d9b832d1f35422d,2021-07-29_22h57.42.461,Simcolourproject_2stim_asymm_v5,2020.2.10,MacIntel,60,61025ae37ef11b136ea224fe,,,,,,,,,2051,50.79296875,-103.4648438,1,0,0,response3disk,,4,-7.87890625,-1.48828125,1,0,0,rectangle,33.76171875,-95.0234375,1,0,0,-0.5703125,-0.65625,1,0,0,0,113,113,77,1,,response3disk_3,TRUE,4,4,"[145,80,288,299,314,140,114,7,108,308,298,111,278,156,51,205,70,15,218,250]",1.4179,rectangle
,,,,,,,,,,,,,FF,,,,,,,,1.4812,,,,,,,,,,,,,,,,,,,,,,61035aefabf4c24bbcec1b7b,610377b24d9b832d1f35422d,2021-07-29_22h57.42.461,Simcolourproject_2stim_asymm_v5,2020.2.10,MacIntel,60,61025ae37ef11b136ea224fe,,,,,,,,,401,77.6875,-37.9609375,1,0,0,response3disk,,5,-3.09765625,-0.95703125,1,0,0,rectangle,-3.09765625,-0.95703125,1,0,0,-3.09765625,-0.95703125,1,0,0,0,114,114,149,1,,,,,,,,
,,,,,,,,,,,,,FF,,,,,,,,0.7819,,,,,,,,,,,,,,,,,,,,,,61035aefabf4c24bbcec1b7b,610377b24d9b832d1f35422d,2021-07-29_22h57.42.461,Simcolourproject_2stim_asymm_v5,2020.2.10,MacIntel,60,61025ae37ef11b136ea224fe,,,,,,,,,1166,89.62890625,-44.34765625,1,0,0,response3disk,,5,-0.484375,-1.69921875,1,0,0,rectangle,-0.484375,-1.69921875,1,0,0,-0.484375,-1.69921875,1,0,0,0,115,115,144,1,,,,,,,,
,,,,,,,,,,,,,FF,,,,,,,,1.0164,,,,,,,,,,,,,,,,,,,,,,61035aefabf4c24bbcec1b7b,610377b24d9b832d1f35422d,2021-07-29_22h57.42.461,Simcolourproject_2stim_asymm_v5,2020.2.10,MacIntel,60,61025ae37ef11b136ea224fe,,,,,,,,,3231,36.25,93.29296875,1,0,0,response1disk,,7,6.828125,-1.23046875,1,0,0,rectangle,6.828125,-1.23046875,1,0,0,6.828125,-1.23046875,1,0,0,0,116,116,83,1,,,,,,,,
,,,,,,,,,,,,,FF,,,,,,,,0.8502,,,,,,,,,,,,,,,,,,,,,,61035aefabf4c24bbcec1b7b,610377b24d9b832d1f35422d,2021-07-29_22h57.42.461,Simcolourproject_2stim_asymm_v5,2020.2.10,MacIntel,60,61025ae37ef11b136ea224fe,,,,,,,,,319,47.11328125,115.5664063,1,0,0,response1disk,,7,4.390625,1.63671875,1,0,0,rectangle,4.390625,1.63671875,1,0,0,4.390625,1.63671875,1,0,0,0,117,117,4,1,,,,,,,,
,,,,,,,,,,,,,FF,,,,,,,,0.6651,,,,,,,,,,,,,,,,,,,,,,61035aefabf4c24bbcec1b7b,610377b24d9b832d1f35422d,2021-07-29_22h57.42.461,Simcolourproject_2stim_asymm_v5,2020.2.10,MacIntel,60,61025ae37ef11b136ea224fe,,,,,,,,,1852,33.18359375,89.015625,1,0,0,response1disk,,7,-0.453125,-6.41796875,1,0,0,rectangle,-0.453125,-6.41796875,1,0,0,-0.453125,-6.41796875,1,0,0,0,118,118,145,1,,,,,,,,
,,,,,,,,,,,,,FF,,,,,,,,0.7002,,,,,,,,,,,,,,,,,,,,,,61035aefabf4c24bbcec1b7b,610377b24d9b832d1f35422d,2021-07-29_22h57.42.461,Simcolourproject_2stim_asymm_v5,2020.2.10,MacIntel,60,61025ae37ef11b136ea224fe,,,,,,,,,1206,36.8359375,93.46484375,1,0,0,response1disk,,7,-6.7109375,-9.828125,1,0,0,rectangle,-6.7109375,-9.828125,1,0,0,-6.7109375,-9.828125,1,0,0,0,119,119,8,1,,,,,,,,
,,,,,,,,,,,,,FF,,,,,,,,0.9306,,,,,,,,,,,,,,,,,,,,,,61035aefabf4c24bbcec1b7b,610377b24d9b832d1f35422d,2021-07-29_22h57.42.461,Simcolourproject_2stim_asymm_v5,2020.2.10,MacIntel,60,61025ae37ef11b136ea224fe,,,,,,,,,3107,-38.92578125,-99.55078125,1,0,0,response5disk,,3,0.59765625,-5.31640625,1,0,0,rectangle,0.59765625,-5.31640625,1,0,0,0.59765625,-5.31640625,1,0,0,0,120,120,125,1,,,,,,,,
,,,,,,,,,,,,,FF,,,,,,,,1.0147,,,,,,,,,,,,,,,,,,,,,,61035aefabf4c24bbcec1b7b,610377b24d9b832d1f35422d,2021-07-29_22h57.42.461,Simcolourproject_2stim_asymm_v5,2020.2.10,MacIntel,60,61025ae37ef11b136ea224fe,,,,,,,,,935,77.06640625,45.17578125,1,0,0,response1disk,,6,0.72265625,-3.39453125,1,0,0,rectangle,0.72265625,-3.39453125,1,0,0,0.72265625,-3.39453125,1,0,0,0,121,121,13,1,,,,,,,,
,,,,,,,,,,,,,FF,,,,,,,,1.0509,,,,,,,,,,,,,,,,,,,,,,61035aefabf4c24bbcec1b7b,610377b24d9b832d1f35422d,2021-07-29_22h57.42.461,Simcolourproject_2stim_asymm_v5,2020.2.10,MacIntel,60,61025ae37ef11b136ea224fe,,,,,,,,,4137,36.51171875,101.734375,1,0,0,response1disk,,7,-0.22265625,2.62109375,1,0,0,rectangle,-0.22265625,2.62109375,1,0,0,-0.22265625,2.62109375,1,0,0,0,122,122,78,1,,,,,,,,
,,,,,,,,,,,,,FF,,,,,,,,2.2297,,,,,,,,,,,,,,,,,,,,,,61035aefabf4c24bbcec1b7b,610377b24d9b832d1f35422d,2021-07-29_22h57.42.461,Simcolourproject_2stim_asymm_v5,2020.2.10,MacIntel,60,61025ae37ef11b136ea224fe,,,,,,,,,3608,66.203125,-33.9296875,1,0,0,response3disk,,5,-6.0625,-1.82421875,1,0,0,rectangle,-6.0625,-1.82421875,1,0,0,-6.0625,-1.82421875,1,0,0,0,123,123,86,1,,,,,,,,
,,,,,,,,,,,,,FF,,,,,,,,1.6503,,,,,,,,,,,,,,,,,,,,,,61035aefabf4c24bbcec1b7b,610377b24d9b832d1f35422d,2021-07-29_22h57.42.461,Simcolourproject_2stim_asymm_v5,2020.2.10,MacIntel,60,61025ae37ef11b136ea224fe,,,,,,,,,1608,-38.6015625,-73.4453125,1,0,0,response5disk,,3,0.83984375,2.3671875,1,0,0,rectangle,0.83984375,2.3671875,1,0,0,0.83984375,2.3671875,1,0,0,0,124,124,70,1,,,,,,,,
,,,,,,,,,,,,,FF,,,,,,,,0.7168,,,,,,,,,,,,,,,,,,,,,,61035aefabf4c24bbcec1b7b,610377b24d9b832d1f35422d,2021-07-29_22h57.42.461,Simcolourproject_2stim_asymm_v5,2020.2.10,MacIntel,60,61025ae37ef11b136ea224fe,,,,,,,,,1648,61.9140625,113.484375,1,0,0,response1disk,,7,-3.546875,-1.91015625,1,0,0,rectangle,-3.546875,-1.91015625,1,0,0,-3.546875,-1.91015625,1,0,0,0,125,125,56,1,,,,,,,,
,,,,,,,,,,,,,FF,,,,,,,,0.6845,,,,,,,,,,,,,,,,,,,,,,61035aefabf4c24bbcec1b7b,610377b24d9b832d1f35422d,2021-07-29_22h57.42.461,Simcolourproject_2stim_asymm_v5,2020.2.10,MacIntel,60,61025ae37ef11b136ea224fe,,,,,,,,,2211,98.84375,-48.8125,1,0,0,response3disk,,5,0.140625,-5.43359375,1,0,0,rectangle,0.140625,-5.43359375,1,0,0,0.140625,-5.43359375,1,0,0,0,126,126,121,1,,,,,,,,
,,,,,,,,,,,,,FF,,,,,,,,1.0505,,,,,,,,,,,,,,,,,,,,,,61035aefabf4c24bbcec1b7b,610377b24d9b832d1f35422d,2021-07-29_22h57.42.461,Simcolourproject_2stim_asymm_v5,2020.2.10,MacIntel,60,61025ae37ef11b136ea224fe,,,,,,,,,3396,-85.71875,-47.65625,1,0,0,response5disk,,2,-1.69921875,-5.90234375,1,0,0,rectangle,-1.69921875,-5.90234375,1,0,0,-1.69921875,-5.90234375,1,0,0,0,127,127,20,1,,,,,,,,
,,,,,,,,,,,,,FF,,,,,,,,0.715,,,,,,,,,,,,,,,,,,,,,,61035aefabf4c24bbcec1b7b,610377b24d9b832d1f35422d,2021-07-29_22h57.42.461,Simcolourproject_2stim_asymm_v5,2020.2.10,MacIntel,60,61025ae37ef11b136ea224fe,,,,,,,,,84,47.27734375,116.8515625,1,0,0,response1disk,,7,-0.5,-3.765625,1,0,0,rectangle,-0.5,-3.765625,1,0,0,-0.5,-3.765625,1,0,0,0,128,128,0,1,,,,,,,,
,,,,,,,,,,,,,FF,,,,,,,,1.5664,,,,,,,,,,,,,,,,,,,,,,61035aefabf4c24bbcec1b7b,610377b24d9b832d1f35422d,2021-07-29_22h57.42.461,Simcolourproject_2stim_asymm_v5,2020.2.10,MacIntel,60,61025ae37ef11b136ea224fe,,,,,,,,,2054,98.890625,22.4375,1,0,0,response1disk,,6,-2.046875,2.59375,1,0,0,rectangle,-2.046875,2.59375,1,0,0,-2.046875,2.59375,1,0,0,0,129,129,9,1,,,,,,,,
,,,,,,,,,,,,,FF,,,,,,,,1.1001,,,,,,,,,,,,,,,,,,,,,,61035aefabf4c24bbcec1b7b,610377b24d9b832d1f35422d,2021-07-29_22h57.42.461,Simcolourproject_2stim_asymm_v5,2020.2.10,MacIntel,60,61025ae37ef11b136ea224fe,,,,,,,,,42,94.4921875,20.80859375,1,0,0,response1disk,,6,3.05859375,-4.55859375,1,0,0,rectangle,3.05859375,-4.55859375,1,0,0,3.05859375,-4.55859375,1,0,0,0,130,130,120,1,,,,,,,,
,,,,,,,,,,,,,FF,,,,,,,,1.2171,,,,,,,,,,,,,,,,,,,,,,61035aefabf4c24bbcec1b7b,610377b24d9b832d1f35422d,2021-07-29_22h57.42.461,Simcolourproject_2stim_asymm_v5,2020.2.10,MacIntel,60,61025ae37ef11b136ea224fe,,,,,,,,,635,-57.45703125,-80.36328125,1,0,0,response5disk,,3,0.46484375,11.3203125,1,0,0,rectangle,0.46484375,11.3203125,1,0,0,0.46484375,11.3203125,1,0,0,0,131,131,79,1,,,,,,,,
,,,,,,,,,,,,,FF,,,,,,,,0.6499,,,,,,,,,,,,,,,,,,,,,,61035aefabf4c24bbcec1b7b,610377b24d9b832d1f35422d,2021-07-29_22h57.42.461,Simcolourproject_2stim_asymm_v5,2020.2.10,MacIntel,60,61025ae37ef11b136ea224fe,,,,,,,,,3368,31.40625,85.3828125,1,0,0,response1disk,,7,0.375,4.97265625,1,0,0,rectangle,0.375,4.97265625,1,0,0,0.375,4.97265625,1,0,0,0,132,132,100,1,,,,,,,,
,,,,,,,,,,,,,FF,,,,,,,,2.9499,,,,,,,,,,,,,,,,,,,,,,61035aefabf4c24bbcec1b7b,610377b24d9b832d1f35422d,2021-07-29_22h57.42.461,Simcolourproject_2stim_asymm_v5,2020.2.10,MacIntel,60,61025ae37ef11b136ea224fe,,,,,,,,,141,88.25,-67.44140625,1,0,0,response3disk,,5,4.41015625,-7.36328125,1,0,0,rectangle,4.41015625,-7.36328125,1,0,0,4.41015625,-7.36328125,1,0,0,0,133,133,60,1,,,,,,,,
,,,,,,,,,,,,,FF,,,,,,,,0.8331,,,,,,,,,,,,,,,,,,,,,,61035aefabf4c24bbcec1b7b,610377b24d9b832d1f35422d,2021-07-29_22h57.42.461,Simcolourproject_2stim_asymm_v5,2020.2.10,MacIntel,60,61025ae37ef11b136ea224fe,,,,,,,,,2425,-54.2890625,-92.6640625,1,0,0,response5disk,,3,-2.0390625,7.82421875,1,0,0,rectangle,-2.0390625,7.82421875,1,0,0,-2.0390625,7.82421875,1,0,0,0,134,134,93,1,,,,,,,,
,,,,,,,,,,,,,FF,,,,,,,,1.5838,,,,,,,,,,,,,,,,,,,,,,61035aefabf4c24bbcec1b7b,610377b24d9b832d1f35422d,2021-07-29_22h57.42.461,Simcolourproject_2stim_asymm_v5,2020.2.10,MacIntel,60,61025ae37ef11b136ea224fe,,,,,,,,,2687,55.640625,-85.6953125,1,0,0,response3disk,,4,-5.79296875,-1.4453125,1,0,0,rectangle,-5.79296875,-1.4453125,1,0,0,-5.79296875,-1.4453125,1,0,0,0,135,135,159,1,,,,,,,,
,,,,,,,,,,,,,FF,,,,,,,,1.3011,,,,,,,,,,,,,,,,,,,,,,61035aefabf4c24bbcec1b7b,610377b24d9b832d1f35422d,2021-07-29_22h57.42.461,Simcolourproject_2stim_asymm_v5,2020.2.10,MacIntel,60,61025ae37ef11b136ea224fe,,,,,,,,,1171,89.01953125,40.34765625,1,0,0,response1disk,,6,-3.5390625,-1.53515625,1,0,0,rectangle,-3.5390625,-1.53515625,1,0,0,-3.5390625,-1.53515625,1,0,0,0,136,136,3,1,,,,,,,,
,,,,,,,,,,,,,FF,,,,,,,,1.1018,,,,,,,,,,,,,,,,,,,,,,61035aefabf4c24bbcec1b7b,610377b24d9b832d1f35422d,2021-07-29_22h57.42.461,Simcolourproject_2stim_asymm_v5,2020.2.10,MacIntel,60,61025ae37ef11b136ea224fe,,,,,,,,,1584,43.3125,-91.71484375,1,0,0,response3disk,,4,-4.828125,-7.59765625,1,0,0,rectangle,-4.828125,-7.59765625,1,0,0,-4.828125,-7.59765625,1,0,0,0,137,137,41,1,,,,,,,,
,,,,,,,,,,,,,FF,,,,,,,,1.2509,,,,,,,,,,,,,,,,,,,,,,61035aefabf4c24bbcec1b7b,610377b24d9b832d1f35422d,2021-07-29_22h57.42.461,Simcolourproject_2stim_asymm_v5,2020.2.10,MacIntel,60,61025ae37ef11b136ea224fe,,,,,,,,,1144,74.44140625,-40.91796875,1,0,0,response3disk,,5,-2.734375,-3.6796875,1,0,0,rectangle,-2.734375,-3.6796875,1,0,0,-2.734375,-3.6796875,1,0,0,0,138,138,50,1,,,,,,,,
,,,,,,,,,,,,,FF,,,,,,,,0.8343,,,,,,,,,,,,,,,,,,,,,,61035aefabf4c24bbcec1b7b,610377b24d9b832d1f35422d,2021-07-29_22h57.42.461,Simcolourproject_2stim_asymm_v5,2020.2.10,MacIntel,60,61025ae37ef11b136ea224fe,,,,,,,,,2499,89.08984375,51.515625,1,0,0,response1disk,,6,-18.85546875,-7.69140625,1,0,0,rectangle,38.125,-102.9804688,1,0,0,-2.78125,-6.4609375,1,0,0,0,139,139,25,1,,response3disk_3,TRUE,4,4,"[145,80,288,299,314,140,114,7,108,308,298,111,278,156,51,205,70,15,218,250]",1.6005,rectangle
,,,,,,,,,,,,,FF,,,,,,,,2.6333,,,,,,,,,,,,,,,,,,,,,,61035aefabf4c24bbcec1b7b,610377b24d9b832d1f35422d,2021-07-29_22h57.42.461,Simcolourproject_2stim_asymm_v5,2020.2.10,MacIntel,60,61025ae37ef11b136ea224fe,,,,,,,,,2434,94.5625,54.33984375,1,0,0,response1disk,,6,-2.01171875,-1.32421875,1,0,0,rectangle,-2.01171875,-1.32421875,1,0,0,-2.01171875,-1.32421875,1,0,0,0,140,140,92,1,,,,,,,,
,,,,,,,,,,,,,FF,,,,,,,,1.0473,,,,,,,,,,,,,,,,,,,,,,61035aefabf4c24bbcec1b7b,610377b24d9b832d1f35422d,2021-07-29_22h57.42.461,Simcolourproject_2stim_asymm_v5,2020.2.10,MacIntel,60,61025ae37ef11b136ea224fe,,,,,,,,,1432,82.24609375,-31.8984375,1,0,0,response3disk,,5,1.4296875,-4.765625,1,0,0,rectangle,1.4296875,-4.765625,1,0,0,1.4296875,-4.765625,1,0,0,0,141,141,90,1,,,,,,,,
,,,,,,,,,,,,,FF,,,,,,,,0.9523,,,,,,,,,,,,,,,,,,,,,,61035aefabf4c24bbcec1b7b,610377b24d9b832d1f35422d,2021-07-29_22h57.42.461,Simcolourproject_2stim_asymm_v5,2020.2.10,MacIntel,60,61025ae37ef11b136ea224fe,,,,,,,,,2502,85.65234375,-47.453125,1,0,0,response3disk,,5,-0.08984375,-4.453125,1,0,0,rectangle,-0.08984375,-4.453125,1,0,0,-0.08984375,-4.453125,1,0,0,0,142,142,132,1,,,,,,,,
,,,,,,,,,,,,,FF,,,,,,,,0.7845,,,,,,,,,,,,,,,,,,,,,,61035aefabf4c24bbcec1b7b,610377b24d9b832d1f35422d,2021-07-29_22h57.42.461,Simcolourproject_2stim_asymm_v5,2020.2.10,MacIntel,60,61025ae37ef11b136ea224fe,,,,,,,,,4240,-59.125,-88.14453125,1,0,0,response5disk,,3,2.3046875,3.0234375,1,0,0,rectangle,2.3046875,3.0234375,1,0,0,2.3046875,3.0234375,1,0,0,0,143,143,63,1,,,,,,,,
,,,,,,,,,,,,,FF,,,,,,,,0.8668,,,,,,,,,,,,,,,,,,,,,,61035aefabf4c24bbcec1b7b,610377b24d9b832d1f35422d,2021-07-29_22h57.42.461,Simcolourproject_2stim_asymm_v5,2020.2.10,MacIntel,60,61025ae37ef11b136ea224fe,,,,,,,,,3877,35.98828125,-84.12109375,1,0,0,response3disk,,4,0.12109375,-7.59765625,1,0,0,rectangle,-86.70703125,-19.8984375,1,0,0,-4.65234375,-2.421875,1,0,0,0,144,144,94,1,,response5disk_3,TRUE,2,2,"[145,80,288,299,314,140,114,7,108,308,298,111,278,156,51,205,70,15,218,250]",1.5161,rectangle
,,,,,,,,,,,,,FF,,,,,,,,1.6807,,,,,,,,,,,,,,,,,,,,,,61035aefabf4c24bbcec1b7b,610377b24d9b832d1f35422d,2021-07-29_22h57.42.461,Simcolourproject_2stim_asymm_v5,2020.2.10,MacIntel,60,61025ae37ef11b136ea224fe,,,,,,,,,2180,-47.09765625,-79.5703125,1,0,0,response5disk,,3,-0.390625,-0.61328125,1,0,0,rectangle,-0.390625,-0.61328125,1,0,0,-0.390625,-0.61328125,1,0,0,0,145,145,84,1,,,,,,,,
,,,,,,,,,,,,,FF,,,,,,,,1.5325,,,,,,,,,,,,,,,,,,,,,,61035aefabf4c24bbcec1b7b,610377b24d9b832d1f35422d,2021-07-29_22h57.42.461,Simcolourproject_2stim_asymm_v5,2020.2.10,MacIntel,60,61025ae37ef11b136ea224fe,,,,,,,,,3462,-78.421875,47.7578125,1,0,0,response7disk,,1,-7.37890625,-5.00390625,1,0,0,rectangle,-7.37890625,-5.00390625,1,0,0,-7.37890625,-5.00390625,1,0,0,0,146,146,59,1,,,,,,,,
,,,,,,,,,,,,,FF,,,,,,,,1.1335,,,,,,,,,,,,,,,,,,,,,,61035aefabf4c24bbcec1b7b,610377b24d9b832d1f35422d,2021-07-29_22h57.42.461,Simcolourproject_2stim_asymm_v5,2020.2.10,MacIntel,60,61025ae37ef11b136ea224fe,,,,,,,,,1615,-80.7890625,-31.48046875,1,0,0,response5disk,,2,-3.4296875,-3.55859375,1,0,0,rectangle,-3.4296875,-3.55859375,1,0,0,-3.4296875,-3.55859375,1,0,0,0,147,147,127,1,,,,,,,,
,,,,,,,,,,,,,FF,,,,,,,,1.1664,,,,,,,,,,,,,,,,,,,,,,61035aefabf4c24bbcec1b7b,610377b24d9b832d1f35422d,2021-07-29_22h57.42.461,Simcolourproject_2stim_asymm_v5,2020.2.10,MacIntel,60,61025ae37ef11b136ea224fe,,,,,,,,,162,42.4609375,-86.66015625,1,0,0,response3disk,,4,-4.5859375,2.203125,1,0,0,rectangle,-4.5859375,2.203125,1,0,0,-4.5859375,2.203125,1,0,0,0,148,148,14,1,,,,,,,,
,,,,,,,,,,,,,FF,,,,,,,,0.9834,,,,,,,,,,,,,,,,,,,,,,61035aefabf4c24bbcec1b7b,610377b24d9b832d1f35422d,2021-07-29_22h57.42.461,Simcolourproject_2stim_asymm_v5,2020.2.10,MacIntel,60,61025ae37ef11b136ea224fe,,,,,,,,,392,98.07421875,38.02734375,1,0,0,response1disk,,6,-4.55078125,-5.4921875,1,0,0,rectangle,-4.55078125,-5.4921875,1,0,0,-4.55078125,-5.4921875,1,0,0,0,149,149,27,1,,,,,,,,
,,,,,,,,,,,,,FF,,,,,,,,1.0193,,,,,,,,,,,,,,,,,,,,,,61035aefabf4c24bbcec1b7b,610377b24d9b832d1f35422d,2021-07-29_22h57.42.461,Simcolourproject_2stim_asymm_v5,2020.2.10,MacIntel,60,61025ae37ef11b136ea224fe,,,,,,,,,1679,-49.02734375,-83.26953125,1,0,0,response5disk,,3,-3.12890625,0.375,1,0,0,rectangle,-3.12890625,0.375,1,0,0,-3.12890625,0.375,1,0,0,0,150,150,115,1,,,,,,,,
,,,,,,,,,,,,,FF,,,,,,,,1.0841,,,,,,,,,,,,,,,,,,,,,,61035aefabf4c24bbcec1b7b,610377b24d9b832d1f35422d,2021-07-29_22h57.42.461,Simcolourproject_2stim_asymm_v5,2020.2.10,MacIntel,60,61025ae37ef11b136ea224fe,,,,,,,,,2213,41.42578125,102.8867188,1,0,0,response1disk,,7,0.2734375,-0.125,1,0,0,rectangle,0.2734375,-0.125,1,0,0,0.2734375,-0.125,1,0,0,0,151,151,108,1,,,,,,,,
,,,,,,,,,,,,,FF,,,,,,,,0.9664,,,,,,,,,,,,,,,,,,,,,,61035aefabf4c24bbcec1b7b,610377b24d9b832d1f35422d,2021-07-29_22h57.42.461,Simcolourproject_2stim_asymm_v5,2020.2.10,MacIntel,60,61025ae37ef11b136ea224fe,,,,,,,,,1762,35.546875,-92.5546875,1,0,0,response3disk,,4,-1.46484375,-5.15234375,1,0,0,rectangle,-1.46484375,-5.15234375,1,0,0,-1.46484375,-5.15234375,1,0,0,0,152,152,64,1,,,,,,,,
,,,,,,,,,,,,,FF,,,,,,,,0.6649,,,,,,,,,,,,,,,,,,,,,,61035aefabf4c24bbcec1b7b,610377b24d9b832d1f35422d,2021-07-29_22h57.42.461,Simcolourproject_2stim_asymm_v5,2020.2.10,MacIntel,60,61025ae37ef11b136ea224fe,,,,,,,,,931,35.99609375,97.51953125,1,0,0,response1disk,,7,-4.203125,-2.44921875,1,0,0,rectangle,-4.203125,-2.44921875,1,0,0,-4.203125,-2.44921875,1,0,0,0,153,153,57,1,,,,,,,,
,,,,,,,,,,,,,FF,,,,,,,,0.8004,,,,,,,,,,,,,,,,,,,,,,61035aefabf4c24bbcec1b7b,610377b24d9b832d1f35422d,2021-07-29_22h57.42.461,Simcolourproject_2stim_asymm_v5,2020.2.10,MacIntel,60,61025ae37ef11b136ea224fe,,,,,,,,,685,77.73046875,37.90234375,1,0,0,response1disk,,6,-3.265625,3.640625,1,0,0,rectangle,-3.265625,3.640625,1,0,0,-3.265625,3.640625,1,0,0,0,154,154,106,1,,,,,,,,
,,,,,,,,,,,,,FF,,,,,,,,0.7194,,,,,,,,,,,,,,,,,,,,,,61035aefabf4c24bbcec1b7b,610377b24d9b832d1f35422d,2021-07-29_22h57.42.461,Simcolourproject_2stim_asymm_v5,2020.2.10,MacIntel,60,61025ae37ef11b136ea224fe,,,,,,,,,1015,96.69921875,48.9375,1,0,0,response1disk,,6,-8.01171875,5.921875,1,0,0,rectangle,97.71484375,55.80859375,1,0,0,-3.67578125,3.41015625,1,0,0,0,155,155,88,1,,response1disk_3,TRUE,6,6,"[145,80,288,299,314,140,114,7,108,308,298,111,278,156,51,205,70,15,218,250]",1.4498,rectangle
,,,,,,,,,,,,,FF,,,,,,,,1.2511,,,,,,,,,,,,,,,,,,,,,,61035aefabf4c24bbcec1b7b,610377b24d9b832d1f35422d,2021-07-29_22h57.42.461,Simcolourproject_2stim_asymm_v5,2020.2.10,MacIntel,60,61025ae37ef11b136ea224fe,,,,,,,,,3968,-72.19140625,-52.19140625,1,0,0,response5disk,,2,1.21484375,-1.1875,1,0,0,rectangle,1.21484375,-1.1875,1,0,0,1.21484375,-1.1875,1,0,0,0,156,156,99,1,,,,,,,,
,,,,,,,,,,,,,FF,,,,,,,,1.0669,,,,,,,,,,,,,,,,,,,,,,61035aefabf4c24bbcec1b7b,610377b24d9b832d1f35422d,2021-07-29_22h57.42.461,Simcolourproject_2stim_asymm_v5,2020.2.10,MacIntel,60,61025ae37ef11b136ea224fe,,,,,,,,,3591,-37.08203125,95.5625,1,0,0,response7disk,,0,0.16015625,8.8515625,1,0,0,rectangle,0.16015625,8.8515625,1,0,0,0.16015625,8.8515625,1,0,0,0,157,157,68,1,,,,,,,,
,,,,,,,,,,,,,FF,,,,,,,,1.1141,,,,,,,,,,,,,,,,,,,,,,61035aefabf4c24bbcec1b7b,610377b24d9b832d1f35422d,2021-07-29_22h57.42.461,Simcolourproject_2stim_asymm_v5,2020.2.10,MacIntel,60,61025ae37ef11b136ea224fe,,,,,,,,,331,87.74609375,-50.7578125,1,0,0,response3disk,,5,-3.30859375,11.79296875,1,0,0,rectangle,-3.30859375,11.79296875,1,0,0,-3.30859375,11.79296875,1,0,0,0,158,158,22,1,,,,,,,,
,,,,,,,,,,,,,FF,,,,,,,,1.2004,,,,,,,,,,,,,,,,,,,,,,61035aefabf4c24bbcec1b7b,610377b24d9b832d1f35422d,2021-07-29_22h57.42.461,Simcolourproject_2stim_asymm_v5,2020.2.10,MacIntel,60,61025ae37ef11b136ea224fe,,,,,,,,,210,36.51953125,80.3515625,1,0,0,response1disk,,7,2.94921875,-1.7734375,1,0,0,rectangle,2.94921875,-1.7734375,1,0,0,2.94921875,-1.7734375,1,0,0,0,159,159,126,1,,,,,,,,
,,,,,,,,,,,,,FF,,,,,,,,0.6668,,,,,,,,,,,,,,,,,,,,,,61035aefabf4c24bbcec1b7b,610377b24d9b832d1f35422d,2021-07-29_22h57.42.461,Simcolourproject_2stim_asymm_v5,2020.2.10,MacIntel,60,61025ae37ef11b136ea224fe,,,,,,,,,836,92.0625,32.75390625,1,0,0,response1disk,,6,0.35546875,2.40625,1,0,0,rectangle,0.35546875,2.40625,1,0,0,0.35546875,2.40625,1,0,0,1,0,160,35,1,,,,,,,,
,,,,,,,,,,,,,FF,,,,,,,,0.7818,,,,,,,,,,,,,,,,,,,,,,61035aefabf4c24bbcec1b7b,610377b24d9b832d1f35422d,2021-07-29_22h57.42.461,Simcolourproject_2stim_asymm_v5,2020.2.10,MacIntel,60,61025ae37ef11b136ea224fe,,,,,,,,,538,46.50390625,122.4296875,1,0,0,response1disk,,7,-0.0078125,-10.05078125,1,0,0,rectangle,-0.0078125,-10.05078125,1,0,0,-0.0078125,-10.05078125,1,0,0,1,1,161,128,1,,,,,,,,
,,,,,,,,,,,,,FF,,,,,,,,1.0175,,,,,,,,,,,,,,,,,,,,,,61035aefabf4c24bbcec1b7b,610377b24d9b832d1f35422d,2021-07-29_22h57.42.461,Simcolourproject_2stim_asymm_v5,2020.2.10,MacIntel,60,61025ae37ef11b136ea224fe,,,,,,,,,522,-40.91015625,-82.06640625,1,0,0,response5disk,,3,-4.140625,3.71484375,1,0,0,rectangle,-4.140625,3.71484375,1,0,0,-4.140625,3.71484375,1,0,0,1,2,162,11,1,,,,,,,,
,,,,,,,,,,,,,FF,,,,,,,,0.8003,,,,,,,,,,,,,,,,,,,,,,61035aefabf4c24bbcec1b7b,610377b24d9b832d1f35422d,2021-07-29_22h57.42.461,Simcolourproject_2stim_asymm_v5,2020.2.10,MacIntel,60,61025ae37ef11b136ea224fe,,,,,,,,,2060,33.52734375,103.6445313,1,0,0,response1disk,,7,-8.9921875,-5.47265625,1,0,0,rectangle,-8.9921875,-5.47265625,1,0,0,-8.9921875,-5.47265625,1,0,0,1,3,163,74,1,,,,,,,,
,,,,,,,,,,,,,FF,,,,,,,,0.898,,,,,,,,,,,,,,,,,,,,,,61035aefabf4c24bbcec1b7b,610377b24d9b832d1f35422d,2021-07-29_22h57.42.461,Simcolourproject_2stim_asymm_v5,2020.2.10,MacIntel,60,61025ae37ef11b136ea224fe,,,,,,,,,2215,44.19140625,81.20703125,1,0,0,response1disk,,7,-2.01953125,5.640625,1,0,0,rectangle,-2.01953125,5.640625,1,0,0,-2.01953125,5.640625,1,0,0,1,4,164,5,1,,,,,,,,
,,,,,,,,,,,,,FF,,,,,,,,1.3173,,,,,,,,,,,,,,,,,,,,,,61035aefabf4c24bbcec1b7b,610377b24d9b832d1f35422d,2021-07-29_22h57.42.461,Simcolourproject_2stim_asymm_v5,2020.2.10,MacIntel,60,61025ae37ef11b136ea224fe,,,,,,,,,2284,72.1484375,40.234375,1,0,0,response1disk,,6,4.15625,-2.42578125,1,0,0,rectangle,4.15625,-2.42578125,1,0,0,4.15625,-2.42578125,1,0,0,1,5,165,26,1,,,,,,,,
,,,,,,,,,,,,,FF,,,,,,,,0.6651,,,,,,,,,,,,,,,,,,,,,,61035aefabf4c24bbcec1b7b,610377b24d9b832d1f35422d,2021-07-29_22h57.42.461,Simcolourproject_2stim_asymm_v5,2020.2.10,MacIntel,60,61025ae37ef11b136ea224fe,,,,,,,,,2853,26.33984375,92.33203125,1,0,0,response1disk,,7,-2.56640625,3.99609375,1,0,0,rectangle,-2.56640625,3.99609375,1,0,0,-2.56640625,3.99609375,1,0,0,1,6,166,112,1,,,,,,,,
,,,,,,,,,,,,,FF,,,,,,,,0.8834,,,,,,,,,,,,,,,,,,,,,,61035aefabf4c24bbcec1b7b,610377b24d9b832d1f35422d,2021-07-29_22h57.42.461,Simcolourproject_2stim_asymm_v5,2020.2.10,MacIntel,60,61025ae37ef11b136ea224fe,,,,,,,,,3714,-42.328125,-89.36328125,1,0,0,response5disk,,3,-5.75390625,0.24609375,1,0,0,rectangle,-5.75390625,0.24609375,1,0,0,-5.75390625,0.24609375,1,0,0,1,7,167,69,1,,,,,,,,
,,,,,,,,,,,,,FF,,,,,,,,0.6177,,,,,,,,,,,,,,,,,,,,,,61035aefabf4c24bbcec1b7b,610377b24d9b832d1f35422d,2021-07-29_22h57.42.461,Simcolourproject_2stim_asymm_v5,2020.2.10,MacIntel,60,61025ae37ef11b136ea224fe,,,,,,,,,2385,87.546875,51.015625,1,0,0,response1disk,,6,-4.6640625,-2.56640625,1,0,0,rectangle,-4.6640625,-2.56640625,1,0,0,-4.6640625,-2.56640625,1,0,0,1,8,168,96,1,,,,,,,,
,,,,,,,,,,,,,FF,,,,,,,,0.8675,,,,,,,,,,,,,,,,,,,,,,61035aefabf4c24bbcec1b7b,610377b24d9b832d1f35422d,2021-07-29_22h57.42.461,Simcolourproject_2stim_asymm_v5,2020.2.10,MacIntel,60,61025ae37ef11b136ea224fe,,,,,,,,,2169,68.53125,-97.25,1,0,0,response3disk,,4,-9.125,-5.06640625,1,0,0,rectangle,-9.125,-5.06640625,1,0,0,-9.125,-5.06640625,1,0,0,1,9,169,76,1,,,,,,,,
,,,,,,,,,,,,,FF,,,,,,,,0.6163,,,,,,,,,,,,,,,,,,,,,,61035aefabf4c24bbcec1b7b,610377b24d9b832d1f35422d,2021-07-29_22h57.42.461,Simcolourproject_2stim_asymm_v5,2020.2.10,MacIntel,60,61025ae37ef11b136ea224fe,,,,,,,,,1363,36.49609375,79.71875,1,0,0,response1disk,,7,-7.33203125,4.73046875,1,0,0,rectangle,-7.33203125,4.73046875,1,0,0,-7.33203125,4.73046875,1,0,0,1,10,170,28,1,,,,,,,,
,,,,,,,,,,,,,FF,,,,,,,,0.7502,,,,,,,,,,,,,,,,,,,,,,61035aefabf4c24bbcec1b7b,610377b24d9b832d1f35422d,2021-07-29_22h57.42.461,Simcolourproject_2stim_asymm_v5,2020.2.10,MacIntel,60,61025ae37ef11b136ea224fe,,,,,,,,,34,40.046875,71.9296875,1,0,0,response1disk,,7,-2.35546875,-10.00390625,1,0,0,rectangle,-2.35546875,-10.00390625,1,0,0,-2.35546875,-10.00390625,1,0,0,1,11,171,94,1,,,,,,,,
,,,,,,,,,,,,,FF,,,,,,,,0.7822,,,,,,,,,,,,,,,,,,,,,,61035aefabf4c24bbcec1b7b,610377b24d9b832d1f35422d,2021-07-29_22h57.42.461,Simcolourproject_2stim_asymm_v5,2020.2.10,MacIntel,60,61025ae37ef11b136ea224fe,,,,,,,,,4206,-83.19140625,-58.3515625,1,0,0,response5disk,,2,11.53515625,0.45703125,1,0,0,rectangle,11.53515625,0.45703125,1,0,0,11.53515625,0.45703125,1,0,0,1,12,172,122,1,,,,,,,,
,,,,,,,,,,,,,FF,,,,,,,,0.7485,,,,,,,,,,,,,,,,,,,,,,61035aefabf4c24bbcec1b7b,610377b24d9b832d1f35422d,2021-07-29_22h57.42.461,Simcolourproject_2stim_asymm_v5,2020.2.10,MacIntel,60,61025ae37ef11b136ea224fe,,,,,,,,,349,-75.70703125,-37.953125,1,0,0,response5disk,,2,-10.55078125,-1.55859375,1,0,0,rectangle,-10.55078125,-1.55859375,1,0,0,-10.55078125,-1.55859375,1,0,0,1,13,173,32,1,,,,,,,,
,,,,,,,,,,,,,FF,,,,,,,,0.8173,,,,,,,,,,,,,,,,,,,,,,61035aefabf4c24bbcec1b7b,610377b24d9b832d1f35422d,2021-07-29_22h57.42.461,Simcolourproject_2stim_asymm_v5,2020.2.10,MacIntel,60,61025ae37ef11b136ea224fe,,,,,,,,,1408,19.08984375,110.5585938,1,0,0,response1disk,,7,0.70703125,-2.01953125,1,0,0,rectangle,0.70703125,-2.01953125,1,0,0,0.70703125,-2.01953125,1,0,0,1,14,174,14,1,,,,,,,,
,,,,,,,,,,,,,FF,,,,,,,,0.9498,,,,,,,,,,,,,,,,,,,,,,61035aefabf4c24bbcec1b7b,610377b24d9b832d1f35422d,2021-07-29_22h57.42.461,Simcolourproject_2stim_asymm_v5,2020.2.10,MacIntel,60,61025ae37ef11b136ea224fe,,,,,,,,,1098,84.17578125,32.31640625,1,0,0,response1disk,,6,-2.15625,-5.28515625,1,0,0,rectangle,-2.15625,-5.28515625,1,0,0,-2.15625,-5.28515625,1,0,0,1,15,175,156,1,,,,,,,,
,,,,,,,,,,,,,FF,,,,,,,,1.6666,,,,,,,,,,,,,,,,,,,,,,61035aefabf4c24bbcec1b7b,610377b24d9b832d1f35422d,2021-07-29_22h57.42.461,Simcolourproject_2stim_asymm_v5,2020.2.10,MacIntel,60,61025ae37ef11b136ea224fe,,,,,,,,,366,-40.1875,78.54296875,1,0,0,response7disk,,0,-5.5234375,3.578125,1,0,0,rectangle,-5.5234375,3.578125,1,0,0,-5.5234375,3.578125,1,0,0,1,16,176,148,1,,,,,,,,
,,,,,,,,,,,,,FF,,,,,,,,1.8857,,,,,,,,,,,,,,,,,,,,,,61035aefabf4c24bbcec1b7b,610377b24d9b832d1f35422d,2021-07-29_22h57.42.461,Simcolourproject_2stim_asymm_v5,2020.2.10,MacIntel,60,61025ae37ef11b136ea224fe,,,,,,,,,4331,44.97265625,-83.66796875,1,0,0,response3disk,,4,-5.31640625,2.08984375,1,0,0,rectangle,-5.31640625,2.08984375,1,0,0,-5.31640625,2.08984375,1,0,0,1,17,177,53,1,,,,,,,,
,,,,,,,,,,,,,FF,,,,,,,,0.6169,,,,,,,,,,,,,,,,,,,,,,61035aefabf4c24bbcec1b7b,610377b24d9b832d1f35422d,2021-07-29_22h57.42.461,Simcolourproject_2stim_asymm_v5,2020.2.10,MacIntel,60,61025ae37ef11b136ea224fe,,,,,,,,,149,48.0546875,108.1328125,1,0,0,response1disk,,7,-3.9453125,-5.4765625,1,0,0,rectangle,-3.9453125,-5.4765625,1,0,0,-3.9453125,-5.4765625,1,0,0,1,18,178,126,1,,,,,,,,
,,,,,,,,,,,,,FF,,,,,,,,0.6507,,,,,,,,,,,,,,,,,,,,,,61035aefabf4c24bbcec1b7b,610377b24d9b832d1f35422d,2021-07-29_22h57.42.461,Simcolourproject_2stim_asymm_v5,2020.2.10,MacIntel,60,61025ae37ef11b136ea224fe,,,,,,,,,534,46.23828125,89.328125,1,0,0,response1disk,,7,-1.19140625,-0.49609375,1,0,0,rectangle,-1.19140625,-0.49609375,1,0,0,-1.19140625,-0.49609375,1,0,0,1,19,179,134,1,,,,,,,,
,,,,,,,,,,,,,FF,,,,,,,,1.1835,,,,,,,,,,,,,,,,,,,,,,61035aefabf4c24bbcec1b7b,610377b24d9b832d1f35422d,2021-07-29_22h57.42.461,Simcolourproject_2stim_asymm_v5,2020.2.10,MacIntel,60,61025ae37ef11b136ea224fe,,,,,,,,,1738,82.4765625,52.74609375,1,0,0,response1disk,,6,1.4140625,0.57421875,1,0,0,rectangle,1.4140625,0.57421875,1,0,0,1.4140625,0.57421875,1,0,0,1,20,180,4,1,,,,,,,,
,,,,,,,,,,,,,FF,,,,,,,,1.5502,,,,,,,,,,,,,,,,,,,,,,61035aefabf4c24bbcec1b7b,610377b24d9b832d1f35422d,2021-07-29_22h57.42.461,Simcolourproject_2stim_asymm_v5,2020.2.10,MacIntel,60,61025ae37ef11b136ea224fe,,,,,,,,,272,68.85546875,-49.02734375,1,0,0,response3disk,,5,0.64453125,-7.96484375,1,0,0,rectangle,0.64453125,-7.96484375,1,0,0,0.64453125,-7.96484375,1,0,0,1,21,181,91,1,,,,,,,,
,,,,,,,,,,,,,FF,,,,,,,,1.1665,,,,,,,,,,,,,,,,,,,,,,61035aefabf4c24bbcec1b7b,610377b24d9b832d1f35422d,2021-07-29_22h57.42.461,Simcolourproject_2stim_asymm_v5,2020.2.10,MacIntel,60,61025ae37ef11b136ea224fe,,,,,,,,,1972,-44.06640625,-75.21875,1,0,0,response5disk,,3,-6.26171875,-0.69140625,1,0,0,rectangle,-6.26171875,-0.69140625,1,0,0,-6.26171875,-0.69140625,1,0,0,1,22,182,84,1,,,,,,,,
,,,,,,,,,,,,,FF,,,,,,,,0.7483,,,,,,,,,,,,,,,,,,,,,,61035aefabf4c24bbcec1b7b,610377b24d9b832d1f35422d,2021-07-29_22h57.42.461,Simcolourproject_2stim_asymm_v5,2020.2.10,MacIntel,60,61025ae37ef11b136ea224fe,,,,,,,,,4229,93.20703125,26.078125,1,0,0,response1disk,,6,4.5390625,6.22265625,1,0,0,rectangle,4.5390625,6.22265625,1,0,0,4.5390625,6.22265625,1,0,0,1,23,183,56,1,,,,,,,,
,,,,,,,,,,,,,FF,,,,,,,,0.9646,,,,,,,,,,,,,,,,,,,,,,61035aefabf4c24bbcec1b7b,610377b24d9b832d1f35422d,2021-07-29_22h57.42.461,Simcolourproject_2stim_asymm_v5,2020.2.10,MacIntel,60,61025ae37ef11b136ea224fe,,,,,,,,,3470,-74.36328125,33.53125,1,0,0,response7disk,,1,5.16796875,-5.75390625,1,0,0,rectangle,5.16796875,-5.75390625,1,0,0,5.16796875,-5.75390625,1,0,0,1,24,184,129,1,,,,,,,,
,,,,,,,,,,,,,FF,,,,,,,,1.0831,,,,,,,,,,,,,,,,,,,,,,61035aefabf4c24bbcec1b7b,610377b24d9b832d1f35422d,2021-07-29_22h57.42.461,Simcolourproject_2stim_asymm_v5,2020.2.10,MacIntel,60,61025ae37ef11b136ea224fe,,,,,,,,,2724,-83.7265625,-44.26171875,1,0,0,response5disk,,2,0.3984375,0.64453125,1,0,0,rectangle,0.3984375,0.64453125,1,0,0,0.3984375,0.64453125,1,0,0,1,25,185,113,1,,,,,,,,
,,,,,,,,,,,,,FF,,,,,,,,0.9176,,,,,,,,,,,,,,,,,,,,,,61035aefabf4c24bbcec1b7b,610377b24d9b832d1f35422d,2021-07-29_22h57.42.461,Simcolourproject_2stim_asymm_v5,2020.2.10,MacIntel,60,61025ae37ef11b136ea224fe,,,,,,,,,120,80.6640625,-46.94140625,1,0,0,response3disk,,5,0.265625,-4.00390625,1,0,0,rectangle,0.265625,-4.00390625,1,0,0,0.265625,-4.00390625,1,0,0,1,26,186,111,1,,,,,,,,
,,,,,,,,,,,,,FF,,,,,,,,0.8992,,,,,,,,,,,,,,,,,,,,,,61035aefabf4c24bbcec1b7b,610377b24d9b832d1f35422d,2021-07-29_22h57.42.461,Simcolourproject_2stim_asymm_v5,2020.2.10,MacIntel,60,61025ae37ef11b136ea224fe,,,,,,,,,2091,94.47265625,43.1171875,1,0,0,response1disk,,6,-4.55078125,1.5625,1,0,0,rectangle,-4.55078125,1.5625,1,0,0,-4.55078125,1.5625,1,0,0,1,27,187,157,1,,,,,,,,
,,,,,,,,,,,,,FF,,,,,,,,0.7689,,,,,,,,,,,,,,,,,,,,,,61035aefabf4c24bbcec1b7b,610377b24d9b832d1f35422d,2021-07-29_22h57.42.461,Simcolourproject_2stim_asymm_v5,2020.2.10,MacIntel,60,61025ae37ef11b136ea224fe,,,,,,,,,3517,-34.578125,-91.18359375,1,0,0,response5disk,,3,6.98046875,3.1484375,1,0,0,rectangle,6.98046875,3.1484375,1,0,0,6.98046875,3.1484375,1,0,0,1,28,188,155,1,,,,,,,,
,,,,,,,,,,,,,FF,,,,,,,,0.8336,,,,,,,,,,,,,,,,,,,,,,61035aefabf4c24bbcec1b7b,610377b24d9b832d1f35422d,2021-07-29_22h57.42.461,Simcolourproject_2stim_asymm_v5,2020.2.10,MacIntel,60,61025ae37ef11b136ea224fe,,,,,,,,,228,70.73828125,36.90625,1,0,0,response1disk,,6,-2.77734375,8.68359375,1,0,0,rectangle,-2.77734375,8.68359375,1,0,0,-2.77734375,8.68359375,1,0,0,1,29,189,17,1,,,,,,,,
,,,,,,,,,,,,,FF,,,,,,,,1.0988,,,,,,,,,,,,,,,,,,,,,,61035aefabf4c24bbcec1b7b,610377b24d9b832d1f35422d,2021-07-29_22h57.42.461,Simcolourproject_2stim_asymm_v5,2020.2.10,MacIntel,60,61025ae37ef11b136ea224fe,,,,,,,,,3780,-43.8828125,-93.35546875,1,0,0,response5disk,,3,2.29296875,-4.23046875,1,0,0,rectangle,2.29296875,-4.23046875,1,0,0,2.29296875,-4.23046875,1,0,0,1,30,190,55,1,,,,,,,,
,,,,,,,,,,,,,FF,,,,,,,,1.2664,,,,,,,,,,,,,,,,,,,,,,61035aefabf4c24bbcec1b7b,610377b24d9b832d1f35422d,2021-07-29_22h57.42.461,Simcolourproject_2stim_asymm_v5,2020.2.10,MacIntel,60,61025ae37ef11b136ea224fe,,,,,,,,,1224,100.0273438,-41.58984375,1,0,0,response3disk,,5,-0.9609375,-3.5234375,1,0,0,rectangle,-0.9609375,-3.5234375,1,0,0,-0.9609375,-3.5234375,1,0,0,1,31,191,101,1,,,,,,,,
,,,,,,,,,,,,,FF,,,,,,,,0.7342,,,,,,,,,,,,,,,,,,,,,,61035aefabf4c24bbcec1b7b,610377b24d9b832d1f35422d,2021-07-29_22h57.42.461,Simcolourproject_2stim_asymm_v5,2020.2.10,MacIntel,60,61025ae37ef11b136ea224fe,,,,,,,,,4282,-91.7578125,-37.515625,1,0,0,response5disk,,2,-12.10546875,-2.68359375,1,0,0,rectangle,-12.10546875,-2.68359375,1,0,0,-12.10546875,-2.68359375,1,0,0,1,32,192,24,1,,,,,,,,
,,,,,,,,,,,,,FF,,,,,,,,0.8833,,,,,,,,,,,,,,,,,,,,,,61035aefabf4c24bbcec1b7b,610377b24d9b832d1f35422d,2021-07-29_22h57.42.461,Simcolourproject_2stim_asymm_v5,2020.2.10,MacIntel,60,61025ae37ef11b136ea224fe,,,,,,,,,4246,53.09765625,109.3125,1,0,0,response1disk,,7,-2.5625,1.12109375,1,0,0,rectangle,-2.5625,1.12109375,1,0,0,-2.5625,1.12109375,1,0,0,1,33,193,23,1,,,,,,,,
,,,,,,,,,,,,,FF,,,,,,,,0.6177,,,,,,,,,,,,,,,,,,,,,,61035aefabf4c24bbcec1b7b,610377b24d9b832d1f35422d,2021-07-29_22h57.42.461,Simcolourproject_2stim_asymm_v5,2020.2.10,MacIntel,60,61025ae37ef11b136ea224fe,,,,,,,,,2349,31.8125,78.89453125,1,0,0,response1disk,,7,-10.8359375,-5.74609375,1,0,0,rectangle,-10.8359375,-5.74609375,1,0,0,-10.8359375,-5.74609375,1,0,0,1,34,194,71,1,,,,,,,,
,,,,,,,,,,,,,FF,,,,,,,,0.8172,,,,,,,,,,,,,,,,,,,,,,61035aefabf4c24bbcec1b7b,610377b24d9b832d1f35422d,2021-07-29_22h57.42.461,Simcolourproject_2stim_asymm_v5,2020.2.10,MacIntel,60,61025ae37ef11b136ea224fe,,,,,,,,,2489,100.2773438,48.08984375,1,0,0,response1disk,,6,-6.765625,-5.578125,1,0,0,rectangle,-6.765625,-5.578125,1,0,0,-6.765625,-5.578125,1,0,0,1,35,195,47,1,,,,,,,,
,,,,,,,,,,,,,FF,,,,,,,,0.8002,,,,,,,,,,,,,,,,,,,,,,61035aefabf4c24bbcec1b7b,610377b24d9b832d1f35422d,2021-07-29_22h57.42.461,Simcolourproject_2stim_asymm_v5,2020.2.10,MacIntel,60,61025ae37ef11b136ea224fe,,,,,,,,,1619,35.50390625,71.06640625,1,0,0,response1disk,,7,-9.48046875,5.3984375,1,0,0,rectangle,-9.48046875,5.3984375,1,0,0,-9.48046875,5.3984375,1,0,0,1,36,196,67,1,,,,,,,,
,,,,,,,,,,,,,FF,,,,,,,,1.7842,,,,,,,,,,,,,,,,,,,,,,61035aefabf4c24bbcec1b7b,610377b24d9b832d1f35422d,2021-07-29_22h57.42.461,Simcolourproject_2stim_asymm_v5,2020.2.10,MacIntel,60,61025ae37ef11b136ea224fe,,,,,,,,,3012,72.8125,53.33203125,1,0,0,response1disk,,6,6.671875,5.375,1,0,0,rectangle,6.671875,5.375,1,0,0,6.671875,5.375,1,0,0,1,37,197,159,1,,,,,,,,
,,,,,,,,,,,,,FF,,,,,,,,0.818,,,,,,,,,,,,,,,,,,,,,,61035aefabf4c24bbcec1b7b,610377b24d9b832d1f35422d,2021-07-29_22h57.42.461,Simcolourproject_2stim_asymm_v5,2020.2.10,MacIntel,60,61025ae37ef11b136ea224fe,,,,,,,,,1406,48.66796875,106.015625,1,0,0,response1disk,,7,2.05859375,-6.28515625,1,0,0,rectangle,2.05859375,-6.28515625,1,0,0,2.05859375,-6.28515625,1,0,0,1,38,198,120,1,,,,,,,,
,,,,,,,,,,,,,FF,,,,,,,,0.9191,,,,,,,,,,,,,,,,,,,,,,61035aefabf4c24bbcec1b7b,610377b24d9b832d1f35422d,2021-07-29_22h57.42.461,Simcolourproject_2stim_asymm_v5,2020.2.10,MacIntel,60,61025ae37ef11b136ea224fe,,,,,,,,,301,43.890625,76.2421875,1,0,0,response1disk,,7,-12.01171875,6.19921875,1,0,0,rectangle,-12.01171875,6.19921875,1,0,0,-12.01171875,6.19921875,1,0,0,1,39,199,114,1,,,,,,,,
,,,,,,,,,,,,,FF,,,,,,,,1.0848,,,,,,,,,,,,,,,,,,,,,,61035aefabf4c24bbcec1b7b,610377b24d9b832d1f35422d,2021-07-29_22h57.42.461,Simcolourproject_2stim_asymm_v5,2020.2.10,MacIntel,60,61025ae37ef11b136ea224fe,,,,,,,,,4074,44.640625,-79.609375,1,0,0,response3disk,,4,-0.69921875,-3.984375,1,0,0,rectangle,-0.69921875,-3.984375,1,0,0,-0.69921875,-3.984375,1,0,0,1,40,200,54,1,,,,,,,,
,,,,,,,,,,,,,FF,,,,,,,,1.1832,,,,,,,,,,,,,,,,,,,,,,61035aefabf4c24bbcec1b7b,610377b24d9b832d1f35422d,2021-07-29_22h57.42.461,Simcolourproject_2stim_asymm_v5,2020.2.10,MacIntel,60,61025ae37ef11b136ea224fe,,,,,,,,,3344,80.66015625,52.1328125,1,0,0,response1disk,,6,-2.3671875,4.6640625,1,0,0,rectangle,-2.3671875,4.6640625,1,0,0,-2.3671875,4.6640625,1,0,0,1,41,201,75,1,,,,,,,,
,,,,,,,,,,,,,FF,,,,,,,,0.533,,,,,,,,,,,,,,,,,,,,,,61035aefabf4c24bbcec1b7b,610377b24d9b832d1f35422d,2021-07-29_22h57.42.461,Simcolourproject_2stim_asymm_v5,2020.2.10,MacIntel,60,61025ae37ef11b136ea224fe,,,,,,,,,1366,43.921875,69.93359375,1,0,0,response1disk,,7,2.3515625,-8.38671875,1,0,0,rectangle,2.3515625,-8.38671875,1,0,0,2.3515625,-8.38671875,1,0,0,1,42,202,158,1,,,,,,,,
,,,,,,,,,,,,,FF,,,,,,,,0.9498,,,,,,,,,,,,,,,,,,,,,,61035aefabf4c24bbcec1b7b,610377b24d9b832d1f35422d,2021-07-29_22h57.42.461,Simcolourproject_2stim_asymm_v5,2020.2.10,MacIntel,60,61025ae37ef11b136ea224fe,,,,,,,,,3980,-35.86328125,-88.93359375,1,0,0,response5disk,,3,-0.515625,-3.83203125,1,0,0,rectangle,-0.515625,-3.83203125,1,0,0,-0.515625,-3.83203125,1,0,0,1,43,203,13,1,,,,,,,,
,,,,,,,,,,,,,FF,,,,,,,,0.7348,,,,,,,,,,,,,,,,,,,,,,61035aefabf4c24bbcec1b7b,610377b24d9b832d1f35422d,2021-07-29_22h57.42.461,Simcolourproject_2stim_asymm_v5,2020.2.10,MacIntel,60,61025ae37ef11b136ea224fe,,,,,,,,,2280,23.08984375,72.01953125,1,0,0,response1disk,,7,1.56640625,-7.5078125,1,0,0,rectangle,-98.484375,-39.22265625,1,0,0,-7.7109375,-2.2734375,1,0,0,1,44,204,118,1,,response5disk_3,TRUE,2,2,"[145,80,288,299,314,140,114,7,108,308,298,111,278,156,51,205,70,15,218,250]",1.6004,rectangle
,,,,,,,,,,,,,FF,,,,,,,,2.3182,,,,,,,,,,,,,,,,,,,,,,61035aefabf4c24bbcec1b7b,610377b24d9b832d1f35422d,2021-07-29_22h57.42.461,Simcolourproject_2stim_asymm_v5,2020.2.10,MacIntel,60,61025ae37ef11b136ea224fe,,,,,,,,,1532,-47.91796875,-94.80859375,1,0,0,response5disk,,3,-0.2421875,-0.96484375,1,0,0,rectangle,-0.2421875,-0.96484375,1,0,0,-0.2421875,-0.96484375,1,0,0,1,45,205,140,1,,,,,,,,
,,,,,,,,,,,,,FF,,,,,,,,0.7653,,,,,,,,,,,,,,,,,,,,,,61035aefabf4c24bbcec1b7b,610377b24d9b832d1f35422d,2021-07-29_22h57.42.461,Simcolourproject_2stim_asymm_v5,2020.2.10,MacIntel,60,61025ae37ef11b136ea224fe,,,,,,,,,1359,54.87890625,92.94921875,1,0,0,response1disk,,7,1.82421875,-3.6953125,1,0,0,rectangle,1.82421875,-3.6953125,1,0,0,1.82421875,-3.6953125,1,0,0,1,46,206,10,1,,,,,,,,
,,,,,,,,,,,,,FF,,,,,,,,0.9979,,,,,,,,,,,,,,,,,,,,,,61035aefabf4c24bbcec1b7b,610377b24d9b832d1f35422d,2021-07-29_22h57.42.461,Simcolourproject_2stim_asymm_v5,2020.2.10,MacIntel,60,61025ae37ef11b136ea224fe,,,,,,,,,2430,26.9296875,101.6757813,1,0,0,response1disk,,7,0.27734375,-6.02734375,1,0,0,rectangle,0.27734375,-6.02734375,1,0,0,0.27734375,-6.02734375,1,0,0,1,47,207,48,1,,,,,,,,
,,,,,,,,,,,,,FF,,,,,,,,0.6659,,,,,,,,,,,,,,,,,,,,,,61035aefabf4c24bbcec1b7b,610377b24d9b832d1f35422d,2021-07-29_22h57.42.461,Simcolourproject_2stim_asymm_v5,2020.2.10,MacIntel,60,61025ae37ef11b136ea224fe,,,,,,,,,1248,80.86328125,40.6015625,1,0,0,response1disk,,6,-2.94140625,-5.27734375,1,0,0,rectangle,-2.94140625,-5.27734375,1,0,0,-2.94140625,-5.27734375,1,0,0,1,48,208,15,1,,,,,,,,
,,,,,,,,,,,,,FF,,,,,,,,0.952,,,,,,,,,,,,,,,,,,,,,,61035aefabf4c24bbcec1b7b,610377b24d9b832d1f35422d,2021-07-29_22h57.42.461,Simcolourproject_2stim_asymm_v5,2020.2.10,MacIntel,60,61025ae37ef11b136ea224fe,,,,,,,,,3162,96.82421875,-55.00390625,1,0,0,response3disk,,5,1.9375,-2.953125,1,0,0,rectangle,1.9375,-2.953125,1,0,0,1.9375,-2.953125,1,0,0,1,49,209,29,1,,,,,,,,
,,,,,,,,,,,,,FF,,,,,,,,0.5998,,,,,,,,,,,,,,,,,,,,,,61035aefabf4c24bbcec1b7b,610377b24d9b832d1f35422d,2021-07-29_22h57.42.461,Simcolourproject_2stim_asymm_v5,2020.2.10,MacIntel,60,61025ae37ef11b136ea224fe,,,,,,,,,1643,31.03515625,71.6015625,1,0,0,response1disk,,7,-2.81640625,-4.3515625,1,0,0,rectangle,-2.81640625,-4.3515625,1,0,0,-2.81640625,-4.3515625,1,0,0,1,50,210,60,1,,,,,,,,
,,,,,,,,,,,,,FF,,,,,,,,1.0457,,,,,,,,,,,,,,,,,,,,,,61035aefabf4c24bbcec1b7b,610377b24d9b832d1f35422d,2021-07-29_22h57.42.461,Simcolourproject_2stim_asymm_v5,2020.2.10,MacIntel,60,61025ae37ef11b136ea224fe,,,,,,,,,4168,-75.3046875,40.79296875,1,0,0,response7disk,,1,-5.23828125,0.6484375,1,0,0,rectangle,-5.23828125,0.6484375,1,0,0,-5.23828125,0.6484375,1,0,0,1,51,211,107,1,,,,,,,,
,,,,,,,,,,,,,FF,,,,,,,,1.1027,,,,,,,,,,,,,,,,,,,,,,61035aefabf4c24bbcec1b7b,610377b24d9b832d1f35422d,2021-07-29_22h57.42.461,Simcolourproject_2stim_asymm_v5,2020.2.10,MacIntel,60,61025ae37ef11b136ea224fe,,,,,,,,,1698,-38.9609375,-79.5,1,0,0,response5disk,,3,-0.85546875,0.33984375,1,0,0,rectangle,-0.85546875,0.33984375,1,0,0,-0.85546875,0.33984375,1,0,0,1,52,212,77,1,,,,,,,,
,,,,,,,,,,,,,FF,,,,,,,,1.0996,,,,,,,,,,,,,,,,,,,,,,61035aefabf4c24bbcec1b7b,610377b24d9b832d1f35422d,2021-07-29_22h57.42.461,Simcolourproject_2stim_asymm_v5,2020.2.10,MacIntel,60,61025ae37ef11b136ea224fe,,,,,,,,,4128,95.63671875,-59.16796875,1,0,0,response3disk,,5,7.00390625,5.26171875,1,0,0,rectangle,7.00390625,5.26171875,1,0,0,7.00390625,5.26171875,1,0,0,1,53,213,50,1,,,,,,,,
,,,,,,,,,,,,,FF,,,,,,,,0.7003,,,,,,,,,,,,,,,,,,,,,,61035aefabf4c24bbcec1b7b,610377b24d9b832d1f35422d,2021-07-29_22h57.42.461,Simcolourproject_2stim_asymm_v5,2020.2.10,MacIntel,60,61025ae37ef11b136ea224fe,,,,,,,,,3512,-89.2421875,36.2734375,1,0,0,response7disk,,1,-2.22265625,-3.703125,1,0,0,rectangle,-2.22265625,-3.703125,1,0,0,-2.22265625,-3.703125,1,0,0,1,54,214,87,1,,,,,,,,
,,,,,,,,,,,,,FF,,,,,,,,0.8671,,,,,,,,,,,,,,,,,,,,,,61035aefabf4c24bbcec1b7b,610377b24d9b832d1f35422d,2021-07-29_22h57.42.461,Simcolourproject_2stim_asymm_v5,2020.2.10,MacIntel,60,61025ae37ef11b136ea224fe,,,,,,,,,2384,78.609375,59.94140625,1,0,0,response1disk,,6,-4.4609375,-1.24609375,1,0,0,rectangle,-4.4609375,-1.24609375,1,0,0,-4.4609375,-1.24609375,1,0,0,1,55,215,93,1,,,,,,,,
,,,,,,,,,,,,,FF,,,,,,,,0.8171,,,,,,,,,,,,,,,,,,,,,,61035aefabf4c24bbcec1b7b,610377b24d9b832d1f35422d,2021-07-29_22h57.42.461,Simcolourproject_2stim_asymm_v5,2020.2.10,MacIntel,60,61025ae37ef11b136ea224fe,,,,,,,,,588,50.8359375,79.88671875,1,0,0,response1disk,,7,4.83203125,-9.5,1,0,0,rectangle,4.83203125,-9.5,1,0,0,4.83203125,-9.5,1,0,0,1,56,216,45,1,,,,,,,,
,,,,,,,,,,,,,FF,,,,,,,,0.7828,,,,,,,,,,,,,,,,,,,,,,61035aefabf4c24bbcec1b7b,610377b24d9b832d1f35422d,2021-07-29_22h57.42.461,Simcolourproject_2stim_asymm_v5,2020.2.10,MacIntel,60,61025ae37ef11b136ea224fe,,,,,,,,,1749,81.8984375,-41.1640625,1,0,0,response3disk,,5,-1.44921875,-1.2109375,1,0,0,rectangle,54.359375,-104.0117188,1,0,0,-5.8828125,1.1328125,1,0,0,1,57,217,64,1,,response3disk_3,TRUE,4,4,"[145,80,288,299,314,140,114,7,108,308,298,111,278,156,51,205,70,15,218,250]",1.4832,rectangle
,,,,,,,,,,,,,FF,,,,,,,,7.5833,,,,,,,,,,,,,,,,,,,,,,61035aefabf4c24bbcec1b7b,610377b24d9b832d1f35422d,2021-07-29_22h57.42.461,Simcolourproject_2stim_asymm_v5,2020.2.10,MacIntel,60,61025ae37ef11b136ea224fe,,,,,,,,,3030,88.90625,44.9609375,1,0,0,response1disk,,6,8.6484375,3.73046875,1,0,0,rectangle,8.6484375,3.73046875,1,0,0,8.6484375,3.73046875,1,0,0,1,58,218,117,1,,,,,,,,
,,,,,,,,,,,,,FF,,,,,,,,1.5018,,,,,,,,,,,,,,,,,,,,,,61035aefabf4c24bbcec1b7b,610377b24d9b832d1f35422d,2021-07-29_22h57.42.461,Simcolourproject_2stim_asymm_v5,2020.2.10,MacIntel,60,61025ae37ef11b136ea224fe,,,,,,,,,515,96.0859375,-30.91015625,1,0,0,response3disk,,5,0.83203125,-1.5,1,0,0,rectangle,0.83203125,-1.5,1,0,0,0.83203125,-1.5,1,0,0,1,59,219,153,1,,,,,,,,
,,,,,,,,,,,,,FF,,,,,,,,1.6997,,,,,,,,,,,,,,,,,,,,,,61035aefabf4c24bbcec1b7b,610377b24d9b832d1f35422d,2021-07-29_22h57.42.461,Simcolourproject_2stim_asymm_v5,2020.2.10,MacIntel,60,61025ae37ef11b136ea224fe,,,,,,,,,258,-90.61328125,-55.98046875,1,0,0,response5disk,,2,1.8359375,-5.375,1,0,0,rectangle,1.8359375,-5.375,1,0,0,1.8359375,-5.375,1,0,0,1,60,220,27,1,,,,,,,,
,,,,,,,,,,,,,FF,,,,,,,,0.9,,,,,,,,,,,,,,,,,,,,,,61035aefabf4c24bbcec1b7b,610377b24d9b832d1f35422d,2021-07-29_22h57.42.461,Simcolourproject_2stim_asymm_v5,2020.2.10,MacIntel,60,61025ae37ef11b136ea224fe,,,,,,,,,3460,86.9921875,-39.84765625,1,0,0,response3disk,,5,-1.08203125,-5.953125,1,0,0,rectangle,-1.08203125,-5.953125,1,0,0,-1.08203125,-5.953125,1,0,0,1,61,221,70,1,,,,,,,,
,,,,,,,,,,,,,FF,,,,,,,,0.7663,,,,,,,,,,,,,,,,,,,,,,61035aefabf4c24bbcec1b7b,610377b24d9b832d1f35422d,2021-07-29_22h57.42.461,Simcolourproject_2stim_asymm_v5,2020.2.10,MacIntel,60,61025ae37ef11b136ea224fe,,,,,,,,,3242,44.59765625,80.015625,1,0,0,response1disk,,7,0.4140625,5.47265625,1,0,0,rectangle,0.4140625,5.47265625,1,0,0,0.4140625,5.47265625,1,0,0,1,62,222,146,1,,,,,,,,
,,,,,,,,,,,,,FF,,,,,,,,0.816,,,,,,,,,,,,,,,,,,,,,,61035aefabf4c24bbcec1b7b,610377b24d9b832d1f35422d,2021-07-29_22h57.42.461,Simcolourproject_2stim_asymm_v5,2020.2.10,MacIntel,60,61025ae37ef11b136ea224fe,,,,,,,,,3955,91.87890625,-46.9765625,1,0,0,response3disk,,5,-3.7265625,-5.8046875,1,0,0,rectangle,-3.7265625,-5.8046875,1,0,0,-3.7265625,-5.8046875,1,0,0,1,63,223,88,1,,,,,,,,
,,,,,,,,,,,,,FF,,,,,,,,0.7329,,,,,,,,,,,,,,,,,,,,,,61035aefabf4c24bbcec1b7b,610377b24d9b832d1f35422d,2021-07-29_22h57.42.461,Simcolourproject_2stim_asymm_v5,2020.2.10,MacIntel,60,61025ae37ef11b136ea224fe,,,,,,,,,1818,-79.16015625,-42.4140625,1,0,0,response5disk,,2,-11.7734375,-7.00390625,1,0,0,rectangle,-11.7734375,-7.00390625,1,0,0,-11.7734375,-7.00390625,1,0,0,1,64,224,79,1,,,,,,,,
,,,,,,,,,,,,,FF,,,,,,,,0.6517,,,,,,,,,,,,,,,,,,,,,,61035aefabf4c24bbcec1b7b,610377b24d9b832d1f35422d,2021-07-29_22h57.42.461,Simcolourproject_2stim_asymm_v5,2020.2.10,MacIntel,60,61025ae37ef11b136ea224fe,,,,,,,,,2245,110.421875,-40.0625,1,0,0,response3disk,,5,-5.49609375,-6.92578125,1,0,0,rectangle,-5.49609375,-6.92578125,1,0,0,-5.49609375,-6.92578125,1,0,0,1,65,225,143,1,,,,,,,,
,,,,,,,,,,,,,FF,,,,,,,,0.7321,,,,,,,,,,,,,,,,,,,,,,61035aefabf4c24bbcec1b7b,610377b24d9b832d1f35422d,2021-07-29_22h57.42.461,Simcolourproject_2stim_asymm_v5,2020.2.10,MacIntel,60,61025ae37ef11b136ea224fe,,,,,,,,,591,31.59375,86.80078125,1,0,0,response1disk,,7,-4.484375,7.5390625,1,0,0,rectangle,-4.484375,7.5390625,1,0,0,-4.484375,7.5390625,1,0,0,1,66,226,138,1,,,,,,,,
,,,,,,,,,,,,,FF,,,,,,,,0.6325,,,,,,,,,,,,,,,,,,,,,,61035aefabf4c24bbcec1b7b,610377b24d9b832d1f35422d,2021-07-29_22h57.42.461,Simcolourproject_2stim_asymm_v5,2020.2.10,MacIntel,60,61025ae37ef11b136ea224fe,,,,,,,,,2255,22.96875,68.1171875,1,0,0,response1disk,,7,-7.5,0.95703125,1,0,0,rectangle,-7.5,0.95703125,1,0,0,-7.5,0.95703125,1,0,0,1,67,227,20,1,,,,,,,,
,,,,,,,,,,,,,FF,,,,,,,,0.9981,,,,,,,,,,,,,,,,,,,,,,61035aefabf4c24bbcec1b7b,610377b24d9b832d1f35422d,2021-07-29_22h57.42.461,Simcolourproject_2stim_asymm_v5,2020.2.10,MacIntel,60,61025ae37ef11b136ea224fe,,,,,,,,,3000,-96.9921875,45.77734375,1,0,0,response7disk,,1,-5.953125,-3.90234375,1,0,0,rectangle,-5.953125,-3.90234375,1,0,0,-5.953125,-3.90234375,1,0,0,1,68,228,7,1,,,,,,,,
,,,,,,,,,,,,,FF,,,,,,,,0.6487,,,,,,,,,,,,,,,,,,,,,,61035aefabf4c24bbcec1b7b,610377b24d9b832d1f35422d,2021-07-29_22h57.42.461,Simcolourproject_2stim_asymm_v5,2020.2.10,MacIntel,60,61025ae37ef11b136ea224fe,,,,,,,,,684,101.7109375,29.1171875,1,0,0,response1disk,,6,-8.65234375,1.75390625,1,0,0,rectangle,-8.65234375,1.75390625,1,0,0,-8.65234375,1.75390625,1,0,0,1,69,229,121,1,,,,,,,,
,,,,,,,,,,,,,FF,,,,,,,,0.5997,,,,,,,,,,,,,,,,,,,,,,61035aefabf4c24bbcec1b7b,610377b24d9b832d1f35422d,2021-07-29_22h57.42.461,Simcolourproject_2stim_asymm_v5,2020.2.10,MacIntel,60,61025ae37ef11b136ea224fe,,,,,,,,,2766,44.64453125,64.9296875,1,0,0,response1disk,,7,0.3515625,-7.51171875,1,0,0,rectangle,0.3515625,-7.51171875,1,0,0,0.3515625,-7.51171875,1,0,0,1,70,230,52,1,,,,,,,,
,,,,,,,,,,,,,FF,,,,,,,,0.9168,,,,,,,,,,,,,,,,,,,,,,61035aefabf4c24bbcec1b7b,610377b24d9b832d1f35422d,2021-07-29_22h57.42.461,Simcolourproject_2stim_asymm_v5,2020.2.10,MacIntel,60,61025ae37ef11b136ea224fe,,,,,,,,,1293,-39.08203125,-85.609375,1,0,0,response5disk,,3,1.4609375,-1.5625,1,0,0,rectangle,1.4609375,-1.5625,1,0,0,1.4609375,-1.5625,1,0,0,1,71,231,81,1,,,,,,,,
,,,,,,,,,,,,,FF,,,,,,,,0.6984,,,,,,,,,,,,,,,,,,,,,,61035aefabf4c24bbcec1b7b,610377b24d9b832d1f35422d,2021-07-29_22h57.42.461,Simcolourproject_2stim_asymm_v5,2020.2.10,MacIntel,60,61025ae37ef11b136ea224fe,,,,,,,,,4077,91.859375,-42.09375,1,0,0,response3disk,,5,-1.47265625,-2.76171875,1,0,0,rectangle,-1.47265625,-2.76171875,1,0,0,-1.47265625,-2.76171875,1,0,0,1,72,232,2,1,,,,,,,,
,,,,,,,,,,,,,FF,,,,,,,,1.1369,,,,,,,,,,,,,,,,,,,,,,61035aefabf4c24bbcec1b7b,610377b24d9b832d1f35422d,2021-07-29_22h57.42.461,Simcolourproject_2stim_asymm_v5,2020.2.10,MacIntel,60,61025ae37ef11b136ea224fe,,,,,,,,,3190,-80.90625,-26.67578125,1,0,0,response5disk,,2,-7.14453125,0.63671875,1,0,0,rectangle,-7.14453125,0.63671875,1,0,0,-7.14453125,0.63671875,1,0,0,1,73,233,78,1,,,,,,,,
,,,,,,,,,,,,,FF,,,,,,,,0.5994,,,,,,,,,,,,,,,,,,,,,,61035aefabf4c24bbcec1b7b,610377b24d9b832d1f35422d,2021-07-29_22h57.42.461,Simcolourproject_2stim_asymm_v5,2020.2.10,MacIntel,60,61025ae37ef11b136ea224fe,,,,,,,,,1528,-42.0625,-76.75,1,0,0,response5disk,,3,3.21484375,4.48828125,1,0,0,rectangle,3.21484375,4.48828125,1,0,0,3.21484375,4.48828125,1,0,0,1,74,234,62,1,,,,,,,,
,,,,,,,,,,,,,FF,,,,,,,,0.584,,,,,,,,,,,,,,,,,,,,,,61035aefabf4c24bbcec1b7b,610377b24d9b832d1f35422d,2021-07-29_22h57.42.461,Simcolourproject_2stim_asymm_v5,2020.2.10,MacIntel,60,61025ae37ef11b136ea224fe,,,,,,,,,3179,37.515625,66.171875,1,0,0,response1disk,,7,-4,-0.21875,1,0,0,rectangle,-4,-0.21875,1,0,0,-4,-0.21875,1,0,0,1,75,235,97,1,,,,,,,,
,,,,,,,,,,,,,FF,,,,,,,,0.6666,,,,,,,,,,,,,,,,,,,,,,61035aefabf4c24bbcec1b7b,610377b24d9b832d1f35422d,2021-07-29_22h57.42.461,Simcolourproject_2stim_asymm_v5,2020.2.10,MacIntel,60,61025ae37ef11b136ea224fe,,,,,,,,,3001,70.9375,40.96484375,1,0,0,response1disk,,6,4.00390625,0.33984375,1,0,0,rectangle,4.00390625,0.33984375,1,0,0,4.00390625,0.33984375,1,0,0,1,76,236,85,1,,,,,,,,
,,,,,,,,,,,,,FF,,,,,,,,0.5833,,,,,,,,,,,,,,,,,,,,,,61035aefabf4c24bbcec1b7b,610377b24d9b832d1f35422d,2021-07-29_22h57.42.461,Simcolourproject_2stim_asymm_v5,2020.2.10,MacIntel,60,61025ae37ef11b136ea224fe,,,,,,,,,960,23.55859375,76.85546875,1,0,0,response1disk,,7,-7.1171875,-0.890625,1,0,0,rectangle,-7.1171875,-0.890625,1,0,0,-7.1171875,-0.890625,1,0,0,1,77,237,36,1,,,,,,,,
,,,,,,,,,,,,,FF,,,,,,,,0.7696,,,,,,,,,,,,,,,,,,,,,,61035aefabf4c24bbcec1b7b,610377b24d9b832d1f35422d,2021-07-29_22h57.42.461,Simcolourproject_2stim_asymm_v5,2020.2.10,MacIntel,60,61025ae37ef11b136ea224fe,,,,,,,,,1371,-30.09765625,-63.54296875,1,0,0,response5disk,,3,-7.7265625,-0.8359375,1,0,0,rectangle,-7.7265625,-0.8359375,1,0,0,-7.7265625,-0.8359375,1,0,0,1,78,238,150,1,,,,,,,,
,,,,,,,,,,,,,FF,,,,,,,,0.586,,,,,,,,,,,,,,,,,,,,,,61035aefabf4c24bbcec1b7b,610377b24d9b832d1f35422d,2021-07-29_22h57.42.461,Simcolourproject_2stim_asymm_v5,2020.2.10,MacIntel,60,61025ae37ef11b136ea224fe,,,,,,,,,3424,27.5859375,100.7851563,1,0,0,response1disk,,7,2.5703125,4.55859375,1,0,0,rectangle,2.5703125,4.55859375,1,0,0,2.5703125,4.55859375,1,0,0,1,79,239,133,1,,,,,,,,
,,,,,,,,,,,,,FF,,,,,,,,0.7334,,,,,,,,,,,,,,,,,,,,,,61035aefabf4c24bbcec1b7b,610377b24d9b832d1f35422d,2021-07-29_22h57.42.461,Simcolourproject_2stim_asymm_v5,2020.2.10,MacIntel,60,61025ae37ef11b136ea224fe,,,,,,,,,3053,91.0078125,-45.98828125,1,0,0,response3disk,,5,-3.50390625,-5.7578125,1,0,0,rectangle,-3.50390625,-5.7578125,1,0,0,-3.50390625,-5.7578125,1,0,0,1,80,240,145,1,,,,,,,,
,,,,,,,,,,,,,FF,,,,,,,,0.5502,,,,,,,,,,,,,,,,,,,,,,61035aefabf4c24bbcec1b7b,610377b24d9b832d1f35422d,2021-07-29_22h57.42.461,Simcolourproject_2stim_asymm_v5,2020.2.10,MacIntel,60,61025ae37ef11b136ea224fe,,,,,,,,,2446,41.9140625,73.55859375,1,0,0,response1disk,,7,3.51953125,-0.81640625,1,0,0,rectangle,3.51953125,-0.81640625,1,0,0,3.51953125,-0.81640625,1,0,0,1,81,241,110,1,,,,,,,,
,,,,,,,,,,,,,FF,,,,,,,,0.6674,,,,,,,,,,,,,,,,,,,,,,61035aefabf4c24bbcec1b7b,610377b24d9b832d1f35422d,2021-07-29_22h57.42.461,Simcolourproject_2stim_asymm_v5,2020.2.10,MacIntel,60,61025ae37ef11b136ea224fe,,,,,,,,,2642,23.83203125,87.96484375,1,0,0,response1disk,,7,-8.4921875,6.1484375,1,0,0,rectangle,-8.4921875,6.1484375,1,0,0,-8.4921875,6.1484375,1,0,0,1,82,242,59,1,,,,,,,,
,,,,,,,,,,,,,FF,,,,,,,,0.5843,,,,,,,,,,,,,,,,,,,,,,61035aefabf4c24bbcec1b7b,610377b24d9b832d1f35422d,2021-07-29_22h57.42.461,Simcolourproject_2stim_asymm_v5,2020.2.10,MacIntel,60,61025ae37ef11b136ea224fe,,,,,,,,,406,35.02734375,69.19921875,1,0,0,response1disk,,7,0.35546875,-7.09765625,1,0,0,rectangle,0.35546875,-7.09765625,1,0,0,0.35546875,-7.09765625,1,0,0,1,83,243,115,1,,,,,,,,
,,,,,,,,,,,,,FF,,,,,,,,0.5163,,,,,,,,,,,,,,,,,,,,,,61035aefabf4c24bbcec1b7b,610377b24d9b832d1f35422d,2021-07-29_22h57.42.461,Simcolourproject_2stim_asymm_v5,2020.2.10,MacIntel,60,61025ae37ef11b136ea224fe,,,,,,,,,2359,90.72265625,53.3984375,1,0,0,response1disk,,6,3.4609375,0.8984375,1,0,0,rectangle,3.4609375,0.8984375,1,0,0,3.4609375,0.8984375,1,0,0,1,84,244,31,1,,,,,,,,
,,,,,,,,,,,,,FF,,,,,,,,0.5669,,,,,,,,,,,,,,,,,,,,,,61035aefabf4c24bbcec1b7b,610377b24d9b832d1f35422d,2021-07-29_22h57.42.461,Simcolourproject_2stim_asymm_v5,2020.2.10,MacIntel,60,61025ae37ef11b136ea224fe,,,,,,,,,3009,43.6171875,87.43359375,1,0,0,response1disk,,7,-5.984375,1.0859375,1,0,0,rectangle,-5.984375,1.0859375,1,0,0,-5.984375,1.0859375,1,0,0,1,85,245,38,1,,,,,,,,
,,,,,,,,,,,,,FF,,,,,,,,0.7186,,,,,,,,,,,,,,,,,,,,,,61035aefabf4c24bbcec1b7b,610377b24d9b832d1f35422d,2021-07-29_22h57.42.461,Simcolourproject_2stim_asymm_v5,2020.2.10,MacIntel,60,61025ae37ef11b136ea224fe,,,,,,,,,1636,43.0703125,95.69140625,1,0,0,response1disk,,7,-0.734375,-3.6484375,1,0,0,rectangle,-0.734375,-3.6484375,1,0,0,-0.734375,-3.6484375,1,0,0,1,86,246,6,1,,,,,,,,
,,,,,,,,,,,,,FF,,,,,,,,1.066,,,,,,,,,,,,,,,,,,,,,,61035aefabf4c24bbcec1b7b,610377b24d9b832d1f35422d,2021-07-29_22h57.42.461,Simcolourproject_2stim_asymm_v5,2020.2.10,MacIntel,60,61025ae37ef11b136ea224fe,,,,,,,,,956,88.7734375,46.4609375,1,0,0,response1disk,,6,2.8828125,2.73046875,1,0,0,rectangle,2.8828125,2.73046875,1,0,0,2.8828125,2.73046875,1,0,0,1,87,247,8,1,,,,,,,,
,,,,,,,,,,,,,FF,,,,,,,,1.0333,,,,,,,,,,,,,,,,,,,,,,61035aefabf4c24bbcec1b7b,610377b24d9b832d1f35422d,2021-07-29_22h57.42.461,Simcolourproject_2stim_asymm_v5,2020.2.10,MacIntel,60,61025ae37ef11b136ea224fe,,,,,,,,,3566,64.62109375,45.96484375,1,0,0,response1disk,,6,2.015625,-0.44140625,1,0,0,rectangle,2.015625,-0.44140625,1,0,0,2.015625,-0.44140625,1,0,0,1,88,248,63,1,,,,,,,,
