key_resp.keys,key_resp.rt,key_resp_14.keys,key_resp_14.rt,key_resp_15.keys,key_resp_15.rt,key_resp_17.keys,key_resp_17.rt,key_resp_9.keys,key_resp_9.rt,key_resp_10.keys,key_resp_10.rt,practice_comparison,Ecc,mouse_5.x,mouse_5.y,mouse_5.leftButton,mouse_5.midButton,mouse_5.rightButton,mouse_5.clicked_name,pracsimilarity,response_time,mouse_10.x,mouse_10.y,mouse_10.leftButton,mouse_10.midButton,mouse_10.rightButton,mouse_10.clicked_name,mouse_7.x,mouse_7.y,mouse_7.leftButton,mouse_7.midButton,mouse_7.rightButton,mouse_6.x,mouse_6.y,mouse_6.leftButton,mouse_6.midButton,mouse_6.rightButton,duringprac.thisRepN,duringprac.thisTrialN,duringprac.thisN,duringprac.thisIndex,duringprac.ran,participant,session,date,expName,psychopyVersion,OS,frameRate,study_id,mouse_7.clicked_name,catchpracsimilarity,catch_response_time,catchnumberprac,catchtrialorderprac,mouse_6.clicked_name,key_resp_22.keys,key_resp_22.rt,realcomparison,mouse.x,mouse.y,mouse.leftButton,mouse.midButton,mouse.rightButton,mouse.clicked_name,Colour2,similarity,mouse_2.x,mouse_2.y,mouse_2.leftButton,mouse_2.midButton,mouse_2.rightButton,mouse_2.clicked_name,mouse_3.x,mouse_3.y,mouse_3.leftButton,mouse_3.midButton,mouse_3.rightButton,mouse_11.x,mouse_11.y,mouse_11.leftButton,mouse_11.midButton,mouse_11.rightButton,trials_2.thisRepN,trials_2.thisTrialN,trials_2.thisN,trials_2.thisIndex,trials_2.ran,Colour1,mouse_3.clicked_name,catchornah,catchsimilarity,catchnumber,catchtrialorder,catchRT,mouse_11.clicked_name
space,1.1736,space,2.1825,space,10.9916,space,8.0617,space,0.073,space,2.5527,88,PF,44,86,1,0,0,response1disk_5,7,12.6924,-4,-4.5,1,0,0,rectangle_8,-4,-4.5,1,0,0,-4,-4.5,1,0,0,0,0,0,4,1,6103380f5760c211093ec7c5,61036d87948b0f7f3ebab484,2021-07-29_23h42.37.325,Simcolourproject_2stim_asymm_v5,2020.2.10,Win32,60,61025ae37ef11b136ea224fe,,,,,,,,,,,,,,,,,,,,,,,,,,,,,,,,,,,,,,,,,,,,,,
,,,,,,,,,,,,61,PF,-53.5,-86,1,0,0,response5disk_5,3,5.7463,-8,-4,1,0,0,rectangle_8,90,36.5,1,0,0,0.5,-4.5,1,0,0,0,1,1,6,1,6103380f5760c211093ec7c5,61036d87948b0f7f3ebab484,2021-07-29_23h42.37.325,Simcolourproject_2stim_asymm_v5,2020.2.10,Win32,60,61025ae37ef11b136ea224fe,response1disk_7,6,2.7017,6,"[2,5]",rectangle_4,,,,,,,,,,,,,,,,,,,,,,,,,,,,,,,,,,,,,,,,
,,,,,,,,,,,,13,FF,63,85,1,0,0,response1disk_5,7,2.8158,-12.5,12.5,1,0,0,rectangle_8,-12.5,12.5,1,0,0,-12.5,12.5,1,0,0,0,2,2,0,1,6103380f5760c211093ec7c5,61036d87948b0f7f3ebab484,2021-07-29_23h42.37.325,Simcolourproject_2stim_asymm_v5,2020.2.10,Win32,60,61025ae37ef11b136ea224fe,,,,,,,,,,,,,,,,,,,,,,,,,,,,,,,,,,,,,,,,,,,,,,
,,,,,,,,,,,,61,PF,-93,-36,1,0,0,response5disk_5,2,3.1785,-16.5,-9,1,0,0,rectangle_8,-16.5,-9,1,0,0,-16.5,-9,1,0,0,0,3,3,2,1,6103380f5760c211093ec7c5,61036d87948b0f7f3ebab484,2021-07-29_23h42.37.325,Simcolourproject_2stim_asymm_v5,2020.2.10,Win32,60,61025ae37ef11b136ea224fe,,,,,,,,,,,,,,,,,,,,,,,,,,,,,,,,,,,,,,,,,,,,,,
,,,,,,,,,,,,117,FF,99,68.5,1,0,0,response1disk_5,6,3.3236,12,2.5,1,0,0,rectangle_8,94.5,49.5,1,0,0,0,-1.5,1,0,0,0,4,4,3,1,6103380f5760c211093ec7c5,61036d87948b0f7f3ebab484,2021-07-29_23h42.37.325,Simcolourproject_2stim_asymm_v5,2020.2.10,Win32,60,61025ae37ef11b136ea224fe,response1disk_7,6,1.7518,6,"[2,5]",rectangle_4,,,,,,,,,,,,,,,,,,,,,,,,,,,,,,,,,,,,,,,,
,,,,,,,,,,,,94,PF,-34.5,-65,1,0,0,response5disk_5,3,1.5023,7.5,6.5,1,0,0,rectangle_8,7.5,6.5,1,0,0,7.5,6.5,1,0,0,0,5,5,1,1,6103380f5760c211093ec7c5,61036d87948b0f7f3ebab484,2021-07-29_23h42.37.325,Simcolourproject_2stim_asymm_v5,2020.2.10,Win32,60,61025ae37ef11b136ea224fe,,,,,,,,,,,,,,,,,,,,,,,,,,,,,,,,,,,,,,,,,,,,,,
,,,,,,,,,,,,117,FF,61,84.5,1,0,0,response1disk_5,7,2.6988,14,4,1,0,0,rectangle_8,14,4,1,0,0,14,4,1,0,0,0,6,6,5,1,6103380f5760c211093ec7c5,61036d87948b0f7f3ebab484,2021-07-29_23h42.37.325,Simcolourproject_2stim_asymm_v5,2020.2.10,Win32,60,61025ae37ef11b136ea224fe,,,,,,,,,,,,,,,,,,,,,,,,,,,,,,,,,,,,,,,,,,,,,,
,,,,,,,,,,,,,FF,,,,,,,,5.8097,,,,,,,,,,,,,,,,,,,,,,6103380f5760c211093ec7c5,61036d87948b0f7f3ebab484,2021-07-29_23h42.37.325,Simcolourproject_2stim_asymm_v5,2020.2.10,Win32,60,61025ae37ef11b136ea224fe,,,,,,,space,2.154,3533,58.5,92.5,1,0,0,response1disk,,7,-16,13.5,1,0,0,rectangle,-16,13.5,1,0,0,-16,13.5,1,0,0,0,0,0,92,1,,,,,,,,
,,,,,,,,,,,,,FF,,,,,,,,2.5206,,,,,,,,,,,,,,,,,,,,,,6103380f5760c211093ec7c5,61036d87948b0f7f3ebab484,2021-07-29_23h42.37.325,Simcolourproject_2stim_asymm_v5,2020.2.10,Win32,60,61025ae37ef11b136ea224fe,,,,,,,,,3897,-37.5,-81.5,1,0,0,response5disk,,3,1,5,1,0,0,rectangle,1,5,1,0,0,1,5,1,0,0,0,1,1,55,1,,,,,,,,
,,,,,,,,,,,,,FF,,,,,,,,1.9045,,,,,,,,,,,,,,,,,,,,,,6103380f5760c211093ec7c5,61036d87948b0f7f3ebab484,2021-07-29_23h42.37.325,Simcolourproject_2stim_asymm_v5,2020.2.10,Win32,60,61025ae37ef11b136ea224fe,,,,,,,,,786,34.5,-89.5,1,0,0,response3disk,,4,-3,5.5,1,0,0,rectangle,-3,5.5,1,0,0,-3,5.5,1,0,0,0,2,2,37,1,,,,,,,,
,,,,,,,,,,,,,FF,,,,,,,,3.919,,,,,,,,,,,,,,,,,,,,,,6103380f5760c211093ec7c5,61036d87948b0f7f3ebab484,2021-07-29_23h42.37.325,Simcolourproject_2stim_asymm_v5,2020.2.10,Win32,60,61025ae37ef11b136ea224fe,,,,,,,,,2686,44,-77,1,0,0,response3disk,,4,-16.5,4.5,1,0,0,rectangle,-16.5,4.5,1,0,0,-16.5,4.5,1,0,0,0,3,3,27,1,,,,,,,,
,,,,,,,,,,,,,FF,,,,,,,,2.4938,,,,,,,,,,,,,,,,,,,,,,6103380f5760c211093ec7c5,61036d87948b0f7f3ebab484,2021-07-29_23h42.37.325,Simcolourproject_2stim_asymm_v5,2020.2.10,Win32,60,61025ae37ef11b136ea224fe,,,,,,,,,3783,-87.5,-20.5,1,0,0,response5disk,,2,10.5,11,1,0,0,rectangle,10.5,11,1,0,0,10.5,11,1,0,0,0,4,4,117,1,,,,,,,,
,,,,,,,,,,,,,FF,,,,,,,,1.605,,,,,,,,,,,,,,,,,,,,,,6103380f5760c211093ec7c5,61036d87948b0f7f3ebab484,2021-07-29_23h42.37.325,Simcolourproject_2stim_asymm_v5,2020.2.10,Win32,60,61025ae37ef11b136ea224fe,,,,,,,,,1669,92.5,-28,1,0,0,response3disk,,5,-10.5,-14.5,1,0,0,rectangle,-10.5,-14.5,1,0,0,-10.5,-14.5,1,0,0,0,5,5,70,1,,,,,,,,
,,,,,,,,,,,,,FF,,,,,,,,2.3895,,,,,,,,,,,,,,,,,,,,,,6103380f5760c211093ec7c5,61036d87948b0f7f3ebab484,2021-07-29_23h42.37.325,Simcolourproject_2stim_asymm_v5,2020.2.10,Win32,60,61025ae37ef11b136ea224fe,,,,,,,,,147,108,28,1,0,0,response1disk,,6,0.5,1.5,1,0,0,rectangle,-98.5,34,1,0,0,-10,-4.5,1,0,0,0,6,6,78,1,,response7disk_3,TRUE,1,1,"[184,7,192,136,93,248,240,11,0,27,30,252,171,231,259,312,104,121,98,53]",2.0563,rectangle
,,,,,,,,,,,,,FF,,,,,,,,1.4821,,,,,,,,,,,,,,,,,,,,,,6103380f5760c211093ec7c5,61036d87948b0f7f3ebab484,2021-07-29_23h42.37.325,Simcolourproject_2stim_asymm_v5,2020.2.10,Win32,60,61025ae37ef11b136ea224fe,,,,,,,,,739,-88,-51.5,1,0,0,response5disk,,2,8,-3.5,1,0,0,rectangle,8,-3.5,1,0,0,8,-3.5,1,0,0,0,7,7,83,1,,,,,,,,
,,,,,,,,,,,,,FF,,,,,,,,2.1211,,,,,,,,,,,,,,,,,,,,,,6103380f5760c211093ec7c5,61036d87948b0f7f3ebab484,2021-07-29_23h42.37.325,Simcolourproject_2stim_asymm_v5,2020.2.10,Win32,60,61025ae37ef11b136ea224fe,,,,,,,,,4283,-78,35,1,0,0,response7disk,,1,-11,-5,1,0,0,rectangle,-11,-5,1,0,0,-11,-5,1,0,0,0,8,8,63,1,,,,,,,,
,,,,,,,,,,,,,FF,,,,,,,,1.0563,,,,,,,,,,,,,,,,,,,,,,6103380f5760c211093ec7c5,61036d87948b0f7f3ebab484,2021-07-29_23h42.37.325,Simcolourproject_2stim_asymm_v5,2020.2.10,Win32,60,61025ae37ef11b136ea224fe,,,,,,,,,3680,-99.5,-34,1,0,0,response5disk,,2,-16.5,13.5,1,0,0,rectangle,-16.5,13.5,1,0,0,-16.5,13.5,1,0,0,0,9,9,125,1,,,,,,,,
,,,,,,,,,,,,,FF,,,,,,,,1.8033,,,,,,,,,,,,,,,,,,,,,,6103380f5760c211093ec7c5,61036d87948b0f7f3ebab484,2021-07-29_23h42.37.325,Simcolourproject_2stim_asymm_v5,2020.2.10,Win32,60,61025ae37ef11b136ea224fe,,,,,,,,,312,50.5,85,1,0,0,response1disk,,7,23,16,1,0,0,rectangle,109,44,1,0,0,17.5,3,1,0,0,0,10,10,89,1,,response1disk_3,TRUE,6,6,"[184,7,192,136,93,248,240,11,0,27,30,252,171,231,259,312,104,121,98,53]",1.5182,rectangle
,,,,,,,,,,,,,FF,,,,,,,,1.5796,,,,,,,,,,,,,,,,,,,,,,6103380f5760c211093ec7c5,61036d87948b0f7f3ebab484,2021-07-29_23h42.37.325,Simcolourproject_2stim_asymm_v5,2020.2.10,Win32,60,61025ae37ef11b136ea224fe,,,,,,,,,2986,-47,-84.5,1,0,0,response5disk,,3,-17,-5.5,1,0,0,rectangle,-17,-5.5,1,0,0,-17,-5.5,1,0,0,0,11,11,140,1,,,,,,,,
,,,,,,,,,,,,,FF,,,,,,,,1.3019,,,,,,,,,,,,,,,,,,,,,,6103380f5760c211093ec7c5,61036d87948b0f7f3ebab484,2021-07-29_23h42.37.325,Simcolourproject_2stim_asymm_v5,2020.2.10,Win32,60,61025ae37ef11b136ea224fe,,,,,,,,,2066,61,90.5,1,0,0,response1disk,,7,0.5,4.5,1,0,0,rectangle,0.5,4.5,1,0,0,0.5,4.5,1,0,0,0,12,12,8,1,,,,,,,,
,,,,,,,,,,,,,FF,,,,,,,,1.6524,,,,,,,,,,,,,,,,,,,,,,6103380f5760c211093ec7c5,61036d87948b0f7f3ebab484,2021-07-29_23h42.37.325,Simcolourproject_2stim_asymm_v5,2020.2.10,Win32,60,61025ae37ef11b136ea224fe,,,,,,,,,926,103,44,1,0,0,response1disk,,6,0,5.5,1,0,0,rectangle,0,5.5,1,0,0,0,5.5,1,0,0,0,13,13,155,1,,,,,,,,
,,,,,,,,,,,,,FF,,,,,,,,1.6896,,,,,,,,,,,,,,,,,,,,,,6103380f5760c211093ec7c5,61036d87948b0f7f3ebab484,2021-07-29_23h42.37.325,Simcolourproject_2stim_asymm_v5,2020.2.10,Win32,60,61025ae37ef11b136ea224fe,,,,,,,,,3101,-91.5,-41,1,0,0,response5disk,,2,-15,14,1,0,0,rectangle,-15,14,1,0,0,-15,14,1,0,0,0,14,14,40,1,,,,,,,,
,,,,,,,,,,,,,FF,,,,,,,,1.2126,,,,,,,,,,,,,,,,,,,,,,6103380f5760c211093ec7c5,61036d87948b0f7f3ebab484,2021-07-29_23h42.37.325,Simcolourproject_2stim_asymm_v5,2020.2.10,Win32,60,61025ae37ef11b136ea224fe,,,,,,,,,2635,96,77,1,0,0,response1disk,,6,1.5,15,1,0,0,rectangle,1.5,15,1,0,0,1.5,15,1,0,0,0,15,15,120,1,,,,,,,,
,,,,,,,,,,,,,FF,,,,,,,,2.065,,,,,,,,,,,,,,,,,,,,,,6103380f5760c211093ec7c5,61036d87948b0f7f3ebab484,2021-07-29_23h42.37.325,Simcolourproject_2stim_asymm_v5,2020.2.10,Win32,60,61025ae37ef11b136ea224fe,,,,,,,,,1313,-46.5,-67,1,0,0,response5disk,,3,-26,2.5,1,0,0,rectangle,-26,2.5,1,0,0,-26,2.5,1,0,0,0,16,16,36,1,,,,,,,,
,,,,,,,,,,,,,FF,,,,,,,,1.1187,,,,,,,,,,,,,,,,,,,,,,6103380f5760c211093ec7c5,61036d87948b0f7f3ebab484,2021-07-29_23h42.37.325,Simcolourproject_2stim_asymm_v5,2020.2.10,Win32,60,61025ae37ef11b136ea224fe,,,,,,,,,504,74.5,96.5,1,0,0,response1disk,,7,6.5,9,1,0,0,rectangle,6.5,9,1,0,0,6.5,9,1,0,0,0,17,17,13,1,,,,,,,,
,,,,,,,,,,,,,FF,,,,,,,,1.6852,,,,,,,,,,,,,,,,,,,,,,6103380f5760c211093ec7c5,61036d87948b0f7f3ebab484,2021-07-29_23h42.37.325,Simcolourproject_2stim_asymm_v5,2020.2.10,Win32,60,61025ae37ef11b136ea224fe,,,,,,,,,622,-52,-78.5,1,0,0,response5disk,,3,-15.5,-1.5,1,0,0,rectangle,-15.5,-1.5,1,0,0,-15.5,-1.5,1,0,0,0,18,18,67,1,,,,,,,,
,,,,,,,,,,,,,FF,,,,,,,,1.6448,,,,,,,,,,,,,,,,,,,,,,6103380f5760c211093ec7c5,61036d87948b0f7f3ebab484,2021-07-29_23h42.37.325,Simcolourproject_2stim_asymm_v5,2020.2.10,Win32,60,61025ae37ef11b136ea224fe,,,,,,,,,82,-89.5,-58.5,1,0,0,response5disk,,2,8.5,4.5,1,0,0,rectangle,8.5,4.5,1,0,0,8.5,4.5,1,0,0,0,19,19,32,1,,,,,,,,
,,,,,,,,,,,,,FF,,,,,,,,1.254,,,,,,,,,,,,,,,,,,,,,,6103380f5760c211093ec7c5,61036d87948b0f7f3ebab484,2021-07-29_23h42.37.325,Simcolourproject_2stim_asymm_v5,2020.2.10,Win32,60,61025ae37ef11b136ea224fe,,,,,,,,,3560,-73.5,-43.5,1,0,0,response5disk,,2,-16.5,3,1,0,0,rectangle,-16.5,3,1,0,0,-16.5,3,1,0,0,0,20,20,53,1,,,,,,,,
,,,,,,,,,,,,,FF,,,,,,,,1.8335,,,,,,,,,,,,,,,,,,,,,,6103380f5760c211093ec7c5,61036d87948b0f7f3ebab484,2021-07-29_23h42.37.325,Simcolourproject_2stim_asymm_v5,2020.2.10,Win32,60,61025ae37ef11b136ea224fe,,,,,,,,,4021,-70.5,51.5,1,0,0,response7disk,,1,-2,-2.5,1,0,0,rectangle,-2,-2.5,1,0,0,-2,-2.5,1,0,0,0,21,21,129,1,,,,,,,,
,,,,,,,,,,,,,FF,,,,,,,,2.6204,,,,,,,,,,,,,,,,,,,,,,6103380f5760c211093ec7c5,61036d87948b0f7f3ebab484,2021-07-29_23h42.37.325,Simcolourproject_2stim_asymm_v5,2020.2.10,Win32,60,61025ae37ef11b136ea224fe,,,,,,,,,471,106.5,41.5,1,0,0,response1disk,,6,18,-4.5,1,0,0,rectangle,18,-4.5,1,0,0,18,-4.5,1,0,0,0,22,22,88,1,,,,,,,,
,,,,,,,,,,,,,FF,,,,,,,,1.3737,,,,,,,,,,,,,,,,,,,,,,6103380f5760c211093ec7c5,61036d87948b0f7f3ebab484,2021-07-29_23h42.37.325,Simcolourproject_2stim_asymm_v5,2020.2.10,Win32,60,61025ae37ef11b136ea224fe,,,,,,,,,551,-83,-40,1,0,0,response5disk,,2,-1.5,9,1,0,0,rectangle,-1.5,9,1,0,0,-1.5,9,1,0,0,0,23,23,60,1,,,,,,,,
,,,,,,,,,,,,,FF,,,,,,,,2.2576,,,,,,,,,,,,,,,,,,,,,,6103380f5760c211093ec7c5,61036d87948b0f7f3ebab484,2021-07-29_23h42.37.325,Simcolourproject_2stim_asymm_v5,2020.2.10,Win32,60,61025ae37ef11b136ea224fe,,,,,,,,,2422,-81.5,-39,1,0,0,response5disk,,2,1,0,1,0,0,rectangle,1,0,1,0,0,1,0,1,0,0,0,24,24,23,1,,,,,,,,
,,,,,,,,,,,,,FF,,,,,,,,2.0002,,,,,,,,,,,,,,,,,,,,,,6103380f5760c211093ec7c5,61036d87948b0f7f3ebab484,2021-07-29_23h42.37.325,Simcolourproject_2stim_asymm_v5,2020.2.10,Win32,60,61025ae37ef11b136ea224fe,,,,,,,,,160,-79,-51.5,1,0,0,response5disk,,2,0,6.5,1,0,0,rectangle,0,6.5,1,0,0,0,6.5,1,0,0,0,25,25,17,1,,,,,,,,
,,,,,,,,,,,,,FF,,,,,,,,1.1689,,,,,,,,,,,,,,,,,,,,,,6103380f5760c211093ec7c5,61036d87948b0f7f3ebab484,2021-07-29_23h42.37.325,Simcolourproject_2stim_asymm_v5,2020.2.10,Win32,60,61025ae37ef11b136ea224fe,,,,,,,,,2437,84.5,47,1,0,0,response1disk,,6,14,-9,1,0,0,rectangle,91.5,-28.5,1,0,0,0,2,1,0,0,0,26,26,90,1,,response3disk_3,TRUE,5,5,"[184,7,192,136,93,248,240,11,0,27,30,252,171,231,259,312,104,121,98,53]",1.9017,rectangle
,,,,,,,,,,,,,FF,,,,,,,,1.8163,,,,,,,,,,,,,,,,,,,,,,6103380f5760c211093ec7c5,61036d87948b0f7f3ebab484,2021-07-29_23h42.37.325,Simcolourproject_2stim_asymm_v5,2020.2.10,Win32,60,61025ae37ef11b136ea224fe,,,,,,,,,3525,89.5,-40,1,0,0,response3disk,,5,-30,-5.5,1,0,0,rectangle,-30,-5.5,1,0,0,-30,-5.5,1,0,0,0,27,27,86,1,,,,,,,,
,,,,,,,,,,,,,FF,,,,,,,,1.1815,,,,,,,,,,,,,,,,,,,,,,6103380f5760c211093ec7c5,61036d87948b0f7f3ebab484,2021-07-29_23h42.37.325,Simcolourproject_2stim_asymm_v5,2020.2.10,Win32,60,61025ae37ef11b136ea224fe,,,,,,,,,1225,-45,-72.5,1,0,0,response5disk,,3,-5,-2.5,1,0,0,rectangle,-5,-2.5,1,0,0,-5,-2.5,1,0,0,0,28,28,106,1,,,,,,,,
,,,,,,,,,,,,,FF,,,,,,,,1.0177,,,,,,,,,,,,,,,,,,,,,,6103380f5760c211093ec7c5,61036d87948b0f7f3ebab484,2021-07-29_23h42.37.325,Simcolourproject_2stim_asymm_v5,2020.2.10,Win32,60,61025ae37ef11b136ea224fe,,,,,,,,,1232,-37.5,-74,1,0,0,response5disk,,3,-4.5,0.5,1,0,0,rectangle,52,115,1,0,0,-2.5,6.5,1,0,0,0,29,29,142,1,,response1disk_3,TRUE,7,7,"[184,7,192,136,93,248,240,11,0,27,30,252,171,231,259,312,104,121,98,53]",1.8918,rectangle
,,,,,,,,,,,,,FF,,,,,,,,1.0869,,,,,,,,,,,,,,,,,,,,,,6103380f5760c211093ec7c5,61036d87948b0f7f3ebab484,2021-07-29_23h42.37.325,Simcolourproject_2stim_asymm_v5,2020.2.10,Win32,60,61025ae37ef11b136ea224fe,,,,,,,,,2763,47.5,95.5,1,0,0,response1disk,,7,1,17.5,1,0,0,rectangle,1,17.5,1,0,0,1,17.5,1,0,0,0,30,30,56,1,,,,,,,,
,,,,,,,,,,,,,FF,,,,,,,,1.2486,,,,,,,,,,,,,,,,,,,,,,6103380f5760c211093ec7c5,61036d87948b0f7f3ebab484,2021-07-29_23h42.37.325,Simcolourproject_2stim_asymm_v5,2020.2.10,Win32,60,61025ae37ef11b136ea224fe,,,,,,,,,1684,-82,39,1,0,0,response7disk,,1,-13,-7.5,1,0,0,rectangle,-13,-7.5,1,0,0,-13,-7.5,1,0,0,0,31,31,52,1,,,,,,,,
,,,,,,,,,,,,,FF,,,,,,,,1.0809,,,,,,,,,,,,,,,,,,,,,,6103380f5760c211093ec7c5,61036d87948b0f7f3ebab484,2021-07-29_23h42.37.325,Simcolourproject_2stim_asymm_v5,2020.2.10,Win32,60,61025ae37ef11b136ea224fe,,,,,,,,,4199,88.5,42.5,1,0,0,response1disk,,6,17.5,-16,1,0,0,rectangle,17.5,-16,1,0,0,17.5,-16,1,0,0,0,32,32,96,1,,,,,,,,
,,,,,,,,,,,,,FF,,,,,,,,1.0944,,,,,,,,,,,,,,,,,,,,,,6103380f5760c211093ec7c5,61036d87948b0f7f3ebab484,2021-07-29_23h42.37.325,Simcolourproject_2stim_asymm_v5,2020.2.10,Win32,60,61025ae37ef11b136ea224fe,,,,,,,,,2004,82.5,52.5,1,0,0,response1disk,,6,3,7,1,0,0,rectangle,3,7,1,0,0,3,7,1,0,0,0,33,33,137,1,,,,,,,,
,,,,,,,,,,,,,FF,,,,,,,,3.5205,,,,,,,,,,,,,,,,,,,,,,6103380f5760c211093ec7c5,61036d87948b0f7f3ebab484,2021-07-29_23h42.37.325,Simcolourproject_2stim_asymm_v5,2020.2.10,Win32,60,61025ae37ef11b136ea224fe,,,,,,,,,180,84.5,-42.5,1,0,0,response3disk,,5,-9,-11,1,0,0,rectangle,-9,-11,1,0,0,-9,-11,1,0,0,0,34,34,103,1,,,,,,,,
,,,,,,,,,,,,,FF,,,,,,,,2.1834,,,,,,,,,,,,,,,,,,,,,,6103380f5760c211093ec7c5,61036d87948b0f7f3ebab484,2021-07-29_23h42.37.325,Simcolourproject_2stim_asymm_v5,2020.2.10,Win32,60,61025ae37ef11b136ea224fe,,,,,,,,,2266,78,95,1,0,0,response1disk,,7,0.5,-1.5,1,0,0,rectangle,0.5,-1.5,1,0,0,0.5,-1.5,1,0,0,0,35,35,2,1,,,,,,,,
,,,,,,,,,,,,,FF,,,,,,,,1.5943,,,,,,,,,,,,,,,,,,,,,,6103380f5760c211093ec7c5,61036d87948b0f7f3ebab484,2021-07-29_23h42.37.325,Simcolourproject_2stim_asymm_v5,2020.2.10,Win32,60,61025ae37ef11b136ea224fe,,,,,,,,,2434,69.5,-38.5,1,0,0,response3disk,,5,-10,1.5,1,0,0,rectangle,-10,1.5,1,0,0,-10,1.5,1,0,0,0,36,36,28,1,,,,,,,,
,,,,,,,,,,,,,FF,,,,,,,,1.0094,,,,,,,,,,,,,,,,,,,,,,6103380f5760c211093ec7c5,61036d87948b0f7f3ebab484,2021-07-29_23h42.37.325,Simcolourproject_2stim_asymm_v5,2020.2.10,Win32,60,61025ae37ef11b136ea224fe,,,,,,,,,848,94,50,1,0,0,response1disk,,6,3.5,-2,1,0,0,rectangle,3.5,-2,1,0,0,3.5,-2,1,0,0,0,37,37,150,1,,,,,,,,
,,,,,,,,,,,,,FF,,,,,,,,1.2104,,,,,,,,,,,,,,,,,,,,,,6103380f5760c211093ec7c5,61036d87948b0f7f3ebab484,2021-07-29_23h42.37.325,Simcolourproject_2stim_asymm_v5,2020.2.10,Win32,60,61025ae37ef11b136ea224fe,,,,,,,,,2401,98.5,55,1,0,0,response1disk,,6,-2.5,-11.5,1,0,0,rectangle,-2.5,-11.5,1,0,0,-2.5,-11.5,1,0,0,0,38,38,44,1,,,,,,,,
,,,,,,,,,,,,,FF,,,,,,,,3.1335,,,,,,,,,,,,,,,,,,,,,,6103380f5760c211093ec7c5,61036d87948b0f7f3ebab484,2021-07-29_23h42.37.325,Simcolourproject_2stim_asymm_v5,2020.2.10,Win32,60,61025ae37ef11b136ea224fe,,,,,,,,,1480,111.5,-27,1,0,0,response3disk,,5,15.5,2,1,0,0,rectangle,15.5,2,1,0,0,15.5,2,1,0,0,0,39,39,22,1,,,,,,,,
,,,,,,,,,,,,,FF,,,,,,,,1.7775,,,,,,,,,,,,,,,,,,,,,,6103380f5760c211093ec7c5,61036d87948b0f7f3ebab484,2021-07-29_23h42.37.325,Simcolourproject_2stim_asymm_v5,2020.2.10,Win32,60,61025ae37ef11b136ea224fe,,,,,,,,,1217,-40,-91.5,1,0,0,response5disk,,3,-8,10,1,0,0,rectangle,-8,10,1,0,0,-8,10,1,0,0,0,40,40,128,1,,,,,,,,
,,,,,,,,,,,,,FF,,,,,,,,0.9698,,,,,,,,,,,,,,,,,,,,,,6103380f5760c211093ec7c5,61036d87948b0f7f3ebab484,2021-07-29_23h42.37.325,Simcolourproject_2stim_asymm_v5,2020.2.10,Win32,60,61025ae37ef11b136ea224fe,,,,,,,,,1082,74,35,1,0,0,response1disk,,6,27,-1,1,0,0,rectangle,27,-1,1,0,0,27,-1,1,0,0,0,41,41,38,1,,,,,,,,
,,,,,,,,,,,,,FF,,,,,,,,1.8715,,,,,,,,,,,,,,,,,,,,,,6103380f5760c211093ec7c5,61036d87948b0f7f3ebab484,2021-07-29_23h42.37.325,Simcolourproject_2stim_asymm_v5,2020.2.10,Win32,60,61025ae37ef11b136ea224fe,,,,,,,,,1524,36,-89,1,0,0,response3disk,,4,-3.5,9,1,0,0,rectangle,-3.5,9,1,0,0,-3.5,9,1,0,0,0,42,42,59,1,,,,,,,,
,,,,,,,,,,,,,FF,,,,,,,,2.4437,,,,,,,,,,,,,,,,,,,,,,6103380f5760c211093ec7c5,61036d87948b0f7f3ebab484,2021-07-29_23h42.37.325,Simcolourproject_2stim_asymm_v5,2020.2.10,Win32,60,61025ae37ef11b136ea224fe,,,,,,,,,1915,113,36.5,1,0,0,response1disk,,6,11,10.5,1,0,0,rectangle,11,10.5,1,0,0,11,10.5,1,0,0,0,43,43,3,1,,,,,,,,
,,,,,,,,,,,,,FF,,,,,,,,1.0839,,,,,,,,,,,,,,,,,,,,,,6103380f5760c211093ec7c5,61036d87948b0f7f3ebab484,2021-07-29_23h42.37.325,Simcolourproject_2stim_asymm_v5,2020.2.10,Win32,60,61025ae37ef11b136ea224fe,,,,,,,,,1919,66.5,78.5,1,0,0,response1disk,,7,22,16.5,1,0,0,rectangle,22,16.5,1,0,0,22,16.5,1,0,0,0,44,44,12,1,,,,,,,,
,,,,,,,,,,,,,FF,,,,,,,,1.6057,,,,,,,,,,,,,,,,,,,,,,6103380f5760c211093ec7c5,61036d87948b0f7f3ebab484,2021-07-29_23h42.37.325,Simcolourproject_2stim_asymm_v5,2020.2.10,Win32,60,61025ae37ef11b136ea224fe,,,,,,,,,4151,-42.5,-92,1,0,0,response5disk,,3,3.5,11.5,1,0,0,rectangle,3.5,11.5,1,0,0,3.5,11.5,1,0,0,0,45,45,143,1,,,,,,,,
,,,,,,,,,,,,,FF,,,,,,,,1.8917,,,,,,,,,,,,,,,,,,,,,,6103380f5760c211093ec7c5,61036d87948b0f7f3ebab484,2021-07-29_23h42.37.325,Simcolourproject_2stim_asymm_v5,2020.2.10,Win32,60,61025ae37ef11b136ea224fe,,,,,,,,,3197,-74.5,52.5,1,0,0,response7disk,,1,-11.5,-3,1,0,0,rectangle,-11.5,-3,1,0,0,-11.5,-3,1,0,0,0,46,46,31,1,,,,,,,,
,,,,,,,,,,,,,FF,,,,,,,,1.34,,,,,,,,,,,,,,,,,,,,,,6103380f5760c211093ec7c5,61036d87948b0f7f3ebab484,2021-07-29_23h42.37.325,Simcolourproject_2stim_asymm_v5,2020.2.10,Win32,60,61025ae37ef11b136ea224fe,,,,,,,,,3192,-63.5,-47,1,0,0,response5disk,,2,3,-7,1,0,0,rectangle,3,-7,1,0,0,3,-7,1,0,0,0,47,47,19,1,,,,,,,,
,,,,,,,,,,,,,FF,,,,,,,,1.4958,,,,,,,,,,,,,,,,,,,,,,6103380f5760c211093ec7c5,61036d87948b0f7f3ebab484,2021-07-29_23h42.37.325,Simcolourproject_2stim_asymm_v5,2020.2.10,Win32,60,61025ae37ef11b136ea224fe,,,,,,,,,901,-34,-73,1,0,0,response5disk,,3,-2,-13.5,1,0,0,rectangle,-2,-13.5,1,0,0,-2,-13.5,1,0,0,0,48,48,136,1,,,,,,,,
,,,,,,,,,,,,,FF,,,,,,,,0.9205,,,,,,,,,,,,,,,,,,,,,,6103380f5760c211093ec7c5,61036d87948b0f7f3ebab484,2021-07-29_23h42.37.325,Simcolourproject_2stim_asymm_v5,2020.2.10,Win32,60,61025ae37ef11b136ea224fe,,,,,,,,,2889,-76.5,-61.5,1,0,0,response5disk,,2,-2.5,-5,1,0,0,rectangle,-2.5,-5,1,0,0,-2.5,-5,1,0,0,0,49,49,6,1,,,,,,,,
,,,,,,,,,,,,,FF,,,,,,,,1.4401,,,,,,,,,,,,,,,,,,,,,,6103380f5760c211093ec7c5,61036d87948b0f7f3ebab484,2021-07-29_23h42.37.325,Simcolourproject_2stim_asymm_v5,2020.2.10,Win32,60,61025ae37ef11b136ea224fe,,,,,,,,,2670,-44.5,-71.5,1,0,0,response5disk,,3,-4.5,11.5,1,0,0,rectangle,-4.5,11.5,1,0,0,-4.5,11.5,1,0,0,0,50,50,100,1,,,,,,,,
,,,,,,,,,,,,,FF,,,,,,,,1.2526,,,,,,,,,,,,,,,,,,,,,,6103380f5760c211093ec7c5,61036d87948b0f7f3ebab484,2021-07-29_23h42.37.325,Simcolourproject_2stim_asymm_v5,2020.2.10,Win32,60,61025ae37ef11b136ea224fe,,,,,,,,,381,84,28,1,0,0,response1disk,,6,5,3,1,0,0,rectangle,5,3,1,0,0,5,3,1,0,0,0,51,51,147,1,,,,,,,,
,,,,,,,,,,,,,FF,,,,,,,,1.3541,,,,,,,,,,,,,,,,,,,,,,6103380f5760c211093ec7c5,61036d87948b0f7f3ebab484,2021-07-29_23h42.37.325,Simcolourproject_2stim_asymm_v5,2020.2.10,Win32,60,61025ae37ef11b136ea224fe,,,,,,,,,2355,-63.5,85,1,0,0,response7disk,,0,-20.5,15,1,0,0,rectangle,53.5,-81,1,0,0,8.5,4,1,0,0,0,52,52,77,1,,response3disk_3,TRUE,4,4,"[184,7,192,136,93,248,240,11,0,27,30,252,171,231,259,312,104,121,98,53]",1.3832,rectangle
,,,,,,,,,,,,,FF,,,,,,,,1.0154,,,,,,,,,,,,,,,,,,,,,,6103380f5760c211093ec7c5,61036d87948b0f7f3ebab484,2021-07-29_23h42.37.325,Simcolourproject_2stim_asymm_v5,2020.2.10,Win32,60,61025ae37ef11b136ea224fe,,,,,,,,,3601,-47.5,-53.5,1,0,0,response5disk,,3,-8,18.5,1,0,0,rectangle,-8,18.5,1,0,0,-8,18.5,1,0,0,0,53,53,111,1,,,,,,,,
,,,,,,,,,,,,,FF,,,,,,,,1.336,,,,,,,,,,,,,,,,,,,,,,6103380f5760c211093ec7c5,61036d87948b0f7f3ebab484,2021-07-29_23h42.37.325,Simcolourproject_2stim_asymm_v5,2020.2.10,Win32,60,61025ae37ef11b136ea224fe,,,,,,,,,604,-33.5,-52.5,1,0,0,response5disk,,3,3,-1,1,0,0,rectangle,3,-1,1,0,0,3,-1,1,0,0,0,54,54,145,1,,,,,,,,
,,,,,,,,,,,,,FF,,,,,,,,0.8797,,,,,,,,,,,,,,,,,,,,,,6103380f5760c211093ec7c5,61036d87948b0f7f3ebab484,2021-07-29_23h42.37.325,Simcolourproject_2stim_asymm_v5,2020.2.10,Win32,60,61025ae37ef11b136ea224fe,,,,,,,,,227,75,-38,1,0,0,response3disk,,5,-2,0.5,1,0,0,rectangle,-2,0.5,1,0,0,-2,0.5,1,0,0,0,55,55,21,1,,,,,,,,
,,,,,,,,,,,,,FF,,,,,,,,1.4016,,,,,,,,,,,,,,,,,,,,,,6103380f5760c211093ec7c5,61036d87948b0f7f3ebab484,2021-07-29_23h42.37.325,Simcolourproject_2stim_asymm_v5,2020.2.10,Win32,60,61025ae37ef11b136ea224fe,,,,,,,,,690,82,43,1,0,0,response1disk,,6,-1,1,1,0,0,rectangle,-1,1,1,0,0,-1,1,1,0,0,0,56,56,26,1,,,,,,,,
,,,,,,,,,,,,,FF,,,,,,,,1.0102,,,,,,,,,,,,,,,,,,,,,,6103380f5760c211093ec7c5,61036d87948b0f7f3ebab484,2021-07-29_23h42.37.325,Simcolourproject_2stim_asymm_v5,2020.2.10,Win32,60,61025ae37ef11b136ea224fe,,,,,,,,,123,111,48,1,0,0,response1disk,,6,-2.5,-9,1,0,0,rectangle,-2.5,-9,1,0,0,-2.5,-9,1,0,0,0,57,57,134,1,,,,,,,,
,,,,,,,,,,,,,FF,,,,,,,,1.3212,,,,,,,,,,,,,,,,,,,,,,6103380f5760c211093ec7c5,61036d87948b0f7f3ebab484,2021-07-29_23h42.37.325,Simcolourproject_2stim_asymm_v5,2020.2.10,Win32,60,61025ae37ef11b136ea224fe,,,,,,,,,3628,103.5,-35,1,0,0,response3disk,,5,-3,2.5,1,0,0,rectangle,-3,2.5,1,0,0,-3,2.5,1,0,0,0,58,58,46,1,,,,,,,,
,,,,,,,,,,,,,FF,,,,,,,,0.927,,,,,,,,,,,,,,,,,,,,,,6103380f5760c211093ec7c5,61036d87948b0f7f3ebab484,2021-07-29_23h42.37.325,Simcolourproject_2stim_asymm_v5,2020.2.10,Win32,60,61025ae37ef11b136ea224fe,,,,,,,,,4181,-51,71,1,0,0,response7disk,,0,-25,11.5,1,0,0,rectangle,-25,11.5,1,0,0,-25,11.5,1,0,0,0,59,59,66,1,,,,,,,,
,,,,,,,,,,,,,FF,,,,,,,,1.1324,,,,,,,,,,,,,,,,,,,,,,6103380f5760c211093ec7c5,61036d87948b0f7f3ebab484,2021-07-29_23h42.37.325,Simcolourproject_2stim_asymm_v5,2020.2.10,Win32,60,61025ae37ef11b136ea224fe,,,,,,,,,121,65.5,-46.5,1,0,0,response3disk,,5,-2.5,-8.5,1,0,0,rectangle,-2.5,-8.5,1,0,0,-2.5,-8.5,1,0,0,0,60,60,97,1,,,,,,,,
,,,,,,,,,,,,,FF,,,,,,,,1.6252,,,,,,,,,,,,,,,,,,,,,,6103380f5760c211093ec7c5,61036d87948b0f7f3ebab484,2021-07-29_23h42.37.325,Simcolourproject_2stim_asymm_v5,2020.2.10,Win32,60,61025ae37ef11b136ea224fe,,,,,,,,,1058,-81.5,39,1,0,0,response7disk,,1,15.5,-11.5,1,0,0,rectangle,15.5,-11.5,1,0,0,15.5,-11.5,1,0,0,0,61,61,101,1,,,,,,,,
,,,,,,,,,,,,,FF,,,,,,,,1.6735,,,,,,,,,,,,,,,,,,,,,,6103380f5760c211093ec7c5,61036d87948b0f7f3ebab484,2021-07-29_23h42.37.325,Simcolourproject_2stim_asymm_v5,2020.2.10,Win32,60,61025ae37ef11b136ea224fe,,,,,,,,,1805,92.5,-52,1,0,0,response3disk,,5,22,2,1,0,0,rectangle,22,2,1,0,0,22,2,1,0,0,0,62,62,0,1,,,,,,,,
,,,,,,,,,,,,,FF,,,,,,,,2.4561,,,,,,,,,,,,,,,,,,,,,,6103380f5760c211093ec7c5,61036d87948b0f7f3ebab484,2021-07-29_23h42.37.325,Simcolourproject_2stim_asymm_v5,2020.2.10,Win32,60,61025ae37ef11b136ea224fe,,,,,,,,,2826,88,-37,1,0,0,response3disk,,5,-20,-1,1,0,0,rectangle,-20,-1,1,0,0,-20,-1,1,0,0,0,63,63,49,1,,,,,,,,
,,,,,,,,,,,,,FF,,,,,,,,1.0358,,,,,,,,,,,,,,,,,,,,,,6103380f5760c211093ec7c5,61036d87948b0f7f3ebab484,2021-07-29_23h42.37.325,Simcolourproject_2stim_asymm_v5,2020.2.10,Win32,60,61025ae37ef11b136ea224fe,,,,,,,,,368,-103.5,43.5,1,0,0,response7disk,,1,-22,0,1,0,0,rectangle,-22,0,1,0,0,-22,0,1,0,0,0,64,64,149,1,,,,,,,,
,,,,,,,,,,,,,FF,,,,,,,,0.9663,,,,,,,,,,,,,,,,,,,,,,6103380f5760c211093ec7c5,61036d87948b0f7f3ebab484,2021-07-29_23h42.37.325,Simcolourproject_2stim_asymm_v5,2020.2.10,Win32,60,61025ae37ef11b136ea224fe,,,,,,,,,96,-90.5,31,1,0,0,response7disk,,1,-17,-10.5,1,0,0,rectangle,-17,-10.5,1,0,0,-17,-10.5,1,0,0,0,65,65,1,1,,,,,,,,
,,,,,,,,,,,,,FF,,,,,,,,1.6726,,,,,,,,,,,,,,,,,,,,,,6103380f5760c211093ec7c5,61036d87948b0f7f3ebab484,2021-07-29_23h42.37.325,Simcolourproject_2stim_asymm_v5,2020.2.10,Win32,60,61025ae37ef11b136ea224fe,,,,,,,,,929,101,57,1,0,0,response1disk,,6,4.5,14,1,0,0,rectangle,4.5,14,1,0,0,4.5,14,1,0,0,0,66,66,9,1,,,,,,,,
,,,,,,,,,,,,,FF,,,,,,,,1.2967,,,,,,,,,,,,,,,,,,,,,,6103380f5760c211093ec7c5,61036d87948b0f7f3ebab484,2021-07-29_23h42.37.325,Simcolourproject_2stim_asymm_v5,2020.2.10,Win32,60,61025ae37ef11b136ea224fe,,,,,,,,,1931,36.5,98,1,0,0,response1disk,,7,11,16.5,1,0,0,rectangle,11,16.5,1,0,0,11,16.5,1,0,0,0,67,67,61,1,,,,,,,,
,,,,,,,,,,,,,FF,,,,,,,,0.7599,,,,,,,,,,,,,,,,,,,,,,6103380f5760c211093ec7c5,61036d87948b0f7f3ebab484,2021-07-29_23h42.37.325,Simcolourproject_2stim_asymm_v5,2020.2.10,Win32,60,61025ae37ef11b136ea224fe,,,,,,,,,325,43.5,77.5,1,0,0,response1disk,,7,14,14.5,1,0,0,rectangle,14,14.5,1,0,0,14,14.5,1,0,0,0,68,68,35,1,,,,,,,,
,,,,,,,,,,,,,FF,,,,,,,,1.0213,,,,,,,,,,,,,,,,,,,,,,6103380f5760c211093ec7c5,61036d87948b0f7f3ebab484,2021-07-29_23h42.37.325,Simcolourproject_2stim_asymm_v5,2020.2.10,Win32,60,61025ae37ef11b136ea224fe,,,,,,,,,431,-85.5,-43.5,1,0,0,response5disk,,2,-17.5,10,1,0,0,rectangle,-17.5,10,1,0,0,-17.5,10,1,0,0,0,69,69,148,1,,,,,,,,
,,,,,,,,,,,,,FF,,,,,,,,0.7399,,,,,,,,,,,,,,,,,,,,,,6103380f5760c211093ec7c5,61036d87948b0f7f3ebab484,2021-07-29_23h42.37.325,Simcolourproject_2stim_asymm_v5,2020.2.10,Win32,60,61025ae37ef11b136ea224fe,,,,,,,,,2467,49,91,1,0,0,response1disk,,7,4,15,1,0,0,rectangle,4,15,1,0,0,4,15,1,0,0,0,70,70,18,1,,,,,,,,
,,,,,,,,,,,,,FF,,,,,,,,1.2877,,,,,,,,,,,,,,,,,,,,,,6103380f5760c211093ec7c5,61036d87948b0f7f3ebab484,2021-07-29_23h42.37.325,Simcolourproject_2stim_asymm_v5,2020.2.10,Win32,60,61025ae37ef11b136ea224fe,,,,,,,,,1160,49.5,77.5,1,0,0,response1disk,,7,19.5,16,1,0,0,rectangle,19.5,16,1,0,0,19.5,16,1,0,0,0,71,71,95,1,,,,,,,,
,,,,,,,,,,,,,FF,,,,,,,,0.9324,,,,,,,,,,,,,,,,,,,,,,6103380f5760c211093ec7c5,61036d87948b0f7f3ebab484,2021-07-29_23h42.37.325,Simcolourproject_2stim_asymm_v5,2020.2.10,Win32,60,61025ae37ef11b136ea224fe,,,,,,,,,4006,-38,-67,1,0,0,response5disk,,3,-6,5.5,1,0,0,rectangle,-6,5.5,1,0,0,-6,5.5,1,0,0,0,72,72,116,1,,,,,,,,
,,,,,,,,,,,,,FF,,,,,,,,1.2278,,,,,,,,,,,,,,,,,,,,,,6103380f5760c211093ec7c5,61036d87948b0f7f3ebab484,2021-07-29_23h42.37.325,Simcolourproject_2stim_asymm_v5,2020.2.10,Win32,60,61025ae37ef11b136ea224fe,,,,,,,,,1101,49.5,90.5,1,0,0,response1disk,,7,19,16,1,0,0,rectangle,19,16,1,0,0,19,16,1,0,0,0,73,73,76,1,,,,,,,,
,,,,,,,,,,,,,FF,,,,,,,,1.4893,,,,,,,,,,,,,,,,,,,,,,6103380f5760c211093ec7c5,61036d87948b0f7f3ebab484,2021-07-29_23h42.37.325,Simcolourproject_2stim_asymm_v5,2020.2.10,Win32,60,61025ae37ef11b136ea224fe,,,,,,,,,4047,-87,43,1,0,0,response7disk,,1,-14,-3,1,0,0,rectangle,-14,-3,1,0,0,-14,-3,1,0,0,0,74,74,74,1,,,,,,,,
,,,,,,,,,,,,,FF,,,,,,,,1.0727,,,,,,,,,,,,,,,,,,,,,,6103380f5760c211093ec7c5,61036d87948b0f7f3ebab484,2021-07-29_23h42.37.325,Simcolourproject_2stim_asymm_v5,2020.2.10,Win32,60,61025ae37ef11b136ea224fe,,,,,,,,,590,97,38,1,0,0,response1disk,,6,4,-7.5,1,0,0,rectangle,4,-7.5,1,0,0,4,-7.5,1,0,0,0,75,75,91,1,,,,,,,,
,,,,,,,,,,,,,FF,,,,,,,,1.2606,,,,,,,,,,,,,,,,,,,,,,6103380f5760c211093ec7c5,61036d87948b0f7f3ebab484,2021-07-29_23h42.37.325,Simcolourproject_2stim_asymm_v5,2020.2.10,Win32,60,61025ae37ef11b136ea224fe,,,,,,,,,4355,48,-43.5,1,0,0,response3disk,,5,-17.5,-11.5,1,0,0,rectangle,-17.5,-11.5,1,0,0,-17.5,-11.5,1,0,0,0,76,76,99,1,,,,,,,,
,,,,,,,,,,,,,FF,,,,,,,,0.8278,,,,,,,,,,,,,,,,,,,,,,6103380f5760c211093ec7c5,61036d87948b0f7f3ebab484,2021-07-29_23h42.37.325,Simcolourproject_2stim_asymm_v5,2020.2.10,Win32,60,61025ae37ef11b136ea224fe,,,,,,,,,940,72,44.5,1,0,0,response1disk,,6,6.5,-5,1,0,0,rectangle,6.5,-5,1,0,0,6.5,-5,1,0,0,0,77,77,82,1,,,,,,,,
,,,,,,,,,,,,,FF,,,,,,,,0.8018,,,,,,,,,,,,,,,,,,,,,,6103380f5760c211093ec7c5,61036d87948b0f7f3ebab484,2021-07-29_23h42.37.325,Simcolourproject_2stim_asymm_v5,2020.2.10,Win32,60,61025ae37ef11b136ea224fe,,,,,,,,,3045,-44,33,1,0,0,response7disk,,1,0,1.5,1,0,0,rectangle,0,1.5,1,0,0,0,1.5,1,0,0,0,78,78,71,1,,,,,,,,
,,,,,,,,,,,,,FF,,,,,,,,1.5713,,,,,,,,,,,,,,,,,,,,,,6103380f5760c211093ec7c5,61036d87948b0f7f3ebab484,2021-07-29_23h42.37.325,Simcolourproject_2stim_asymm_v5,2020.2.10,Win32,60,61025ae37ef11b136ea224fe,,,,,,,,,440,-90.5,45,1,0,0,response7disk,,1,-18.5,-5,1,0,0,rectangle,-18.5,-5,1,0,0,-18.5,-5,1,0,0,0,79,79,30,1,,,,,,,,
,,,,,,,,,,,,,FF,,,,,,,,0.8514,,,,,,,,,,,,,,,,,,,,,,6103380f5760c211093ec7c5,61036d87948b0f7f3ebab484,2021-07-29_23h42.37.325,Simcolourproject_2stim_asymm_v5,2020.2.10,Win32,60,61025ae37ef11b136ea224fe,,,,,,,,,3054,-54.5,-44.5,1,0,0,response5disk,,2,3.5,-18,1,0,0,rectangle,3.5,-18,1,0,0,3.5,-18,1,0,0,0,80,80,79,1,,,,,,,,
,,,,,,,,,,,,,FF,,,,,,,,1.0882,,,,,,,,,,,,,,,,,,,,,,6103380f5760c211093ec7c5,61036d87948b0f7f3ebab484,2021-07-29_23h42.37.325,Simcolourproject_2stim_asymm_v5,2020.2.10,Win32,60,61025ae37ef11b136ea224fe,,,,,,,,,2818,53.5,105,1,0,0,response1disk,,7,17,9,1,0,0,rectangle,17,9,1,0,0,17,9,1,0,0,0,81,81,110,1,,,,,,,,
,,,,,,,,,,,,,FF,,,,,,,,1.4068,,,,,,,,,,,,,,,,,,,,,,6103380f5760c211093ec7c5,61036d87948b0f7f3ebab484,2021-07-29_23h42.37.325,Simcolourproject_2stim_asymm_v5,2020.2.10,Win32,60,61025ae37ef11b136ea224fe,,,,,,,,,187,-52.5,-71.5,1,0,0,response5disk,,3,0,2.5,1,0,0,rectangle,0,2.5,1,0,0,0,2.5,1,0,0,0,82,82,57,1,,,,,,,,
,,,,,,,,,,,,,FF,,,,,,,,0.994,,,,,,,,,,,,,,,,,,,,,,6103380f5760c211093ec7c5,61036d87948b0f7f3ebab484,2021-07-29_23h42.37.325,Simcolourproject_2stim_asymm_v5,2020.2.10,Win32,60,61025ae37ef11b136ea224fe,,,,,,,,,1345,45,78.5,1,0,0,response1disk,,7,4.5,9,1,0,0,rectangle,4.5,9,1,0,0,4.5,9,1,0,0,0,83,83,132,1,,,,,,,,
,,,,,,,,,,,,,FF,,,,,,,,1.9006,,,,,,,,,,,,,,,,,,,,,,6103380f5760c211093ec7c5,61036d87948b0f7f3ebab484,2021-07-29_23h42.37.325,Simcolourproject_2stim_asymm_v5,2020.2.10,Win32,60,61025ae37ef11b136ea224fe,,,,,,,,,1398,96,40.5,1,0,0,response1disk,,6,6.5,-4,1,0,0,rectangle,6.5,-4,1,0,0,6.5,-4,1,0,0,0,84,84,158,1,,,,,,,,
,,,,,,,,,,,,,FF,,,,,,,,0.8914,,,,,,,,,,,,,,,,,,,,,,6103380f5760c211093ec7c5,61036d87948b0f7f3ebab484,2021-07-29_23h42.37.325,Simcolourproject_2stim_asymm_v5,2020.2.10,Win32,60,61025ae37ef11b136ea224fe,,,,,,,,,1231,82,33.5,1,0,0,response1disk,,6,4,-11,1,0,0,rectangle,4,-11,1,0,0,4,-11,1,0,0,0,85,85,127,1,,,,,,,,
,,,,,,,,,,,,,FF,,,,,,,,0.8077,,,,,,,,,,,,,,,,,,,,,,6103380f5760c211093ec7c5,61036d87948b0f7f3ebab484,2021-07-29_23h42.37.325,Simcolourproject_2stim_asymm_v5,2020.2.10,Win32,60,61025ae37ef11b136ea224fe,,,,,,,,,2683,93.5,68.5,1,0,0,response1disk,,6,5.5,10.5,1,0,0,rectangle,5.5,10.5,1,0,0,5.5,10.5,1,0,0,0,86,86,15,1,,,,,,,,
,,,,,,,,,,,,,FF,,,,,,,,0.6747,,,,,,,,,,,,,,,,,,,,,,6103380f5760c211093ec7c5,61036d87948b0f7f3ebab484,2021-07-29_23h42.37.325,Simcolourproject_2stim_asymm_v5,2020.2.10,Win32,60,61025ae37ef11b136ea224fe,,,,,,,,,137,32,75.5,1,0,0,response1disk,,7,-1,12,1,0,0,rectangle,-1,12,1,0,0,-1,12,1,0,0,0,87,87,113,1,,,,,,,,
,,,,,,,,,,,,,FF,,,,,,,,1.2999,,,,,,,,,,,,,,,,,,,,,,6103380f5760c211093ec7c5,61036d87948b0f7f3ebab484,2021-07-29_23h42.37.325,Simcolourproject_2stim_asymm_v5,2020.2.10,Win32,60,61025ae37ef11b136ea224fe,,,,,,,,,206,89.5,-35,1,0,0,response3disk,,5,15,-4,1,0,0,rectangle,15,-4,1,0,0,15,-4,1,0,0,0,88,88,24,1,,,,,,,,
,,,,,,,,,,,,,FF,,,,,,,,1.4881,,,,,,,,,,,,,,,,,,,,,,6103380f5760c211093ec7c5,61036d87948b0f7f3ebab484,2021-07-29_23h42.37.325,Simcolourproject_2stim_asymm_v5,2020.2.10,Win32,60,61025ae37ef11b136ea224fe,,,,,,,,,1860,36.5,91.5,1,0,0,response1disk,,7,6.5,14,1,0,0,rectangle,6.5,14,1,0,0,6.5,14,1,0,0,0,89,89,126,1,,,,,,,,
,,,,,,,,,,,,,FF,,,,,,,,1.0306,,,,,,,,,,,,,,,,,,,,,,6103380f5760c211093ec7c5,61036d87948b0f7f3ebab484,2021-07-29_23h42.37.325,Simcolourproject_2stim_asymm_v5,2020.2.10,Win32,60,61025ae37ef11b136ea224fe,,,,,,,,,4294,-76.5,-45.5,1,0,0,response5disk,,2,-24,10.5,1,0,0,rectangle,-24,10.5,1,0,0,-24,10.5,1,0,0,0,90,90,107,1,,,,,,,,
,,,,,,,,,,,,,FF,,,,,,,,1.0033,,,,,,,,,,,,,,,,,,,,,,6103380f5760c211093ec7c5,61036d87948b0f7f3ebab484,2021-07-29_23h42.37.325,Simcolourproject_2stim_asymm_v5,2020.2.10,Win32,60,61025ae37ef11b136ea224fe,,,,,,,,,3750,-84.5,-43.5,1,0,0,response5disk,,2,-15,17,1,0,0,rectangle,-15,17,1,0,0,-15,17,1,0,0,0,91,91,10,1,,,,,,,,
,,,,,,,,,,,,,FF,,,,,,,,1.2058,,,,,,,,,,,,,,,,,,,,,,6103380f5760c211093ec7c5,61036d87948b0f7f3ebab484,2021-07-29_23h42.37.325,Simcolourproject_2stim_asymm_v5,2020.2.10,Win32,60,61025ae37ef11b136ea224fe,,,,,,,,,1908,51,-78.5,1,0,0,response3disk,,4,-5,9.5,1,0,0,rectangle,-34,-102,1,0,0,-2.5,7,1,0,0,0,92,92,154,1,,response5disk_3,TRUE,3,3,"[184,7,192,136,93,248,240,11,0,27,30,252,171,231,259,312,104,121,98,53]",1.8966,rectangle
,,,,,,,,,,,,,FF,,,,,,,,1.3751,,,,,,,,,,,,,,,,,,,,,,6103380f5760c211093ec7c5,61036d87948b0f7f3ebab484,2021-07-29_23h42.37.325,Simcolourproject_2stim_asymm_v5,2020.2.10,Win32,60,61025ae37ef11b136ea224fe,,,,,,,,,1760,-70,-78.5,1,0,0,response5disk,,3,-19,11.5,1,0,0,rectangle,-19,11.5,1,0,0,-19,11.5,1,0,0,0,93,93,64,1,,,,,,,,
,,,,,,,,,,,,,FF,,,,,,,,1.7283,,,,,,,,,,,,,,,,,,,,,,6103380f5760c211093ec7c5,61036d87948b0f7f3ebab484,2021-07-29_23h42.37.325,Simcolourproject_2stim_asymm_v5,2020.2.10,Win32,60,61025ae37ef11b136ea224fe,,,,,,,,,3772,19.5,-92,1,0,0,response3disk,,4,-22,1.5,1,0,0,rectangle,-22,1.5,1,0,0,-22,1.5,1,0,0,0,94,94,138,1,,,,,,,,
,,,,,,,,,,,,,FF,,,,,,,,0.9615,,,,,,,,,,,,,,,,,,,,,,6103380f5760c211093ec7c5,61036d87948b0f7f3ebab484,2021-07-29_23h42.37.325,Simcolourproject_2stim_asymm_v5,2020.2.10,Win32,60,61025ae37ef11b136ea224fe,,,,,,,,,2494,81,-37.5,1,0,0,response3disk,,5,7.5,4,1,0,0,rectangle,7.5,4,1,0,0,7.5,4,1,0,0,0,95,95,112,1,,,,,,,,
,,,,,,,,,,,,,FF,,,,,,,,0.8213,,,,,,,,,,,,,,,,,,,,,,6103380f5760c211093ec7c5,61036d87948b0f7f3ebab484,2021-07-29_23h42.37.325,Simcolourproject_2stim_asymm_v5,2020.2.10,Win32,60,61025ae37ef11b136ea224fe,,,,,,,,,477,29.5,78,1,0,0,response1disk,,7,4.5,16.5,1,0,0,rectangle,4.5,16.5,1,0,0,4.5,16.5,1,0,0,0,96,96,151,1,,,,,,,,
,,,,,,,,,,,,,FF,,,,,,,,1.2107,,,,,,,,,,,,,,,,,,,,,,6103380f5760c211093ec7c5,61036d87948b0f7f3ebab484,2021-07-29_23h42.37.325,Simcolourproject_2stim_asymm_v5,2020.2.10,Win32,60,61025ae37ef11b136ea224fe,,,,,,,,,2666,73.5,50.5,1,0,0,response1disk,,6,4.5,-7,1,0,0,rectangle,72,-40,1,0,0,-2.5,-2,1,0,0,0,97,97,7,1,,response3disk_3,TRUE,5,5,"[184,7,192,136,93,248,240,11,0,27,30,252,171,231,259,312,104,121,98,53]",1.678,rectangle
,,,,,,,,,,,,,FF,,,,,,,,0.9254,,,,,,,,,,,,,,,,,,,,,,6103380f5760c211093ec7c5,61036d87948b0f7f3ebab484,2021-07-29_23h42.37.325,Simcolourproject_2stim_asymm_v5,2020.2.10,Win32,60,61025ae37ef11b136ea224fe,,,,,,,,,3029,67,-51,1,0,0,response3disk,,5,-15.5,-10,1,0,0,rectangle,-15.5,-10,1,0,0,-15.5,-10,1,0,0,0,98,98,141,1,,,,,,,,
,,,,,,,,,,,,,FF,,,,,,,,0.9765,,,,,,,,,,,,,,,,,,,,,,6103380f5760c211093ec7c5,61036d87948b0f7f3ebab484,2021-07-29_23h42.37.325,Simcolourproject_2stim_asymm_v5,2020.2.10,Win32,60,61025ae37ef11b136ea224fe,,,,,,,,,3968,-98.5,-41,1,0,0,response5disk,,2,-6,7,1,0,0,rectangle,-6,7,1,0,0,-6,7,1,0,0,0,99,99,68,1,,,,,,,,
,,,,,,,,,,,,,FF,,,,,,,,0.724,,,,,,,,,,,,,,,,,,,,,,6103380f5760c211093ec7c5,61036d87948b0f7f3ebab484,2021-07-29_23h42.37.325,Simcolourproject_2stim_asymm_v5,2020.2.10,Win32,60,61025ae37ef11b136ea224fe,,,,,,,,,1927,43.5,76,1,0,0,response1disk,,7,6,3,1,0,0,rectangle,6,3,1,0,0,6,3,1,0,0,0,100,100,81,1,,,,,,,,
,,,,,,,,,,,,,FF,,,,,,,,1.6263,,,,,,,,,,,,,,,,,,,,,,6103380f5760c211093ec7c5,61036d87948b0f7f3ebab484,2021-07-29_23h42.37.325,Simcolourproject_2stim_asymm_v5,2020.2.10,Win32,60,61025ae37ef11b136ea224fe,,,,,,,,,1558,110,49,1,0,0,response1disk,,6,-27,0.5,1,0,0,rectangle,-27,0.5,1,0,0,-27,0.5,1,0,0,0,101,101,5,1,,,,,,,,
,,,,,,,,,,,,,FF,,,,,,,,1.1017,,,,,,,,,,,,,,,,,,,,,,6103380f5760c211093ec7c5,61036d87948b0f7f3ebab484,2021-07-29_23h42.37.325,Simcolourproject_2stim_asymm_v5,2020.2.10,Win32,60,61025ae37ef11b136ea224fe,,,,,,,,,949,37,74.5,1,0,0,response1disk,,7,1,0.5,1,0,0,rectangle,1,0.5,1,0,0,1,0.5,1,0,0,0,102,102,62,1,,,,,,,,
,,,,,,,,,,,,,FF,,,,,,,,1.2391,,,,,,,,,,,,,,,,,,,,,,6103380f5760c211093ec7c5,61036d87948b0f7f3ebab484,2021-07-29_23h42.37.325,Simcolourproject_2stim_asymm_v5,2020.2.10,Win32,60,61025ae37ef11b136ea224fe,,,,,,,,,3201,36,-124.5,1,0,0,response3disk,,4,4.5,-12.5,1,0,0,rectangle,-40,64,1,0,0,-5,2,1,0,0,0,103,103,25,1,,response7disk_3,TRUE,0,0,"[184,7,192,136,93,248,240,11,0,27,30,252,171,231,259,312,104,121,98,53]",1.5119,rectangle
,,,,,,,,,,,,,FF,,,,,,,,1.0118,,,,,,,,,,,,,,,,,,,,,,6103380f5760c211093ec7c5,61036d87948b0f7f3ebab484,2021-07-29_23h42.37.325,Simcolourproject_2stim_asymm_v5,2020.2.10,Win32,60,61025ae37ef11b136ea224fe,,,,,,,,,3465,-67.5,-79,1,0,0,response5disk,,3,-9,-6,1,0,0,rectangle,-9,-6,1,0,0,-9,-6,1,0,0,0,104,104,130,1,,,,,,,,
,,,,,,,,,,,,,FF,,,,,,,,0.7309,,,,,,,,,,,,,,,,,,,,,,6103380f5760c211093ec7c5,61036d87948b0f7f3ebab484,2021-07-29_23h42.37.325,Simcolourproject_2stim_asymm_v5,2020.2.10,Win32,60,61025ae37ef11b136ea224fe,,,,,,,,,2911,22,59,1,0,0,response1disk,,7,-3,5,1,0,0,rectangle,-3,5,1,0,0,-3,5,1,0,0,0,105,105,139,1,,,,,,,,
,,,,,,,,,,,,,FF,,,,,,,,1.0266,,,,,,,,,,,,,,,,,,,,,,6103380f5760c211093ec7c5,61036d87948b0f7f3ebab484,2021-07-29_23h42.37.325,Simcolourproject_2stim_asymm_v5,2020.2.10,Win32,60,61025ae37ef11b136ea224fe,,,,,,,,,4251,-21.5,74,1,0,0,response7disk,,0,5,-11,1,0,0,rectangle,5,-11,1,0,0,5,-11,1,0,0,0,106,106,41,1,,,,,,,,
,,,,,,,,,,,,,FF,,,,,,,,1.2581,,,,,,,,,,,,,,,,,,,,,,6103380f5760c211093ec7c5,61036d87948b0f7f3ebab484,2021-07-29_23h42.37.325,Simcolourproject_2stim_asymm_v5,2020.2.10,Win32,60,61025ae37ef11b136ea224fe,,,,,,,,,3745,-46.5,-97,1,0,0,response5disk,,3,10,12,1,0,0,rectangle,10,12,1,0,0,10,12,1,0,0,0,107,107,131,1,,,,,,,,
,,,,,,,,,,,,,FF,,,,,,,,1.5704,,,,,,,,,,,,,,,,,,,,,,6103380f5760c211093ec7c5,61036d87948b0f7f3ebab484,2021-07-29_23h42.37.325,Simcolourproject_2stim_asymm_v5,2020.2.10,Win32,60,61025ae37ef11b136ea224fe,,,,,,,,,1764,-50,-90.5,1,0,0,response5disk,,3,11,3.5,1,0,0,rectangle,11,3.5,1,0,0,11,3.5,1,0,0,0,108,108,45,1,,,,,,,,
,,,,,,,,,,,,,FF,,,,,,,,0.6664,,,,,,,,,,,,,,,,,,,,,,6103380f5760c211093ec7c5,61036d87948b0f7f3ebab484,2021-07-29_23h42.37.325,Simcolourproject_2stim_asymm_v5,2020.2.10,Win32,60,61025ae37ef11b136ea224fe,,,,,,,,,1318,63.5,91.5,1,0,0,response1disk,,7,14,-4.5,1,0,0,rectangle,14,-4.5,1,0,0,14,-4.5,1,0,0,0,109,109,135,1,,,,,,,,
,,,,,,,,,,,,,FF,,,,,,,,2.3508,,,,,,,,,,,,,,,,,,,,,,6103380f5760c211093ec7c5,61036d87948b0f7f3ebab484,2021-07-29_23h42.37.325,Simcolourproject_2stim_asymm_v5,2020.2.10,Win32,60,61025ae37ef11b136ea224fe,,,,,,,,,1278,96.5,63,1,0,0,response1disk,,6,9,-11,1,0,0,rectangle,9,-11,1,0,0,9,-11,1,0,0,0,110,110,54,1,,,,,,,,
,,,,,,,,,,,,,FF,,,,,,,,2.8823,,,,,,,,,,,,,,,,,,,,,,6103380f5760c211093ec7c5,61036d87948b0f7f3ebab484,2021-07-29_23h42.37.325,Simcolourproject_2stim_asymm_v5,2020.2.10,Win32,60,61025ae37ef11b136ea224fe,,,,,,,,,4162,60,-118,1,0,0,response3disk,,4,5.5,0.5,1,0,0,rectangle,5.5,0.5,1,0,0,5.5,0.5,1,0,0,0,111,111,43,1,,,,,,,,
,,,,,,,,,,,,,FF,,,,,,,,1.5271,,,,,,,,,,,,,,,,,,,,,,6103380f5760c211093ec7c5,61036d87948b0f7f3ebab484,2021-07-29_23h42.37.325,Simcolourproject_2stim_asymm_v5,2020.2.10,Win32,60,61025ae37ef11b136ea224fe,,,,,,,,,3602,98.5,56,1,0,0,response1disk,,6,2,-6.5,1,0,0,rectangle,2,-6.5,1,0,0,2,-6.5,1,0,0,0,112,112,65,1,,,,,,,,
,,,,,,,,,,,,,FF,,,,,,,,0.6123,,,,,,,,,,,,,,,,,,,,,,6103380f5760c211093ec7c5,61036d87948b0f7f3ebab484,2021-07-29_23h42.37.325,Simcolourproject_2stim_asymm_v5,2020.2.10,Win32,60,61025ae37ef11b136ea224fe,,,,,,,,,3368,52.5,81.5,1,0,0,response1disk,,7,7.5,-2,1,0,0,rectangle,7.5,-2,1,0,0,7.5,-2,1,0,0,0,113,113,122,1,,,,,,,,
,,,,,,,,,,,,,FF,,,,,,,,0.9596,,,,,,,,,,,,,,,,,,,,,,6103380f5760c211093ec7c5,61036d87948b0f7f3ebab484,2021-07-29_23h42.37.325,Simcolourproject_2stim_asymm_v5,2020.2.10,Win32,60,61025ae37ef11b136ea224fe,,,,,,,,,2178,85.5,-57,1,0,0,response3disk,,5,0,3.5,1,0,0,rectangle,0,3.5,1,0,0,0,3.5,1,0,0,0,114,114,123,1,,,,,,,,
,,,,,,,,,,,,,FF,,,,,,,,1.0804,,,,,,,,,,,,,,,,,,,,,,6103380f5760c211093ec7c5,61036d87948b0f7f3ebab484,2021-07-29_23h42.37.325,Simcolourproject_2stim_asymm_v5,2020.2.10,Win32,60,61025ae37ef11b136ea224fe,,,,,,,,,353,-66.5,50,1,0,0,response7disk,,1,-7.5,4.5,1,0,0,rectangle,-7.5,4.5,1,0,0,-7.5,4.5,1,0,0,0,115,115,124,1,,,,,,,,
,,,,,,,,,,,,,FF,,,,,,,,1.216,,,,,,,,,,,,,,,,,,,,,,6103380f5760c211093ec7c5,61036d87948b0f7f3ebab484,2021-07-29_23h42.37.325,Simcolourproject_2stim_asymm_v5,2020.2.10,Win32,60,61025ae37ef11b136ea224fe,,,,,,,,,2224,76.5,89,1,0,0,response1disk,,7,34,14.5,1,0,0,rectangle,34,14.5,1,0,0,34,14.5,1,0,0,0,116,116,153,1,,,,,,,,
,,,,,,,,,,,,,FF,,,,,,,,0.727,,,,,,,,,,,,,,,,,,,,,,6103380f5760c211093ec7c5,61036d87948b0f7f3ebab484,2021-07-29_23h42.37.325,Simcolourproject_2stim_asymm_v5,2020.2.10,Win32,60,61025ae37ef11b136ea224fe,,,,,,,,,839,37,62.5,1,0,0,response1disk,,7,-7.5,-7.5,1,0,0,rectangle,-7.5,-7.5,1,0,0,-7.5,-7.5,1,0,0,0,117,117,87,1,,,,,,,,
,,,,,,,,,,,,,FF,,,,,,,,1.0054,,,,,,,,,,,,,,,,,,,,,,6103380f5760c211093ec7c5,61036d87948b0f7f3ebab484,2021-07-29_23h42.37.325,Simcolourproject_2stim_asymm_v5,2020.2.10,Win32,60,61025ae37ef11b136ea224fe,,,,,,,,,1901,-52,-80,1,0,0,response5disk,,3,7,10.5,1,0,0,rectangle,7,10.5,1,0,0,7,10.5,1,0,0,0,118,118,33,1,,,,,,,,
,,,,,,,,,,,,,FF,,,,,,,,0.5993,,,,,,,,,,,,,,,,,,,,,,6103380f5760c211093ec7c5,61036d87948b0f7f3ebab484,2021-07-29_23h42.37.325,Simcolourproject_2stim_asymm_v5,2020.2.10,Win32,60,61025ae37ef11b136ea224fe,,,,,,,,,1179,60.5,92,1,0,0,response1disk,,7,20.5,13.5,1,0,0,rectangle,20.5,13.5,1,0,0,20.5,13.5,1,0,0,0,119,119,98,1,,,,,,,,
,,,,,,,,,,,,,FF,,,,,,,,0.5015,,,,,,,,,,,,,,,,,,,,,,6103380f5760c211093ec7c5,61036d87948b0f7f3ebab484,2021-07-29_23h42.37.325,Simcolourproject_2stim_asymm_v5,2020.2.10,Win32,60,61025ae37ef11b136ea224fe,,,,,,,,,2575,39,76,1,0,0,response1disk,,7,16.5,8.5,1,0,0,rectangle,-87,33,1,0,0,-18.5,-13.5,1,0,0,0,120,120,73,1,,response7disk_3,TRUE,1,1,"[184,7,192,136,93,248,240,11,0,27,30,252,171,231,259,312,104,121,98,53]",1.2559,rectangle
,,,,,,,,,,,,,FF,,,,,,,,0.6794,,,,,,,,,,,,,,,,,,,,,,6103380f5760c211093ec7c5,61036d87948b0f7f3ebab484,2021-07-29_23h42.37.325,Simcolourproject_2stim_asymm_v5,2020.2.10,Win32,60,61025ae37ef11b136ea224fe,,,,,,,,,2740,75,47.5,1,0,0,response1disk,,6,2,0,1,0,0,rectangle,2,0,1,0,0,2,0,1,0,0,0,121,121,39,1,,,,,,,,
,,,,,,,,,,,,,FF,,,,,,,,0.5405,,,,,,,,,,,,,,,,,,,,,,6103380f5760c211093ec7c5,61036d87948b0f7f3ebab484,2021-07-29_23h42.37.325,Simcolourproject_2stim_asymm_v5,2020.2.10,Win32,60,61025ae37ef11b136ea224fe,,,,,,,,,3448,40,89,1,0,0,response1disk,,7,-2,-5,1,0,0,rectangle,-2,-5,1,0,0,-2,-5,1,0,0,0,122,122,133,1,,,,,,,,
,,,,,,,,,,,,,FF,,,,,,,,1.5836,,,,,,,,,,,,,,,,,,,,,,6103380f5760c211093ec7c5,61036d87948b0f7f3ebab484,2021-07-29_23h42.37.325,Simcolourproject_2stim_asymm_v5,2020.2.10,Win32,60,61025ae37ef11b136ea224fe,,,,,,,,,4123,83.5,-25,1,0,0,response3disk,,5,15,-13,1,0,0,rectangle,15,-13,1,0,0,15,-13,1,0,0,0,123,123,4,1,,,,,,,,
,,,,,,,,,,,,,FF,,,,,,,,1.1764,,,,,,,,,,,,,,,,,,,,,,6103380f5760c211093ec7c5,61036d87948b0f7f3ebab484,2021-07-29_23h42.37.325,Simcolourproject_2stim_asymm_v5,2020.2.10,Win32,60,61025ae37ef11b136ea224fe,,,,,,,,,2708,42,84,1,0,0,response1disk,,7,-5.5,1.5,1,0,0,rectangle,-5.5,1.5,1,0,0,-5.5,1.5,1,0,0,0,124,124,118,1,,,,,,,,
,,,,,,,,,,,,,FF,,,,,,,,0.5506,,,,,,,,,,,,,,,,,,,,,,6103380f5760c211093ec7c5,61036d87948b0f7f3ebab484,2021-07-29_23h42.37.325,Simcolourproject_2stim_asymm_v5,2020.2.10,Win32,60,61025ae37ef11b136ea224fe,,,,,,,,,1475,45.5,90,1,0,0,response1disk,,7,18.5,10.5,1,0,0,rectangle,18.5,10.5,1,0,0,18.5,10.5,1,0,0,0,125,125,69,1,,,,,,,,
,,,,,,,,,,,,,FF,,,,,,,,1.0987,,,,,,,,,,,,,,,,,,,,,,6103380f5760c211093ec7c5,61036d87948b0f7f3ebab484,2021-07-29_23h42.37.325,Simcolourproject_2stim_asymm_v5,2020.2.10,Win32,60,61025ae37ef11b136ea224fe,,,,,,,,,2663,99.5,-17,1,0,0,response3disk,,5,-7,10.5,1,0,0,rectangle,-7,10.5,1,0,0,-7,10.5,1,0,0,0,126,126,157,1,,,,,,,,
,,,,,,,,,,,,,FF,,,,,,,,1.7055,,,,,,,,,,,,,,,,,,,,,,6103380f5760c211093ec7c5,61036d87948b0f7f3ebab484,2021-07-29_23h42.37.325,Simcolourproject_2stim_asymm_v5,2020.2.10,Win32,60,61025ae37ef11b136ea224fe,,,,,,,,,2346,61,83,1,0,0,response1disk,,7,21,12,1,0,0,rectangle,21,12,1,0,0,21,12,1,0,0,0,127,127,102,1,,,,,,,,
,,,,,,,,,,,,,FF,,,,,,,,0.7514,,,,,,,,,,,,,,,,,,,,,,6103380f5760c211093ec7c5,61036d87948b0f7f3ebab484,2021-07-29_23h42.37.325,Simcolourproject_2stim_asymm_v5,2020.2.10,Win32,60,61025ae37ef11b136ea224fe,,,,,,,,,3644,91.5,45,1,0,0,response1disk,,6,15.5,10,1,0,0,rectangle,15.5,10,1,0,0,15.5,10,1,0,0,0,128,128,94,1,,,,,,,,
,,,,,,,,,,,,,FF,,,,,,,,0.6032,,,,,,,,,,,,,,,,,,,,,,6103380f5760c211093ec7c5,61036d87948b0f7f3ebab484,2021-07-29_23h42.37.325,Simcolourproject_2stim_asymm_v5,2020.2.10,Win32,60,61025ae37ef11b136ea224fe,,,,,,,,,4175,34,81.5,1,0,0,response1disk,,7,-3,15,1,0,0,rectangle,-3,15,1,0,0,-3,15,1,0,0,0,129,129,75,1,,,,,,,,
,,,,,,,,,,,,,FF,,,,,,,,1.0479,,,,,,,,,,,,,,,,,,,,,,6103380f5760c211093ec7c5,61036d87948b0f7f3ebab484,2021-07-29_23h42.37.325,Simcolourproject_2stim_asymm_v5,2020.2.10,Win32,60,61025ae37ef11b136ea224fe,,,,,,,,,413,93,48,1,0,0,response1disk,,6,9.5,11,1,0,0,rectangle,9.5,11,1,0,0,9.5,11,1,0,0,0,130,130,48,1,,,,,,,,
,,,,,,,,,,,,,FF,,,,,,,,0.8565,,,,,,,,,,,,,,,,,,,,,,6103380f5760c211093ec7c5,61036d87948b0f7f3ebab484,2021-07-29_23h42.37.325,Simcolourproject_2stim_asymm_v5,2020.2.10,Win32,60,61025ae37ef11b136ea224fe,,,,,,,,,3086,44.5,85.5,1,0,0,response1disk,,7,3.5,11.5,1,0,0,rectangle,3.5,11.5,1,0,0,3.5,11.5,1,0,0,0,131,131,29,1,,,,,,,,
,,,,,,,,,,,,,FF,,,,,,,,0.6348,,,,,,,,,,,,,,,,,,,,,,6103380f5760c211093ec7c5,61036d87948b0f7f3ebab484,2021-07-29_23h42.37.325,Simcolourproject_2stim_asymm_v5,2020.2.10,Win32,60,61025ae37ef11b136ea224fe,,,,,,,,,357,76,99,1,0,0,response1disk,,7,25,18.5,1,0,0,rectangle,25,18.5,1,0,0,25,18.5,1,0,0,0,132,132,146,1,,,,,,,,
,,,,,,,,,,,,,FF,,,,,,,,1.0259,,,,,,,,,,,,,,,,,,,,,,6103380f5760c211093ec7c5,61036d87948b0f7f3ebab484,2021-07-29_23h42.37.325,Simcolourproject_2stim_asymm_v5,2020.2.10,Win32,60,61025ae37ef11b136ea224fe,,,,,,,,,1518,64,88.5,1,0,0,response1disk,,7,15,15.5,1,0,0,rectangle,15,15.5,1,0,0,15,15.5,1,0,0,0,133,133,104,1,,,,,,,,
,,,,,,,,,,,,,FF,,,,,,,,1.0033,,,,,,,,,,,,,,,,,,,,,,6103380f5760c211093ec7c5,61036d87948b0f7f3ebab484,2021-07-29_23h42.37.325,Simcolourproject_2stim_asymm_v5,2020.2.10,Win32,60,61025ae37ef11b136ea224fe,,,,,,,,,1394,79.5,52,1,0,0,response1disk,,6,15,-2,1,0,0,rectangle,15,-2,1,0,0,15,-2,1,0,0,0,134,134,50,1,,,,,,,,
,,,,,,,,,,,,,FF,,,,,,,,1.5839,,,,,,,,,,,,,,,,,,,,,,6103380f5760c211093ec7c5,61036d87948b0f7f3ebab484,2021-07-29_23h42.37.325,Simcolourproject_2stim_asymm_v5,2020.2.10,Win32,60,61025ae37ef11b136ea224fe,,,,,,,,,4367,-73.5,-46,1,0,0,response5disk,,2,-7,-16.5,1,0,0,rectangle,98.5,50.5,1,0,0,13,6.5,1,0,0,0,135,135,152,1,,response1disk_3,TRUE,6,6,"[184,7,192,136,93,248,240,11,0,27,30,252,171,231,259,312,104,121,98,53]",1.4921,rectangle
,,,,,,,,,,,,,FF,,,,,,,,1.061,,,,,,,,,,,,,,,,,,,,,,6103380f5760c211093ec7c5,61036d87948b0f7f3ebab484,2021-07-29_23h42.37.325,Simcolourproject_2stim_asymm_v5,2020.2.10,Win32,60,61025ae37ef11b136ea224fe,,,,,,,,,2341,35.5,102,1,0,0,response1disk,,7,4,-0.5,1,0,0,rectangle,4,-0.5,1,0,0,4,-0.5,1,0,0,0,136,136,108,1,,,,,,,,
,,,,,,,,,,,,,FF,,,,,,,,0.848,,,,,,,,,,,,,,,,,,,,,,6103380f5760c211093ec7c5,61036d87948b0f7f3ebab484,2021-07-29_23h42.37.325,Simcolourproject_2stim_asymm_v5,2020.2.10,Win32,60,61025ae37ef11b136ea224fe,,,,,,,,,1127,50.5,85.5,1,0,0,response1disk,,7,-11,0.5,1,0,0,rectangle,-11,0.5,1,0,0,-11,0.5,1,0,0,0,137,137,51,1,,,,,,,,
,,,,,,,,,,,,,FF,,,,,,,,1.125,,,,,,,,,,,,,,,,,,,,,,6103380f5760c211093ec7c5,61036d87948b0f7f3ebab484,2021-07-29_23h42.37.325,Simcolourproject_2stim_asymm_v5,2020.2.10,Win32,60,61025ae37ef11b136ea224fe,,,,,,,,,2671,103.5,54.5,1,0,0,response1disk,,6,30,2,1,0,0,rectangle,30,2,1,0,0,30,2,1,0,0,0,138,138,42,1,,,,,,,,
,,,,,,,,,,,,,FF,,,,,,,,1.0602,,,,,,,,,,,,,,,,,,,,,,6103380f5760c211093ec7c5,61036d87948b0f7f3ebab484,2021-07-29_23h42.37.325,Simcolourproject_2stim_asymm_v5,2020.2.10,Win32,60,61025ae37ef11b136ea224fe,,,,,,,,,4273,99.5,44,1,0,0,response1disk,,6,22.5,1,1,0,0,rectangle,22.5,1,1,0,0,22.5,1,1,0,0,0,139,139,115,1,,,,,,,,
,,,,,,,,,,,,,FF,,,,,,,,0.6764,,,,,,,,,,,,,,,,,,,,,,6103380f5760c211093ec7c5,61036d87948b0f7f3ebab484,2021-07-29_23h42.37.325,Simcolourproject_2stim_asymm_v5,2020.2.10,Win32,60,61025ae37ef11b136ea224fe,,,,,,,,,1080,49.5,78.5,1,0,0,response1disk,,7,8.5,-3,1,0,0,rectangle,8.5,-3,1,0,0,8.5,-3,1,0,0,0,140,140,72,1,,,,,,,,
,,,,,,,,,,,,,FF,,,,,,,,0.9916,,,,,,,,,,,,,,,,,,,,,,6103380f5760c211093ec7c5,61036d87948b0f7f3ebab484,2021-07-29_23h42.37.325,Simcolourproject_2stim_asymm_v5,2020.2.10,Win32,60,61025ae37ef11b136ea224fe,,,,,,,,,570,93.5,51.5,1,0,0,response1disk,,6,17.5,-2,1,0,0,rectangle,17.5,-2,1,0,0,17.5,-2,1,0,0,0,141,141,93,1,,,,,,,,
,,,,,,,,,,,,,FF,,,,,,,,1.0174,,,,,,,,,,,,,,,,,,,,,,6103380f5760c211093ec7c5,61036d87948b0f7f3ebab484,2021-07-29_23h42.37.325,Simcolourproject_2stim_asymm_v5,2020.2.10,Win32,60,61025ae37ef11b136ea224fe,,,,,,,,,1909,105,40,1,0,0,response1disk,,6,10,4,1,0,0,rectangle,10,4,1,0,0,10,4,1,0,0,0,142,142,16,1,,,,,,,,
,,,,,,,,,,,,,FF,,,,,,,,0.4888,,,,,,,,,,,,,,,,,,,,,,6103380f5760c211093ec7c5,61036d87948b0f7f3ebab484,2021-07-29_23h42.37.325,Simcolourproject_2stim_asymm_v5,2020.2.10,Win32,60,61025ae37ef11b136ea224fe,,,,,,,,,841,56,90.5,1,0,0,response1disk,,7,-4.5,-8.5,1,0,0,rectangle,-4.5,-8.5,1,0,0,-4.5,-8.5,1,0,0,0,143,143,105,1,,,,,,,,
,,,,,,,,,,,,,FF,,,,,,,,1.4029,,,,,,,,,,,,,,,,,,,,,,6103380f5760c211093ec7c5,61036d87948b0f7f3ebab484,2021-07-29_23h42.37.325,Simcolourproject_2stim_asymm_v5,2020.2.10,Win32,60,61025ae37ef11b136ea224fe,,,,,,,,,3817,-81,-50.5,1,0,0,response5disk,,2,-9.5,-4.5,1,0,0,rectangle,-9.5,-4.5,1,0,0,-9.5,-4.5,1,0,0,0,144,144,11,1,,,,,,,,
,,,,,,,,,,,,,FF,,,,,,,,1.7181,,,,,,,,,,,,,,,,,,,,,,6103380f5760c211093ec7c5,61036d87948b0f7f3ebab484,2021-07-29_23h42.37.325,Simcolourproject_2stim_asymm_v5,2020.2.10,Win32,60,61025ae37ef11b136ea224fe,,,,,,,,,4328,59,-89,1,0,0,response3disk,,4,-16,-15,1,0,0,rectangle,-16,-15,1,0,0,-16,-15,1,0,0,0,145,145,144,1,,,,,,,,
,,,,,,,,,,,,,FF,,,,,,,,1.8229,,,,,,,,,,,,,,,,,,,,,,6103380f5760c211093ec7c5,61036d87948b0f7f3ebab484,2021-07-29_23h42.37.325,Simcolourproject_2stim_asymm_v5,2020.2.10,Win32,60,61025ae37ef11b136ea224fe,,,,,,,,,2662,-92.5,36,1,0,0,response7disk,,1,-12.5,-8,1,0,0,rectangle,-12.5,-8,1,0,0,-12.5,-8,1,0,0,0,146,146,14,1,,,,,,,,
,,,,,,,,,,,,,FF,,,,,,,,0.8922,,,,,,,,,,,,,,,,,,,,,,6103380f5760c211093ec7c5,61036d87948b0f7f3ebab484,2021-07-29_23h42.37.325,Simcolourproject_2stim_asymm_v5,2020.2.10,Win32,60,61025ae37ef11b136ea224fe,,,,,,,,,2296,-33.5,-70,1,0,0,response5disk,,3,11,10.5,1,0,0,rectangle,11,10.5,1,0,0,11,10.5,1,0,0,0,147,147,20,1,,,,,,,,
,,,,,,,,,,,,,FF,,,,,,,,0.6194,,,,,,,,,,,,,,,,,,,,,,6103380f5760c211093ec7c5,61036d87948b0f7f3ebab484,2021-07-29_23h42.37.325,Simcolourproject_2stim_asymm_v5,2020.2.10,Win32,60,61025ae37ef11b136ea224fe,,,,,,,,,2637,57.5,74.5,1,0,0,response1disk,,7,-1.5,0.5,1,0,0,rectangle,-1.5,0.5,1,0,0,-1.5,0.5,1,0,0,0,148,148,85,1,,,,,,,,
,,,,,,,,,,,,,FF,,,,,,,,0.8431,,,,,,,,,,,,,,,,,,,,,,6103380f5760c211093ec7c5,61036d87948b0f7f3ebab484,2021-07-29_23h42.37.325,Simcolourproject_2stim_asymm_v5,2020.2.10,Win32,60,61025ae37ef11b136ea224fe,,,,,,,,,1719,82,48.5,1,0,0,response1disk,,6,5.5,8.5,1,0,0,rectangle,5.5,8.5,1,0,0,5.5,8.5,1,0,0,0,149,149,58,1,,,,,,,,
,,,,,,,,,,,,,FF,,,,,,,,1.3551,,,,,,,,,,,,,,,,,,,,,,6103380f5760c211093ec7c5,61036d87948b0f7f3ebab484,2021-07-29_23h42.37.325,Simcolourproject_2stim_asymm_v5,2020.2.10,Win32,60,61025ae37ef11b136ea224fe,,,,,,,,,2348,93,37.5,1,0,0,response1disk,,6,7.5,16.5,1,0,0,rectangle,7.5,16.5,1,0,0,7.5,16.5,1,0,0,0,150,150,80,1,,,,,,,,
,,,,,,,,,,,,,FF,,,,,,,,0.9548,,,,,,,,,,,,,,,,,,,,,,6103380f5760c211093ec7c5,61036d87948b0f7f3ebab484,2021-07-29_23h42.37.325,Simcolourproject_2stim_asymm_v5,2020.2.10,Win32,60,61025ae37ef11b136ea224fe,,,,,,,,,450,29.5,109.5,1,0,0,response1disk,,7,-16,11.5,1,0,0,rectangle,-16,11.5,1,0,0,-16,11.5,1,0,0,0,151,151,114,1,,,,,,,,
,,,,,,,,,,,,,FF,,,,,,,,0.5919,,,,,,,,,,,,,,,,,,,,,,6103380f5760c211093ec7c5,61036d87948b0f7f3ebab484,2021-07-29_23h42.37.325,Simcolourproject_2stim_asymm_v5,2020.2.10,Win32,60,61025ae37ef11b136ea224fe,,,,,,,,,1576,20.5,79,1,0,0,response1disk,,7,-9,1.5,1,0,0,rectangle,-9,1.5,1,0,0,-9,1.5,1,0,0,0,152,152,159,1,,,,,,,,
,,,,,,,,,,,,,FF,,,,,,,,0.5016,,,,,,,,,,,,,,,,,,,,,,6103380f5760c211093ec7c5,61036d87948b0f7f3ebab484,2021-07-29_23h42.37.325,Simcolourproject_2stim_asymm_v5,2020.2.10,Win32,60,61025ae37ef11b136ea224fe,,,,,,,,,2080,62,86.5,1,0,0,response1disk,,7,16.5,-14.5,1,0,0,rectangle,16.5,-14.5,1,0,0,16.5,-14.5,1,0,0,0,153,153,47,1,,,,,,,,
,,,,,,,,,,,,,FF,,,,,,,,0.9282,,,,,,,,,,,,,,,,,,,,,,6103380f5760c211093ec7c5,61036d87948b0f7f3ebab484,2021-07-29_23h42.37.325,Simcolourproject_2stim_asymm_v5,2020.2.10,Win32,60,61025ae37ef11b136ea224fe,,,,,,,,,4103,81,-34.5,1,0,0,response3disk,,5,-1.5,-7.5,1,0,0,rectangle,-1.5,-7.5,1,0,0,-1.5,-7.5,1,0,0,0,154,154,84,1,,,,,,,,
,,,,,,,,,,,,,FF,,,,,,,,1.2776,,,,,,,,,,,,,,,,,,,,,,6103380f5760c211093ec7c5,61036d87948b0f7f3ebab484,2021-07-29_23h42.37.325,Simcolourproject_2stim_asymm_v5,2020.2.10,Win32,60,61025ae37ef11b136ea224fe,,,,,,,,,1819,-70.5,-45,1,0,0,response5disk,,2,13,-4.5,1,0,0,rectangle,13,-4.5,1,0,0,13,-4.5,1,0,0,0,155,155,34,1,,,,,,,,
,,,,,,,,,,,,,FF,,,,,,,,0.6236,,,,,,,,,,,,,,,,,,,,,,6103380f5760c211093ec7c5,61036d87948b0f7f3ebab484,2021-07-29_23h42.37.325,Simcolourproject_2stim_asymm_v5,2020.2.10,Win32,60,61025ae37ef11b136ea224fe,,,,,,,,,3729,36,91,1,0,0,response1disk,,7,-10,8,1,0,0,rectangle,-10,8,1,0,0,-10,8,1,0,0,0,156,156,109,1,,,,,,,,
,,,,,,,,,,,,,FF,,,,,,,,0.6049,,,,,,,,,,,,,,,,,,,,,,6103380f5760c211093ec7c5,61036d87948b0f7f3ebab484,2021-07-29_23h42.37.325,Simcolourproject_2stim_asymm_v5,2020.2.10,Win32,60,61025ae37ef11b136ea224fe,,,,,,,,,2012,46.5,73,1,0,0,response1disk,,7,1,6,1,0,0,rectangle,1,6,1,0,0,1,6,1,0,0,0,157,157,121,1,,,,,,,,
,,,,,,,,,,,,,FF,,,,,,,,0.4924,,,,,,,,,,,,,,,,,,,,,,6103380f5760c211093ec7c5,61036d87948b0f7f3ebab484,2021-07-29_23h42.37.325,Simcolourproject_2stim_asymm_v5,2020.2.10,Win32,60,61025ae37ef11b136ea224fe,,,,,,,,,900,26.5,85,1,0,0,response1disk,,7,7.5,10,1,0,0,rectangle,7.5,10,1,0,0,7.5,10,1,0,0,0,158,158,119,1,,,,,,,,
,,,,,,,,,,,,,FF,,,,,,,,2.1308,,,,,,,,,,,,,,,,,,,,,,6103380f5760c211093ec7c5,61036d87948b0f7f3ebab484,2021-07-29_23h42.37.325,Simcolourproject_2stim_asymm_v5,2020.2.10,Win32,60,61025ae37ef11b136ea224fe,,,,,,,,,3964,49.5,94,1,0,0,response1disk,,7,-4.5,-17.5,1,0,0,rectangle,-4.5,-17.5,1,0,0,-4.5,-17.5,1,0,0,0,159,159,156,1,,,,,,,,
,,,,,,,,,,,,,FF,,,,,,,,0.5956,,,,,,,,,,,,,,,,,,,,,,6103380f5760c211093ec7c5,61036d87948b0f7f3ebab484,2021-07-29_23h42.37.325,Simcolourproject_2stim_asymm_v5,2020.2.10,Win32,60,61025ae37ef11b136ea224fe,,,,,,,,,3533,54.5,85.5,1,0,0,response1disk,,7,9,-1.5,1,0,0,rectangle,9,-1.5,1,0,0,9,-1.5,1,0,0,1,0,160,47,1,,,,,,,,
,,,,,,,,,,,,,FF,,,,,,,,0.9407,,,,,,,,,,,,,,,,,,,,,,6103380f5760c211093ec7c5,61036d87948b0f7f3ebab484,2021-07-29_23h42.37.325,Simcolourproject_2stim_asymm_v5,2020.2.10,Win32,60,61025ae37ef11b136ea224fe,,,,,,,,,3897,71.5,-35.5,1,0,0,response3disk,,5,14.5,4.5,1,0,0,rectangle,14.5,4.5,1,0,0,14.5,4.5,1,0,0,1,1,161,112,1,,,,,,,,
,,,,,,,,,,,,,FF,,,,,,,,0.8982,,,,,,,,,,,,,,,,,,,,,,6103380f5760c211093ec7c5,61036d87948b0f7f3ebab484,2021-07-29_23h42.37.325,Simcolourproject_2stim_asymm_v5,2020.2.10,Win32,60,61025ae37ef11b136ea224fe,,,,,,,,,786,55,85.5,1,0,0,response1disk,,7,11,4,1,0,0,rectangle,11,4,1,0,0,11,4,1,0,0,1,2,162,105,1,,,,,,,,
,,,,,,,,,,,,,FF,,,,,,,,0.4648,,,,,,,,,,,,,,,,,,,,,,6103380f5760c211093ec7c5,61036d87948b0f7f3ebab484,2021-07-29_23h42.37.325,Simcolourproject_2stim_asymm_v5,2020.2.10,Win32,60,61025ae37ef11b136ea224fe,,,,,,,,,2686,54.5,89,1,0,0,response1disk,,7,12,5,1,0,0,rectangle,12,5,1,0,0,12,5,1,0,0,1,3,163,146,1,,,,,,,,
,,,,,,,,,,,,,FF,,,,,,,,1.0953,,,,,,,,,,,,,,,,,,,,,,6103380f5760c211093ec7c5,61036d87948b0f7f3ebab484,2021-07-29_23h42.37.325,Simcolourproject_2stim_asymm_v5,2020.2.10,Win32,60,61025ae37ef11b136ea224fe,,,,,,,,,3783,-61.5,-45.5,1,0,0,response5disk,,2,1,-8.5,1,0,0,rectangle,1,-8.5,1,0,0,1,-8.5,1,0,0,1,4,164,120,1,,,,,,,,
,,,,,,,,,,,,,FF,,,,,,,,2.0606,,,,,,,,,,,,,,,,,,,,,,6103380f5760c211093ec7c5,61036d87948b0f7f3ebab484,2021-07-29_23h42.37.325,Simcolourproject_2stim_asymm_v5,2020.2.10,Win32,60,61025ae37ef11b136ea224fe,,,,,,,,,1669,44,83.5,1,0,0,response1disk,,7,12.5,2,1,0,0,rectangle,12.5,2,1,0,0,12.5,2,1,0,0,1,5,165,55,1,,,,,,,,
,,,,,,,,,,,,,FF,,,,,,,,0.7193,,,,,,,,,,,,,,,,,,,,,,6103380f5760c211093ec7c5,61036d87948b0f7f3ebab484,2021-07-29_23h42.37.325,Simcolourproject_2stim_asymm_v5,2020.2.10,Win32,60,61025ae37ef11b136ea224fe,,,,,,,,,147,38,76,1,0,0,response1disk,,7,-1,-4.5,1,0,0,rectangle,-1,-4.5,1,0,0,-1,-4.5,1,0,0,1,6,166,12,1,,,,,,,,
,,,,,,,,,,,,,FF,,,,,,,,0.9976,,,,,,,,,,,,,,,,,,,,,,6103380f5760c211093ec7c5,61036d87948b0f7f3ebab484,2021-07-29_23h42.37.325,Simcolourproject_2stim_asymm_v5,2020.2.10,Win32,60,61025ae37ef11b136ea224fe,,,,,,,,,739,95.5,41,1,0,0,response1disk,,6,24.5,-7,1,0,0,rectangle,24.5,-7,1,0,0,24.5,-7,1,0,0,1,7,167,34,1,,,,,,,,
,,,,,,,,,,,,,FF,,,,,,,,0.8807,,,,,,,,,,,,,,,,,,,,,,6103380f5760c211093ec7c5,61036d87948b0f7f3ebab484,2021-07-29_23h42.37.325,Simcolourproject_2stim_asymm_v5,2020.2.10,Win32,60,61025ae37ef11b136ea224fe,,,,,,,,,4283,65,-47.5,1,0,0,response3disk,,5,14.5,-18.5,1,0,0,rectangle,14.5,-18.5,1,0,0,14.5,-18.5,1,0,0,1,8,168,133,1,,,,,,,,
,,,,,,,,,,,,,FF,,,,,,,,0.9168,,,,,,,,,,,,,,,,,,,,,,6103380f5760c211093ec7c5,61036d87948b0f7f3ebab484,2021-07-29_23h42.37.325,Simcolourproject_2stim_asymm_v5,2020.2.10,Win32,60,61025ae37ef11b136ea224fe,,,,,,,,,3680,38.5,-76.5,1,0,0,response3disk,,4,-4,2.5,1,0,0,rectangle,-4,2.5,1,0,0,-4,2.5,1,0,0,1,9,169,49,1,,,,,,,,
,,,,,,,,,,,,,FF,,,,,,,,0.5714,,,,,,,,,,,,,,,,,,,,,,6103380f5760c211093ec7c5,61036d87948b0f7f3ebab484,2021-07-29_23h42.37.325,Simcolourproject_2stim_asymm_v5,2020.2.10,Win32,60,61025ae37ef11b136ea224fe,,,,,,,,,312,48.5,73.5,1,0,0,response1disk,,7,7.5,-2,1,0,0,rectangle,-62.5,-25.5,1,0,0,-1.5,5,1,0,0,1,10,170,70,1,,response5disk_3,TRUE,2,2,"[184,7,192,136,93,248,240,11,0,27,30,252,171,231,259,312,104,121,98,53]",1.6215,rectangle
,,,,,,,,,,,,,FF,,,,,,,,1.5996,,,,,,,,,,,,,,,,,,,,,,6103380f5760c211093ec7c5,61036d87948b0f7f3ebab484,2021-07-29_23h42.37.325,Simcolourproject_2stim_asymm_v5,2020.2.10,Win32,60,61025ae37ef11b136ea224fe,,,,,,,,,2986,38,-76,1,0,0,response3disk,,4,7,-3,1,0,0,rectangle,7,-3,1,0,0,7,-3,1,0,0,1,11,171,37,1,,,,,,,,
,,,,,,,,,,,,,FF,,,,,,,,0.7855,,,,,,,,,,,,,,,,,,,,,,6103380f5760c211093ec7c5,61036d87948b0f7f3ebab484,2021-07-29_23h42.37.325,Simcolourproject_2stim_asymm_v5,2020.2.10,Win32,60,61025ae37ef11b136ea224fe,,,,,,,,,2066,34,53.5,1,0,0,response1disk,,7,4.5,-1,1,0,0,rectangle,4.5,-1,1,0,0,4.5,-1,1,0,0,1,12,172,7,1,,,,,,,,
,,,,,,,,,,,,,FF,,,,,,,,0.5779,,,,,,,,,,,,,,,,,,,,,,6103380f5760c211093ec7c5,61036d87948b0f7f3ebab484,2021-07-29_23h42.37.325,Simcolourproject_2stim_asymm_v5,2020.2.10,Win32,60,61025ae37ef11b136ea224fe,,,,,,,,,926,24.5,63.5,1,0,0,response1disk,,7,4,-2.5,1,0,0,rectangle,4,-2.5,1,0,0,4,-2.5,1,0,0,1,13,173,24,1,,,,,,,,
,,,,,,,,,,,,,FF,,,,,,,,0.7695,,,,,,,,,,,,,,,,,,,,,,6103380f5760c211093ec7c5,61036d87948b0f7f3ebab484,2021-07-29_23h42.37.325,Simcolourproject_2stim_asymm_v5,2020.2.10,Win32,60,61025ae37ef11b136ea224fe,,,,,,,,,3101,89.5,33,1,0,0,response1disk,,6,4.5,-2.5,1,0,0,rectangle,4.5,-2.5,1,0,0,4.5,-2.5,1,0,0,1,14,174,131,1,,,,,,,,
,,,,,,,,,,,,,FF,,,,,,,,0.5539,,,,,,,,,,,,,,,,,,,,,,6103380f5760c211093ec7c5,61036d87948b0f7f3ebab484,2021-07-29_23h42.37.325,Simcolourproject_2stim_asymm_v5,2020.2.10,Win32,60,61025ae37ef11b136ea224fe,,,,,,,,,2635,45,69.5,1,0,0,response1disk,,7,14.5,8.5,1,0,0,rectangle,14.5,8.5,1,0,0,14.5,8.5,1,0,0,1,15,175,13,1,,,,,,,,
,,,,,,,,,,,,,FF,,,,,,,,0.7161,,,,,,,,,,,,,,,,,,,,,,6103380f5760c211093ec7c5,61036d87948b0f7f3ebab484,2021-07-29_23h42.37.325,Simcolourproject_2stim_asymm_v5,2020.2.10,Win32,60,61025ae37ef11b136ea224fe,,,,,,,,,1313,96,36,1,0,0,response1disk,,6,5.5,-9.5,1,0,0,rectangle,5.5,-9.5,1,0,0,5.5,-9.5,1,0,0,1,16,176,96,1,,,,,,,,
,,,,,,,,,,,,,FF,,,,,,,,0.9766,,,,,,,,,,,,,,,,,,,,,,6103380f5760c211093ec7c5,61036d87948b0f7f3ebab484,2021-07-29_23h42.37.325,Simcolourproject_2stim_asymm_v5,2020.2.10,Win32,60,61025ae37ef11b136ea224fe,,,,,,,,,504,35,65.5,1,0,0,response1disk,,7,16,-0.5,1,0,0,rectangle,16,-0.5,1,0,0,16,-0.5,1,0,0,1,17,177,141,1,,,,,,,,
,,,,,,,,,,,,,FF,,,,,,,,0.8553,,,,,,,,,,,,,,,,,,,,,,6103380f5760c211093ec7c5,61036d87948b0f7f3ebab484,2021-07-29_23h42.37.325,Simcolourproject_2stim_asymm_v5,2020.2.10,Win32,60,61025ae37ef11b136ea224fe,,,,,,,,,622,95.5,44.5,1,0,0,response1disk,,6,28,6,1,0,0,rectangle,28,6,1,0,0,28,6,1,0,0,1,18,178,138,1,,,,,,,,
,,,,,,,,,,,,,FF,,,,,,,,1.2035,,,,,,,,,,,,,,,,,,,,,,6103380f5760c211093ec7c5,61036d87948b0f7f3ebab484,2021-07-29_23h42.37.325,Simcolourproject_2stim_asymm_v5,2020.2.10,Win32,60,61025ae37ef11b136ea224fe,,,,,,,,,82,91.5,-34,1,0,0,response3disk,,5,9.5,-6.5,1,0,0,rectangle,9.5,-6.5,1,0,0,9.5,-6.5,1,0,0,1,19,179,129,1,,,,,,,,
,,,,,,,,,,,,,FF,,,,,,,,1.1157,,,,,,,,,,,,,,,,,,,,,,6103380f5760c211093ec7c5,61036d87948b0f7f3ebab484,2021-07-29_23h42.37.325,Simcolourproject_2stim_asymm_v5,2020.2.10,Win32,60,61025ae37ef11b136ea224fe,,,,,,,,,3560,57,-105,1,0,0,response3disk,,4,-10,-6.5,1,0,0,rectangle,-10,-6.5,1,0,0,-10,-6.5,1,0,0,1,20,180,14,1,,,,,,,,
,,,,,,,,,,,,,FF,,,,,,,,1.1824,,,,,,,,,,,,,,,,,,,,,,6103380f5760c211093ec7c5,61036d87948b0f7f3ebab484,2021-07-29_23h42.37.325,Simcolourproject_2stim_asymm_v5,2020.2.10,Win32,60,61025ae37ef11b136ea224fe,,,,,,,,,4021,-45.5,84,1,0,0,response7disk,,0,-1,8,1,0,0,rectangle,-1,8,1,0,0,-1,8,1,0,0,1,21,181,109,1,,,,,,,,
,,,,,,,,,,,,,FF,,,,,,,,1.4972,,,,,,,,,,,,,,,,,,,,,,6103380f5760c211093ec7c5,61036d87948b0f7f3ebab484,2021-07-29_23h42.37.325,Simcolourproject_2stim_asymm_v5,2020.2.10,Win32,60,61025ae37ef11b136ea224fe,,,,,,,,,471,52.5,86,1,0,0,response1disk,,7,24,1,1,0,0,rectangle,24,1,1,0,0,24,1,1,0,0,1,22,182,114,1,,,,,,,,
,,,,,,,,,,,,,FF,,,,,,,,1.0522,,,,,,,,,,,,,,,,,,,,,,6103380f5760c211093ec7c5,61036d87948b0f7f3ebab484,2021-07-29_23h42.37.325,Simcolourproject_2stim_asymm_v5,2020.2.10,Win32,60,61025ae37ef11b136ea224fe,,,,,,,,,551,109,57,1,0,0,response1disk,,6,29.5,-6.5,1,0,0,rectangle,95,42.5,1,0,0,14.5,-9,1,0,0,1,23,183,77,1,,response1disk_3,TRUE,6,6,"[184,7,192,136,93,248,240,11,0,27,30,252,171,231,259,312,104,121,98,53]",1.1127,rectangle
,,,,,,,,,,,,,FF,,,,,,,,6.3246,,,,,,,,,,,,,,,,,,,,,,6103380f5760c211093ec7c5,61036d87948b0f7f3ebab484,2021-07-29_23h42.37.325,Simcolourproject_2stim_asymm_v5,2020.2.10,Win32,60,61025ae37ef11b136ea224fe,,,,,,,,,2422,48,79.5,1,0,0,response1disk,,7,5.5,-4.5,1,0,0,rectangle,5.5,-4.5,1,0,0,5.5,-4.5,1,0,0,1,24,184,23,1,,,,,,,,
,,,,,,,,,,,,,FF,,,,,,,,0.8193,,,,,,,,,,,,,,,,,,,,,,6103380f5760c211093ec7c5,61036d87948b0f7f3ebab484,2021-07-29_23h42.37.325,Simcolourproject_2stim_asymm_v5,2020.2.10,Win32,60,61025ae37ef11b136ea224fe,,,,,,,,,160,104,55,1,0,0,response1disk,,6,-13,1,1,0,0,rectangle,-13,1,1,0,0,-13,1,1,0,0,1,25,185,79,1,,,,,,,,
,,,,,,,,,,,,,FF,,,,,,,,0.7843,,,,,,,,,,,,,,,,,,,,,,6103380f5760c211093ec7c5,61036d87948b0f7f3ebab484,2021-07-29_23h42.37.325,Simcolourproject_2stim_asymm_v5,2020.2.10,Win32,60,61025ae37ef11b136ea224fe,,,,,,,,,2437,29,97,1,0,0,response1disk,,7,-18,2.5,1,0,0,rectangle,-18,2.5,1,0,0,-18,2.5,1,0,0,1,26,186,97,1,,,,,,,,
,,,,,,,,,,,,,FF,,,,,,,,0.6484,,,,,,,,,,,,,,,,,,,,,,6103380f5760c211093ec7c5,61036d87948b0f7f3ebab484,2021-07-29_23h42.37.325,Simcolourproject_2stim_asymm_v5,2020.2.10,Win32,60,61025ae37ef11b136ea224fe,,,,,,,,,3525,84.5,59,1,0,0,response1disk,,6,0.5,-4,1,0,0,rectangle,0.5,-4,1,0,0,0.5,-4,1,0,0,1,27,187,31,1,,,,,,,,
,,,,,,,,,,,,,FF,,,,,,,,0.8955,,,,,,,,,,,,,,,,,,,,,,6103380f5760c211093ec7c5,61036d87948b0f7f3ebab484,2021-07-29_23h42.37.325,Simcolourproject_2stim_asymm_v5,2020.2.10,Win32,60,61025ae37ef11b136ea224fe,,,,,,,,,1225,61,-25,1,0,0,response3disk,,5,2,-6.5,1,0,0,rectangle,2,-6.5,1,0,0,2,-6.5,1,0,0,1,28,188,74,1,,,,,,,,
,,,,,,,,,,,,,FF,,,,,,,,0.5711,,,,,,,,,,,,,,,,,,,,,,6103380f5760c211093ec7c5,61036d87948b0f7f3ebab484,2021-07-29_23h42.37.325,Simcolourproject_2stim_asymm_v5,2020.2.10,Win32,60,61025ae37ef11b136ea224fe,,,,,,,,,1232,81.5,-36,1,0,0,response3disk,,5,2,18,1,0,0,rectangle,2,18,1,0,0,2,18,1,0,0,1,29,189,75,1,,,,,,,,
,,,,,,,,,,,,,FF,,,,,,,,0.6099,,,,,,,,,,,,,,,,,,,,,,6103380f5760c211093ec7c5,61036d87948b0f7f3ebab484,2021-07-29_23h42.37.325,Simcolourproject_2stim_asymm_v5,2020.2.10,Win32,60,61025ae37ef11b136ea224fe,,,,,,,,,2763,28.5,82.5,1,0,0,response1disk,,7,-9,-5.5,1,0,0,rectangle,-9,-5.5,1,0,0,-9,-5.5,1,0,0,1,30,190,121,1,,,,,,,,
,,,,,,,,,,,,,FF,,,,,,,,0.9586,,,,,,,,,,,,,,,,,,,,,,6103380f5760c211093ec7c5,61036d87948b0f7f3ebab484,2021-07-29_23h42.37.325,Simcolourproject_2stim_asymm_v5,2020.2.10,Win32,60,61025ae37ef11b136ea224fe,,,,,,,,,1684,-44,-79,1,0,0,response5disk,,3,0.5,10.5,1,0,0,rectangle,-35.5,-79,1,0,0,-4.5,-9,1,0,0,1,31,191,81,1,,response5disk_3,TRUE,3,3,"[184,7,192,136,93,248,240,11,0,27,30,252,171,231,259,312,104,121,98,53]",1.4956,rectangle
,,,,,,,,,,,,,FF,,,,,,,,0.8056,,,,,,,,,,,,,,,,,,,,,,6103380f5760c211093ec7c5,61036d87948b0f7f3ebab484,2021-07-29_23h42.37.325,Simcolourproject_2stim_asymm_v5,2020.2.10,Win32,60,61025ae37ef11b136ea224fe,,,,,,,,,4199,63.5,83.5,1,0,0,response1disk,,7,13,-1,1,0,0,rectangle,13,-1,1,0,0,13,-1,1,0,0,1,32,192,99,1,,,,,,,,
,,,,,,,,,,,,,FF,,,,,,,,0.4655,,,,,,,,,,,,,,,,,,,,,,6103380f5760c211093ec7c5,61036d87948b0f7f3ebab484,2021-07-29_23h42.37.325,Simcolourproject_2stim_asymm_v5,2020.2.10,Win32,60,61025ae37ef11b136ea224fe,,,,,,,,,2004,42.5,80,1,0,0,response1disk,,7,3,6.5,1,0,0,rectangle,3,6.5,1,0,0,3,6.5,1,0,0,1,33,193,16,1,,,,,,,,
,,,,,,,,,,,,,FF,,,,,,,,0.5595,,,,,,,,,,,,,,,,,,,,,,6103380f5760c211093ec7c5,61036d87948b0f7f3ebab484,2021-07-29_23h42.37.325,Simcolourproject_2stim_asymm_v5,2020.2.10,Win32,60,61025ae37ef11b136ea224fe,,,,,,,,,180,37.5,90,1,0,0,response1disk,,7,-0.5,1.5,1,0,0,rectangle,-0.5,1.5,1,0,0,-0.5,1.5,1,0,0,1,34,194,36,1,,,,,,,,
,,,,,,,,,,,,,FF,,,,,,,,0.5612,,,,,,,,,,,,,,,,,,,,,,6103380f5760c211093ec7c5,61036d87948b0f7f3ebab484,2021-07-29_23h42.37.325,Simcolourproject_2stim_asymm_v5,2020.2.10,Win32,60,61025ae37ef11b136ea224fe,,,,,,,,,2266,39,103.5,1,0,0,response1disk,,7,10.5,6,1,0,0,rectangle,10.5,6,1,0,0,10.5,6,1,0,0,1,35,195,57,1,,,,,,,,
,,,,,,,,,,,,,FF,,,,,,,,1.2284,,,,,,,,,,,,,,,,,,,,,,6103380f5760c211093ec7c5,61036d87948b0f7f3ebab484,2021-07-29_23h42.37.325,Simcolourproject_2stim_asymm_v5,2020.2.10,Win32,60,61025ae37ef11b136ea224fe,,,,,,,,,2434,80,42,1,0,0,response1disk,,6,18.5,7,1,0,0,rectangle,18.5,7,1,0,0,18.5,7,1,0,0,1,36,196,88,1,,,,,,,,
,,,,,,,,,,,,,FF,,,,,,,,0.9728,,,,,,,,,,,,,,,,,,,,,,6103380f5760c211093ec7c5,61036d87948b0f7f3ebab484,2021-07-29_23h42.37.325,Simcolourproject_2stim_asymm_v5,2020.2.10,Win32,60,61025ae37ef11b136ea224fe,,,,,,,,,848,53.5,76.5,1,0,0,response1disk,,7,8,-11,1,0,0,rectangle,8,-11,1,0,0,8,-11,1,0,0,1,37,197,98,1,,,,,,,,
,,,,,,,,,,,,,FF,,,,,,,,0.5616,,,,,,,,,,,,,,,,,,,,,,6103380f5760c211093ec7c5,61036d87948b0f7f3ebab484,2021-07-29_23h42.37.325,Simcolourproject_2stim_asymm_v5,2020.2.10,Win32,60,61025ae37ef11b136ea224fe,,,,,,,,,2401,40,88,1,0,0,response1disk,,7,5.5,4.5,1,0,0,rectangle,5.5,4.5,1,0,0,5.5,4.5,1,0,0,1,38,198,147,1,,,,,,,,
,,,,,,,,,,,,,FF,,,,,,,,1.003,,,,,,,,,,,,,,,,,,,,,,6103380f5760c211093ec7c5,61036d87948b0f7f3ebab484,2021-07-29_23h42.37.325,Simcolourproject_2stim_asymm_v5,2020.2.10,Win32,60,61025ae37ef11b136ea224fe,,,,,,,,,1480,84.5,44,1,0,0,response1disk,,6,11.5,-3,1,0,0,rectangle,11.5,-3,1,0,0,11.5,-3,1,0,0,1,39,199,43,1,,,,,,,,
,,,,,,,,,,,,,FF,,,,,,,,1.1817,,,,,,,,,,,,,,,,,,,,,,6103380f5760c211093ec7c5,61036d87948b0f7f3ebab484,2021-07-29_23h42.37.325,Simcolourproject_2stim_asymm_v5,2020.2.10,Win32,60,61025ae37ef11b136ea224fe,,,,,,,,,1217,85.5,-71.5,1,0,0,response3disk,,5,-0.5,8,1,0,0,rectangle,-0.5,8,1,0,0,-0.5,8,1,0,0,1,40,200,134,1,,,,,,,,
,,,,,,,,,,,,,FF,,,,,,,,0.4662,,,,,,,,,,,,,,,,,,,,,,6103380f5760c211093ec7c5,61036d87948b0f7f3ebab484,2021-07-29_23h42.37.325,Simcolourproject_2stim_asymm_v5,2020.2.10,Win32,60,61025ae37ef11b136ea224fe,,,,,,,,,1082,22,95.5,1,0,0,response1disk,,7,-3.5,16.5,1,0,0,rectangle,-3.5,16.5,1,0,0,-3.5,16.5,1,0,0,1,41,201,95,1,,,,,,,,
,,,,,,,,,,,,,FF,,,,,,,,1.171,,,,,,,,,,,,,,,,,,,,,,6103380f5760c211093ec7c5,61036d87948b0f7f3ebab484,2021-07-29_23h42.37.325,Simcolourproject_2stim_asymm_v5,2020.2.10,Win32,60,61025ae37ef11b136ea224fe,,,,,,,,,1524,88.5,-71.5,1,0,0,response3disk,,5,6.5,-11.5,1,0,0,rectangle,6.5,-11.5,1,0,0,6.5,-11.5,1,0,0,1,42,202,130,1,,,,,,,,
,,,,,,,,,,,,,FF,,,,,,,,0.5652,,,,,,,,,,,,,,,,,,,,,,6103380f5760c211093ec7c5,61036d87948b0f7f3ebab484,2021-07-29_23h42.37.325,Simcolourproject_2stim_asymm_v5,2020.2.10,Win32,60,61025ae37ef11b136ea224fe,,,,,,,,,1915,28.5,33,1,0,0,response1disk,,7,0.5,0,1,0,0,rectangle,0.5,0,1,0,0,0.5,0,1,0,0,1,43,203,64,1,,,,,,,,
,,,,,,,,,,,,,FF,,,,,,,,0.8601,,,,,,,,,,,,,,,,,,,,,,6103380f5760c211093ec7c5,61036d87948b0f7f3ebab484,2021-07-29_23h42.37.325,Simcolourproject_2stim_asymm_v5,2020.2.10,Win32,60,61025ae37ef11b136ea224fe,,,,,,,,,1919,43,77,1,0,0,response1disk,,7,13,-8,1,0,0,rectangle,13,-8,1,0,0,13,-8,1,0,0,1,44,204,3,1,,,,,,,,
,,,,,,,,,,,,,FF,,,,,,,,0.6881,,,,,,,,,,,,,,,,,,,,,,6103380f5760c211093ec7c5,61036d87948b0f7f3ebab484,2021-07-29_23h42.37.325,Simcolourproject_2stim_asymm_v5,2020.2.10,Win32,60,61025ae37ef11b136ea224fe,,,,,,,,,4151,84.5,-41,1,0,0,response3disk,,5,7.5,3.5,1,0,0,rectangle,7.5,3.5,1,0,0,7.5,3.5,1,0,0,1,45,205,87,1,,,,,,,,
,,,,,,,,,,,,,FF,,,,,,,,1.3037,,,,,,,,,,,,,,,,,,,,,,6103380f5760c211093ec7c5,61036d87948b0f7f3ebab484,2021-07-29_23h42.37.325,Simcolourproject_2stim_asymm_v5,2020.2.10,Win32,60,61025ae37ef11b136ea224fe,,,,,,,,,3197,-40.5,-97.5,1,0,0,response5disk,,3,-4.5,-15,1,0,0,rectangle,-4.5,-15,1,0,0,-4.5,-15,1,0,0,1,46,206,2,1,,,,,,,,
,,,,,,,,,,,,,FF,,,,,,,,0.8176,,,,,,,,,,,,,,,,,,,,,,6103380f5760c211093ec7c5,61036d87948b0f7f3ebab484,2021-07-29_23h42.37.325,Simcolourproject_2stim_asymm_v5,2020.2.10,Win32,60,61025ae37ef11b136ea224fe,,,,,,,,,3192,-23.5,-84,1,0,0,response5disk,,3,26,15.5,1,0,0,rectangle,26,15.5,1,0,0,26,15.5,1,0,0,1,47,207,39,1,,,,,,,,
,,,,,,,,,,,,,FF,,,,,,,,1.1947,,,,,,,,,,,,,,,,,,,,,,6103380f5760c211093ec7c5,61036d87948b0f7f3ebab484,2021-07-29_23h42.37.325,Simcolourproject_2stim_asymm_v5,2020.2.10,Win32,60,61025ae37ef11b136ea224fe,,,,,,,,,901,101,-29.5,1,0,0,response3disk,,5,-2.5,0,1,0,0,rectangle,-2.5,0,1,0,0,-2.5,0,1,0,0,1,48,208,106,1,,,,,,,,
,,,,,,,,,,,,,FF,,,,,,,,0.7585,,,,,,,,,,,,,,,,,,,,,,6103380f5760c211093ec7c5,61036d87948b0f7f3ebab484,2021-07-29_23h42.37.325,Simcolourproject_2stim_asymm_v5,2020.2.10,Win32,60,61025ae37ef11b136ea224fe,,,,,,,,,2889,-29,-72.5,1,0,0,response5disk,,3,6,-11,1,0,0,rectangle,6,-11,1,0,0,6,-11,1,0,0,1,49,209,110,1,,,,,,,,
,,,,,,,,,,,,,FF,,,,,,,,0.8272,,,,,,,,,,,,,,,,,,,,,,6103380f5760c211093ec7c5,61036d87948b0f7f3ebab484,2021-07-29_23h42.37.325,Simcolourproject_2stim_asymm_v5,2020.2.10,Win32,60,61025ae37ef11b136ea224fe,,,,,,,,,2670,-29,-58.5,1,0,0,response5disk,,3,-9.5,-12.5,1,0,0,rectangle,-9.5,-12.5,1,0,0,-9.5,-12.5,1,0,0,1,50,210,20,1,,,,,,,,
,,,,,,,,,,,,,FF,,,,,,,,1.8301,,,,,,,,,,,,,,,,,,,,,,6103380f5760c211093ec7c5,61036d87948b0f7f3ebab484,2021-07-29_23h42.37.325,Simcolourproject_2stim_asymm_v5,2020.2.10,Win32,60,61025ae37ef11b136ea224fe,,,,,,,,,381,87.5,48.5,1,0,0,response1disk,,6,10,3.5,1,0,0,rectangle,10,3.5,1,0,0,10,3.5,1,0,0,1,51,211,115,1,,,,,,,,
,,,,,,,,,,,,,FF,,,,,,,,0.8714,,,,,,,,,,,,,,,,,,,,,,6103380f5760c211093ec7c5,61036d87948b0f7f3ebab484,2021-07-29_23h42.37.325,Simcolourproject_2stim_asymm_v5,2020.2.10,Win32,60,61025ae37ef11b136ea224fe,,,,,,,,,2355,-44.5,72.5,1,0,0,response7disk,,0,-13.5,11,1,0,0,rectangle,-13.5,11,1,0,0,-13.5,11,1,0,0,1,52,212,60,1,,,,,,,,
,,,,,,,,,,,,,FF,,,,,,,,0.644,,,,,,,,,,,,,,,,,,,,,,6103380f5760c211093ec7c5,61036d87948b0f7f3ebab484,2021-07-29_23h42.37.325,Simcolourproject_2stim_asymm_v5,2020.2.10,Win32,60,61025ae37ef11b136ea224fe,,,,,,,,,3601,49.5,83,1,0,0,response1disk,,7,5,0.5,1,0,0,rectangle,5,0.5,1,0,0,5,0.5,1,0,0,1,53,213,89,1,,,,,,,,
,,,,,,,,,,,,,FF,,,,,,,,0.4815,,,,,,,,,,,,,,,,,,,,,,6103380f5760c211093ec7c5,61036d87948b0f7f3ebab484,2021-07-29_23h42.37.325,Simcolourproject_2stim_asymm_v5,2020.2.10,Win32,60,61025ae37ef11b136ea224fe,,,,,,,,,604,27,64.5,1,0,0,response1disk,,7,12,-6,1,0,0,rectangle,12,-6,1,0,0,12,-6,1,0,0,1,54,214,152,1,,,,,,,,
,,,,,,,,,,,,,FF,,,,,,,,0.4416,,,,,,,,,,,,,,,,,,,,,,6103380f5760c211093ec7c5,61036d87948b0f7f3ebab484,2021-07-29_23h42.37.325,Simcolourproject_2stim_asymm_v5,2020.2.10,Win32,60,61025ae37ef11b136ea224fe,,,,,,,,,227,56,92,1,0,0,response1disk,,7,22,-5.5,1,0,0,rectangle,22,-5.5,1,0,0,22,-5.5,1,0,0,1,55,215,71,1,,,,,,,,
,,,,,,,,,,,,,FF,,,,,,,,0.5102,,,,,,,,,,,,,,,,,,,,,,6103380f5760c211093ec7c5,61036d87948b0f7f3ebab484,2021-07-29_23h42.37.325,Simcolourproject_2stim_asymm_v5,2020.2.10,Win32,60,61025ae37ef11b136ea224fe,,,,,,,,,690,31.5,70,1,0,0,response1disk,,7,-1,-11,1,0,0,rectangle,-1,-11,1,0,0,-1,-11,1,0,0,1,56,216,68,1,,,,,,,,
,,,,,,,,,,,,,FF,,,,,,,,0.4087,,,,,,,,,,,,,,,,,,,,,,6103380f5760c211093ec7c5,61036d87948b0f7f3ebab484,2021-07-29_23h42.37.325,Simcolourproject_2stim_asymm_v5,2020.2.10,Win32,60,61025ae37ef11b136ea224fe,,,,,,,,,123,52.5,74.5,1,0,0,response1disk,,7,17,2,1,0,0,rectangle,17,2,1,0,0,17,2,1,0,0,1,57,217,17,1,,,,,,,,
,,,,,,,,,,,,,FF,,,,,,,,1.2724,,,,,,,,,,,,,,,,,,,,,,6103380f5760c211093ec7c5,61036d87948b0f7f3ebab484,2021-07-29_23h42.37.325,Simcolourproject_2stim_asymm_v5,2020.2.10,Win32,60,61025ae37ef11b136ea224fe,,,,,,,,,3628,85,-37.5,1,0,0,response3disk,,5,-2.5,-4,1,0,0,rectangle,-2.5,-4,1,0,0,-2.5,-4,1,0,0,1,58,218,62,1,,,,,,,,
,,,,,,,,,,,,,FF,,,,,,,,0.695,,,,,,,,,,,,,,,,,,,,,,6103380f5760c211093ec7c5,61036d87948b0f7f3ebab484,2021-07-29_23h42.37.325,Simcolourproject_2stim_asymm_v5,2020.2.10,Win32,60,61025ae37ef11b136ea224fe,,,,,,,,,4181,-33.5,82.5,1,0,0,response7disk,,0,6,-3.5,1,0,0,rectangle,6,-3.5,1,0,0,6,-3.5,1,0,0,1,59,219,103,1,,,,,,,,
,,,,,,,,,,,,,FF,,,,,,,,0.5827,,,,,,,,,,,,,,,,,,,,,,6103380f5760c211093ec7c5,61036d87948b0f7f3ebab484,2021-07-29_23h42.37.325,Simcolourproject_2stim_asymm_v5,2020.2.10,Win32,60,61025ae37ef11b136ea224fe,,,,,,,,,121,25,52,1,0,0,response1disk,,7,3,-3.5,1,0,0,rectangle,3,-3.5,1,0,0,3,-3.5,1,0,0,1,60,220,157,1,,,,,,,,
,,,,,,,,,,,,,FF,,,,,,,,1.1688,,,,,,,,,,,,,,,,,,,,,,6103380f5760c211093ec7c5,61036d87948b0f7f3ebab484,2021-07-29_23h42.37.325,Simcolourproject_2stim_asymm_v5,2020.2.10,Win32,60,61025ae37ef11b136ea224fe,,,,,,,,,1058,-69.5,-41.5,1,0,0,response5disk,,2,4.5,9,1,0,0,rectangle,4.5,9,1,0,0,4.5,9,1,0,0,1,61,221,148,1,,,,,,,,
,,,,,,,,,,,,,FF,,,,,,,,0.591,,,,,,,,,,,,,,,,,,,,,,6103380f5760c211093ec7c5,61036d87948b0f7f3ebab484,2021-07-29_23h42.37.325,Simcolourproject_2stim_asymm_v5,2020.2.10,Win32,60,61025ae37ef11b136ea224fe,,,,,,,,,1805,28.5,78.5,1,0,0,response1disk,,7,1.5,6,1,0,0,rectangle,1.5,6,1,0,0,1.5,6,1,0,0,1,62,222,78,1,,,,,,,,
,,,,,,,,,,,,,FF,,,,,,,,1.5575,,,,,,,,,,,,,,,,,,,,,,6103380f5760c211093ec7c5,61036d87948b0f7f3ebab484,2021-07-29_23h42.37.325,Simcolourproject_2stim_asymm_v5,2020.2.10,Win32,60,61025ae37ef11b136ea224fe,,,,,,,,,2826,63.5,-54.5,1,0,0,response3disk,,5,4.5,4,1,0,0,rectangle,4.5,4,1,0,0,4.5,4,1,0,0,1,63,223,119,1,,,,,,,,
,,,,,,,,,,,,,FF,,,,,,,,0.7726,,,,,,,,,,,,,,,,,,,,,,6103380f5760c211093ec7c5,61036d87948b0f7f3ebab484,2021-07-29_23h42.37.325,Simcolourproject_2stim_asymm_v5,2020.2.10,Win32,60,61025ae37ef11b136ea224fe,,,,,,,,,368,-30,-97,1,0,0,response5disk,,3,-19.5,-5.5,1,0,0,rectangle,-19.5,-5.5,1,0,0,-19.5,-5.5,1,0,0,1,64,224,44,1,,,,,,,,
,,,,,,,,,,,,,FF,,,,,,,,0.8998,,,,,,,,,,,,,,,,,,,,,,6103380f5760c211093ec7c5,61036d87948b0f7f3ebab484,2021-07-29_23h42.37.325,Simcolourproject_2stim_asymm_v5,2020.2.10,Win32,60,61025ae37ef11b136ea224fe,,,,,,,,,96,-78.5,-34.5,1,0,0,response5disk,,2,-18,-3,1,0,0,rectangle,-18,-3,1,0,0,-18,-3,1,0,0,1,65,225,86,1,,,,,,,,
,,,,,,,,,,,,,FF,,,,,,,,0.7348,,,,,,,,,,,,,,,,,,,,,,6103380f5760c211093ec7c5,61036d87948b0f7f3ebab484,2021-07-29_23h42.37.325,Simcolourproject_2stim_asymm_v5,2020.2.10,Win32,60,61025ae37ef11b136ea224fe,,,,,,,,,929,40.5,64.5,1,0,0,response1disk,,7,8.5,-13,1,0,0,rectangle,8.5,-13,1,0,0,8.5,-13,1,0,0,1,66,226,29,1,,,,,,,,
,,,,,,,,,,,,,FF,,,,,,,,0.5971,,,,,,,,,,,,,,,,,,,,,,6103380f5760c211093ec7c5,61036d87948b0f7f3ebab484,2021-07-29_23h42.37.325,Simcolourproject_2stim_asymm_v5,2020.2.10,Win32,60,61025ae37ef11b136ea224fe,,,,,,,,,1931,38.5,92,1,0,0,response1disk,,7,6.5,2.5,1,0,0,rectangle,6.5,2.5,1,0,0,6.5,2.5,1,0,0,1,67,227,84,1,,,,,,,,
,,,,,,,,,,,,,FF,,,,,,,,0.4453,,,,,,,,,,,,,,,,,,,,,,6103380f5760c211093ec7c5,61036d87948b0f7f3ebab484,2021-07-29_23h42.37.325,Simcolourproject_2stim_asymm_v5,2020.2.10,Win32,60,61025ae37ef11b136ea224fe,,,,,,,,,325,22,79,1,0,0,response1disk,,7,-5.5,-2.5,1,0,0,rectangle,-5.5,-2.5,1,0,0,-5.5,-2.5,1,0,0,1,68,228,135,1,,,,,,,,
,,,,,,,,,,,,,FF,,,,,,,,1.7217,,,,,,,,,,,,,,,,,,,,,,6103380f5760c211093ec7c5,61036d87948b0f7f3ebab484,2021-07-29_23h42.37.325,Simcolourproject_2stim_asymm_v5,2020.2.10,Win32,60,61025ae37ef11b136ea224fe,,,,,,,,,431,-55,-82,1,0,0,response5disk,,3,-3,18,1,0,0,rectangle,-3,18,1,0,0,-3,18,1,0,0,1,69,229,128,1,,,,,,,,
,,,,,,,,,,,,,FF,,,,,,,,0.5173,,,,,,,,,,,,,,,,,,,,,,6103380f5760c211093ec7c5,61036d87948b0f7f3ebab484,2021-07-29_23h42.37.325,Simcolourproject_2stim_asymm_v5,2020.2.10,Win32,60,61025ae37ef11b136ea224fe,,,,,,,,,2467,39,80,1,0,0,response1disk,,7,0.5,-2,1,0,0,rectangle,-35,70,1,0,0,-11.5,-1.5,1,0,0,1,70,230,92,1,,response7disk_3,TRUE,0,0,"[184,7,192,136,93,248,240,11,0,27,30,252,171,231,259,312,104,121,98,53]",1.2132,rectangle
,,,,,,,,,,,,,FF,,,,,,,,0.5275,,,,,,,,,,,,,,,,,,,,,,6103380f5760c211093ec7c5,61036d87948b0f7f3ebab484,2021-07-29_23h42.37.325,Simcolourproject_2stim_asymm_v5,2020.2.10,Win32,60,61025ae37ef11b136ea224fe,,,,,,,,,1160,54.5,70,1,0,0,response1disk,,7,21,-7,1,0,0,rectangle,21,-7,1,0,0,21,-7,1,0,0,1,71,231,139,1,,,,,,,,
,,,,,,,,,,,,,FF,,,,,,,,1.754,,,,,,,,,,,,,,,,,,,,,,6103380f5760c211093ec7c5,61036d87948b0f7f3ebab484,2021-07-29_23h42.37.325,Simcolourproject_2stim_asymm_v5,2020.2.10,Win32,60,61025ae37ef11b136ea224fe,,,,,,,,,4006,92,-49.5,1,0,0,response3disk,,5,-7,-20,1,0,0,rectangle,-7,-20,1,0,0,-7,-20,1,0,0,1,72,232,149,1,,,,,,,,
,,,,,,,,,,,,,FF,,,,,,,,0.6095,,,,,,,,,,,,,,,,,,,,,,6103380f5760c211093ec7c5,61036d87948b0f7f3ebab484,2021-07-29_23h42.37.325,Simcolourproject_2stim_asymm_v5,2020.2.10,Win32,60,61025ae37ef11b136ea224fe,,,,,,,,,1101,34,67.5,1,0,0,response1disk,,7,-2,0.5,1,0,0,rectangle,-2,0.5,1,0,0,-2,0.5,1,0,0,1,73,233,145,1,,,,,,,,
,,,,,,,,,,,,,FF,,,,,,,,0.7682,,,,,,,,,,,,,,,,,,,,,,6103380f5760c211093ec7c5,61036d87948b0f7f3ebab484,2021-07-29_23h42.37.325,Simcolourproject_2stim_asymm_v5,2020.2.10,Win32,60,61025ae37ef11b136ea224fe,,,,,,,,,4047,-47.5,-29.5,1,0,0,response5disk,,2,7,17,1,0,0,rectangle,7,17,1,0,0,7,17,1,0,0,1,74,234,26,1,,,,,,,,
,,,,,,,,,,,,,FF,,,,,,,,0.6201,,,,,,,,,,,,,,,,,,,,,,6103380f5760c211093ec7c5,61036d87948b0f7f3ebab484,2021-07-29_23h42.37.325,Simcolourproject_2stim_asymm_v5,2020.2.10,Win32,60,61025ae37ef11b136ea224fe,,,,,,,,,590,24,56,1,0,0,response1disk,,7,-2.5,-5,1,0,0,rectangle,-2.5,-5,1,0,0,-2.5,-5,1,0,0,1,75,235,61,1,,,,,,,,
,,,,,,,,,,,,,FF,,,,,,,,1.5062,,,,,,,,,,,,,,,,,,,,,,6103380f5760c211093ec7c5,61036d87948b0f7f3ebab484,2021-07-29_23h42.37.325,Simcolourproject_2stim_asymm_v5,2020.2.10,Win32,60,61025ae37ef11b136ea224fe,,,,,,,,,4355,75.5,36.5,1,0,0,response1disk,,6,9.5,-1,1,0,0,rectangle,9.5,-1,1,0,0,9.5,-1,1,0,0,1,76,236,65,1,,,,,,,,
,,,,,,,,,,,,,FF,,,,,,,,0.5985,,,,,,,,,,,,,,,,,,,,,,6103380f5760c211093ec7c5,61036d87948b0f7f3ebab484,2021-07-29_23h42.37.325,Simcolourproject_2stim_asymm_v5,2020.2.10,Win32,60,61025ae37ef11b136ea224fe,,,,,,,,,940,50,84,1,0,0,response1disk,,7,15.5,-5.5,1,0,0,rectangle,15.5,-5.5,1,0,0,15.5,-5.5,1,0,0,1,77,237,150,1,,,,,,,,
,,,,,,,,,,,,,FF,,,,,,,,0.6793,,,,,,,,,,,,,,,,,,,,,,6103380f5760c211093ec7c5,61036d87948b0f7f3ebab484,2021-07-29_23h42.37.325,Simcolourproject_2stim_asymm_v5,2020.2.10,Win32,60,61025ae37ef11b136ea224fe,,,,,,,,,3045,-40.5,78,1,0,0,response7disk,,0,-12.5,6,1,0,0,rectangle,-12.5,6,1,0,0,-12.5,6,1,0,0,1,78,238,25,1,,,,,,,,
,,,,,,,,,,,,,FF,,,,,,,,0.8182,,,,,,,,,,,,,,,,,,,,,,6103380f5760c211093ec7c5,61036d87948b0f7f3ebab484,2021-07-29_23h42.37.325,Simcolourproject_2stim_asymm_v5,2020.2.10,Win32,60,61025ae37ef11b136ea224fe,,,,,,,,,440,-61,-36.5,1,0,0,response5disk,,2,-2,16,1,0,0,rectangle,-83.5,-34.5,1,0,0,-10.5,-6,1,0,0,1,79,239,53,1,,response5disk_3,TRUE,2,2,"[184,7,192,136,93,248,240,11,0,27,30,252,171,231,259,312,104,121,98,53]",1.3298,rectangle
,,,,,,,,,,,,,FF,,,,,,,,0.9929,,,,,,,,,,,,,,,,,,,,,,6103380f5760c211093ec7c5,61036d87948b0f7f3ebab484,2021-07-29_23h42.37.325,Simcolourproject_2stim_asymm_v5,2020.2.10,Win32,60,61025ae37ef11b136ea224fe,,,,,,,,,3054,-77,-48,1,0,0,response5disk,,2,0.5,-0.5,1,0,0,rectangle,0.5,-0.5,1,0,0,0.5,-0.5,1,0,0,1,80,240,42,1,,,,,,,,
,,,,,,,,,,,,,FF,,,,,,,,0.7085,,,,,,,,,,,,,,,,,,,,,,6103380f5760c211093ec7c5,61036d87948b0f7f3ebab484,2021-07-29_23h42.37.325,Simcolourproject_2stim_asymm_v5,2020.2.10,Win32,60,61025ae37ef11b136ea224fe,,,,,,,,,2818,36,79,1,0,0,response1disk,,7,11,7.5,1,0,0,rectangle,11,7.5,1,0,0,11,7.5,1,0,0,1,81,241,27,1,,,,,,,,
,,,,,,,,,,,,,FF,,,,,,,,0.7704,,,,,,,,,,,,,,,,,,,,,,6103380f5760c211093ec7c5,61036d87948b0f7f3ebab484,2021-07-29_23h42.37.325,Simcolourproject_2stim_asymm_v5,2020.2.10,Win32,60,61025ae37ef11b136ea224fe,,,,,,,,,187,-69,-46.5,1,0,0,response5disk,,2,9.5,19.5,1,0,0,rectangle,9.5,19.5,1,0,0,9.5,19.5,1,0,0,1,82,242,136,1,,,,,,,,
,,,,,,,,,,,,,FF,,,,,,,,0.5853,,,,,,,,,,,,,,,,,,,,,,6103380f5760c211093ec7c5,61036d87948b0f7f3ebab484,2021-07-29_23h42.37.325,Simcolourproject_2stim_asymm_v5,2020.2.10,Win32,60,61025ae37ef11b136ea224fe,,,,,,,,,1345,34.5,79.5,1,0,0,response1disk,,7,20,13,1,0,0,rectangle,20,13,1,0,0,20,13,1,0,0,1,83,243,91,1,,,,,,,,
,,,,,,,,,,,,,FF,,,,,,,,0.9413,,,,,,,,,,,,,,,,,,,,,,6103380f5760c211093ec7c5,61036d87948b0f7f3ebab484,2021-07-29_23h42.37.325,Simcolourproject_2stim_asymm_v5,2020.2.10,Win32,60,61025ae37ef11b136ea224fe,,,,,,,,,1398,94.5,41,1,0,0,response1disk,,6,2.5,-9,1,0,0,rectangle,2.5,-9,1,0,0,2.5,-9,1,0,0,1,84,244,22,1,,,,,,,,
,,,,,,,,,,,,,FF,,,,,,,,0.9694,,,,,,,,,,,,,,,,,,,,,,6103380f5760c211093ec7c5,61036d87948b0f7f3ebab484,2021-07-29_23h42.37.325,Simcolourproject_2stim_asymm_v5,2020.2.10,Win32,60,61025ae37ef11b136ea224fe,,,,,,,,,1231,92.5,49,1,0,0,response1disk,,6,22,17.5,1,0,0,rectangle,22,17.5,1,0,0,22,17.5,1,0,0,1,85,245,6,1,,,,,,,,
,,,,,,,,,,,,,FF,,,,,,,,1.5965,,,,,,,,,,,,,,,,,,,,,,6103380f5760c211093ec7c5,61036d87948b0f7f3ebab484,2021-07-29_23h42.37.325,Simcolourproject_2stim_asymm_v5,2020.2.10,Win32,60,61025ae37ef11b136ea224fe,,,,,,,,,2683,31.5,77,1,0,0,response1disk,,7,12.5,17.5,1,0,0,rectangle,12.5,17.5,1,0,0,12.5,17.5,1,0,0,1,86,246,8,1,,,,,,,,
,,,,,,,,,,,,,FF,,,,,,,,0.7868,,,,,,,,,,,,,,,,,,,,,,6103380f5760c211093ec7c5,61036d87948b0f7f3ebab484,2021-07-29_23h42.37.325,Simcolourproject_2stim_asymm_v5,2020.2.10,Win32,60,61025ae37ef11b136ea224fe,,,,,,,,,137,31,74,1,0,0,response1disk,,7,14,8,1,0,0,rectangle,-72.5,18,1,0,0,-27,13.5,1,0,0,1,87,247,118,1,,response7disk_3,TRUE,1,1,"[184,7,192,136,93,248,240,11,0,27,30,252,171,231,259,312,104,121,98,53]",1.2478,rectangle
,,,,,,,,,,,,,FF,,,,,,,,0.7742,,,,,,,,,,,,,,,,,,,,,,6103380f5760c211093ec7c5,61036d87948b0f7f3ebab484,2021-07-29_23h42.37.325,Simcolourproject_2stim_asymm_v5,2020.2.10,Win32,60,61025ae37ef11b136ea224fe,,,,,,,,,206,72.5,41.5,1,0,0,response1disk,,6,-2.5,7.5,1,0,0,rectangle,-2.5,7.5,1,0,0,-2.5,7.5,1,0,0,1,88,248,30,1,,,,,,,,
,,,,,,,,,,,,,FF,,,,,,,,0.9422,,,,,,,,,,,,,,,,,,,,,,6103380f5760c211093ec7c5,61036d87948b0f7f3ebab484,2021-07-29_23h42.37.325,Simcolourproject_2stim_asymm_v5,2020.2.10,Win32,60,61025ae37ef11b136ea224fe,,,,,,,,,1860,28.5,69.5,1,0,0,response1disk,,7,21.5,-5,1,0,0,rectangle,21.5,-5,1,0,0,21.5,-5,1,0,0,1,89,249,28,1,,,,,,,,
,,,,,,,,,,,,,FF,,,,,,,,1.5359,,,,,,,,,,,,,,,,,,,,,,6103380f5760c211093ec7c5,61036d87948b0f7f3ebab484,2021-07-29_23h42.37.325,Simcolourproject_2stim_asymm_v5,2020.2.10,Win32,60,61025ae37ef11b136ea224fe,,,,,,,,,4294,-55.5,-42,1,0,0,response5disk,,2,-5,-8.5,1,0,0,rectangle,-5,-8.5,1,0,0,-5,-8.5,1,0,0,1,90,250,21,1,,,,,,,,
,,,,,,,,,,,,,FF,,,,,,,,0.8916,,,,,,,,,,,,,,,,,,,,,,6103380f5760c211093ec7c5,61036d87948b0f7f3ebab484,2021-07-29_23h42.37.325,Simcolourproject_2stim_asymm_v5,2020.2.10,Win32,60,61025ae37ef11b136ea224fe,,,,,,,,,3750,-52.5,-31.5,1,0,0,response5disk,,2,3,-4.5,1,0,0,rectangle,90,45.5,1,0,0,4,-8,1,0,0,1,91,251,125,1,,response1disk_3,TRUE,6,6,"[184,7,192,136,93,248,240,11,0,27,30,252,171,231,259,312,104,121,98,53]",1.3389,rectangle
,,,,,,,,,,,,,FF,,,,,,,,1.4109,,,,,,,,,,,,,,,,,,,,,,6103380f5760c211093ec7c5,61036d87948b0f7f3ebab484,2021-07-29_23h42.37.325,Simcolourproject_2stim_asymm_v5,2020.2.10,Win32,60,61025ae37ef11b136ea224fe,,,,,,,,,1908,65,57.5,1,0,0,response1disk,,6,4.5,12,1,0,0,rectangle,4.5,12,1,0,0,4.5,12,1,0,0,1,92,252,124,1,,,,,,,,
,,,,,,,,,,,,,FF,,,,,,,,1.1327,,,,,,,,,,,,,,,,,,,,,,6103380f5760c211093ec7c5,61036d87948b0f7f3ebab484,2021-07-29_23h42.37.325,Simcolourproject_2stim_asymm_v5,2020.2.10,Win32,60,61025ae37ef11b136ea224fe,,,,,,,,,1760,-45,-73,1,0,0,response5disk,,3,9.5,6.5,1,0,0,rectangle,9.5,6.5,1,0,0,9.5,6.5,1,0,0,1,93,253,90,1,,,,,,,,
,,,,,,,,,,,,,FF,,,,,,,,1.2776,,,,,,,,,,,,,,,,,,,,,,6103380f5760c211093ec7c5,61036d87948b0f7f3ebab484,2021-07-29_23h42.37.325,Simcolourproject_2stim_asymm_v5,2020.2.10,Win32,60,61025ae37ef11b136ea224fe,,,,,,,,,3772,-36.5,-63.5,1,0,0,response5disk,,3,-13,-6.5,1,0,0,rectangle,-13,-6.5,1,0,0,-13,-6.5,1,0,0,1,94,254,67,1,,,,,,,,
,,,,,,,,,,,,,FF,,,,,,,,0.6644,,,,,,,,,,,,,,,,,,,,,,6103380f5760c211093ec7c5,61036d87948b0f7f3ebab484,2021-07-29_23h42.37.325,Simcolourproject_2stim_asymm_v5,2020.2.10,Win32,60,61025ae37ef11b136ea224fe,,,,,,,,,2494,46,90.5,1,0,0,response1disk,,7,3,-12,1,0,0,rectangle,3,-12,1,0,0,3,-12,1,0,0,1,95,255,153,1,,,,,,,,
,,,,,,,,,,,,,FF,,,,,,,,0.6062,,,,,,,,,,,,,,,,,,,,,,6103380f5760c211093ec7c5,61036d87948b0f7f3ebab484,2021-07-29_23h42.37.325,Simcolourproject_2stim_asymm_v5,2020.2.10,Win32,60,61025ae37ef11b136ea224fe,,,,,,,,,477,47,66.5,1,0,0,response1disk,,7,15.5,-5.5,1,0,0,rectangle,15.5,-5.5,1,0,0,15.5,-5.5,1,0,0,1,96,256,18,1,,,,,,,,
,,,,,,,,,,,,,FF,,,,,,,,0.8016,,,,,,,,,,,,,,,,,,,,,,6103380f5760c211093ec7c5,61036d87948b0f7f3ebab484,2021-07-29_23h42.37.325,Simcolourproject_2stim_asymm_v5,2020.2.10,Win32,60,61025ae37ef11b136ea224fe,,,,,,,,,2666,77.5,46,1,0,0,response1disk,,6,17,2.5,1,0,0,rectangle,17,2.5,1,0,0,17,2.5,1,0,0,1,97,257,142,1,,,,,,,,
,,,,,,,,,,,,,FF,,,,,,,,0.5279,,,,,,,,,,,,,,,,,,,,,,6103380f5760c211093ec7c5,61036d87948b0f7f3ebab484,2021-07-29_23h42.37.325,Simcolourproject_2stim_asymm_v5,2020.2.10,Win32,60,61025ae37ef11b136ea224fe,,,,,,,,,3029,34.5,68,1,0,0,response1disk,,7,7.5,8.5,1,0,0,rectangle,-84,33.5,1,0,0,-22.5,-7,1,0,0,1,98,258,59,1,,response7disk_3,TRUE,1,1,"[184,7,192,136,93,248,240,11,0,27,30,252,171,231,259,312,104,121,98,53]",1.2361,rectangle
,,,,,,,,,,,,,FF,,,,,,,,3.9842,,,,,,,,,,,,,,,,,,,,,,6103380f5760c211093ec7c5,61036d87948b0f7f3ebab484,2021-07-29_23h42.37.325,Simcolourproject_2stim_asymm_v5,2020.2.10,Win32,60,61025ae37ef11b136ea224fe,,,,,,,,,3968,39,-80.5,1,0,0,response3disk,,4,21,16.5,1,0,0,rectangle,21,16.5,1,0,0,21,16.5,1,0,0,1,99,259,38,1,,,,,,,,
,,,,,,,,,,,,,FF,,,,,,,,0.6289,,,,,,,,,,,,,,,,,,,,,,6103380f5760c211093ec7c5,61036d87948b0f7f3ebab484,2021-07-29_23h42.37.325,Simcolourproject_2stim_asymm_v5,2020.2.10,Win32,60,61025ae37ef11b136ea224fe,,,,,,,,,1927,55,79,1,0,0,response1disk,,7,9,-1,1,0,0,rectangle,9,-1,1,0,0,9,-1,1,0,0,1,100,260,52,1,,,,,,,,
,,,,,,,,,,,,,FF,,,,,,,,0.8544,,,,,,,,,,,,,,,,,,,,,,6103380f5760c211093ec7c5,61036d87948b0f7f3ebab484,2021-07-29_23h42.37.325,Simcolourproject_2stim_asymm_v5,2020.2.10,Win32,60,61025ae37ef11b136ea224fe,,,,,,,,,1558,97.5,54.5,1,0,0,response1disk,,6,-7,-10.5,1,0,0,rectangle,-7,-10.5,1,0,0,-7,-10.5,1,0,0,1,101,261,50,1,,,,,,,,
,,,,,,,,,,,,,FF,,,,,,,,0.9505,,,,,,,,,,,,,,,,,,,,,,6103380f5760c211093ec7c5,61036d87948b0f7f3ebab484,2021-07-29_23h42.37.325,Simcolourproject_2stim_asymm_v5,2020.2.10,Win32,60,61025ae37ef11b136ea224fe,,,,,,,,,949,97,37.5,1,0,0,response1disk,,6,-4,-2.5,1,0,0,rectangle,-4,-2.5,1,0,0,-4,-2.5,1,0,0,1,102,262,56,1,,,,,,,,
,,,,,,,,,,,,,FF,,,,,,,,1.0679,,,,,,,,,,,,,,,,,,,,,,6103380f5760c211093ec7c5,61036d87948b0f7f3ebab484,2021-07-29_23h42.37.325,Simcolourproject_2stim_asymm_v5,2020.2.10,Win32,60,61025ae37ef11b136ea224fe,,,,,,,,,3201,-52,-77.5,1,0,0,response5disk,,3,-3,-3.5,1,0,0,rectangle,-3,-3.5,1,0,0,-3,-3.5,1,0,0,1,103,263,5,1,,,,,,,,
,,,,,,,,,,,,,FF,,,,,,,,0.6417,,,,,,,,,,,,,,,,,,,,,,6103380f5760c211093ec7c5,61036d87948b0f7f3ebab484,2021-07-29_23h42.37.325,Simcolourproject_2stim_asymm_v5,2020.2.10,Win32,60,61025ae37ef11b136ea224fe,,,,,,,,,3465,-30.5,-63.5,1,0,0,response5disk,,3,6.5,-6,1,0,0,rectangle,6.5,-6,1,0,0,6.5,-6,1,0,0,1,104,264,140,1,,,,,,,,
,,,,,,,,,,,,,FF,,,,,,,,0.5166,,,,,,,,,,,,,,,,,,,,,,6103380f5760c211093ec7c5,61036d87948b0f7f3ebab484,2021-07-29_23h42.37.325,Simcolourproject_2stim_asymm_v5,2020.2.10,Win32,60,61025ae37ef11b136ea224fe,,,,,,,,,2911,21.5,67,1,0,0,response1disk,,7,-5.5,-1,1,0,0,rectangle,-5.5,-1,1,0,0,-5.5,-1,1,0,0,1,105,265,127,1,,,,,,,,
,,,,,,,,,,,,,FF,,,,,,,,1.3791,,,,,,,,,,,,,,,,,,,,,,6103380f5760c211093ec7c5,61036d87948b0f7f3ebab484,2021-07-29_23h42.37.325,Simcolourproject_2stim_asymm_v5,2020.2.10,Win32,60,61025ae37ef11b136ea224fe,,,,,,,,,4251,-43.5,95.5,1,0,0,response7disk,,0,-22,7.5,1,0,0,rectangle,-22,7.5,1,0,0,-22,7.5,1,0,0,1,106,266,156,1,,,,,,,,
,,,,,,,,,,,,,FF,,,,,,,,1.1342,,,,,,,,,,,,,,,,,,,,,,6103380f5760c211093ec7c5,61036d87948b0f7f3ebab484,2021-07-29_23h42.37.325,Simcolourproject_2stim_asymm_v5,2020.2.10,Win32,60,61025ae37ef11b136ea224fe,,,,,,,,,3745,-54,-73.5,1,0,0,response5disk,,3,-2.5,-3.5,1,0,0,rectangle,-2.5,-3.5,1,0,0,-2.5,-3.5,1,0,0,1,107,267,40,1,,,,,,,,
,,,,,,,,,,,,,FF,,,,,,,,2.5446,,,,,,,,,,,,,,,,,,,,,,6103380f5760c211093ec7c5,61036d87948b0f7f3ebab484,2021-07-29_23h42.37.325,Simcolourproject_2stim_asymm_v5,2020.2.10,Win32,60,61025ae37ef11b136ea224fe,,,,,,,,,1764,-37,-68.5,1,0,0,response5disk,,3,6,-4.5,1,0,0,rectangle,6,-4.5,1,0,0,6,-4.5,1,0,0,1,108,268,117,1,,,,,,,,
,,,,,,,,,,,,,FF,,,,,,,,0.8732,,,,,,,,,,,,,,,,,,,,,,6103380f5760c211093ec7c5,61036d87948b0f7f3ebab484,2021-07-29_23h42.37.325,Simcolourproject_2stim_asymm_v5,2020.2.10,Win32,60,61025ae37ef11b136ea224fe,,,,,,,,,1318,81.5,-44.5,1,0,0,response3disk,,5,-7.5,8,1,0,0,rectangle,-7.5,8,1,0,0,-7.5,8,1,0,0,1,109,269,76,1,,,,,,,,
,,,,,,,,,,,,,FF,,,,,,,,1.3151,,,,,,,,,,,,,,,,,,,,,,6103380f5760c211093ec7c5,61036d87948b0f7f3ebab484,2021-07-29_23h42.37.325,Simcolourproject_2stim_asymm_v5,2020.2.10,Win32,60,61025ae37ef11b136ea224fe,,,,,,,,,1278,71.5,42.5,1,0,0,response1disk,,6,-1,7,1,0,0,rectangle,-1,7,1,0,0,-1,7,1,0,0,1,110,270,72,1,,,,,,,,
,,,,,,,,,,,,,FF,,,,,,,,1.8894,,,,,,,,,,,,,,,,,,,,,,6103380f5760c211093ec7c5,61036d87948b0f7f3ebab484,2021-07-29_23h42.37.325,Simcolourproject_2stim_asymm_v5,2020.2.10,Win32,60,61025ae37ef11b136ea224fe,,,,,,,,,4162,-43,-87,1,0,0,response5disk,,3,9,10.5,1,0,0,rectangle,9,10.5,1,0,0,9,10.5,1,0,0,1,111,271,80,1,,,,,,,,
,,,,,,,,,,,,,FF,,,,,,,,0.7171,,,,,,,,,,,,,,,,,,,,,,6103380f5760c211093ec7c5,61036d87948b0f7f3ebab484,2021-07-29_23h42.37.325,Simcolourproject_2stim_asymm_v5,2020.2.10,Win32,60,61025ae37ef11b136ea224fe,,,,,,,,,3602,38.5,81,1,0,0,response1disk,,7,7.5,7.5,1,0,0,rectangle,7.5,7.5,1,0,0,7.5,7.5,1,0,0,1,112,272,158,1,,,,,,,,
,,,,,,,,,,,,,FF,,,,,,,,0.4347,,,,,,,,,,,,,,,,,,,,,,6103380f5760c211093ec7c5,61036d87948b0f7f3ebab484,2021-07-29_23h42.37.325,Simcolourproject_2stim_asymm_v5,2020.2.10,Win32,60,61025ae37ef11b136ea224fe,,,,,,,,,3368,44.5,85,1,0,0,response1disk,,7,16,7.5,1,0,0,rectangle,16,7.5,1,0,0,16,7.5,1,0,0,1,113,273,151,1,,,,,,,,
,,,,,,,,,,,,,FF,,,,,,,,0.8941,,,,,,,,,,,,,,,,,,,,,,6103380f5760c211093ec7c5,61036d87948b0f7f3ebab484,2021-07-29_23h42.37.325,Simcolourproject_2stim_asymm_v5,2020.2.10,Win32,60,61025ae37ef11b136ea224fe,,,,,,,,,2178,98,48,1,0,0,response1disk,,6,16,7,1,0,0,rectangle,16,7,1,0,0,16,7,1,0,0,1,114,274,93,1,,,,,,,,
,,,,,,,,,,,,,FF,,,,,,,,1.268,,,,,,,,,,,,,,,,,,,,,,6103380f5760c211093ec7c5,61036d87948b0f7f3ebab484,2021-07-29_23h42.37.325,Simcolourproject_2stim_asymm_v5,2020.2.10,Win32,60,61025ae37ef11b136ea224fe,,,,,,,,,353,-70,24.5,1,0,0,response7disk,,1,-18,-13,1,0,0,rectangle,-18,-13,1,0,0,-18,-13,1,0,0,1,115,275,126,1,,,,,,,,
,,,,,,,,,,,,,FF,,,,,,,,0.9125,,,,,,,,,,,,,,,,,,,,,,6103380f5760c211093ec7c5,61036d87948b0f7f3ebab484,2021-07-29_23h42.37.325,Simcolourproject_2stim_asymm_v5,2020.2.10,Win32,60,61025ae37ef11b136ea224fe,,,,,,,,,2224,61,46,1,0,0,response1disk,,6,24.5,6.5,1,0,0,rectangle,24.5,6.5,1,0,0,24.5,6.5,1,0,0,1,116,276,100,1,,,,,,,,
,,,,,,,,,,,,,FF,,,,,,,,0.8071,,,,,,,,,,,,,,,,,,,,,,6103380f5760c211093ec7c5,61036d87948b0f7f3ebab484,2021-07-29_23h42.37.325,Simcolourproject_2stim_asymm_v5,2020.2.10,Win32,60,61025ae37ef11b136ea224fe,,,,,,,,,839,44,87.5,1,0,0,response1disk,,7,16.5,7,1,0,0,rectangle,16.5,7,1,0,0,16.5,7,1,0,0,1,117,277,116,1,,,,,,,,
,,,,,,,,,,,,,FF,,,,,,,,1.0181,,,,,,,,,,,,,,,,,,,,,,6103380f5760c211093ec7c5,61036d87948b0f7f3ebab484,2021-07-29_23h42.37.325,Simcolourproject_2stim_asymm_v5,2020.2.10,Win32,60,61025ae37ef11b136ea224fe,,,,,,,,,1901,-40.5,-73,1,0,0,response5disk,,3,-4.5,-13,1,0,0,rectangle,-4.5,-13,1,0,0,-4.5,-13,1,0,0,1,118,278,94,1,,,,,,,,
,,,,,,,,,,,,,FF,,,,,,,,0.575,,,,,,,,,,,,,,,,,,,,,,6103380f5760c211093ec7c5,61036d87948b0f7f3ebab484,2021-07-29_23h42.37.325,Simcolourproject_2stim_asymm_v5,2020.2.10,Win32,60,61025ae37ef11b136ea224fe,,,,,,,,,1179,39,76.5,1,0,0,response1disk,,7,7,5,1,0,0,rectangle,7,5,1,0,0,7,5,1,0,0,1,119,279,122,1,,,,,,,,
,,,,,,,,,,,,,FF,,,,,,,,0.7188,,,,,,,,,,,,,,,,,,,,,,6103380f5760c211093ec7c5,61036d87948b0f7f3ebab484,2021-07-29_23h42.37.325,Simcolourproject_2stim_asymm_v5,2020.2.10,Win32,60,61025ae37ef11b136ea224fe,,,,,,,,,2575,19.5,61.5,1,0,0,response1disk,,7,1.5,15,1,0,0,rectangle,1.5,15,1,0,0,1.5,15,1,0,0,1,120,280,33,1,,,,,,,,
,,,,,,,,,,,,,FF,,,,,,,,0.4499,,,,,,,,,,,,,,,,,,,,,,6103380f5760c211093ec7c5,61036d87948b0f7f3ebab484,2021-07-29_23h42.37.325,Simcolourproject_2stim_asymm_v5,2020.2.10,Win32,60,61025ae37ef11b136ea224fe,,,,,,,,,2740,35,66.5,1,0,0,response1disk,,7,14,4,1,0,0,rectangle,14,4,1,0,0,14,4,1,0,0,1,121,281,102,1,,,,,,,,
,,,,,,,,,,,,,FF,,,,,,,,1.0347,,,,,,,,,,,,,,,,,,,,,,6103380f5760c211093ec7c5,61036d87948b0f7f3ebab484,2021-07-29_23h42.37.325,Simcolourproject_2stim_asymm_v5,2020.2.10,Win32,60,61025ae37ef11b136ea224fe,,,,,,,,,3448,43,79,1,0,0,response1disk,,7,18.5,10,1,0,0,rectangle,18.5,10,1,0,0,18.5,10,1,0,0,1,122,282,82,1,,,,,,,,
,,,,,,,,,,,,,FF,,,,,,,,0.823,,,,,,,,,,,,,,,,,,,,,,6103380f5760c211093ec7c5,61036d87948b0f7f3ebab484,2021-07-29_23h42.37.325,Simcolourproject_2stim_asymm_v5,2020.2.10,Win32,60,61025ae37ef11b136ea224fe,,,,,,,,,4123,59.5,-24,1,0,0,response3disk,,5,16.5,3,1,0,0,rectangle,16.5,3,1,0,0,16.5,3,1,0,0,1,123,283,132,1,,,,,,,,
,,,,,,,,,,,,,FF,,,,,,,,0.5815,,,,,,,,,,,,,,,,,,,,,,6103380f5760c211093ec7c5,61036d87948b0f7f3ebab484,2021-07-29_23h42.37.325,Simcolourproject_2stim_asymm_v5,2020.2.10,Win32,60,61025ae37ef11b136ea224fe,,,,,,,,,2708,39,69,1,0,0,response1disk,,7,9.5,-11,1,0,0,rectangle,9.5,-11,1,0,0,9.5,-11,1,0,0,1,124,284,4,1,,,,,,,,
,,,,,,,,,,,,,FF,,,,,,,,0.558,,,,,,,,,,,,,,,,,,,,,,6103380f5760c211093ec7c5,61036d87948b0f7f3ebab484,2021-07-29_23h42.37.325,Simcolourproject_2stim_asymm_v5,2020.2.10,Win32,60,61025ae37ef11b136ea224fe,,,,,,,,,1475,36,63.5,1,0,0,response1disk,,7,20.5,12.5,1,0,0,rectangle,20.5,12.5,1,0,0,20.5,12.5,1,0,0,1,125,285,143,1,,,,,,,,
,,,,,,,,,,,,,FF,,,,,,,,5.5632,,,,,,,,,,,,,,,,,,,,,,6103380f5760c211093ec7c5,61036d87948b0f7f3ebab484,2021-07-29_23h42.37.325,Simcolourproject_2stim_asymm_v5,2020.2.10,Win32,60,61025ae37ef11b136ea224fe,,,,,,,,,2663,47.5,-84.5,1,0,0,response3disk,,4,3,-2,1,0,0,rectangle,3,-2,1,0,0,3,-2,1,0,0,1,126,286,51,1,,,,,,,,
,,,,,,,,,,,,,FF,,,,,,,,1.2285,,,,,,,,,,,,,,,,,,,,,,6103380f5760c211093ec7c5,61036d87948b0f7f3ebab484,2021-07-29_23h42.37.325,Simcolourproject_2stim_asymm_v5,2020.2.10,Win32,60,61025ae37ef11b136ea224fe,,,,,,,,,2346,16,69,1,0,0,response1disk,,7,0,8.5,1,0,0,rectangle,0,8.5,1,0,0,0,8.5,1,0,0,1,127,287,41,1,,,,,,,,
,,,,,,,,,,,,,FF,,,,,,,,1.0472,,,,,,,,,,,,,,,,,,,,,,6103380f5760c211093ec7c5,61036d87948b0f7f3ebab484,2021-07-29_23h42.37.325,Simcolourproject_2stim_asymm_v5,2020.2.10,Win32,60,61025ae37ef11b136ea224fe,,,,,,,,,3644,90,58.5,1,0,0,response1disk,,6,31.5,6,1,0,0,rectangle,31.5,6,1,0,0,31.5,6,1,0,0,1,128,288,11,1,,,,,,,,
,,,,,,,,,,,,,FF,,,,,,,,0.9961,,,,,,,,,,,,,,,,,,,,,,6103380f5760c211093ec7c5,61036d87948b0f7f3ebab484,2021-07-29_23h42.37.325,Simcolourproject_2stim_asymm_v5,2020.2.10,Win32,60,61025ae37ef11b136ea224fe,,,,,,,,,4175,32.5,76,1,0,0,response1disk,,7,-9,-5,1,0,0,rectangle,-9,-5,1,0,0,-9,-5,1,0,0,1,129,289,32,1,,,,,,,,
,,,,,,,,,,,,,FF,,,,,,,,0.8472,,,,,,,,,,,,,,,,,,,,,,6103380f5760c211093ec7c5,61036d87948b0f7f3ebab484,2021-07-29_23h42.37.325,Simcolourproject_2stim_asymm_v5,2020.2.10,Win32,60,61025ae37ef11b136ea224fe,,,,,,,,,413,105.5,83.5,1,0,0,response1disk,,6,2.5,9.5,1,0,0,rectangle,2.5,9.5,1,0,0,2.5,9.5,1,0,0,1,130,290,137,1,,,,,,,,
,,,,,,,,,,,,,FF,,,,,,,,0.7461,,,,,,,,,,,,,,,,,,,,,,6103380f5760c211093ec7c5,61036d87948b0f7f3ebab484,2021-07-29_23h42.37.325,Simcolourproject_2stim_asymm_v5,2020.2.10,Win32,60,61025ae37ef11b136ea224fe,,,,,,,,,3086,39,73.5,1,0,0,response1disk,,7,10,10,1,0,0,rectangle,10,10,1,0,0,10,10,1,0,0,1,131,291,69,1,,,,,,,,
,,,,,,,,,,,,,FF,,,,,,,,0.663,,,,,,,,,,,,,,,,,,,,,,6103380f5760c211093ec7c5,61036d87948b0f7f3ebab484,2021-07-29_23h42.37.325,Simcolourproject_2stim_asymm_v5,2020.2.10,Win32,60,61025ae37ef11b136ea224fe,,,,,,,,,357,38,68.5,1,0,0,response1disk,,7,15,-1,1,0,0,rectangle,15,-1,1,0,0,15,-1,1,0,0,1,132,292,85,1,,,,,,,,
,,,,,,,,,,,,,FF,,,,,,,,1.2969,,,,,,,,,,,,,,,,,,,,,,6103380f5760c211093ec7c5,61036d87948b0f7f3ebab484,2021-07-29_23h42.37.325,Simcolourproject_2stim_asymm_v5,2020.2.10,Win32,60,61025ae37ef11b136ea224fe,,,,,,,,,1518,31,87.5,1,0,0,response1disk,,7,5,6.5,1,0,0,rectangle,5,6.5,1,0,0,5,6.5,1,0,0,1,133,293,0,1,,,,,,,,
,,,,,,,,,,,,,FF,,,,,,,,0.8208,,,,,,,,,,,,,,,,,,,,,,6103380f5760c211093ec7c5,61036d87948b0f7f3ebab484,2021-07-29_23h42.37.325,Simcolourproject_2stim_asymm_v5,2020.2.10,Win32,60,61025ae37ef11b136ea224fe,,,,,,,,,1394,82.5,39.5,1,0,0,response1disk,,6,15,16.5,1,0,0,rectangle,15,16.5,1,0,0,15,16.5,1,0,0,1,134,294,73,1,,,,,,,,
,,,,,,,,,,,,,FF,,,,,,,,2.0268,,,,,,,,,,,,,,,,,,,,,,6103380f5760c211093ec7c5,61036d87948b0f7f3ebab484,2021-07-29_23h42.37.325,Simcolourproject_2stim_asymm_v5,2020.2.10,Win32,60,61025ae37ef11b136ea224fe,,,,,,,,,4367,-74,29.5,1,0,0,response7disk,,1,-28,7,1,0,0,rectangle,-28,7,1,0,0,-28,7,1,0,0,1,135,295,101,1,,,,,,,,
