key_resp.keys,key_resp.rt,key_resp_14.keys,key_resp_14.rt,key_resp_15.keys,key_resp_15.rt,key_resp_17.keys,key_resp_17.rt,key_resp_9.keys,key_resp_9.rt,key_resp_10.keys,key_resp_10.rt,practice_comparison,Ecc,mouse_5.x,mouse_5.y,mouse_5.leftButton,mouse_5.midButton,mouse_5.rightButton,mouse_5.clicked_name,pracsimilarity,response_time,mouse_10.x,mouse_10.y,mouse_10.leftButton,mouse_10.midButton,mouse_10.rightButton,mouse_10.clicked_name,mouse_7.x,mouse_7.y,mouse_7.leftButton,mouse_7.midButton,mouse_7.rightButton,mouse_6.x,mouse_6.y,mouse_6.leftButton,mouse_6.midButton,mouse_6.rightButton,duringprac.thisRepN,duringprac.thisTrialN,duringprac.thisN,duringprac.thisIndex,duringprac.ran,participant,session,date,expName,psychopyVersion,OS,frameRate,study_id,mouse_7.clicked_name,catchpracsimilarity,catch_response_time,catchnumberprac,catchtrialorderprac,mouse_6.clicked_name,key_resp_22.keys,key_resp_22.rt,realcomparison,mouse.x,mouse.y,mouse.leftButton,mouse.midButton,mouse.rightButton,mouse.clicked_name,Colour2,similarity,mouse_2.x,mouse_2.y,mouse_2.leftButton,mouse_2.midButton,mouse_2.rightButton,mouse_2.clicked_name,mouse_3.x,mouse_3.y,mouse_3.leftButton,mouse_3.midButton,mouse_3.rightButton,mouse_11.x,mouse_11.y,mouse_11.leftButton,mouse_11.midButton,mouse_11.rightButton,trials_2.thisRepN,trials_2.thisTrialN,trials_2.thisN,trials_2.thisIndex,trials_2.ran,Colour1,mouse_3.clicked_name,catchornah,catchsimilarity,catchnumber,catchtrialorder,catchRT,mouse_11.clicked_name
space,1.6869,space,12.8643,space,52.6477,space,7.5698,space,2.6499,space,4.4242,82,PF,84.0000127,47.99999428,1,0,0,response1disk_5,6,6.0877,8.000011563,-11.2000066,1,0,0,rectangle_8,8.000011563,-11.2000066,1,0,0,8.000011563,-11.2000066,1,0,0,0,0,0,4,1,610365491336a1f2766ae033,610369a0b6b0254c35327397,2021-07-30_03h53.59.485,Simcolourproject_2stim_asymm_v5,2020.2.10,Win32,60,61025ae37ef11b136ea224fe,,,,,,,,,,,,,,,,,,,,,,,,,,,,,,,,,,,,,,,,,,,,,,
,,,,,,,,,,,,31,PF,37.60006083,65.59999454,1,0,0,response1disk_5,7,1.3405,-2.399939764,-4.800006509,1,0,0,rectangle_8,81.60001266,-38.40000701,1,0,0,-0.799988568,-6.4373E-06,1,0,0,0,1,1,2,1,610365491336a1f2766ae033,610369a0b6b0254c35327397,2021-07-30_03h53.59.485,Simcolourproject_2stim_asymm_v5,2020.2.10,Win32,60,61025ae37ef11b136ea224fe,response3disk_7,5,2.7661,5,"[2,5]",rectangle_4,,,,,,,,,,,,,,,,,,,,,,,,,,,,,,,,,,,,,,,,
,,,,,,,,,,,,116,FF,89.60001278,-42.40000707,1,0,0,response3disk_5,5,2.355,1.600060296,-6.4373E-06,1,0,0,rectangle_8,1.600060296,-6.4373E-06,1,0,0,1.600060296,-6.4373E-06,1,0,0,0,2,2,5,1,610365491336a1f2766ae033,610369a0b6b0254c35327397,2021-07-30_03h53.59.485,Simcolourproject_2stim_asymm_v5,2020.2.10,Win32,60,61025ae37ef11b136ea224fe,,,,,,,,,,,,,,,,,,,,,,,,,,,,,,,,,,,,,,,,,,,,,,
,,,,,,,,,,,,126,PF,68.80001247,-32.80000693,1,0,0,response3disk_5,5,1.4099,1.14441E-05,2.399993598,1,0,0,rectangle_8,1.14441E-05,2.399993598,1,0,0,1.14441E-05,2.399993598,1,0,0,0,3,3,1,1,610365491336a1f2766ae033,610369a0b6b0254c35327397,2021-07-30_03h53.59.485,Simcolourproject_2stim_asymm_v5,2020.2.10,Win32,60,61025ae37ef11b136ea224fe,,,,,,,,,,,,,,,,,,,,,,,,,,,,,,,,,,,,,,,,,,,,,,
,,,,,,,,,,,,132,FF,36.80001199,-72.00000751,1,0,0,response3disk_5,4,1.778,-2.399939764,-6.400006533,1,0,0,rectangle_8,101.600013,-37.600007,1,0,0,6.400011539,-5.600006521,1,0,0,0,4,4,3,1,610365491336a1f2766ae033,610369a0b6b0254c35327397,2021-07-30_03h53.59.485,Simcolourproject_2stim_asymm_v5,2020.2.10,Win32,60,61025ae37ef11b136ea224fe,response3disk_7,5,2.1256,5,"[2,5]",rectangle_4,,,,,,,,,,,,,,,,,,,,,,,,,,,,,,,,,,,,,,,,
,,,,,,,,,,,,150,PF,50.4000122,-94.40000784,1,0,0,response3disk_5,4,3.0285,-1.59998858,-6.400006533,1,0,0,rectangle_8,-1.59998858,-6.400006533,1,0,0,-1.59998858,-6.400006533,1,0,0,0,5,5,6,1,610365491336a1f2766ae033,610369a0b6b0254c35327397,2021-07-30_03h53.59.485,Simcolourproject_2stim_asymm_v5,2020.2.10,Win32,60,61025ae37ef11b136ea224fe,,,,,,,,,,,,,,,,,,,,,,,,,,,,,,,,,,,,,,,,,,,,,,
,,,,,,,,,,,,141,FF,40.80001205,-88.80000776,1,0,0,response3disk_5,4,2.2085,5.600060356,-6.4373E-06,1,0,0,rectangle_8,5.600060356,-6.4373E-06,1,0,0,5.600060356,-6.4373E-06,1,0,0,0,6,6,0,1,610365491336a1f2766ae033,610369a0b6b0254c35327397,2021-07-30_03h53.59.485,Simcolourproject_2stim_asymm_v5,2020.2.10,Win32,60,61025ae37ef11b136ea224fe,,,,,,,,,,,,,,,,,,,,,,,,,,,,,,,,,,,,,,,,,,,,,,
,,,,,,,,,,,,,FF,,,,,,,,7.0907,,,,,,,,,,,,,,,,,,,,,,610365491336a1f2766ae033,610369a0b6b0254c35327397,2021-07-30_03h53.59.485,Simcolourproject_2stim_asymm_v5,2020.2.10,Win32,60,61025ae37ef11b136ea224fe,,,,,,,space,8.9492,3464,85.60001272,-30.40000689,1,0,0,response3disk,,5,12.00001162,-0.800006449,1,0,0,rectangle,12.00001162,-0.800006449,1,0,0,12.00001162,-0.800006449,1,0,0,0,0,0,60,1,,,,,,,,
,,,,,,,,,,,,,FF,,,,,,,,2.882,,,,,,,,,,,,,,,,,,,,,,610365491336a1f2766ae033,610369a0b6b0254c35327397,2021-07-30_03h53.59.485,Simcolourproject_2stim_asymm_v5,2020.2.10,Win32,60,61025ae37ef11b136ea224fe,,,,,,,,,4357,-63.99998951,-25.60000682,1,0,0,response5disk,,2,6.400011539,-1.600006461,1,0,0,rectangle,6.400011539,-1.600006461,1,0,0,6.400011539,-1.600006461,1,0,0,0,1,1,6,1,,,,,,,,
,,,,,,,,,,,,,FF,,,,,,,,6.3059,,,,,,,,,,,,,,,,,,,,,,610365491336a1f2766ae033,610369a0b6b0254c35327397,2021-07-30_03h53.59.485,Simcolourproject_2stim_asymm_v5,2020.2.10,Win32,60,61025ae37ef11b136ea224fe,,,,,,,,,789,-44.79998922,-57.6000073,1,0,0,response5disk,,3,-11.99998873,-2.400006473,1,0,0,rectangle,-11.99998873,-2.400006473,1,0,0,-11.99998873,-2.400006473,1,0,0,0,2,2,93,1,,,,,,,,
,,,,,,,,,,,,,FF,,,,,,,,1.3477,,,,,,,,,,,,,,,,,,,,,,610365491336a1f2766ae033,610369a0b6b0254c35327397,2021-07-30_03h53.59.485,Simcolourproject_2stim_asymm_v5,2020.2.10,Win32,60,61025ae37ef11b136ea224fe,,,,,,,,,1246,71.20001251,-21.60000676,1,0,0,response3disk,,5,12.00001162,2.399993598,1,0,0,rectangle,12.00001162,2.399993598,1,0,0,12.00001162,2.399993598,1,0,0,0,3,3,46,1,,,,,,,,
,,,,,,,,,,,,,FF,,,,,,,,1.2152,,,,,,,,,,,,,,,,,,,,,,610365491336a1f2766ae033,610369a0b6b0254c35327397,2021-07-30_03h53.59.485,Simcolourproject_2stim_asymm_v5,2020.2.10,Win32,60,61025ae37ef11b136ea224fe,,,,,,,,,92,73.60001254,-37.600007,1,0,0,response3disk,,5,-5.599988639,3.19999361,1,0,0,rectangle,-5.599988639,3.19999361,1,0,0,-5.599988639,3.19999361,1,0,0,0,4,4,62,1,,,,,,,,
,,,,,,,,,,,,,FF,,,,,,,,2.3131,,,,,,,,,,,,,,,,,,,,,,610365491336a1f2766ae033,610369a0b6b0254c35327397,2021-07-30_03h53.59.485,Simcolourproject_2stim_asymm_v5,2020.2.10,Win32,60,61025ae37ef11b136ea224fe,,,,,,,,,2661,-70.39994078,-36.00000697,1,0,0,response5disk,,2,-6.399939823,-0.800006449,1,0,0,rectangle,-6.399939823,-0.800006449,1,0,0,-6.399939823,-0.800006449,1,0,0,0,5,5,19,1,,,,,,,,
,,,,,,,,,,,,,FF,,,,,,,,1.8816,,,,,,,,,,,,,,,,,,,,,,610365491336a1f2766ae033,610369a0b6b0254c35327397,2021-07-30_03h53.59.485,Simcolourproject_2stim_asymm_v5,2020.2.10,Win32,60,61025ae37ef11b136ea224fe,,,,,,,,,1400,98.40001291,33.59999406,1,0,0,response1disk,,6,18.40001172,13.59999377,1,0,0,rectangle,18.40001172,13.59999377,1,0,0,18.40001172,13.59999377,1,0,0,0,6,6,83,1,,,,,,,,
,,,,,,,,,,,,,FF,,,,,,,,2.4861,,,,,,,,,,,,,,,,,,,,,,610365491336a1f2766ae033,610369a0b6b0254c35327397,2021-07-30_03h53.59.485,Simcolourproject_2stim_asymm_v5,2020.2.10,Win32,60,61025ae37ef11b136ea224fe,,,,,,,,,4034,42.40001208,-88.00000775,1,0,0,response3disk,,4,-8.799988687,-4.000006497,1,0,0,rectangle,-8.799988687,-4.000006497,1,0,0,-8.799988687,-4.000006497,1,0,0,0,7,7,132,1,,,,,,,,
,,,,,,,,,,,,,FF,,,,,,,,1.5761,,,,,,,,,,,,,,,,,,,,,,610365491336a1f2766ae033,610369a0b6b0254c35327397,2021-07-30_03h53.59.485,Simcolourproject_2stim_asymm_v5,2020.2.10,Win32,60,61025ae37ef11b136ea224fe,,,,,,,,,907,-39.19998914,-72.80000752,1,0,0,response5disk,,3,3.200011492,-6.4373E-06,1,0,0,rectangle,3.200011492,-6.4373E-06,1,0,0,3.200011492,-6.4373E-06,1,0,0,0,8,8,85,1,,,,,,,,
,,,,,,,,,,,,,FF,,,,,,,,1.007,,,,,,,,,,,,,,,,,,,,,,610365491336a1f2766ae033,610369a0b6b0254c35327397,2021-07-30_03h53.59.485,Simcolourproject_2stim_asymm_v5,2020.2.10,Win32,60,61025ae37ef11b136ea224fe,,,,,,,,,560,-31.99998903,-65.60000741,1,0,0,response5disk,,3,-4.799988627,4.799993634,1,0,0,rectangle,-4.799988627,4.799993634,1,0,0,-4.799988627,4.799993634,1,0,0,0,9,9,141,1,,,,,,,,
,,,,,,,,,,,,,FF,,,,,,,,1.2848,,,,,,,,,,,,,,,,,,,,,,610365491336a1f2766ae033,610369a0b6b0254c35327397,2021-07-30_03h53.59.485,Simcolourproject_2stim_asymm_v5,2020.2.10,Win32,60,61025ae37ef11b136ea224fe,,,,,,,,,1353,52.80001223,-77.60000759,1,0,0,response3disk,,4,18.40001172,-4.000006497,1,0,0,rectangle,24.0000118,81.59999478,1,0,0,-4.799988627,-3.200006485,1,0,0,0,10,10,31,1,,response1disk_3,TRUE,7,7,"[74,166,110,183,22,200,238,212,124,212,174,263,54,308,64,171,122,88,311,11]",2.4306,rectangle
,,,,,,,,,,,,,FF,,,,,,,,1.2013,,,,,,,,,,,,,,,,,,,,,,610365491336a1f2766ae033,610369a0b6b0254c35327397,2021-07-30_03h53.59.485,Simcolourproject_2stim_asymm_v5,2020.2.10,Win32,60,61025ae37ef11b136ea224fe,,,,,,,,,3568,-38.3999403,-84.00000769,1,0,0,response5disk,,3,1.600060296,4.799993634,1,0,0,rectangle,1.600060296,4.799993634,1,0,0,1.600060296,4.799993634,1,0,0,0,11,11,143,1,,,,,,,,
,,,,,,,,,,,,,FF,,,,,,,,0.9659,,,,,,,,,,,,,,,,,,,,,,610365491336a1f2766ae033,610369a0b6b0254c35327397,2021-07-30_03h53.59.485,Simcolourproject_2stim_asymm_v5,2020.2.10,Win32,60,61025ae37ef11b136ea224fe,,,,,,,,,3421,37.60006083,-61.60000736,1,0,0,response3disk,,4,6.400011539,2.399993598,1,0,0,rectangle,6.400011539,2.399993598,1,0,0,6.400011539,2.399993598,1,0,0,0,12,12,73,1,,,,,,,,
,,,,,,,,,,,,,FF,,,,,,,,2.8334,,,,,,,,,,,,,,,,,,,,,,610365491336a1f2766ae033,610369a0b6b0254c35327397,2021-07-30_03h53.59.485,Simcolourproject_2stim_asymm_v5,2020.2.10,Win32,60,61025ae37ef11b136ea224fe,,,,,,,,,166,45.60006095,-64.8000074,1,0,0,response3disk,,4,2.40001148,1.599993587,1,0,0,rectangle,2.40001148,1.599993587,1,0,0,2.40001148,1.599993587,1,0,0,0,13,13,12,1,,,,,,,,
,,,,,,,,,,,,,FF,,,,,,,,0.993,,,,,,,,,,,,,,,,,,,,,,610365491336a1f2766ae033,610369a0b6b0254c35327397,2021-07-30_03h53.59.485,Simcolourproject_2stim_asymm_v5,2020.2.10,Win32,60,61025ae37ef11b136ea224fe,,,,,,,,,1255,78.40001261,-28.80000687,1,0,0,response3disk,,5,16.00001168,3.19999361,1,0,0,rectangle,16.00001168,3.19999361,1,0,0,16.00001168,3.19999361,1,0,0,0,14,14,89,1,,,,,,,,
,,,,,,,,,,,,,FF,,,,,,,,2.215,,,,,,,,,,,,,,,,,,,,,,610365491336a1f2766ae033,610369a0b6b0254c35327397,2021-07-30_03h53.59.485,Simcolourproject_2stim_asymm_v5,2020.2.10,Win32,60,61025ae37ef11b136ea224fe,,,,,,,,,1216,25.60006065,-48.00000715,1,0,0,response3disk,,4,-7.199988663,-8.000006557,1,0,0,rectangle,-7.199988663,-8.000006557,1,0,0,-7.199988663,-8.000006557,1,0,0,0,15,15,57,1,,,,,,,,
,,,,,,,,,,,,,FF,,,,,,,,2.5643,,,,,,,,,,,,,,,,,,,,,,610365491336a1f2766ae033,610369a0b6b0254c35327397,2021-07-30_03h53.59.485,Simcolourproject_2stim_asymm_v5,2020.2.10,Win32,60,61025ae37ef11b136ea224fe,,,,,,,,,1601,-23.99998891,-72.00000751,1,0,0,response5disk,,3,-19.19998884,4.799993634,1,0,0,rectangle,-19.19998884,4.799993634,1,0,0,-19.19998884,4.799993634,1,0,0,0,16,16,95,1,,,,,,,,
,,,,,,,,,,,,,FF,,,,,,,,1.7916,,,,,,,,,,,,,,,,,,,,,,610365491336a1f2766ae033,610369a0b6b0254c35327397,2021-07-30_03h53.59.485,Simcolourproject_2stim_asymm_v5,2020.2.10,Win32,60,61025ae37ef11b136ea224fe,,,,,,,,,60,90.40001279,49.5999943,1,0,0,response1disk,,6,14.40001166,3.999993622,1,0,0,rectangle,14.40001166,3.999993622,1,0,0,14.40001166,3.999993622,1,0,0,0,17,17,27,1,,,,,,,,
,,,,,,,,,,,,,FF,,,,,,,,1.4376,,,,,,,,,,,,,,,,,,,,,,610365491336a1f2766ae033,610369a0b6b0254c35327397,2021-07-30_03h53.59.485,Simcolourproject_2stim_asymm_v5,2020.2.10,Win32,60,61025ae37ef11b136ea224fe,,,,,,,,,1555,48.00001216,81.59999478,1,0,0,response1disk,,7,14.40001166,5.599993646,1,0,0,rectangle,14.40001166,5.599993646,1,0,0,14.40001166,5.599993646,1,0,0,0,18,18,109,1,,,,,,,,
,,,,,,,,,,,,,FF,,,,,,,,0.9115,,,,,,,,,,,,,,,,,,,,,,610365491336a1f2766ae033,610369a0b6b0254c35327397,2021-07-30_03h53.59.485,Simcolourproject_2stim_asymm_v5,2020.2.10,Win32,60,61025ae37ef11b136ea224fe,,,,,,,,,1894,-53.59998935,-81.60005648,1,0,0,response5disk,,3,-12.79998875,-4.800006509,1,0,0,rectangle,-12.79998875,-4.800006509,1,0,0,-12.79998875,-4.800006509,1,0,0,0,19,19,41,1,,,,,,,,
,,,,,,,,,,,,,FF,,,,,,,,0.9382,,,,,,,,,,,,,,,,,,,,,,610365491336a1f2766ae033,610369a0b6b0254c35327397,2021-07-30_03h53.59.485,Simcolourproject_2stim_asymm_v5,2020.2.10,Win32,60,61025ae37ef11b136ea224fe,,,,,,,,,3381,-66.39994072,41.59999418,1,0,0,response7disk,,1,-5.599988639,9.599993706,1,0,0,rectangle,-5.599988639,9.599993706,1,0,0,-5.599988639,9.599993706,1,0,0,0,20,20,67,1,,,,,,,,
,,,,,,,,,,,,,FF,,,,,,,,1.2853,,,,,,,,,,,,,,,,,,,,,,610365491336a1f2766ae033,610369a0b6b0254c35327397,2021-07-30_03h53.59.485,Simcolourproject_2stim_asymm_v5,2020.2.10,Win32,60,61025ae37ef11b136ea224fe,,,,,,,,,3702,76.00001258,-38.40000701,1,0,0,response3disk,,5,20.00001174,-1.600006461,1,0,0,rectangle,-36.7999891,-87.20000774,1,0,0,12.00001162,11.19999373,1,0,0,0,21,21,112,1,,response5disk_3,TRUE,3,3,"[74,166,110,183,22,200,238,212,124,212,174,263,54,308,64,171,122,88,311,11]",1.6184,rectangle
,,,,,,,,,,,,,FF,,,,,,,,2.9721,,,,,,,,,,,,,,,,,,,,,,610365491336a1f2766ae033,610369a0b6b0254c35327397,2021-07-30_03h53.59.485,Simcolourproject_2stim_asymm_v5,2020.2.10,Win32,60,61025ae37ef11b136ea224fe,,,,,,,,,2985,50.4000122,-87.20000774,1,0,0,response3disk,,4,1.600060296,-12.80000663,1,0,0,rectangle,1.600060296,-12.80000663,1,0,0,1.600060296,-12.80000663,1,0,0,0,22,22,42,1,,,,,,,,
,,,,,,,,,,,,,FF,,,,,,,,0.6035,,,,,,,,,,,,,,,,,,,,,,610365491336a1f2766ae033,610369a0b6b0254c35327397,2021-07-30_03h53.59.485,Simcolourproject_2stim_asymm_v5,2020.2.10,Win32,60,61025ae37ef11b136ea224fe,,,,,,,,,2761,107.200013,-43.20000708,1,0,0,response3disk,,5,2.40001148,7.999993682,1,0,0,rectangle,2.40001148,7.999993682,1,0,0,2.40001148,7.999993682,1,0,0,0,23,23,153,1,,,,,,,,
,,,,,,,,,,,,,FF,,,,,,,,0.9307,,,,,,,,,,,,,,,,,,,,,,610365491336a1f2766ae033,610369a0b6b0254c35327397,2021-07-30_03h53.59.485,Simcolourproject_2stim_asymm_v5,2020.2.10,Win32,60,61025ae37ef11b136ea224fe,,,,,,,,,1419,60.80001235,-33.60000694,1,0,0,response3disk,,5,-3.199988604,3.999993622,1,0,0,rectangle,-3.199988604,3.999993622,1,0,0,-3.199988604,3.999993622,1,0,0,0,24,24,7,1,,,,,,,,
,,,,,,,,,,,,,FF,,,,,,,,1.1668,,,,,,,,,,,,,,,,,,,,,,610365491336a1f2766ae033,610369a0b6b0254c35327397,2021-07-30_03h53.59.485,Simcolourproject_2stim_asymm_v5,2020.2.10,Win32,60,61025ae37ef11b136ea224fe,,,,,,,,,3915,37.60006083,-62.40000737,1,0,0,response3disk,,4,4.000011504,-6.4373E-06,1,0,0,rectangle,4.000011504,-6.4373E-06,1,0,0,4.000011504,-6.4373E-06,1,0,0,0,25,25,18,1,,,,,,,,
,,,,,,,,,,,,,FF,,,,,,,,0.7917,,,,,,,,,,,,,,,,,,,,,,610365491336a1f2766ae033,610369a0b6b0254c35327397,2021-07-30_03h53.59.485,Simcolourproject_2stim_asymm_v5,2020.2.10,Win32,60,61025ae37ef11b136ea224fe,,,,,,,,,3027,42.40001208,79.19997033,1,0,0,response1disk,,7,6.400011539,5.599993646,1,0,0,rectangle,6.400011539,5.599993646,1,0,0,6.400011539,5.599993646,1,0,0,0,26,26,14,1,,,,,,,,
,,,,,,,,,,,,,FF,,,,,,,,1.1738,,,,,,,,,,,,,,,,,,,,,,610365491336a1f2766ae033,610369a0b6b0254c35327397,2021-07-30_03h53.59.485,Simcolourproject_2stim_asymm_v5,2020.2.10,Win32,60,61025ae37ef11b136ea224fe,,,,,,,,,3672,23.20001179,-89.6000566,1,0,0,response3disk,,4,-3.999988616,2.399993598,1,0,0,rectangle,-3.999988616,2.399993598,1,0,0,-3.999988616,2.399993598,1,0,0,0,27,27,136,1,,,,,,,,
,,,,,,,,,,,,,FF,,,,,,,,0.6802,,,,,,,,,,,,,,,,,,,,,,610365491336a1f2766ae033,610369a0b6b0254c35327397,2021-07-30_03h53.59.485,Simcolourproject_2stim_asymm_v5,2020.2.10,Win32,60,61025ae37ef11b136ea224fe,,,,,,,,,1247,71.20001251,-19.20000672,1,0,0,response3disk,,5,20.80001175,9.599993706,1,0,0,rectangle,20.80001175,9.599993706,1,0,0,20.80001175,9.599993706,1,0,0,0,28,28,9,1,,,,,,,,
,,,,,,,,,,,,,FF,,,,,,,,0.9792,,,,,,,,,,,,,,,,,,,,,,610365491336a1f2766ae033,610369a0b6b0254c35327397,2021-07-30_03h53.59.485,Simcolourproject_2stim_asymm_v5,2020.2.10,Win32,60,61025ae37ef11b136ea224fe,,,,,,,,,4203,-32.79998904,-73.60000753,1,0,0,response5disk,,3,-19.19998884,-3.200006485,1,0,0,rectangle,-19.19998884,-3.200006485,1,0,0,-19.19998884,-3.200006485,1,0,0,0,29,29,87,1,,,,,,,,
,,,,,,,,,,,,,FF,,,,,,,,1.9653,,,,,,,,,,,,,,,,,,,,,,610365491336a1f2766ae033,610369a0b6b0254c35327397,2021-07-30_03h53.59.485,Simcolourproject_2stim_asymm_v5,2020.2.10,Win32,60,61025ae37ef11b136ea224fe,,,,,,,,,112,95.20001286,45.59999424,1,0,0,response1disk,,6,20.00001174,-14.40000665,1,0,0,rectangle,20.00001174,-14.40000665,1,0,0,20.00001174,-14.40000665,1,0,0,0,30,30,154,1,,,,,,,,
,,,,,,,,,,,,,FF,,,,,,,,0.8822,,,,,,,,,,,,,,,,,,,,,,610365491336a1f2766ae033,610369a0b6b0254c35327397,2021-07-30_03h53.59.485,Simcolourproject_2stim_asymm_v5,2020.2.10,Win32,60,61025ae37ef11b136ea224fe,,,,,,,,,2067,65.60001242,34.39999408,1,0,0,response1disk,,6,8.000011563,2.399993598,1,0,0,rectangle,8.000011563,2.399993598,1,0,0,8.000011563,2.399993598,1,0,0,0,31,31,138,1,,,,,,,,
,,,,,,,,,,,,,FF,,,,,,,,0.9516,,,,,,,,,,,,,,,,,,,,,,610365491336a1f2766ae033,610369a0b6b0254c35327397,2021-07-30_03h53.59.485,Simcolourproject_2stim_asymm_v5,2020.2.10,Win32,60,61025ae37ef11b136ea224fe,,,,,,,,,3827,65.60001242,-32.00000691,1,0,0,response3disk,,5,-3.999988616,-4.800006509,1,0,0,rectangle,-3.999988616,-4.800006509,1,0,0,-3.999988616,-4.800006509,1,0,0,0,32,32,1,1,,,,,,,,
,,,,,,,,,,,,,FF,,,,,,,,1.2219,,,,,,,,,,,,,,,,,,,,,,610365491336a1f2766ae033,610369a0b6b0254c35327397,2021-07-30_03h53.59.485,Simcolourproject_2stim_asymm_v5,2020.2.10,Win32,60,61025ae37ef11b136ea224fe,,,,,,,,,4101,46.40001214,75.19997027,1,0,0,response1disk,,7,12.00001162,2.399993598,1,0,0,rectangle,12.00001162,2.399993598,1,0,0,12.00001162,2.399993598,1,0,0,0,33,33,113,1,,,,,,,,
,,,,,,,,,,,,,FF,,,,,,,,2.9302,,,,,,,,,,,,,,,,,,,,,,610365491336a1f2766ae033,610369a0b6b0254c35327397,2021-07-30_03h53.59.485,Simcolourproject_2stim_asymm_v5,2020.2.10,Win32,60,61025ae37ef11b136ea224fe,,,,,,,,,2704,60.80001235,31.99999404,1,0,0,response1disk,,6,8.000011563,-4.000006497,1,0,0,rectangle,8.000011563,-4.000006497,1,0,0,8.000011563,-4.000006497,1,0,0,0,34,34,91,1,,,,,,,,
,,,,,,,,,,,,,FF,,,,,,,,0.5276,,,,,,,,,,,,,,,,,,,,,,610365491336a1f2766ae033,610369a0b6b0254c35327397,2021-07-30_03h53.59.485,Simcolourproject_2stim_asymm_v5,2020.2.10,Win32,60,61025ae37ef11b136ea224fe,,,,,,,,,2971,65.60001242,37.59999412,1,0,0,response1disk,,6,20.00001174,2.399993598,1,0,0,rectangle,20.00001174,2.399993598,1,0,0,20.00001174,2.399993598,1,0,0,0,35,35,124,1,,,,,,,,
,,,,,,,,,,,,,FF,,,,,,,,0.743,,,,,,,,,,,,,,,,,,,,,,610365491336a1f2766ae033,610369a0b6b0254c35327397,2021-07-30_03h53.59.485,Simcolourproject_2stim_asymm_v5,2020.2.10,Win32,60,61025ae37ef11b136ea224fe,,,,,,,,,938,28.80001187,72.79999465,1,0,0,response1disk,,7,8.800011575,-3.200006485,1,0,0,rectangle,8.800011575,-3.200006485,1,0,0,8.800011575,-3.200006485,1,0,0,0,36,36,149,1,,,,,,,,
,,,,,,,,,,,,,FF,,,,,,,,1.1881,,,,,,,,,,,,,,,,,,,,,,610365491336a1f2766ae033,610369a0b6b0254c35327397,2021-07-30_03h53.59.485,Simcolourproject_2stim_asymm_v5,2020.2.10,Win32,60,61025ae37ef11b136ea224fe,,,,,,,,,188,40.00001204,-67.20000744,1,0,0,response3disk,,4,10.4000116,-4.800006509,1,0,0,rectangle,10.4000116,-4.800006509,1,0,0,10.4000116,-4.800006509,1,0,0,0,37,37,39,1,,,,,,,,
,,,,,,,,,,,,,FF,,,,,,,,0.9445,,,,,,,,,,,,,,,,,,,,,,610365491336a1f2766ae033,610369a0b6b0254c35327397,2021-07-30_03h53.59.485,Simcolourproject_2stim_asymm_v5,2020.2.10,Win32,60,61025ae37ef11b136ea224fe,,,,,,,,,1515,54.40001225,27.99999398,1,0,0,response1disk,,6,20.00001174,-3.200006485,1,0,0,rectangle,20.00001174,-3.200006485,1,0,0,20.00001174,-3.200006485,1,0,0,0,38,38,55,1,,,,,,,,
,,,,,,,,,,,,,FF,,,,,,,,3.2084,,,,,,,,,,,,,,,,,,,,,,610365491336a1f2766ae033,610369a0b6b0254c35327397,2021-07-30_03h53.59.485,Simcolourproject_2stim_asymm_v5,2020.2.10,Win32,60,61025ae37ef11b136ea224fe,,,,,,,,,1855,56.00001228,-36.00000697,1,0,0,response3disk,,5,-3.999988616,-8.800006568,1,0,0,rectangle,-3.999988616,-8.800006568,1,0,0,-3.999988616,-8.800006568,1,0,0,0,39,39,80,1,,,,,,,,
,,,,,,,,,,,,,FF,,,,,,,,0.7868,,,,,,,,,,,,,,,,,,,,,,610365491336a1f2766ae033,610369a0b6b0254c35327397,2021-07-30_03h53.59.485,Simcolourproject_2stim_asymm_v5,2020.2.10,Win32,60,61025ae37ef11b136ea224fe,,,,,,,,,2471,40.00001204,115.9999953,1,0,0,response1disk,,7,1.600060296,8.799993694,1,0,0,rectangle,1.600060296,8.799993694,1,0,0,1.600060296,8.799993694,1,0,0,0,40,40,22,1,,,,,,,,
,,,,,,,,,,,,,FF,,,,,,,,0.7921,,,,,,,,,,,,,,,,,,,,,,610365491336a1f2766ae033,610369a0b6b0254c35327397,2021-07-30_03h53.59.485,Simcolourproject_2stim_asymm_v5,2020.2.10,Win32,60,61025ae37ef11b136ea224fe,,,,,,,,,2051,58.40001231,30.39999402,1,0,0,response1disk,,6,9.600060415,2.399993598,1,0,0,rectangle,9.600060415,2.399993598,1,0,0,9.600060415,2.399993598,1,0,0,0,41,41,34,1,,,,,,,,
,,,,,,,,,,,,,FF,,,,,,,,2.0484,,,,,,,,,,,,,,,,,,,,,,610365491336a1f2766ae033,610369a0b6b0254c35327397,2021-07-30_03h53.59.485,Simcolourproject_2stim_asymm_v5,2020.2.10,Win32,60,61025ae37ef11b136ea224fe,,,,,,,,,1735,-77.59998971,-24.80000681,1,0,0,response5disk,,2,-19.19998884,4.799993634,1,0,0,rectangle,-19.19998884,4.799993634,1,0,0,-19.19998884,4.799993634,1,0,0,0,42,42,43,1,,,,,,,,
,,,,,,,,,,,,,FF,,,,,,,,0.896,,,,,,,,,,,,,,,,,,,,,,610365491336a1f2766ae033,610369a0b6b0254c35327397,2021-07-30_03h53.59.485,Simcolourproject_2stim_asymm_v5,2020.2.10,Win32,60,61025ae37ef11b136ea224fe,,,,,,,,,771,89.60001278,35.19996967,1,0,0,response1disk,,6,12.80001163,1.599993587,1,0,0,rectangle,12.80001163,1.599993587,1,0,0,12.80001163,1.599993587,1,0,0,0,43,43,11,1,,,,,,,,
,,,,,,,,,,,,,FF,,,,,,,,0.8121,,,,,,,,,,,,,,,,,,,,,,610365491336a1f2766ae033,610369a0b6b0254c35327397,2021-07-30_03h53.59.485,Simcolourproject_2stim_asymm_v5,2020.2.10,Win32,60,61025ae37ef11b136ea224fe,,,,,,,,,3781,-55.99998939,-27.20000684,1,0,0,response5disk,,2,1.14441E-05,3.999993622,1,0,0,rectangle,1.14441E-05,3.999993622,1,0,0,1.14441E-05,3.999993622,1,0,0,0,44,44,16,1,,,,,,,,
,,,,,,,,,,,,,FF,,,,,,,,1.2571,,,,,,,,,,,,,,,,,,,,,,610365491336a1f2766ae033,610369a0b6b0254c35327397,2021-07-30_03h53.59.485,Simcolourproject_2stim_asymm_v5,2020.2.10,Win32,60,61025ae37ef11b136ea224fe,,,,,,,,,491,43.20001209,66.39999455,1,0,0,response1disk,,7,28.80001187,6.399993658,1,0,0,rectangle,28.80001187,6.399993658,1,0,0,28.80001187,6.399993658,1,0,0,0,45,45,61,1,,,,,,,,
,,,,,,,,,,,,,FF,,,,,,,,1.5209,,,,,,,,,,,,,,,,,,,,,,610365491336a1f2766ae033,610369a0b6b0254c35327397,2021-07-30_03h53.59.485,Simcolourproject_2stim_asymm_v5,2020.2.10,Win32,60,61025ae37ef11b136ea224fe,,,,,,,,,880,66.40001243,-38.40000701,1,0,0,response3disk,,5,32.00001192,-2.400006473,1,0,0,rectangle,32.00001192,-2.400006473,1,0,0,32.00001192,-2.400006473,1,0,0,0,46,46,131,1,,,,,,,,
,,,,,,,,,,,,,FF,,,,,,,,2.8754,,,,,,,,,,,,,,,,,,,,,,610365491336a1f2766ae033,610369a0b6b0254c35327397,2021-07-30_03h53.59.485,Simcolourproject_2stim_asymm_v5,2020.2.10,Win32,60,61025ae37ef11b136ea224fe,,,,,,,,,1480,74.40001255,37.59999412,1,0,0,response1disk,,6,20.80001175,10.39999372,1,0,0,rectangle,20.80001175,10.39999372,1,0,0,20.80001175,10.39999372,1,0,0,0,47,47,15,1,,,,,,,,
,,,,,,,,,,,,,FF,,,,,,,,0.6806,,,,,,,,,,,,,,,,,,,,,,610365491336a1f2766ae033,610369a0b6b0254c35327397,2021-07-30_03h53.59.485,Simcolourproject_2stim_asymm_v5,2020.2.10,Win32,60,61025ae37ef11b136ea224fe,,,,,,,,,2110,69.60001248,32.79999405,1,0,0,response1disk,,6,27.20001185,9.599993706,1,0,0,rectangle,27.20001185,9.599993706,1,0,0,27.20001185,9.599993706,1,0,0,0,48,48,144,1,,,,,,,,
,,,,,,,,,,,,,FF,,,,,,,,1.4728,,,,,,,,,,,,,,,,,,,,,,610365491336a1f2766ae033,610369a0b6b0254c35327397,2021-07-30_03h53.59.485,Simcolourproject_2stim_asymm_v5,2020.2.10,Win32,60,61025ae37ef11b136ea224fe,,,,,,,,,288,72.00001252,-49.60000718,1,0,0,response3disk,,5,13.60006047,-4.000006497,1,0,0,rectangle,13.60006047,-4.000006497,1,0,0,13.60006047,-4.000006497,1,0,0,0,49,49,48,1,,,,,,,,
,,,,,,,,,,,,,FF,,,,,,,,2.3752,,,,,,,,,,,,,,,,,,,,,,610365491336a1f2766ae033,610369a0b6b0254c35327397,2021-07-30_03h53.59.485,Simcolourproject_2stim_asymm_v5,2020.2.10,Win32,60,61025ae37ef11b136ea224fe,,,,,,,,,1837,90.40001279,-46.40000713,1,0,0,response3disk,,5,13.60006047,-7.200006545,1,0,0,rectangle,13.60006047,-7.200006545,1,0,0,13.60006047,-7.200006545,1,0,0,0,50,50,66,1,,,,,,,,
,,,,,,,,,,,,,FF,,,,,,,,0.7367,,,,,,,,,,,,,,,,,,,,,,610365491336a1f2766ae033,610369a0b6b0254c35327397,2021-07-30_03h53.59.485,Simcolourproject_2stim_asymm_v5,2020.2.10,Win32,60,61025ae37ef11b136ea224fe,,,,,,,,,201,56.80001229,-32.80000693,1,0,0,response3disk,,5,-17.59998882,12.79999375,1,0,0,rectangle,-17.59998882,12.79999375,1,0,0,-17.59998882,12.79999375,1,0,0,0,51,51,110,1,,,,,,,,
,,,,,,,,,,,,,FF,,,,,,,,1.9162,,,,,,,,,,,,,,,,,,,,,,610365491336a1f2766ae033,610369a0b6b0254c35327397,2021-07-30_03h53.59.485,Simcolourproject_2stim_asymm_v5,2020.2.10,Win32,60,61025ae37ef11b136ea224fe,,,,,,,,,4317,39.20001203,-61.60000736,1,0,0,response3disk,,4,11.20001161,-7.200006545,1,0,0,rectangle,11.20001161,-7.200006545,1,0,0,11.20001161,-7.200006545,1,0,0,0,52,52,23,1,,,,,,,,
,,,,,,,,,,,,,FF,,,,,,,,1.167,,,,,,,,,,,,,,,,,,,,,,610365491336a1f2766ae033,610369a0b6b0254c35327397,2021-07-30_03h53.59.485,Simcolourproject_2stim_asymm_v5,2020.2.10,Win32,60,61025ae37ef11b136ea224fe,,,,,,,,,155,72.00001252,41.59999418,1,0,0,response1disk,,6,22.40001178,14.39999378,1,0,0,rectangle,66.40001243,37.59999412,1,0,0,16.00001168,2.399993598,1,0,0,0,53,53,127,1,,response1disk_3,TRUE,6,6,"[74,166,110,183,22,200,238,212,124,212,174,263,54,308,64,171,122,88,311,11]",1.2156,rectangle
,,,,,,,,,,,,,FF,,,,,,,,2.986,,,,,,,,,,,,,,,,,,,,,,610365491336a1f2766ae033,610369a0b6b0254c35327397,2021-07-30_03h53.59.485,Simcolourproject_2stim_asymm_v5,2020.2.10,Win32,60,61025ae37ef11b136ea224fe,,,,,,,,,877,63.20001239,30.39999402,1,0,0,response1disk,,6,33.60006077,4.799993634,1,0,0,rectangle,33.60006077,4.799993634,1,0,0,33.60006077,4.799993634,1,0,0,0,54,54,111,1,,,,,,,,
,,,,,,,,,,,,,FF,,,,,,,,0.9511,,,,,,,,,,,,,,,,,,,,,,610365491336a1f2766ae033,610369a0b6b0254c35327397,2021-07-30_03h53.59.485,Simcolourproject_2stim_asymm_v5,2020.2.10,Win32,60,61025ae37ef11b136ea224fe,,,,,,,,,3667,32.80001193,87.19997045,1,0,0,response1disk,,7,0.800011456,7.19999367,1,0,0,rectangle,0.800011456,7.19999367,1,0,0,0.800011456,7.19999367,1,0,0,0,55,55,130,1,,,,,,,,
,,,,,,,,,,,,,FF,,,,,,,,0.5627,,,,,,,,,,,,,,,,,,,,,,610365491336a1f2766ae033,610369a0b6b0254c35327397,2021-07-30_03h53.59.485,Simcolourproject_2stim_asymm_v5,2020.2.10,Win32,60,61025ae37ef11b136ea224fe,,,,,,,,,2147,32.00001192,63.99999452,1,0,0,response1disk,,7,8.800011575,11.19999373,1,0,0,rectangle,8.800011575,11.19999373,1,0,0,8.800011575,11.19999373,1,0,0,0,56,56,118,1,,,,,,,,
,,,,,,,,,,,,,FF,,,,,,,,0.8262,,,,,,,,,,,,,,,,,,,,,,610365491336a1f2766ae033,610369a0b6b0254c35327397,2021-07-30_03h53.59.485,Simcolourproject_2stim_asymm_v5,2020.2.10,Win32,60,61025ae37ef11b136ea224fe,,,,,,,,,4229,84.0000127,39.99999416,1,0,0,response1disk,,6,13.60006047,-1.600006461,1,0,0,rectangle,13.60006047,-1.600006461,1,0,0,13.60006047,-1.600006461,1,0,0,0,57,57,32,1,,,,,,,,
,,,,,,,,,,,,,FF,,,,,,,,0.5625,,,,,,,,,,,,,,,,,,,,,,610365491336a1f2766ae033,610369a0b6b0254c35327397,2021-07-30_03h53.59.485,Simcolourproject_2stim_asymm_v5,2020.2.10,Win32,60,61025ae37ef11b136ea224fe,,,,,,,,,1185,22.40001178,60.79999447,1,0,0,response1disk,,7,-3.999988616,-3.200006485,1,0,0,rectangle,-3.999988616,-3.200006485,1,0,0,-3.999988616,-3.200006485,1,0,0,0,58,58,35,1,,,,,,,,
,,,,,,,,,,,,,FF,,,,,,,,0.7222,,,,,,,,,,,,,,,,,,,,,,610365491336a1f2766ae033,610369a0b6b0254c35327397,2021-07-30_03h53.59.485,Simcolourproject_2stim_asymm_v5,2020.2.10,Win32,60,61025ae37ef11b136ea224fe,,,,,,,,,2567,47.20001215,91.19997051,1,0,0,response1disk,,7,5.600060356,3.19999361,1,0,0,rectangle,5.600060356,3.19999361,1,0,0,5.600060356,3.19999361,1,0,0,0,59,59,86,1,,,,,,,,
,,,,,,,,,,,,,FF,,,,,,,,1.2012,,,,,,,,,,,,,,,,,,,,,,610365491336a1f2766ae033,610369a0b6b0254c35327397,2021-07-30_03h53.59.485,Simcolourproject_2stim_asymm_v5,2020.2.10,Win32,60,61025ae37ef11b136ea224fe,,,,,,,,,3693,68.80001247,-42.40000707,1,0,0,response3disk,,5,8.000011563,-8.800006568,1,0,0,rectangle,8.000011563,-8.800006568,1,0,0,8.000011563,-8.800006568,1,0,0,0,60,60,126,1,,,,,,,,
,,,,,,,,,,,,,FF,,,,,,,,1.5765,,,,,,,,,,,,,,,,,,,,,,610365491336a1f2766ae033,610369a0b6b0254c35327397,2021-07-30_03h53.59.485,Simcolourproject_2stim_asymm_v5,2020.2.10,Win32,60,61025ae37ef11b136ea224fe,,,,,,,,,1902,-35.19998908,-71.2000075,1,0,0,response5disk,,3,-8.799988687,-5.600006521,1,0,0,rectangle,-8.799988687,-5.600006521,1,0,0,-8.799988687,-5.600006521,1,0,0,0,61,61,147,1,,,,,,,,
,,,,,,,,,,,,,FF,,,,,,,,0.8472,,,,,,,,,,,,,,,,,,,,,,610365491336a1f2766ae033,610369a0b6b0254c35327397,2021-07-30_03h53.59.485,Simcolourproject_2stim_asymm_v5,2020.2.10,Win32,60,61025ae37ef11b136ea224fe,,,,,,,,,1178,59.20001233,40.79999417,1,0,0,response1disk,,6,3.200011492,0.799993575,1,0,0,rectangle,3.200011492,0.799993575,1,0,0,3.200011492,0.799993575,1,0,0,0,62,62,69,1,,,,,,,,
,,,,,,,,,,,,,FF,,,,,,,,1.4165,,,,,,,,,,,,,,,,,,,,,,610365491336a1f2766ae033,610369a0b6b0254c35327397,2021-07-30_03h53.59.485,Simcolourproject_2stim_asymm_v5,2020.2.10,Win32,60,61025ae37ef11b136ea224fe,,,,,,,,,3247,36.00001198,79.99999475,1,0,0,response1disk,,7,4.000011504,-4.000006497,1,0,0,rectangle,112.0000131,-44.8000071,1,0,0,-4.799988627,-6.400006533,1,0,0,0,63,63,72,1,,response3disk_3,TRUE,5,5,"[74,166,110,183,22,200,238,212,124,212,174,263,54,308,64,171,122,88,311,11]",1.7221,rectangle
,,,,,,,,,,,,,FF,,,,,,,,1.6043,,,,,,,,,,,,,,,,,,,,,,610365491336a1f2766ae033,610369a0b6b0254c35327397,2021-07-30_03h53.59.485,Simcolourproject_2stim_asymm_v5,2020.2.10,Win32,60,61025ae37ef11b136ea224fe,,,,,,,,,1093,27.20001185,-76.00000757,1,0,0,response3disk,,4,-21.59998888,5.599993646,1,0,0,rectangle,-21.59998888,5.599993646,1,0,0,-21.59998888,5.599993646,1,0,0,0,64,64,134,1,,,,,,,,
,,,,,,,,,,,,,FF,,,,,,,,1.2896,,,,,,,,,,,,,,,,,,,,,,610365491336a1f2766ae033,610369a0b6b0254c35327397,2021-07-30_03h53.59.485,Simcolourproject_2stim_asymm_v5,2020.2.10,Win32,60,61025ae37ef11b136ea224fe,,,,,,,,,1457,-34.39994024,-77.60000759,1,0,0,response5disk,,3,-8.799988687,6.399993658,1,0,0,rectangle,-8.799988687,6.399993658,1,0,0,-8.799988687,6.399993658,1,0,0,0,65,65,65,1,,,,,,,,
,,,,,,,,,,,,,FF,,,,,,,,2.2712,,,,,,,,,,,,,,,,,,,,,,610365491336a1f2766ae033,610369a0b6b0254c35327397,2021-07-30_03h53.59.485,Simcolourproject_2stim_asymm_v5,2020.2.10,Win32,60,61025ae37ef11b136ea224fe,,,,,,,,,681,47.20001215,-74.40000755,1,0,0,response3disk,,4,-3.999988616,7.999993682,1,0,0,rectangle,-3.999988616,7.999993682,1,0,0,-3.999988616,7.999993682,1,0,0,0,66,66,25,1,,,,,,,,
,,,,,,,,,,,,,FF,,,,,,,,1.3064,,,,,,,,,,,,,,,,,,,,,,610365491336a1f2766ae033,610369a0b6b0254c35327397,2021-07-30_03h53.59.485,Simcolourproject_2stim_asymm_v5,2020.2.10,Win32,60,61025ae37ef11b136ea224fe,,,,,,,,,650,72.00001252,-29.60000688,1,0,0,response3disk,,5,22.40001178,7.999993682,1,0,0,rectangle,22.40001178,7.999993682,1,0,0,22.40001178,7.999993682,1,0,0,0,67,67,96,1,,,,,,,,
,,,,,,,,,,,,,FF,,,,,,,,0.8048,,,,,,,,,,,,,,,,,,,,,,610365491336a1f2766ae033,610369a0b6b0254c35327397,2021-07-30_03h53.59.485,Simcolourproject_2stim_asymm_v5,2020.2.10,Win32,60,61025ae37ef11b136ea224fe,,,,,,,,,229,33.60006077,-68.00000745,1,0,0,response3disk,,4,-3.999988616,-8.800006568,1,0,0,rectangle,-3.999988616,-8.800006568,1,0,0,-3.999988616,-8.800006568,1,0,0,0,68,68,81,1,,,,,,,,
,,,,,,,,,,,,,FF,,,,,,,,0.9094,,,,,,,,,,,,,,,,,,,,,,610365491336a1f2766ae033,610369a0b6b0254c35327397,2021-07-30_03h53.59.485,Simcolourproject_2stim_asymm_v5,2020.2.10,Win32,60,61025ae37ef11b136ea224fe,,,,,,,,,3617,49.60006101,63.19997009,1,0,0,response1disk,,7,26.40001184,3.19999361,1,0,0,rectangle,26.40001184,3.19999361,1,0,0,26.40001184,3.19999361,1,0,0,0,69,69,64,1,,,,,,,,
,,,,,,,,,,,,,FF,,,,,,,,0.4303,,,,,,,,,,,,,,,,,,,,,,610365491336a1f2766ae033,610369a0b6b0254c35327397,2021-07-30_03h53.59.485,Simcolourproject_2stim_asymm_v5,2020.2.10,Win32,60,61025ae37ef11b136ea224fe,,,,,,,,,594,26.40001184,54.39999437,1,0,0,response1disk,,7,8.000011563,-8.800006568,1,0,0,rectangle,8.000011563,-8.800006568,1,0,0,8.000011563,-8.800006568,1,0,0,0,70,70,100,1,,,,,,,,
,,,,,,,,,,,,,FF,,,,,,,,0.6459,,,,,,,,,,,,,,,,,,,,,,610365491336a1f2766ae033,610369a0b6b0254c35327397,2021-07-30_03h53.59.485,Simcolourproject_2stim_asymm_v5,2020.2.10,Win32,60,61025ae37ef11b136ea224fe,,,,,,,,,606,33.60006077,53.59999436,1,0,0,response1disk,,7,11.20001161,5.599993646,1,0,0,rectangle,11.20001161,5.599993646,1,0,0,11.20001161,5.599993646,1,0,0,0,71,71,17,1,,,,,,,,
,,,,,,,,,,,,,FF,,,,,,,,1.0212,,,,,,,,,,,,,,,,,,,,,,610365491336a1f2766ae033,610369a0b6b0254c35327397,2021-07-30_03h53.59.485,Simcolourproject_2stim_asymm_v5,2020.2.10,Win32,60,61025ae37ef11b136ea224fe,,,,,,,,,2824,60.80001235,-36.00000697,1,0,0,response3disk,,5,12.80001163,2.399993598,1,0,0,rectangle,12.80001163,2.399993598,1,0,0,12.80001163,2.399993598,1,0,0,0,72,72,106,1,,,,,,,,
,,,,,,,,,,,,,FF,,,,,,,,1.6184,,,,,,,,,,,,,,,,,,,,,,610365491336a1f2766ae033,610369a0b6b0254c35327397,2021-07-30_03h53.59.485,Simcolourproject_2stim_asymm_v5,2020.2.10,Win32,60,61025ae37ef11b136ea224fe,,,,,,,,,1750,-94.39994113,-51.2000072,1,0,0,response5disk,,2,-31.19998902,-1.600006461,1,0,0,rectangle,-42.39994036,88.79999489,1,0,0,-4.799988627,-0.800006449,1,0,0,0,73,73,128,1,,response7disk_3,TRUE,0,0,"[74,166,110,183,22,200,238,212,124,212,174,263,54,308,64,171,122,88,311,11]",1.5625,rectangle
,,,,,,,,,,,,,FF,,,,,,,,1.1242,,,,,,,,,,,,,,,,,,,,,,610365491336a1f2766ae033,610369a0b6b0254c35327397,2021-07-30_03h53.59.485,Simcolourproject_2stim_asymm_v5,2020.2.10,Win32,60,61025ae37ef11b136ea224fe,,,,,,,,,3720,-25.59998894,-54.40000725,1,0,0,response5disk,,3,-3.999988616,3.19999361,1,0,0,rectangle,-3.999988616,3.19999361,1,0,0,-3.999988616,3.19999361,1,0,0,0,74,74,38,1,,,,,,,,
,,,,,,,,,,,,,FF,,,,,,,,0.6113,,,,,,,,,,,,,,,,,,,,,,610365491336a1f2766ae033,610369a0b6b0254c35327397,2021-07-30_03h53.59.485,Simcolourproject_2stim_asymm_v5,2020.2.10,Win32,60,61025ae37ef11b136ea224fe,,,,,,,,,480,61.60001236,-30.40000689,1,0,0,response3disk,,5,23.20001179,10.39999372,1,0,0,rectangle,23.20001179,10.39999372,1,0,0,23.20001179,10.39999372,1,0,0,0,75,75,97,1,,,,,,,,
,,,,,,,,,,,,,FF,,,,,,,,0.5553,,,,,,,,,,,,,,,,,,,,,,610365491336a1f2766ae033,610369a0b6b0254c35327397,2021-07-30_03h53.59.485,Simcolourproject_2stim_asymm_v5,2020.2.10,Win32,60,61025ae37ef11b136ea224fe,,,,,,,,,704,74.40001255,35.19996967,1,0,0,response1disk,,6,13.60006047,0.799993575,1,0,0,rectangle,13.60006047,0.799993575,1,0,0,13.60006047,0.799993575,1,0,0,0,76,76,21,1,,,,,,,,
,,,,,,,,,,,,,FF,,,,,,,,1.0901,,,,,,,,,,,,,,,,,,,,,,610365491336a1f2766ae033,610369a0b6b0254c35327397,2021-07-30_03h53.59.485,Simcolourproject_2stim_asymm_v5,2020.2.10,Win32,60,61025ae37ef11b136ea224fe,,,,,,,,,1996,20.00001174,61.59999448,1,0,0,response1disk,,7,1.600060296,3.999993622,1,0,0,rectangle,1.600060296,3.999993622,1,0,0,1.600060296,3.999993622,1,0,0,0,77,77,108,1,,,,,,,,
,,,,,,,,,,,,,FF,,,,,,,,0.971,,,,,,,,,,,,,,,,,,,,,,610365491336a1f2766ae033,610369a0b6b0254c35327397,2021-07-30_03h53.59.485,Simcolourproject_2stim_asymm_v5,2020.2.10,Win32,60,61025ae37ef11b136ea224fe,,,,,,,,,875,57.6000123,-33.60000694,1,0,0,response3disk,,5,27.20001185,10.39999372,1,0,0,rectangle,27.20001185,10.39999372,1,0,0,27.20001185,10.39999372,1,0,0,0,78,78,0,1,,,,,,,,
,,,,,,,,,,,,,FF,,,,,,,,1.2009,,,,,,,,,,,,,,,,,,,,,,610365491336a1f2766ae033,610369a0b6b0254c35327397,2021-07-30_03h53.59.485,Simcolourproject_2stim_asymm_v5,2020.2.10,Win32,60,61025ae37ef11b136ea224fe,,,,,,,,,1793,51.20001221,23.19996949,1,0,0,response1disk,,6,10.4000116,-6.400006533,1,0,0,rectangle,10.4000116,-6.400006533,1,0,0,10.4000116,-6.400006533,1,0,0,0,79,79,28,1,,,,,,,,
,,,,,,,,,,,,,FF,,,,,,,,1.5069,,,,,,,,,,,,,,,,,,,,,,610365491336a1f2766ae033,610369a0b6b0254c35327397,2021-07-30_03h53.59.485,Simcolourproject_2stim_asymm_v5,2020.2.10,Win32,60,61025ae37ef11b136ea224fe,,,,,,,,,13,63.20001239,-28.00000685,1,0,0,response3disk,,5,3.200011492,-6.400006533,1,0,0,rectangle,3.200011492,-6.400006533,1,0,0,3.200011492,-6.400006533,1,0,0,0,80,80,117,1,,,,,,,,
,,,,,,,,,,,,,FF,,,,,,,,0.7368,,,,,,,,,,,,,,,,,,,,,,610365491336a1f2766ae033,610369a0b6b0254c35327397,2021-07-30_03h53.59.485,Simcolourproject_2stim_asymm_v5,2020.2.10,Win32,60,61025ae37ef11b136ea224fe,,,,,,,,,3268,32.00001192,-67.20000744,1,0,0,response3disk,,4,2.40001148,-7.200006545,1,0,0,rectangle,2.40001148,-7.200006545,1,0,0,2.40001148,-7.200006545,1,0,0,0,81,81,58,1,,,,,,,,
,,,,,,,,,,,,,FF,,,,,,,,0.5717,,,,,,,,,,,,,,,,,,,,,,610365491336a1f2766ae033,610369a0b6b0254c35327397,2021-07-30_03h53.59.485,Simcolourproject_2stim_asymm_v5,2020.2.10,Win32,60,61025ae37ef11b136ea224fe,,,,,,,,,4142,19.20001173,-69.60000747,1,0,0,response3disk,,4,1.600060296,8.799993694,1,0,0,rectangle,1.600060296,8.799993694,1,0,0,1.600060296,8.799993694,1,0,0,0,82,82,116,1,,,,,,,,
,,,,,,,,,,,,,FF,,,,,,,,1.8127,,,,,,,,,,,,,,,,,,,,,,610365491336a1f2766ae033,610369a0b6b0254c35327397,2021-07-30_03h53.59.485,Simcolourproject_2stim_asymm_v5,2020.2.10,Win32,60,61025ae37ef11b136ea224fe,,,,,,,,,935,89.60001278,-21.60000676,1,0,0,response3disk,,5,-3.999988616,1.599993587,1,0,0,rectangle,-3.999988616,1.599993587,1,0,0,-3.999988616,1.599993587,1,0,0,0,83,83,150,1,,,,,,,,
,,,,,,,,,,,,,FF,,,,,,,,3.2157,,,,,,,,,,,,,,,,,,,,,,610365491336a1f2766ae033,610369a0b6b0254c35327397,2021-07-30_03h53.59.485,Simcolourproject_2stim_asymm_v5,2020.2.10,Win32,60,61025ae37ef11b136ea224fe,,,,,,,,,2879,45.60006095,-93.60005666,1,0,0,response3disk,,4,6.400011539,-6.4373E-06,1,0,0,rectangle,6.400011539,-6.4373E-06,1,0,0,6.400011539,-6.4373E-06,1,0,0,0,84,84,157,1,,,,,,,,
,,,,,,,,,,,,,FF,,,,,,,,2.6393,,,,,,,,,,,,,,,,,,,,,,610365491336a1f2766ae033,610369a0b6b0254c35327397,2021-07-30_03h53.59.485,Simcolourproject_2stim_asymm_v5,2020.2.10,Win32,60,61025ae37ef11b136ea224fe,,,,,,,,,209,92.00001281,-40.00000703,1,0,0,response3disk,,5,33.60006077,-0.800006449,1,0,0,rectangle,33.60006077,-0.800006449,1,0,0,33.60006077,-0.800006449,1,0,0,0,85,85,77,1,,,,,,,,
,,,,,,,,,,,,,FF,,,,,,,,4.167,,,,,,,,,,,,,,,,,,,,,,610365491336a1f2766ae033,610369a0b6b0254c35327397,2021-07-30_03h53.59.485,Simcolourproject_2stim_asymm_v5,2020.2.10,Win32,60,61025ae37ef11b136ea224fe,,,,,,,,,647,88.80001277,39.19996973,1,0,0,response1disk,,6,1.14441E-05,-7.200006545,1,0,0,rectangle,1.14441E-05,-7.200006545,1,0,0,1.14441E-05,-7.200006545,1,0,0,0,86,86,76,1,,,,,,,,
,,,,,,,,,,,,,FF,,,,,,,,0.8052,,,,,,,,,,,,,,,,,,,,,,610365491336a1f2766ae033,610369a0b6b0254c35327397,2021-07-30_03h53.59.485,Simcolourproject_2stim_asymm_v5,2020.2.10,Win32,60,61025ae37ef11b136ea224fe,,,,,,,,,1804,44.80001211,63.99999452,1,0,0,response1disk,,7,17.60006053,-1.600006461,1,0,0,rectangle,-89.59998989,32.79999405,1,0,0,6.400011539,-6.400006533,1,0,0,0,87,87,26,1,,response7disk_3,TRUE,1,1,"[74,166,110,183,22,200,238,212,124,212,174,263,54,308,64,171,122,88,311,11]",1.3201,rectangle
,,,,,,,,,,,,,FF,,,,,,,,0.9867,,,,,,,,,,,,,,,,,,,,,,610365491336a1f2766ae033,610369a0b6b0254c35327397,2021-07-30_03h53.59.485,Simcolourproject_2stim_asymm_v5,2020.2.10,Win32,60,61025ae37ef11b136ea224fe,,,,,,,,,3630,-39.99998915,88.79999489,1,0,0,response7disk,,0,12.00001162,-2.400006473,1,0,0,rectangle,12.00001162,-2.400006473,1,0,0,12.00001162,-2.400006473,1,0,0,0,88,88,2,1,,,,,,,,
,,,,,,,,,,,,,FF,,,,,,,,1.3193,,,,,,,,,,,,,,,,,,,,,,610365491336a1f2766ae033,610369a0b6b0254c35327397,2021-07-30_03h53.59.485,Simcolourproject_2stim_asymm_v5,2020.2.10,Win32,60,61025ae37ef11b136ea224fe,,,,,,,,,1541,32.80001193,-71.2000075,1,0,0,response3disk,,4,-3.199988604,-6.4373E-06,1,0,0,rectangle,-3.199988604,-6.4373E-06,1,0,0,-3.199988604,-6.4373E-06,1,0,0,0,89,89,115,1,,,,,,,,
,,,,,,,,,,,,,FF,,,,,,,,0.9167,,,,,,,,,,,,,,,,,,,,,,610365491336a1f2766ae033,610369a0b6b0254c35327397,2021-07-30_03h53.59.485,Simcolourproject_2stim_asymm_v5,2020.2.10,Win32,60,61025ae37ef11b136ea224fe,,,,,,,,,3629,24.80001181,47.99999428,1,0,0,response1disk,,7,12.00001162,3.999993622,1,0,0,rectangle,12.00001162,3.999993622,1,0,0,12.00001162,3.999993622,1,0,0,0,90,90,59,1,,,,,,,,
,,,,,,,,,,,,,FF,,,,,,,,1.5829,,,,,,,,,,,,,,,,,,,,,,610365491336a1f2766ae033,610369a0b6b0254c35327397,2021-07-30_03h53.59.485,Simcolourproject_2stim_asymm_v5,2020.2.10,Win32,60,61025ae37ef11b136ea224fe,,,,,,,,,2842,68.00001246,-39.20000702,1,0,0,response3disk,,5,4.000011504,-4.000006497,1,0,0,rectangle,4.000011504,-4.000006497,1,0,0,4.000011504,-4.000006497,1,0,0,0,91,91,3,1,,,,,,,,
,,,,,,,,,,,,,FF,,,,,,,,1.1039,,,,,,,,,,,,,,,,,,,,,,610365491336a1f2766ae033,610369a0b6b0254c35327397,2021-07-30_03h53.59.485,Simcolourproject_2stim_asymm_v5,2020.2.10,Win32,60,61025ae37ef11b136ea224fe,,,,,,,,,2465,36.80001199,61.59999448,1,0,0,response1disk,,7,18.40001172,5.599993646,1,0,0,rectangle,18.40001172,5.599993646,1,0,0,18.40001172,5.599993646,1,0,0,0,92,92,68,1,,,,,,,,
,,,,,,,,,,,,,FF,,,,,,,,2.4931,,,,,,,,,,,,,,,,,,,,,,610365491336a1f2766ae033,610369a0b6b0254c35327397,2021-07-30_03h53.59.485,Simcolourproject_2stim_asymm_v5,2020.2.10,Win32,60,61025ae37ef11b136ea224fe,,,,,,,,,2305,34.40001196,-77.60000759,1,0,0,response3disk,,4,-4.799988627,-8.800006568,1,0,0,rectangle,-4.799988627,-8.800006568,1,0,0,-4.799988627,-8.800006568,1,0,0,0,93,93,74,1,,,,,,,,
,,,,,,,,,,,,,FF,,,,,,,,0.8256,,,,,,,,,,,,,,,,,,,,,,610365491336a1f2766ae033,610369a0b6b0254c35327397,2021-07-30_03h53.59.485,Simcolourproject_2stim_asymm_v5,2020.2.10,Win32,60,61025ae37ef11b136ea224fe,,,,,,,,,2139,44.0000121,70.39999461,1,0,0,response1disk,,7,5.600060356,-9.60000658,1,0,0,rectangle,5.600060356,-9.60000658,1,0,0,5.600060356,-9.60000658,1,0,0,0,94,94,4,1,,,,,,,,
,,,,,,,,,,,,,FF,,,,,,,,1.4443,,,,,,,,,,,,,,,,,,,,,,610365491336a1f2766ae033,610369a0b6b0254c35327397,2021-07-30_03h53.59.485,Simcolourproject_2stim_asymm_v5,2020.2.10,Win32,60,61025ae37ef11b136ea224fe,,,,,,,,,3840,20.00001174,-65.60000741,1,0,0,response3disk,,4,-8.799988687,-6.4373E-06,1,0,0,rectangle,-8.799988687,-6.4373E-06,1,0,0,-8.799988687,-6.4373E-06,1,0,0,0,95,95,75,1,,,,,,,,
,,,,,,,,,,,,,FF,,,,,,,,0.4652,,,,,,,,,,,,,,,,,,,,,,610365491336a1f2766ae033,610369a0b6b0254c35327397,2021-07-30_03h53.59.485,Simcolourproject_2stim_asymm_v5,2020.2.10,Win32,60,61025ae37ef11b136ea224fe,,,,,,,,,4174,48.00001216,65.59999454,1,0,0,response1disk,,7,12.00001162,4.799993634,1,0,0,rectangle,12.00001162,4.799993634,1,0,0,12.00001162,4.799993634,1,0,0,0,96,96,105,1,,,,,,,,
,,,,,,,,,,,,,FF,,,,,,,,1.1737,,,,,,,,,,,,,,,,,,,,,,610365491336a1f2766ae033,610369a0b6b0254c35327397,2021-07-30_03h53.59.485,Simcolourproject_2stim_asymm_v5,2020.2.10,Win32,60,61025ae37ef11b136ea224fe,,,,,,,,,2959,26.40001184,87.19997045,1,0,0,response1disk,,7,12.00001162,-6.4373E-06,1,0,0,rectangle,12.00001162,-6.4373E-06,1,0,0,12.00001162,-6.4373E-06,1,0,0,0,97,97,104,1,,,,,,,,
,,,,,,,,,,,,,FF,,,,,,,,0.7306,,,,,,,,,,,,,,,,,,,,,,610365491336a1f2766ae033,610369a0b6b0254c35327397,2021-07-30_03h53.59.485,Simcolourproject_2stim_asymm_v5,2020.2.10,Win32,60,61025ae37ef11b136ea224fe,,,,,,,,,96,44.0000121,-73.60000753,1,0,0,response3disk,,4,-2.399939764,0.799993575,1,0,0,rectangle,-2.399939764,0.799993575,1,0,0,-2.399939764,0.799993575,1,0,0,0,98,98,145,1,,,,,,,,
,,,,,,,,,,,,,FF,,,,,,,,2.2846,,,,,,,,,,,,,,,,,,,,,,610365491336a1f2766ae033,610369a0b6b0254c35327397,2021-07-30_03h53.59.485,Simcolourproject_2stim_asymm_v5,2020.2.10,Win32,60,61025ae37ef11b136ea224fe,,,,,,,,,1940,76.00001258,-29.60000688,1,0,0,response3disk,,5,24.80001181,-1.600006461,1,0,0,rectangle,24.80001181,-1.600006461,1,0,0,24.80001181,-1.600006461,1,0,0,0,99,99,120,1,,,,,,,,
,,,,,,,,,,,,,FF,,,,,,,,1.4653,,,,,,,,,,,,,,,,,,,,,,610365491336a1f2766ae033,610369a0b6b0254c35327397,2021-07-30_03h53.59.485,Simcolourproject_2stim_asymm_v5,2020.2.10,Win32,60,61025ae37ef11b136ea224fe,,,,,,,,,984,44.80001211,-24.80000681,1,0,0,response3disk,,5,-7.199988663,-2.400006473,1,0,0,rectangle,-7.199988663,-2.400006473,1,0,0,-7.199988663,-2.400006473,1,0,0,0,100,100,156,1,,,,,,,,
,,,,,,,,,,,,,FF,,,,,,,,1.7081,,,,,,,,,,,,,,,,,,,,,,610365491336a1f2766ae033,610369a0b6b0254c35327397,2021-07-30_03h53.59.485,Simcolourproject_2stim_asymm_v5,2020.2.10,Win32,60,61025ae37ef11b136ea224fe,,,,,,,,,2218,-33.59998906,-57.6000073,1,0,0,response5disk,,3,-6.399939823,1.599993587,1,0,0,rectangle,-6.399939823,1.599993587,1,0,0,-6.399939823,1.599993587,1,0,0,0,101,101,142,1,,,,,,,,
,,,,,,,,,,,,,FF,,,,,,,,1.5909,,,,,,,,,,,,,,,,,,,,,,610365491336a1f2766ae033,610369a0b6b0254c35327397,2021-07-30_03h53.59.485,Simcolourproject_2stim_asymm_v5,2020.2.10,Win32,60,61025ae37ef11b136ea224fe,,,,,,,,,4075,-29.599989,-56.00000727,1,0,0,response5disk,,3,-15.19998878,-6.4373E-06,1,0,0,rectangle,-15.19998878,-6.4373E-06,1,0,0,-15.19998878,-6.4373E-06,1,0,0,0,102,102,90,1,,,,,,,,
,,,,,,,,,,,,,FF,,,,,,,,0.8193,,,,,,,,,,,,,,,,,,,,,,610365491336a1f2766ae033,610369a0b6b0254c35327397,2021-07-30_03h53.59.485,Simcolourproject_2stim_asymm_v5,2020.2.10,Win32,60,61025ae37ef11b136ea224fe,,,,,,,,,2735,-25.59998894,-55.20000726,1,0,0,response5disk,,3,1.14441E-05,8.799993694,1,0,0,rectangle,1.14441E-05,8.799993694,1,0,0,1.14441E-05,8.799993694,1,0,0,0,103,103,54,1,,,,,,,,
,,,,,,,,,,,,,FF,,,,,,,,0.8406,,,,,,,,,,,,,,,,,,,,,,610365491336a1f2766ae033,610369a0b6b0254c35327397,2021-07-30_03h53.59.485,Simcolourproject_2stim_asymm_v5,2020.2.10,Win32,60,61025ae37ef11b136ea224fe,,,,,,,,,868,70.40001249,-27.20000684,1,0,0,response3disk,,5,12.00001162,-2.400006473,1,0,0,rectangle,12.00001162,-2.400006473,1,0,0,12.00001162,-2.400006473,1,0,0,0,104,104,158,1,,,,,,,,
,,,,,,,,,,,,,FF,,,,,,,,0.7363,,,,,,,,,,,,,,,,,,,,,,610365491336a1f2766ae033,610369a0b6b0254c35327397,2021-07-30_03h53.59.485,Simcolourproject_2stim_asymm_v5,2020.2.10,Win32,60,61025ae37ef11b136ea224fe,,,,,,,,,993,66.40001243,43.99999422,1,0,0,response1disk,,6,-0.799988568,3.999993622,1,0,0,rectangle,-0.799988568,3.999993622,1,0,0,-0.799988568,3.999993622,1,0,0,0,105,105,152,1,,,,,,,,
,,,,,,,,,,,,,FF,,,,,,,,1.4429,,,,,,,,,,,,,,,,,,,,,,610365491336a1f2766ae033,610369a0b6b0254c35327397,2021-07-30_03h53.59.485,Simcolourproject_2stim_asymm_v5,2020.2.10,Win32,60,61025ae37ef11b136ea224fe,,,,,,,,,94,-89.59998989,31.99999404,1,0,0,response7disk,,1,-21.59998888,7.999993682,1,0,0,rectangle,-21.59998888,7.999993682,1,0,0,-21.59998888,7.999993682,1,0,0,0,106,106,133,1,,,,,,,,
,,,,,,,,,,,,,FF,,,,,,,,2.319,,,,,,,,,,,,,,,,,,,,,,610365491336a1f2766ae033,610369a0b6b0254c35327397,2021-07-30_03h53.59.485,Simcolourproject_2stim_asymm_v5,2020.2.10,Win32,60,61025ae37ef11b136ea224fe,,,,,,,,,184,33.60006077,63.19997009,1,0,0,response1disk,,7,12.80001163,9.599993706,1,0,0,rectangle,12.80001163,9.599993706,1,0,0,12.80001163,9.599993706,1,0,0,0,107,107,123,1,,,,,,,,
,,,,,,,,,,,,,FF,,,,,,,,0.924,,,,,,,,,,,,,,,,,,,,,,610365491336a1f2766ae033,610369a0b6b0254c35327397,2021-07-30_03h53.59.485,Simcolourproject_2stim_asymm_v5,2020.2.10,Win32,60,61025ae37ef11b136ea224fe,,,,,,,,,3197,-50.39994048,-27.20000684,1,0,0,response5disk,,2,-11.19998872,-7.200006545,1,0,0,rectangle,-11.19998872,-7.200006545,1,0,0,-11.19998872,-7.200006545,1,0,0,0,108,108,146,1,,,,,,,,
,,,,,,,,,,,,,FF,,,,,,,,0.8815,,,,,,,,,,,,,,,,,,,,,,610365491336a1f2766ae033,610369a0b6b0254c35327397,2021-07-30_03h53.59.485,Simcolourproject_2stim_asymm_v5,2020.2.10,Win32,60,61025ae37ef11b136ea224fe,,,,,,,,,693,-99.99999005,-28.80000687,1,0,0,response5disk,,2,-21.59998888,-0.800006449,1,0,0,rectangle,-71.99998963,40.79999417,1,0,0,1.14441E-05,2.399993598,1,0,0,0,109,109,33,1,,response7disk_3,TRUE,1,1,"[74,166,110,183,22,200,238,212,124,212,174,263,54,308,64,171,122,88,311,11]",1.0765,rectangle
,,,,,,,,,,,,,FF,,,,,,,,2.4099,,,,,,,,,,,,,,,,,,,,,,610365491336a1f2766ae033,610369a0b6b0254c35327397,2021-07-30_03h53.59.485,Simcolourproject_2stim_asymm_v5,2020.2.10,Win32,60,61025ae37ef11b136ea224fe,,,,,,,,,4030,-47.99998927,-61.60000736,1,0,0,response5disk,,3,-9.599988699,-7.200006545,1,0,0,rectangle,-9.599988699,-7.200006545,1,0,0,-9.599988699,-7.200006545,1,0,0,0,110,110,52,1,,,,,,,,
,,,,,,,,,,,,,FF,,,,,,,,1.2287,,,,,,,,,,,,,,,,,,,,,,610365491336a1f2766ae033,610369a0b6b0254c35327397,2021-07-30_03h53.59.485,Simcolourproject_2stim_asymm_v5,2020.2.10,Win32,60,61025ae37ef11b136ea224fe,,,,,,,,,3926,61.60001236,45.59999424,1,0,0,response1disk,,6,36.80001199,11.99999374,1,0,0,rectangle,36.80001199,11.99999374,1,0,0,36.80001199,11.99999374,1,0,0,0,111,111,45,1,,,,,,,,
,,,,,,,,,,,,,FF,,,,,,,,3.2853,,,,,,,,,,,,,,,,,,,,,,610365491336a1f2766ae033,610369a0b6b0254c35327397,2021-07-30_03h53.59.485,Simcolourproject_2stim_asymm_v5,2020.2.10,Win32,60,61025ae37ef11b136ea224fe,,,,,,,,,998,75.20001256,-46.40000713,1,0,0,response3disk,,5,17.60006053,-2.400006473,1,0,0,rectangle,17.60006053,-2.400006473,1,0,0,17.60006053,-2.400006473,1,0,0,0,112,112,50,1,,,,,,,,
,,,,,,,,,,,,,FF,,,,,,,,1.0201,,,,,,,,,,,,,,,,,,,,,,610365491336a1f2766ae033,610369a0b6b0254c35327397,2021-07-30_03h53.59.485,Simcolourproject_2stim_asymm_v5,2020.2.10,Win32,60,61025ae37ef11b136ea224fe,,,,,,,,,1929,18.40001172,68.79999459,1,0,0,response1disk,,7,5.600060356,3.999993622,1,0,0,rectangle,5.600060356,3.999993622,1,0,0,5.600060356,3.999993622,1,0,0,0,113,113,103,1,,,,,,,,
,,,,,,,,,,,,,FF,,,,,,,,0.8052,,,,,,,,,,,,,,,,,,,,,,610365491336a1f2766ae033,610369a0b6b0254c35327397,2021-07-30_03h53.59.485,Simcolourproject_2stim_asymm_v5,2020.2.10,Win32,60,61025ae37ef11b136ea224fe,,,,,,,,,2422,-31.19998902,-52.00000721,1,0,0,response5disk,,3,11.20001161,10.39999372,1,0,0,rectangle,11.20001161,10.39999372,1,0,0,11.20001161,10.39999372,1,0,0,0,114,114,137,1,,,,,,,,
,,,,,,,,,,,,,FF,,,,,,,,1.0485,,,,,,,,,,,,,,,,,,,,,,610365491336a1f2766ae033,610369a0b6b0254c35327397,2021-07-30_03h53.59.485,Simcolourproject_2stim_asymm_v5,2020.2.10,Win32,60,61025ae37ef11b136ea224fe,,,,,,,,,728,36.80001199,-59.20000732,1,0,0,response3disk,,4,28.80001187,-4.000006497,1,0,0,rectangle,28.80001187,-4.000006497,1,0,0,28.80001187,-4.000006497,1,0,0,0,115,115,44,1,,,,,,,,
,,,,,,,,,,,,,FF,,,,,,,,0.6961,,,,,,,,,,,,,,,,,,,,,,610365491336a1f2766ae033,610369a0b6b0254c35327397,2021-07-30_03h53.59.485,Simcolourproject_2stim_asymm_v5,2020.2.10,Win32,60,61025ae37ef11b136ea224fe,,,,,,,,,2264,29.60006071,-65.60000741,1,0,0,response3disk,,4,10.4000116,-5.600006521,1,0,0,rectangle,10.4000116,-5.600006521,1,0,0,10.4000116,-5.600006521,1,0,0,0,116,116,53,1,,,,,,,,
,,,,,,,,,,,,,FF,,,,,,,,0.9589,,,,,,,,,,,,,,,,,,,,,,610365491336a1f2766ae033,610369a0b6b0254c35327397,2021-07-30_03h53.59.485,Simcolourproject_2stim_asymm_v5,2020.2.10,Win32,60,61025ae37ef11b136ea224fe,,,,,,,,,1209,18.40001172,68.79999459,1,0,0,response1disk,,7,7.200011551,-6.4373E-06,1,0,0,rectangle,7.200011551,-6.4373E-06,1,0,0,7.200011551,-6.4373E-06,1,0,0,0,117,117,5,1,,,,,,,,
,,,,,,,,,,,,,FF,,,,,,,,0.7215,,,,,,,,,,,,,,,,,,,,,,610365491336a1f2766ae033,610369a0b6b0254c35327397,2021-07-30_03h53.59.485,Simcolourproject_2stim_asymm_v5,2020.2.10,Win32,60,61025ae37ef11b136ea224fe,,,,,,,,,1670,-28.79998899,80.79999477,1,0,0,response7disk,,0,2.40001148,10.39999372,1,0,0,rectangle,2.40001148,10.39999372,1,0,0,2.40001148,10.39999372,1,0,0,0,118,118,139,1,,,,,,,,
,,,,,,,,,,,,,FF,,,,,,,,2.1251,,,,,,,,,,,,,,,,,,,,,,610365491336a1f2766ae033,610369a0b6b0254c35327397,2021-07-30_03h53.59.485,Simcolourproject_2stim_asymm_v5,2020.2.10,Win32,60,61025ae37ef11b136ea224fe,,,,,,,,,3144,16.00001168,62.39999449,1,0,0,response1disk,,7,15.20001167,3.19999361,1,0,0,rectangle,15.20001167,3.19999361,1,0,0,15.20001167,3.19999361,1,0,0,0,119,119,107,1,,,,,,,,
,,,,,,,,,,,,,FF,,,,,,,,2.0698,,,,,,,,,,,,,,,,,,,,,,610365491336a1f2766ae033,610369a0b6b0254c35327397,2021-07-30_03h53.59.485,Simcolourproject_2stim_asymm_v5,2020.2.10,Win32,60,61025ae37ef11b136ea224fe,,,,,,,,,3377,32.80001193,46.39999425,1,0,0,response1disk,,7,17.60006053,11.99999374,1,0,0,rectangle,17.60006053,11.99999374,1,0,0,17.60006053,11.99999374,1,0,0,0,120,120,119,1,,,,,,,,
,,,,,,,,,,,,,FF,,,,,,,,0.8611,,,,,,,,,,,,,,,,,,,,,,610365491336a1f2766ae033,610369a0b6b0254c35327397,2021-07-30_03h53.59.485,Simcolourproject_2stim_asymm_v5,2020.2.10,Win32,60,61025ae37ef11b136ea224fe,,,,,,,,,2640,20.00001174,51.99999434,1,0,0,response1disk,,7,15.20001167,2.399993598,1,0,0,rectangle,-35.99998909,-90.40000778,1,0,0,1.600060296,7.19999367,1,0,0,0,121,121,24,1,,response5disk_3,TRUE,3,3,"[74,166,110,183,22,200,238,212,124,212,174,263,54,308,64,171,122,88,311,11]",1.9573,rectangle
,,,,,,,,,,,,,FF,,,,,,,,1.4578,,,,,,,,,,,,,,,,,,,,,,610365491336a1f2766ae033,610369a0b6b0254c35327397,2021-07-30_03h53.59.485,Simcolourproject_2stim_asymm_v5,2020.2.10,Win32,60,61025ae37ef11b136ea224fe,,,,,,,,,2545,40.80001205,-67.20000744,1,0,0,response3disk,,4,8.000011563,-9.60000658,1,0,0,rectangle,8.000011563,-9.60000658,1,0,0,8.000011563,-9.60000658,1,0,0,0,122,122,140,1,,,,,,,,
,,,,,,,,,,,,,FF,,,,,,,,1.5486,,,,,,,,,,,,,,,,,,,,,,610365491336a1f2766ae033,610369a0b6b0254c35327397,2021-07-30_03h53.59.485,Simcolourproject_2stim_asymm_v5,2020.2.10,Win32,60,61025ae37ef11b136ea224fe,,,,,,,,,3652,94.40001285,39.99999416,1,0,0,response1disk,,6,14.40001166,-12.00000662,1,0,0,rectangle,101.600013,51.99999434,1,0,0,5.600060356,11.99999374,1,0,0,0,123,123,148,1,,response1disk_3,TRUE,6,6,"[74,166,110,183,22,200,238,212,124,212,174,263,54,308,64,171,122,88,311,11]",1.9722,rectangle
,,,,,,,,,,,,,FF,,,,,,,,3.0274,,,,,,,,,,,,,,,,,,,,,,610365491336a1f2766ae033,610369a0b6b0254c35327397,2021-07-30_03h53.59.485,Simcolourproject_2stim_asymm_v5,2020.2.10,Win32,60,61025ae37ef11b136ea224fe,,,,,,,,,2982,82.40001267,-35.20000696,1,0,0,response3disk,,5,35.20001197,4.799993634,1,0,0,rectangle,35.20001197,4.799993634,1,0,0,35.20001197,4.799993634,1,0,0,0,124,124,40,1,,,,,,,,
,,,,,,,,,,,,,FF,,,,,,,,1.4859,,,,,,,,,,,,,,,,,,,,,,610365491336a1f2766ae033,610369a0b6b0254c35327397,2021-07-30_03h53.59.485,Simcolourproject_2stim_asymm_v5,2020.2.10,Win32,60,61025ae37ef11b136ea224fe,,,,,,,,,1907,-39.99998915,-79.20000762,1,0,0,response5disk,,3,-11.99998873,-7.200006545,1,0,0,rectangle,-11.99998873,-7.200006545,1,0,0,-11.99998873,-7.200006545,1,0,0,0,125,125,92,1,,,,,,,,
,,,,,,,,,,,,,FF,,,,,,,,1.4865,,,,,,,,,,,,,,,,,,,,,,610365491336a1f2766ae033,610369a0b6b0254c35327397,2021-07-30_03h53.59.485,Simcolourproject_2stim_asymm_v5,2020.2.10,Win32,60,61025ae37ef11b136ea224fe,,,,,,,,,228,34.40001196,-71.2000075,1,0,0,response3disk,,4,0.800011456,3.19999361,1,0,0,rectangle,0.800011456,3.19999361,1,0,0,0.800011456,3.19999361,1,0,0,0,126,126,79,1,,,,,,,,
,,,,,,,,,,,,,FF,,,,,,,,0.5486,,,,,,,,,,,,,,,,,,,,,,610365491336a1f2766ae033,610369a0b6b0254c35327397,2021-07-30_03h53.59.485,Simcolourproject_2stim_asymm_v5,2020.2.10,Win32,60,61025ae37ef11b136ea224fe,,,,,,,,,408,37.60006083,-65.60000741,1,0,0,response3disk,,4,6.400011539,-4.800006509,1,0,0,rectangle,6.400011539,-4.800006509,1,0,0,6.400011539,-4.800006509,1,0,0,0,127,127,63,1,,,,,,,,
,,,,,,,,,,,,,FF,,,,,,,,2.5355,,,,,,,,,,,,,,,,,,,,,,610365491336a1f2766ae033,610369a0b6b0254c35327397,2021-07-30_03h53.59.485,Simcolourproject_2stim_asymm_v5,2020.2.10,Win32,60,61025ae37ef11b136ea224fe,,,,,,,,,76,51.20001221,-74.40000755,1,0,0,response3disk,,4,29.60006071,7.19999367,1,0,0,rectangle,29.60006071,7.19999367,1,0,0,29.60006071,7.19999367,1,0,0,0,128,128,102,1,,,,,,,,
,,,,,,,,,,,,,FF,,,,,,,,1.4302,,,,,,,,,,,,,,,,,,,,,,610365491336a1f2766ae033,610369a0b6b0254c35327397,2021-07-30_03h53.59.485,Simcolourproject_2stim_asymm_v5,2020.2.10,Win32,60,61025ae37ef11b136ea224fe,,,,,,,,,1591,68.80001247,47.99999428,1,0,0,response1disk,,6,4.800011516,-2.400006473,1,0,0,rectangle,4.800011516,-2.400006473,1,0,0,4.800011516,-2.400006473,1,0,0,0,129,129,36,1,,,,,,,,
,,,,,,,,,,,,,FF,,,,,,,,0.8468,,,,,,,,,,,,,,,,,,,,,,610365491336a1f2766ae033,610369a0b6b0254c35327397,2021-07-30_03h53.59.485,Simcolourproject_2stim_asymm_v5,2020.2.10,Win32,60,61025ae37ef11b136ea224fe,,,,,,,,,1361,64.80001241,33.59999406,1,0,0,response1disk,,6,18.40001172,-6.400006533,1,0,0,rectangle,18.40001172,-6.400006533,1,0,0,18.40001172,-6.400006533,1,0,0,0,130,130,71,1,,,,,,,,
,,,,,,,,,,,,,FF,,,,,,,,1.4578,,,,,,,,,,,,,,,,,,,,,,610365491336a1f2766ae033,610369a0b6b0254c35327397,2021-07-30_03h53.59.485,Simcolourproject_2stim_asymm_v5,2020.2.10,Win32,60,61025ae37ef11b136ea224fe,,,,,,,,,3685,20.00001174,59.99999446,1,0,0,response1disk,,7,11.20001161,7.19999367,1,0,0,rectangle,11.20001161,7.19999367,1,0,0,11.20001161,7.19999367,1,0,0,0,131,131,121,1,,,,,,,,
,,,,,,,,,,,,,FF,,,,,,,,1.3748,,,,,,,,,,,,,,,,,,,,,,610365491336a1f2766ae033,610369a0b6b0254c35327397,2021-07-30_03h53.59.485,Simcolourproject_2stim_asymm_v5,2020.2.10,Win32,60,61025ae37ef11b136ea224fe,,,,,,,,,3787,-24.79998893,-81.60005648,1,0,0,response5disk,,3,8.800011575,1.599993587,1,0,0,rectangle,8.800011575,1.599993587,1,0,0,8.800011575,1.599993587,1,0,0,0,132,132,37,1,,,,,,,,
,,,,,,,,,,,,,FF,,,,,,,,0.9305,,,,,,,,,,,,,,,,,,,,,,610365491336a1f2766ae033,610369a0b6b0254c35327397,2021-07-30_03h53.59.485,Simcolourproject_2stim_asymm_v5,2020.2.10,Win32,60,61025ae37ef11b136ea224fe,,,,,,,,,256,-29.599989,-70.40000749,1,0,0,response5disk,,3,-13.59998876,-0.800006449,1,0,0,rectangle,-13.59998876,-0.800006449,1,0,0,-13.59998876,-0.800006449,1,0,0,0,133,133,82,1,,,,,,,,
,,,,,,,,,,,,,FF,,,,,,,,0.6661,,,,,,,,,,,,,,,,,,,,,,610365491336a1f2766ae033,610369a0b6b0254c35327397,2021-07-30_03h53.59.485,Simcolourproject_2stim_asymm_v5,2020.2.10,Win32,60,61025ae37ef11b136ea224fe,,,,,,,,,2790,-28.79998899,-64.8000074,1,0,0,response5disk,,3,-3.999988616,3.19999361,1,0,0,rectangle,-3.999988616,3.19999361,1,0,0,-3.999988616,3.19999361,1,0,0,0,134,134,94,1,,,,,,,,
,,,,,,,,,,,,,FF,,,,,,,,1.097,,,,,,,,,,,,,,,,,,,,,,610365491336a1f2766ae033,610369a0b6b0254c35327397,2021-07-30_03h53.59.485,Simcolourproject_2stim_asymm_v5,2020.2.10,Win32,60,61025ae37ef11b136ea224fe,,,,,,,,,2043,39.20001203,-60.80000734,1,0,0,response3disk,,4,15.20001167,-8.000006557,1,0,0,rectangle,15.20001167,-8.000006557,1,0,0,15.20001167,-8.000006557,1,0,0,0,135,135,135,1,,,,,,,,
,,,,,,,,,,,,,FF,,,,,,,,0.6667,,,,,,,,,,,,,,,,,,,,,,610365491336a1f2766ae033,610369a0b6b0254c35327397,2021-07-30_03h53.59.485,Simcolourproject_2stim_asymm_v5,2020.2.10,Win32,60,61025ae37ef11b136ea224fe,,,,,,,,,852,52.80001223,-34.40000695,1,0,0,response3disk,,5,12.00001162,-6.4373E-06,1,0,0,rectangle,12.00001162,-6.4373E-06,1,0,0,12.00001162,-6.4373E-06,1,0,0,0,136,136,101,1,,,,,,,,
,,,,,,,,,,,,,FF,,,,,,,,0.5001,,,,,,,,,,,,,,,,,,,,,,610365491336a1f2766ae033,610369a0b6b0254c35327397,2021-07-30_03h53.59.485,Simcolourproject_2stim_asymm_v5,2020.2.10,Win32,60,61025ae37ef11b136ea224fe,,,,,,,,,759,72.00001252,-31.2000069,1,0,0,response3disk,,5,6.400011539,7.19999367,1,0,0,rectangle,6.400011539,7.19999367,1,0,0,6.400011539,7.19999367,1,0,0,0,137,137,70,1,,,,,,,,
,,,,,,,,,,,,,FF,,,,,,,,3.2499,,,,,,,,,,,,,,,,,,,,,,610365491336a1f2766ae033,610369a0b6b0254c35327397,2021-07-30_03h53.59.485,Simcolourproject_2stim_asymm_v5,2020.2.10,Win32,60,61025ae37ef11b136ea224fe,,,,,,,,,528,44.0000121,-77.60000759,1,0,0,response3disk,,4,32.00001192,0.799993575,1,0,0,rectangle,32.00001192,0.799993575,1,0,0,32.00001192,0.799993575,1,0,0,0,138,138,159,1,,,,,,,,
,,,,,,,,,,,,,FF,,,,,,,,0.854,,,,,,,,,,,,,,,,,,,,,,610365491336a1f2766ae033,610369a0b6b0254c35327397,2021-07-30_03h53.59.485,Simcolourproject_2stim_asymm_v5,2020.2.10,Win32,60,61025ae37ef11b136ea224fe,,,,,,,,,1535,32.00001192,-60.00000733,1,0,0,response3disk,,4,21.60006059,-0.800006449,1,0,0,rectangle,21.60006059,-0.800006449,1,0,0,21.60006059,-0.800006449,1,0,0,0,139,139,49,1,,,,,,,,
,,,,,,,,,,,,,FF,,,,,,,,0.9516,,,,,,,,,,,,,,,,,,,,,,610365491336a1f2766ae033,610369a0b6b0254c35327397,2021-07-30_03h53.59.485,Simcolourproject_2stim_asymm_v5,2020.2.10,Win32,60,61025ae37ef11b136ea224fe,,,,,,,,,3279,96.00001287,43.19996979,1,0,0,response1disk,,6,23.20001179,0.799993575,1,0,0,rectangle,23.20001179,0.799993575,1,0,0,23.20001179,0.799993575,1,0,0,0,140,140,51,1,,,,,,,,
,,,,,,,,,,,,,FF,,,,,,,,0.854,,,,,,,,,,,,,,,,,,,,,,610365491336a1f2766ae033,610369a0b6b0254c35327397,2021-07-30_03h53.59.485,Simcolourproject_2stim_asymm_v5,2020.2.10,Win32,60,61025ae37ef11b136ea224fe,,,,,,,,,3168,54.40001225,31.99999404,1,0,0,response1disk,,6,18.40001172,-7.200006545,1,0,0,rectangle,18.40001172,-7.200006545,1,0,0,18.40001172,-7.200006545,1,0,0,0,141,141,10,1,,,,,,,,
,,,,,,,,,,,,,FF,,,,,,,,1.64,,,,,,,,,,,,,,,,,,,,,,610365491336a1f2766ae033,610369a0b6b0254c35327397,2021-07-30_03h53.59.485,Simcolourproject_2stim_asymm_v5,2020.2.10,Win32,60,61025ae37ef11b136ea224fe,,,,,,,,,2950,55.20001227,27.19996955,1,0,0,response1disk,,6,27.20001185,6.399993658,1,0,0,rectangle,27.20001185,6.399993658,1,0,0,27.20001185,6.399993658,1,0,0,0,142,142,13,1,,,,,,,,
,,,,,,,,,,,,,FF,,,,,,,,0.8128,,,,,,,,,,,,,,,,,,,,,,610365491336a1f2766ae033,610369a0b6b0254c35327397,2021-07-30_03h53.59.485,Simcolourproject_2stim_asymm_v5,2020.2.10,Win32,60,61025ae37ef11b136ea224fe,,,,,,,,,2072,59.20001233,22.3999939,1,0,0,response1disk,,6,20.00001174,11.99999374,1,0,0,rectangle,20.00001174,11.99999374,1,0,0,20.00001174,11.99999374,1,0,0,0,143,143,88,1,,,,,,,,
,,,,,,,,,,,,,FF,,,,,,,,0.8475,,,,,,,,,,,,,,,,,,,,,,610365491336a1f2766ae033,610369a0b6b0254c35327397,2021-07-30_03h53.59.485,Simcolourproject_2stim_asymm_v5,2020.2.10,Win32,60,61025ae37ef11b136ea224fe,,,,,,,,,3777,-31.99998903,-76.00000757,1,0,0,response5disk,,3,4.800011516,11.19999373,1,0,0,rectangle,4.800011516,11.19999373,1,0,0,4.800011516,11.19999373,1,0,0,0,144,144,98,1,,,,,,,,
,,,,,,,,,,,,,FF,,,,,,,,2.3617,,,,,,,,,,,,,,,,,,,,,,610365491336a1f2766ae033,610369a0b6b0254c35327397,2021-07-30_03h53.59.485,Simcolourproject_2stim_asymm_v5,2020.2.10,Win32,60,61025ae37ef11b136ea224fe,,,,,,,,,1106,99.20001292,-20.80000675,1,0,0,response3disk,,5,-11.19998872,-6.400006533,1,0,0,rectangle,-11.19998872,-6.400006533,1,0,0,-11.19998872,-6.400006533,1,0,0,0,145,145,125,1,,,,,,,,
,,,,,,,,,,,,,FF,,,,,,,,0.7708,,,,,,,,,,,,,,,,,,,,,,610365491336a1f2766ae033,610369a0b6b0254c35327397,2021-07-30_03h53.59.485,Simcolourproject_2stim_asymm_v5,2020.2.10,Win32,60,61025ae37ef11b136ea224fe,,,,,,,,,2412,78.40001261,-36.00000697,1,0,0,response3disk,,5,9.600060415,-2.400006473,1,0,0,rectangle,9.600060415,-2.400006473,1,0,0,9.600060415,-2.400006473,1,0,0,0,146,146,129,1,,,,,,,,
,,,,,,,,,,,,,FF,,,,,,,,0.7507,,,,,,,,,,,,,,,,,,,,,,610365491336a1f2766ae033,610369a0b6b0254c35327397,2021-07-30_03h53.59.485,Simcolourproject_2stim_asymm_v5,2020.2.10,Win32,60,61025ae37ef11b136ea224fe,,,,,,,,,932,48.80001217,75.9999947,1,0,0,response1disk,,7,-3.999988616,3.999993622,1,0,0,rectangle,-3.999988616,3.999993622,1,0,0,-3.999988616,3.999993622,1,0,0,0,147,147,114,1,,,,,,,,
,,,,,,,,,,,,,FF,,,,,,,,0.9396,,,,,,,,,,,,,,,,,,,,,,610365491336a1f2766ae033,610369a0b6b0254c35327397,2021-07-30_03h53.59.485,Simcolourproject_2stim_asymm_v5,2020.2.10,Win32,60,61025ae37ef11b136ea224fe,,,,,,,,,2720,44.80001211,-68.80000746,1,0,0,response3disk,,4,12.80001163,5.599993646,1,0,0,rectangle,12.80001163,5.599993646,1,0,0,12.80001163,5.599993646,1,0,0,0,148,148,99,1,,,,,,,,
,,,,,,,,,,,,,FF,,,,,,,,2.3825,,,,,,,,,,,,,,,,,,,,,,610365491336a1f2766ae033,610369a0b6b0254c35327397,2021-07-30_03h53.59.485,Simcolourproject_2stim_asymm_v5,2020.2.10,Win32,60,61025ae37ef11b136ea224fe,,,,,,,,,1427,58.40001231,43.19996979,1,0,0,response1disk,,6,10.4000116,7.19999367,1,0,0,rectangle,10.4000116,7.19999367,1,0,0,10.4000116,7.19999367,1,0,0,0,149,149,151,1,,,,,,,,
,,,,,,,,,,,,,FF,,,,,,,,1.0552,,,,,,,,,,,,,,,,,,,,,,610365491336a1f2766ae033,610369a0b6b0254c35327397,2021-07-30_03h53.59.485,Simcolourproject_2stim_asymm_v5,2020.2.10,Win32,60,61025ae37ef11b136ea224fe,,,,,,,,,2730,68.00001246,43.99999422,1,0,0,response1disk,,6,16.80001169,9.599993706,1,0,0,rectangle,16.80001169,9.599993706,1,0,0,16.80001169,9.599993706,1,0,0,0,150,150,56,1,,,,,,,,
,,,,,,,,,,,,,FF,,,,,,,,1.4093,,,,,,,,,,,,,,,,,,,,,,610365491336a1f2766ae033,610369a0b6b0254c35327397,2021-07-30_03h53.59.485,Simcolourproject_2stim_asymm_v5,2020.2.10,Win32,60,61025ae37ef11b136ea224fe,,,,,,,,,4250,33.60006077,76.79999471,1,0,0,response1disk,,7,4.000011504,5.599993646,1,0,0,rectangle,4.000011504,5.599993646,1,0,0,4.000011504,5.599993646,1,0,0,0,151,151,155,1,,,,,,,,
,,,,,,,,,,,,,FF,,,,,,,,1.4928,,,,,,,,,,,,,,,,,,,,,,610365491336a1f2766ae033,610369a0b6b0254c35327397,2021-07-30_03h53.59.485,Simcolourproject_2stim_asymm_v5,2020.2.10,Win32,60,61025ae37ef11b136ea224fe,,,,,,,,,354,-72.79998964,-52.00000721,1,0,0,response5disk,,2,2.40001148,3.999993622,1,0,0,rectangle,2.40001148,3.999993622,1,0,0,2.40001148,3.999993622,1,0,0,0,152,152,29,1,,,,,,,,
,,,,,,,,,,,,,FF,,,,,,,,0.7215,,,,,,,,,,,,,,,,,,,,,,610365491336a1f2766ae033,610369a0b6b0254c35327397,2021-07-30_03h53.59.485,Simcolourproject_2stim_asymm_v5,2020.2.10,Win32,60,61025ae37ef11b136ea224fe,,,,,,,,,2797,44.80001211,-74.40000755,1,0,0,response3disk,,4,11.20001161,-8.000006557,1,0,0,rectangle,11.20001161,-8.000006557,1,0,0,11.20001161,-8.000006557,1,0,0,0,153,153,122,1,,,,,,,,
,,,,,,,,,,,,,FF,,,,,,,,1.6668,,,,,,,,,,,,,,,,,,,,,,610365491336a1f2766ae033,610369a0b6b0254c35327397,2021-07-30_03h53.59.485,Simcolourproject_2stim_asymm_v5,2020.2.10,Win32,60,61025ae37ef11b136ea224fe,,,,,,,,,4023,74.40001255,-34.40000695,1,0,0,response3disk,,5,23.20001179,0.799993575,1,0,0,rectangle,23.20001179,0.799993575,1,0,0,23.20001179,0.799993575,1,0,0,0,154,154,78,1,,,,,,,,
,,,,,,,,,,,,,FF,,,,,,,,0.4993,,,,,,,,,,,,,,,,,,,,,,610365491336a1f2766ae033,610369a0b6b0254c35327397,2021-07-30_03h53.59.485,Simcolourproject_2stim_asymm_v5,2020.2.10,Win32,60,61025ae37ef11b136ea224fe,,,,,,,,,949,72.00001252,-40.00000703,1,0,0,response3disk,,5,-26.39994012,16.79999381,1,0,0,rectangle,-26.39994012,16.79999381,1,0,0,-26.39994012,16.79999381,1,0,0,0,155,155,84,1,,,,,,,,
,,,,,,,,,,,,,FF,,,,,,,,0.6598,,,,,,,,,,,,,,,,,,,,,,610365491336a1f2766ae033,610369a0b6b0254c35327397,2021-07-30_03h53.59.485,Simcolourproject_2stim_asymm_v5,2020.2.10,Win32,60,61025ae37ef11b136ea224fe,,,,,,,,,3815,-54.39994054,-68.00000745,1,0,0,response5disk,,3,-19.19998884,6.399993658,1,0,0,rectangle,-19.19998884,6.399993658,1,0,0,-19.19998884,6.399993658,1,0,0,0,156,156,30,1,,,,,,,,
,,,,,,,,,,,,,FF,,,,,,,,0.6044,,,,,,,,,,,,,,,,,,,,,,610365491336a1f2766ae033,610369a0b6b0254c35327397,2021-07-30_03h53.59.485,Simcolourproject_2stim_asymm_v5,2020.2.10,Win32,60,61025ae37ef11b136ea224fe,,,,,,,,,1465,-35.19998908,-68.80000746,1,0,0,response5disk,,3,-10.39993988,-6.4373E-06,1,0,0,rectangle,-10.39993988,-6.4373E-06,1,0,0,-10.39993988,-6.4373E-06,1,0,0,0,157,157,20,1,,,,,,,,
,,,,,,,,,,,,,FF,,,,,,,,0.7853,,,,,,,,,,,,,,,,,,,,,,610365491336a1f2766ae033,610369a0b6b0254c35327397,2021-07-30_03h53.59.485,Simcolourproject_2stim_asymm_v5,2020.2.10,Win32,60,61025ae37ef11b136ea224fe,,,,,,,,,3502,-36.7999891,-45.60000712,1,0,0,response5disk,,3,-1.59998858,11.19999373,1,0,0,rectangle,-1.59998858,11.19999373,1,0,0,-1.59998858,11.19999373,1,0,0,0,158,158,47,1,,,,,,,,
,,,,,,,,,,,,,FF,,,,,,,,1.0833,,,,,,,,,,,,,,,,,,,,,,610365491336a1f2766ae033,610369a0b6b0254c35327397,2021-07-30_03h53.59.485,Simcolourproject_2stim_asymm_v5,2020.2.10,Win32,60,61025ae37ef11b136ea224fe,,,,,,,,,3061,-63.99998951,-35.20000696,1,0,0,response5disk,,2,-15.19998878,-1.600006461,1,0,0,rectangle,-15.19998878,-1.600006461,1,0,0,-15.19998878,-1.600006461,1,0,0,0,159,159,8,1,,,,,,,,
,,,,,,,,,,,,,FF,,,,,,,,0.6597,,,,,,,,,,,,,,,,,,,,,,610365491336a1f2766ae033,610369a0b6b0254c35327397,2021-07-30_03h53.59.485,Simcolourproject_2stim_asymm_v5,2020.2.10,Win32,60,61025ae37ef11b136ea224fe,,,,,,,,,3464,98.40001291,-36.80000699,1,0,0,response3disk,,5,31.20001191,14.39999378,1,0,0,rectangle,31.20001191,14.39999378,1,0,0,31.20001191,14.39999378,1,0,0,1,0,160,107,1,,,,,,,,
,,,,,,,,,,,,,FF,,,,,,,,1.375,,,,,,,,,,,,,,,,,,,,,,610365491336a1f2766ae033,610369a0b6b0254c35327397,2021-07-30_03h53.59.485,Simcolourproject_2stim_asymm_v5,2020.2.10,Win32,60,61025ae37ef11b136ea224fe,,,,,,,,,4357,-98.39994119,48.79999429,1,0,0,response7disk,,1,-0.799988568,6.399993658,1,0,0,rectangle,-0.799988568,6.399993658,1,0,0,-0.799988568,6.399993658,1,0,0,1,1,161,131,1,,,,,,,,
,,,,,,,,,,,,,FF,,,,,,,,1.0075,,,,,,,,,,,,,,,,,,,,,,610365491336a1f2766ae033,610369a0b6b0254c35327397,2021-07-30_03h53.59.485,Simcolourproject_2stim_asymm_v5,2020.2.10,Win32,60,61025ae37ef11b136ea224fe,,,,,,,,,789,-77.59998971,-25.60000682,1,0,0,response5disk,,2,-0.799988568,1.599993587,1,0,0,rectangle,-0.799988568,1.599993587,1,0,0,-0.799988568,1.599993587,1,0,0,1,2,162,152,1,,,,,,,,
,,,,,,,,,,,,,FF,,,,,,,,0.8631,,,,,,,,,,,,,,,,,,,,,,610365491336a1f2766ae033,610369a0b6b0254c35327397,2021-07-30_03h53.59.485,Simcolourproject_2stim_asymm_v5,2020.2.10,Win32,60,61025ae37ef11b136ea224fe,,,,,,,,,1246,53.60001224,-87.20000774,1,0,0,response3disk,,4,-20.79998887,-7.200006545,1,0,0,rectangle,-20.79998887,-7.200006545,1,0,0,-20.79998887,-7.200006545,1,0,0,1,3,163,52,1,,,,,,,,
,,,,,,,,,,,,,FF,,,,,,,,0.7363,,,,,,,,,,,,,,,,,,,,,,610365491336a1f2766ae033,610369a0b6b0254c35327397,2021-07-30_03h53.59.485,Simcolourproject_2stim_asymm_v5,2020.2.10,Win32,60,61025ae37ef11b136ea224fe,,,,,,,,,92,33.60006077,65.59999454,1,0,0,response1disk,,7,4.800011516,11.19999373,1,0,0,rectangle,4.800011516,11.19999373,1,0,0,4.800011516,11.19999373,1,0,0,1,4,164,16,1,,,,,,,,
,,,,,,,,,,,,,FF,,,,,,,,1.3466,,,,,,,,,,,,,,,,,,,,,,610365491336a1f2766ae033,610369a0b6b0254c35327397,2021-07-30_03h53.59.485,Simcolourproject_2stim_asymm_v5,2020.2.10,Win32,60,61025ae37ef11b136ea224fe,,,,,,,,,2661,-89.59998989,27.19996955,1,0,0,response7disk,,1,24.0000118,0.799993575,1,0,0,rectangle,80.00001264,44.79999423,1,0,0,-7.999988675,11.19999373,1,0,0,1,5,165,14,1,,response1disk_3,TRUE,6,6,"[74,166,110,183,22,200,238,212,124,212,174,263,54,308,64,171,122,88,311,11]",1.091,rectangle
,,,,,,,,,,,,,FF,,,,,,,,0.9859,,,,,,,,,,,,,,,,,,,,,,610365491336a1f2766ae033,610369a0b6b0254c35327397,2021-07-30_03h53.59.485,Simcolourproject_2stim_asymm_v5,2020.2.10,Win32,60,61025ae37ef11b136ea224fe,,,,,,,,,1400,52.80001223,-36.00000697,1,0,0,response3disk,,5,-3.999988616,7.999993682,1,0,0,rectangle,-3.999988616,7.999993682,1,0,0,-3.999988616,7.999993682,1,0,0,1,6,166,11,1,,,,,,,,
,,,,,,,,,,,,,FF,,,,,,,,2.4853,,,,,,,,,,,,,,,,,,,,,,610365491336a1f2766ae033,610369a0b6b0254c35327397,2021-07-30_03h53.59.485,Simcolourproject_2stim_asymm_v5,2020.2.10,Win32,60,61025ae37ef11b136ea224fe,,,,,,,,,4034,72.80001253,35.9999941,1,0,0,response1disk,,6,23.20001179,-3.200006485,1,0,0,rectangle,23.20001179,-3.200006485,1,0,0,23.20001179,-3.200006485,1,0,0,1,7,167,43,1,,,,,,,,
,,,,,,,,,,,,,FF,,,,,,,,1.4525,,,,,,,,,,,,,,,,,,,,,,610365491336a1f2766ae033,610369a0b6b0254c35327397,2021-07-30_03h53.59.485,Simcolourproject_2stim_asymm_v5,2020.2.10,Win32,60,61025ae37ef11b136ea224fe,,,,,,,,,907,-85.59998983,-32.00000691,1,0,0,response5disk,,2,-12.79998875,-4.000006497,1,0,0,rectangle,-12.79998875,-4.000006497,1,0,0,-12.79998875,-4.000006497,1,0,0,1,8,168,50,1,,,,,,,,
,,,,,,,,,,,,,FF,,,,,,,,1.4376,,,,,,,,,,,,,,,,,,,,,,610365491336a1f2766ae033,610369a0b6b0254c35327397,2021-07-30_03h53.59.485,Simcolourproject_2stim_asymm_v5,2020.2.10,Win32,60,61025ae37ef11b136ea224fe,,,,,,,,,560,90.40001279,-31.2000069,1,0,0,response3disk,,5,-11.19998872,11.99999374,1,0,0,rectangle,-11.19998872,11.99999374,1,0,0,-11.19998872,11.99999374,1,0,0,1,9,169,31,1,,,,,,,,
,,,,,,,,,,,,,FF,,,,,,,,1.2586,,,,,,,,,,,,,,,,,,,,,,610365491336a1f2766ae033,610369a0b6b0254c35327397,2021-07-30_03h53.59.485,Simcolourproject_2stim_asymm_v5,2020.2.10,Win32,60,61025ae37ef11b136ea224fe,,,,,,,,,1353,50.4000122,-72.80000752,1,0,0,response3disk,,4,0.800011456,-5.600006521,1,0,0,rectangle,-32.79998904,-76.80000758,1,0,0,-3.199988604,-0.800006449,1,0,0,1,10,170,95,1,,response5disk_3,TRUE,3,3,"[74,166,110,183,22,200,238,212,124,212,174,263,54,308,64,171,122,88,311,11]",1.9995,rectangle
,,,,,,,,,,,,,FF,,,,,,,,0.8893,,,,,,,,,,,,,,,,,,,,,,610365491336a1f2766ae033,610369a0b6b0254c35327397,2021-07-30_03h53.59.485,Simcolourproject_2stim_asymm_v5,2020.2.10,Win32,60,61025ae37ef11b136ea224fe,,,,,,,,,3568,68.00001246,19.99999386,1,0,0,response1disk,,6,-1.59998858,2.399993598,1,0,0,rectangle,-1.59998858,2.399993598,1,0,0,-1.59998858,2.399993598,1,0,0,1,11,171,63,1,,,,,,,,
,,,,,,,,,,,,,FF,,,,,,,,1.0274,,,,,,,,,,,,,,,,,,,,,,610365491336a1f2766ae033,610369a0b6b0254c35327397,2021-07-30_03h53.59.485,Simcolourproject_2stim_asymm_v5,2020.2.10,Win32,60,61025ae37ef11b136ea224fe,,,,,,,,,3421,69.60001248,-24.80000681,1,0,0,response3disk,,5,-2.399939764,7.19999367,1,0,0,rectangle,-2.399939764,7.19999367,1,0,0,-2.399939764,7.19999367,1,0,0,1,12,172,49,1,,,,,,,,
,,,,,,,,,,,,,FF,,,,,,,,1.4169,,,,,,,,,,,,,,,,,,,,,,610365491336a1f2766ae033,610369a0b6b0254c35327397,2021-07-30_03h53.59.485,Simcolourproject_2stim_asymm_v5,2020.2.10,Win32,60,61025ae37ef11b136ea224fe,,,,,,,,,166,92.80001283,-38.40000701,1,0,0,response3disk,,5,1.14441E-05,1.599993587,1,0,0,rectangle,100.8000129,35.9999941,1,0,0,-10.39993988,6.399993658,1,0,0,1,13,173,37,1,,response1disk_3,TRUE,6,6,"[74,166,110,183,22,200,238,212,124,212,174,263,54,308,64,171,122,88,311,11]",1.2779,rectangle
,,,,,,,,,,,,,FF,,,,,,,,0.896,,,,,,,,,,,,,,,,,,,,,,610365491336a1f2766ae033,610369a0b6b0254c35327397,2021-07-30_03h53.59.485,Simcolourproject_2stim_asymm_v5,2020.2.10,Win32,60,61025ae37ef11b136ea224fe,,,,,,,,,1255,72.00001252,-34.40000695,1,0,0,response3disk,,5,3.200011492,1.599993587,1,0,0,rectangle,3.200011492,1.599993587,1,0,0,3.200011492,1.599993587,1,0,0,1,14,174,116,1,,,,,,,,
,,,,,,,,,,,,,FF,,,,,,,,0.8751,,,,,,,,,,,,,,,,,,,,,,610365491336a1f2766ae033,610369a0b6b0254c35327397,2021-07-30_03h53.59.485,Simcolourproject_2stim_asymm_v5,2020.2.10,Win32,60,61025ae37ef11b136ea224fe,,,,,,,,,1216,30.4000119,-73.60000753,1,0,0,response3disk,,4,1.14441E-05,9.599993706,1,0,0,rectangle,1.14441E-05,9.599993706,1,0,0,1.14441E-05,9.599993706,1,0,0,1,15,175,42,1,,,,,,,,
,,,,,,,,,,,,,FF,,,,,,,,0.8056,,,,,,,,,,,,,,,,,,,,,,610365491336a1f2766ae033,610369a0b6b0254c35327397,2021-07-30_03h53.59.485,Simcolourproject_2stim_asymm_v5,2020.2.10,Win32,60,61025ae37ef11b136ea224fe,,,,,,,,,1601,-29.599989,-56.00000727,1,0,0,response5disk,,3,-15.19998878,9.599993706,1,0,0,rectangle,-15.19998878,9.599993706,1,0,0,-15.19998878,9.599993706,1,0,0,1,16,176,140,1,,,,,,,,
,,,,,,,,,,,,,FF,,,,,,,,0.5503,,,,,,,,,,,,,,,,,,,,,,610365491336a1f2766ae033,610369a0b6b0254c35327397,2021-07-30_03h53.59.485,Simcolourproject_2stim_asymm_v5,2020.2.10,Win32,60,61025ae37ef11b136ea224fe,,,,,,,,,60,44.80001211,-24.00000679,1,0,0,response3disk,,5,9.600060415,16.79999381,1,0,0,rectangle,9.600060415,16.79999381,1,0,0,9.600060415,16.79999381,1,0,0,1,17,177,47,1,,,,,,,,
,,,,,,,,,,,,,FF,,,,,,,,0.791,,,,,,,,,,,,,,,,,,,,,,610365491336a1f2766ae033,610369a0b6b0254c35327397,2021-07-30_03h53.59.485,Simcolourproject_2stim_asymm_v5,2020.2.10,Win32,60,61025ae37ef11b136ea224fe,,,,,,,,,1555,104.000013,16.79999381,1,0,0,response1disk,,6,-17.59998882,7.19999367,1,0,0,rectangle,-17.59998882,7.19999367,1,0,0,-17.59998882,7.19999367,1,0,0,1,18,178,150,1,,,,,,,,
,,,,,,,,,,,,,FF,,,,,,,,0.5835,,,,,,,,,,,,,,,,,,,,,,610365491336a1f2766ae033,610369a0b6b0254c35327397,2021-07-30_03h53.59.485,Simcolourproject_2stim_asymm_v5,2020.2.10,Win32,60,61025ae37ef11b136ea224fe,,,,,,,,,1894,-28.79998899,-77.60000759,1,0,0,response5disk,,3,0.800011456,-4.000006497,1,0,0,rectangle,0.800011456,-4.000006497,1,0,0,0.800011456,-4.000006497,1,0,0,1,19,179,74,1,,,,,,,,
,,,,,,,,,,,,,FF,,,,,,,,0.7151,,,,,,,,,,,,,,,,,,,,,,610365491336a1f2766ae033,610369a0b6b0254c35327397,2021-07-30_03h53.59.485,Simcolourproject_2stim_asymm_v5,2020.2.10,Win32,60,61025ae37ef11b136ea224fe,,,,,,,,,3381,-85.59998983,47.19996985,1,0,0,response7disk,,1,-8.799988687,7.19999367,1,0,0,rectangle,-8.799988687,7.19999367,1,0,0,-8.799988687,7.19999367,1,0,0,1,20,180,86,1,,,,,,,,
,,,,,,,,,,,,,FF,,,,,,,,3.1679,,,,,,,,,,,,,,,,,,,,,,610365491336a1f2766ae033,610369a0b6b0254c35327397,2021-07-30_03h53.59.485,Simcolourproject_2stim_asymm_v5,2020.2.10,Win32,60,61025ae37ef11b136ea224fe,,,,,,,,,3702,20.80001175,83.19997039,1,0,0,response1disk,,7,-13.59998876,0.799993575,1,0,0,rectangle,-13.59998876,0.799993575,1,0,0,-13.59998876,0.799993575,1,0,0,1,21,181,122,1,,,,,,,,
,,,,,,,,,,,,,FF,,,,,,,,0.9302,,,,,,,,,,,,,,,,,,,,,,610365491336a1f2766ae033,610369a0b6b0254c35327397,2021-07-30_03h53.59.485,Simcolourproject_2stim_asymm_v5,2020.2.10,Win32,60,61025ae37ef11b136ea224fe,,,,,,,,,2985,23.20001179,-64.00000739,1,0,0,response3disk,,4,-1.59998858,-16.00000668,1,0,0,rectangle,76.00001258,23.19996949,1,0,0,1.600060296,3.999993622,1,0,0,1,22,182,25,1,,response1disk_3,TRUE,6,6,"[74,166,110,183,22,200,238,212,124,212,174,263,54,308,64,171,122,88,311,11]",1.6595,rectangle
,,,,,,,,,,,,,FF,,,,,,,,0.7155,,,,,,,,,,,,,,,,,,,,,,610365491336a1f2766ae033,610369a0b6b0254c35327397,2021-07-30_03h53.59.485,Simcolourproject_2stim_asymm_v5,2020.2.10,Win32,60,61025ae37ef11b136ea224fe,,,,,,,,,2761,99.20001292,-43.20000708,1,0,0,response3disk,,5,19.20001173,-6.400006533,1,0,0,rectangle,19.20001173,-6.400006533,1,0,0,19.20001173,-6.400006533,1,0,0,1,23,183,120,1,,,,,,,,
,,,,,,,,,,,,,FF,,,,,,,,0.5627,,,,,,,,,,,,,,,,,,,,,,610365491336a1f2766ae033,610369a0b6b0254c35327397,2021-07-30_03h53.59.485,Simcolourproject_2stim_asymm_v5,2020.2.10,Win32,60,61025ae37ef11b136ea224fe,,,,,,,,,1419,81.60001266,46.39999425,1,0,0,response1disk,,6,2.40001148,-0.800006449,1,0,0,rectangle,2.40001148,-0.800006449,1,0,0,2.40001148,-0.800006449,1,0,0,1,24,184,156,1,,,,,,,,
,,,,,,,,,,,,,FF,,,,,,,,0.6875,,,,,,,,,,,,,,,,,,,,,,610365491336a1f2766ae033,610369a0b6b0254c35327397,2021-07-30_03h53.59.485,Simcolourproject_2stim_asymm_v5,2020.2.10,Win32,60,61025ae37ef11b136ea224fe,,,,,,,,,3915,40.80001205,-69.60000747,1,0,0,response3disk,,4,14.40001166,-2.400006473,1,0,0,rectangle,14.40001166,-2.400006473,1,0,0,14.40001166,-2.400006473,1,0,0,1,25,185,123,1,,,,,,,,
,,,,,,,,,,,,,FF,,,,,,,,0.5285,,,,,,,,,,,,,,,,,,,,,,610365491336a1f2766ae033,610369a0b6b0254c35327397,2021-07-30_03h53.59.485,Simcolourproject_2stim_asymm_v5,2020.2.10,Win32,60,61025ae37ef11b136ea224fe,,,,,,,,,3027,38.40001202,67.99999458,1,0,0,response1disk,,7,-9.599988699,-4.800006509,1,0,0,rectangle,-9.599988699,-4.800006509,1,0,0,-9.599988699,-4.800006509,1,0,0,1,26,186,26,1,,,,,,,,
,,,,,,,,,,,,,FF,,,,,,,,0.7013,,,,,,,,,,,,,,,,,,,,,,610365491336a1f2766ae033,610369a0b6b0254c35327397,2021-07-30_03h53.59.485,Simcolourproject_2stim_asymm_v5,2020.2.10,Win32,60,61025ae37ef11b136ea224fe,,,,,,,,,3672,-39.19998914,-62.40000737,1,0,0,response5disk,,3,-15.99998879,-5.600006521,1,0,0,rectangle,-15.99998879,-5.600006521,1,0,0,-15.99998879,-5.600006521,1,0,0,1,27,187,158,1,,,,,,,,
,,,,,,,,,,,,,FF,,,,,,,,1.4027,,,,,,,,,,,,,,,,,,,,,,610365491336a1f2766ae033,610369a0b6b0254c35327397,2021-07-30_03h53.59.485,Simcolourproject_2stim_asymm_v5,2020.2.10,Win32,60,61025ae37ef11b136ea224fe,,,,,,,,,1247,83.20001268,-32.00000691,1,0,0,response3disk,,5,1.14441E-05,-0.800006449,1,0,0,rectangle,1.14441E-05,-0.800006449,1,0,0,1.14441E-05,-0.800006449,1,0,0,1,28,188,10,1,,,,,,,,
,,,,,,,,,,,,,FF,,,,,,,,1.305,,,,,,,,,,,,,,,,,,,,,,610365491336a1f2766ae033,610369a0b6b0254c35327397,2021-07-30_03h53.59.485,Simcolourproject_2stim_asymm_v5,2020.2.10,Win32,60,61025ae37ef11b136ea224fe,,,,,,,,,4203,-23.99998891,-58.40000731,1,0,0,response5disk,,3,10.4000116,7.999993682,1,0,0,rectangle,10.4000116,7.999993682,1,0,0,10.4000116,7.999993682,1,0,0,1,29,189,30,1,,,,,,,,
,,,,,,,,,,,,,FF,,,,,,,,0.8463,,,,,,,,,,,,,,,,,,,,,,610365491336a1f2766ae033,610369a0b6b0254c35327397,2021-07-30_03h53.59.485,Simcolourproject_2stim_asymm_v5,2020.2.10,Win32,60,61025ae37ef11b136ea224fe,,,,,,,,,112,65.60001242,39.19996973,1,0,0,response1disk,,6,16.00001168,4.799993634,1,0,0,rectangle,16.00001168,4.799993634,1,0,0,16.00001168,4.799993634,1,0,0,1,30,190,45,1,,,,,,,,
,,,,,,,,,,,,,FF,,,,,,,,1.5974,,,,,,,,,,,,,,,,,,,,,,610365491336a1f2766ae033,610369a0b6b0254c35327397,2021-07-30_03h53.59.485,Simcolourproject_2stim_asymm_v5,2020.2.10,Win32,60,61025ae37ef11b136ea224fe,,,,,,,,,2067,76.00001258,-50.40000719,1,0,0,response3disk,,5,-4.799988627,-2.400006473,1,0,0,rectangle,-4.799988627,-2.400006473,1,0,0,-4.799988627,-2.400006473,1,0,0,1,31,191,138,1,,,,,,,,
,,,,,,,,,,,,,FF,,,,,,,,2.0207,,,,,,,,,,,,,,,,,,,,,,610365491336a1f2766ae033,610369a0b6b0254c35327397,2021-07-30_03h53.59.485,Simcolourproject_2stim_asymm_v5,2020.2.10,Win32,60,61025ae37ef11b136ea224fe,,,,,,,,,3827,108.8000131,31.99999404,1,0,0,response1disk,,6,-3.999988616,-7.200006545,1,0,0,rectangle,-3.999988616,-7.200006545,1,0,0,-3.999988616,-7.200006545,1,0,0,1,32,192,157,1,,,,,,,,
,,,,,,,,,,,,,FF,,,,,,,,0.849,,,,,,,,,,,,,,,,,,,,,,610365491336a1f2766ae033,610369a0b6b0254c35327397,2021-07-30_03h53.59.485,Simcolourproject_2stim_asymm_v5,2020.2.10,Win32,60,61025ae37ef11b136ea224fe,,,,,,,,,4101,22.40001178,-77.60000759,1,0,0,response3disk,,4,4.000011504,10.39999372,1,0,0,rectangle,4.000011504,10.39999372,1,0,0,4.000011504,10.39999372,1,0,0,1,33,193,97,1,,,,,,,,
,,,,,,,,,,,,,FF,,,,,,,,0.722,,,,,,,,,,,,,,,,,,,,,,610365491336a1f2766ae033,610369a0b6b0254c35327397,2021-07-30_03h53.59.485,Simcolourproject_2stim_asymm_v5,2020.2.10,Win32,60,61025ae37ef11b136ea224fe,,,,,,,,,2704,72.00001252,-32.80000693,1,0,0,response3disk,,5,16.00001168,4.799993634,1,0,0,rectangle,16.00001168,4.799993634,1,0,0,16.00001168,4.799993634,1,0,0,1,34,194,155,1,,,,,,,,
,,,,,,,,,,,,,FF,,,,,,,,0.6392,,,,,,,,,,,,,,,,,,,,,,610365491336a1f2766ae033,610369a0b6b0254c35327397,2021-07-30_03h53.59.485,Simcolourproject_2stim_asymm_v5,2020.2.10,Win32,60,61025ae37ef11b136ea224fe,,,,,,,,,2971,32.80001193,59.19997003,1,0,0,response1disk,,7,-22.39994006,-16.00000668,1,0,0,rectangle,-22.39994006,-16.00000668,1,0,0,-22.39994006,-16.00000668,1,0,0,1,35,195,79,1,,,,,,,,
,,,,,,,,,,,,,FF,,,,,,,,0.4646,,,,,,,,,,,,,,,,,,,,,,610365491336a1f2766ae033,610369a0b6b0254c35327397,2021-07-30_03h53.59.485,Simcolourproject_2stim_asymm_v5,2020.2.10,Win32,60,61025ae37ef11b136ea224fe,,,,,,,,,938,20.00001174,51.99999434,1,0,0,response1disk,,7,8.800011575,14.39999378,1,0,0,rectangle,8.800011575,14.39999378,1,0,0,8.800011575,14.39999378,1,0,0,1,36,196,106,1,,,,,,,,
,,,,,,,,,,,,,FF,,,,,,,,0.7846,,,,,,,,,,,,,,,,,,,,,,610365491336a1f2766ae033,610369a0b6b0254c35327397,2021-07-30_03h53.59.485,Simcolourproject_2stim_asymm_v5,2020.2.10,Win32,60,61025ae37ef11b136ea224fe,,,,,,,,,188,-44.79998922,-84.8000077,1,0,0,response5disk,,3,-1.59998858,12.79999375,1,0,0,rectangle,-1.59998858,12.79999375,1,0,0,-1.59998858,12.79999375,1,0,0,1,37,197,48,1,,,,,,,,
,,,,,,,,,,,,,FF,,,,,,,,1.0555,,,,,,,,,,,,,,,,,,,,,,610365491336a1f2766ae033,610369a0b6b0254c35327397,2021-07-30_03h53.59.485,Simcolourproject_2stim_asymm_v5,2020.2.10,Win32,60,61025ae37ef11b136ea224fe,,,,,,,,,1515,84.80001271,36.79999411,1,0,0,response1disk,,6,28.00001186,0.799993575,1,0,0,rectangle,28.00001186,0.799993575,1,0,0,28.00001186,0.799993575,1,0,0,1,38,198,66,1,,,,,,,,
,,,,,,,,,,,,,FF,,,,,,,,0.5764,,,,,,,,,,,,,,,,,,,,,,610365491336a1f2766ae033,610369a0b6b0254c35327397,2021-07-30_03h53.59.485,Simcolourproject_2stim_asymm_v5,2020.2.10,Win32,60,61025ae37ef11b136ea224fe,,,,,,,,,1855,70.40001249,27.99999398,1,0,0,response1disk,,6,32.80001193,-3.200006485,1,0,0,rectangle,31.20001191,62.39999449,1,0,0,-0.799988568,10.39999372,1,0,0,1,39,199,39,1,,response1disk_3,TRUE,7,7,"[74,166,110,183,22,200,238,212,124,212,174,263,54,308,64,171,122,88,311,11]",1.3611,rectangle
,,,,,,,,,,,,,FF,,,,,,,,0.6663,,,,,,,,,,,,,,,,,,,,,,610365491336a1f2766ae033,610369a0b6b0254c35327397,2021-07-30_03h53.59.485,Simcolourproject_2stim_asymm_v5,2020.2.10,Win32,60,61025ae37ef11b136ea224fe,,,,,,,,,2471,48.00001216,69.5999946,1,0,0,response1disk,,7,1.14441E-05,-3.200006485,1,0,0,rectangle,1.14441E-05,-3.200006485,1,0,0,1.14441E-05,-3.200006485,1,0,0,1,40,200,75,1,,,,,,,,
,,,,,,,,,,,,,FF,,,,,,,,1.1175,,,,,,,,,,,,,,,,,,,,,,610365491336a1f2766ae033,610369a0b6b0254c35327397,2021-07-30_03h53.59.485,Simcolourproject_2stim_asymm_v5,2020.2.10,Win32,60,61025ae37ef11b136ea224fe,,,,,,,,,2051,24.0000118,41.59999418,1,0,0,response1disk,,7,-2.399939764,0.799993575,1,0,0,rectangle,-2.399939764,0.799993575,1,0,0,-2.399939764,0.799993575,1,0,0,1,41,201,36,1,,,,,,,,
,,,,,,,,,,,,,FF,,,,,,,,1.1463,,,,,,,,,,,,,,,,,,,,,,610365491336a1f2766ae033,610369a0b6b0254c35327397,2021-07-30_03h53.59.485,Simcolourproject_2stim_asymm_v5,2020.2.10,Win32,60,61025ae37ef11b136ea224fe,,,,,,,,,1735,-22.39994006,-68.00000745,1,0,0,response5disk,,3,1.14441E-05,-8.800006568,1,0,0,rectangle,1.14441E-05,-8.800006568,1,0,0,1.14441E-05,-8.800006568,1,0,0,1,42,202,141,1,,,,,,,,
,,,,,,,,,,,,,FF,,,,,,,,1.3399,,,,,,,,,,,,,,,,,,,,,,610365491336a1f2766ae033,610369a0b6b0254c35327397,2021-07-30_03h53.59.485,Simcolourproject_2stim_asymm_v5,2020.2.10,Win32,60,61025ae37ef11b136ea224fe,,,,,,,,,771,59.20001233,39.19996973,1,0,0,response1disk,,6,19.20001173,2.399993598,1,0,0,rectangle,19.20001173,2.399993598,1,0,0,19.20001173,2.399993598,1,0,0,1,43,203,142,1,,,,,,,,
,,,,,,,,,,,,,FF,,,,,,,,1.2568,,,,,,,,,,,,,,,,,,,,,,610365491336a1f2766ae033,610369a0b6b0254c35327397,2021-07-30_03h53.59.485,Simcolourproject_2stim_asymm_v5,2020.2.10,Win32,60,61025ae37ef11b136ea224fe,,,,,,,,,3781,-85.59998983,30.39999402,1,0,0,response7disk,,1,9.600060415,-16.80000669,1,0,0,rectangle,9.600060415,-16.80000669,1,0,0,9.600060415,-16.80000669,1,0,0,1,44,204,96,1,,,,,,,,
,,,,,,,,,,,,,FF,,,,,,,,0.9308,,,,,,,,,,,,,,,,,,,,,,610365491336a1f2766ae033,610369a0b6b0254c35327397,2021-07-30_03h53.59.485,Simcolourproject_2stim_asymm_v5,2020.2.10,Win32,60,61025ae37ef11b136ea224fe,,,,,,,,,491,88.80001277,-47.20000714,1,0,0,response3disk,,5,8.000011563,-6.400006533,1,0,0,rectangle,8.000011563,-6.400006533,1,0,0,8.000011563,-6.400006533,1,0,0,1,45,205,134,1,,,,,,,,
,,,,,,,,,,,,,FF,,,,,,,,3.1738,,,,,,,,,,,,,,,,,,,,,,610365491336a1f2766ae033,610369a0b6b0254c35327397,2021-07-30_03h53.59.485,Simcolourproject_2stim_asymm_v5,2020.2.10,Win32,60,61025ae37ef11b136ea224fe,,,,,,,,,880,60.80001235,51.19996991,1,0,0,response1disk,,6,1.14441E-05,9.599993706,1,0,0,rectangle,1.14441E-05,9.599993706,1,0,0,1.14441E-05,9.599993706,1,0,0,1,46,206,154,1,,,,,,,,
,,,,,,,,,,,,,FF,,,,,,,,0.8404,,,,,,,,,,,,,,,,,,,,,,610365491336a1f2766ae033,610369a0b6b0254c35327397,2021-07-30_03h53.59.485,Simcolourproject_2stim_asymm_v5,2020.2.10,Win32,60,61025ae37ef11b136ea224fe,,,,,,,,,1480,36.00001198,61.59999448,1,0,0,response1disk,,7,-3.999988616,-1.600006461,1,0,0,rectangle,-3.999988616,-1.600006461,1,0,0,-3.999988616,-1.600006461,1,0,0,1,47,207,78,1,,,,,,,,
,,,,,,,,,,,,,FF,,,,,,,,0.6674,,,,,,,,,,,,,,,,,,,,,,610365491336a1f2766ae033,610369a0b6b0254c35327397,2021-07-30_03h53.59.485,Simcolourproject_2stim_asymm_v5,2020.2.10,Win32,60,61025ae37ef11b136ea224fe,,,,,,,,,2110,32.00001192,63.19997009,1,0,0,response1disk,,7,-1.59998858,7.999993682,1,0,0,rectangle,-1.59998858,7.999993682,1,0,0,-1.59998858,7.999993682,1,0,0,1,48,208,145,1,,,,,,,,
,,,,,,,,,,,,,FF,,,,,,,,1.8055,,,,,,,,,,,,,,,,,,,,,,610365491336a1f2766ae033,610369a0b6b0254c35327397,2021-07-30_03h53.59.485,Simcolourproject_2stim_asymm_v5,2020.2.10,Win32,60,61025ae37ef11b136ea224fe,,,,,,,,,288,-37.59998912,-61.60000736,1,0,0,response5disk,,3,-12.79998875,-10.40000659,1,0,0,rectangle,-12.79998875,-10.40000659,1,0,0,-12.79998875,-10.40000659,1,0,0,1,49,209,149,1,,,,,,,,
,,,,,,,,,,,,,FF,,,,,,,,2.7568,,,,,,,,,,,,,,,,,,,,,,610365491336a1f2766ae033,610369a0b6b0254c35327397,2021-07-30_03h53.59.485,Simcolourproject_2stim_asymm_v5,2020.2.10,Win32,60,61025ae37ef11b136ea224fe,,,,,,,,,1837,57.6000123,-73.60000753,1,0,0,response3disk,,4,-5.599988639,-6.4373E-06,1,0,0,rectangle,-5.599988639,-6.4373E-06,1,0,0,-5.599988639,-6.4373E-06,1,0,0,1,50,210,135,1,,,,,,,,
,,,,,,,,,,,,,FF,,,,,,,,1.0895,,,,,,,,,,,,,,,,,,,,,,610365491336a1f2766ae033,610369a0b6b0254c35327397,2021-07-30_03h53.59.485,Simcolourproject_2stim_asymm_v5,2020.2.10,Win32,60,61025ae37ef11b136ea224fe,,,,,,,,,201,43.20001209,-65.60000741,1,0,0,response3disk,,4,10.4000116,-15.20000666,1,0,0,rectangle,62.40001237,79.99999475,1,0,0,-1.59998858,6.399993658,1,0,0,1,51,211,65,1,,response1disk_3,TRUE,7,7,"[74,166,110,183,22,200,238,212,124,212,174,263,54,308,64,171,122,88,311,11]",0.9925,rectangle
,,,,,,,,,,,,,FF,,,,,,,,1.7504,,,,,,,,,,,,,,,,,,,,,,610365491336a1f2766ae033,610369a0b6b0254c35327397,2021-07-30_03h53.59.485,Simcolourproject_2stim_asymm_v5,2020.2.10,Win32,60,61025ae37ef11b136ea224fe,,,,,,,,,4317,-63.1999895,-25.60000682,1,0,0,response5disk,,2,-3.199988604,7.999993682,1,0,0,rectangle,-3.199988604,7.999993682,1,0,0,-3.199988604,7.999993682,1,0,0,1,52,212,127,1,,,,,,,,
,,,,,,,,,,,,,FF,,,,,,,,5.5351,,,,,,,,,,,,,,,,,,,,,,610365491336a1f2766ae033,610369a0b6b0254c35327397,2021-07-30_03h53.59.485,Simcolourproject_2stim_asymm_v5,2020.2.10,Win32,60,61025ae37ef11b136ea224fe,,,,,,,,,155,-74.39994084,-27.20000684,1,0,0,response5disk,,2,-9.599988699,-4.000006497,1,0,0,rectangle,-9.599988699,-4.000006497,1,0,0,-9.599988699,-4.000006497,1,0,0,1,53,213,34,1,,,,,,,,
,,,,,,,,,,,,,FF,,,,,,,,6.68,,,,,,,,,,,,,,,,,,,,,,610365491336a1f2766ae033,610369a0b6b0254c35327397,2021-07-30_03h53.59.485,Simcolourproject_2stim_asymm_v5,2020.2.10,Win32,60,61025ae37ef11b136ea224fe,,,,,,,,,877,-47.99998927,-79.20000762,1,0,0,response5disk,,3,-5.599988639,-2.400006473,1,0,0,rectangle,-5.599988639,-2.400006473,1,0,0,-5.599988639,-2.400006473,1,0,0,1,54,214,125,1,,,,,,,,
,,,,,,,,,,,,,FF,,,,,,,,0.7296,,,,,,,,,,,,,,,,,,,,,,610365491336a1f2766ae033,610369a0b6b0254c35327397,2021-07-30_03h53.59.485,Simcolourproject_2stim_asymm_v5,2020.2.10,Win32,60,61025ae37ef11b136ea224fe,,,,,,,,,3667,22.40001178,75.9999947,1,0,0,response1disk,,7,6.400011539,-1.600006461,1,0,0,rectangle,6.400011539,-1.600006461,1,0,0,6.400011539,-1.600006461,1,0,0,1,55,215,54,1,,,,,,,,
,,,,,,,,,,,,,FF,,,,,,,,0.8122,,,,,,,,,,,,,,,,,,,,,,610365491336a1f2766ae033,610369a0b6b0254c35327397,2021-07-30_03h53.59.485,Simcolourproject_2stim_asymm_v5,2020.2.10,Win32,60,61025ae37ef11b136ea224fe,,,,,,,,,2147,28.00001186,55.19996997,1,0,0,response1disk,,7,4.800011516,13.59999377,1,0,0,rectangle,4.800011516,13.59999377,1,0,0,4.800011516,13.59999377,1,0,0,1,56,216,12,1,,,,,,,,
,,,,,,,,,,,,,FF,,,,,,,,2.3475,,,,,,,,,,,,,,,,,,,,,,610365491336a1f2766ae033,610369a0b6b0254c35327397,2021-07-30_03h53.59.485,Simcolourproject_2stim_asymm_v5,2020.2.10,Win32,60,61025ae37ef11b136ea224fe,,,,,,,,,4229,66.40001243,-44.00000709,1,0,0,response3disk,,5,20.80001175,-5.600006521,1,0,0,rectangle,20.80001175,-5.600006521,1,0,0,20.80001175,-5.600006521,1,0,0,1,57,217,35,1,,,,,,,,
,,,,,,,,,,,,,FF,,,,,,,,0.8055,,,,,,,,,,,,,,,,,,,,,,610365491336a1f2766ae033,610369a0b6b0254c35327397,2021-07-30_03h53.59.485,Simcolourproject_2stim_asymm_v5,2020.2.10,Win32,60,61025ae37ef11b136ea224fe,,,,,,,,,1185,48.00001216,29.599994,1,0,0,response1disk,,6,4.800011516,-5.600006521,1,0,0,rectangle,4.800011516,-5.600006521,1,0,0,4.800011516,-5.600006521,1,0,0,1,58,218,115,1,,,,,,,,
,,,,,,,,,,,,,FF,,,,,,,,0.9029,,,,,,,,,,,,,,,,,,,,,,610365491336a1f2766ae033,610369a0b6b0254c35327397,2021-07-30_03h53.59.485,Simcolourproject_2stim_asymm_v5,2020.2.10,Win32,60,61025ae37ef11b136ea224fe,,,,,,,,,2567,23.20001179,66.39999455,1,0,0,response1disk,,7,-2.399939764,-1.600006461,1,0,0,rectangle,-2.399939764,-1.600006461,1,0,0,-2.399939764,-1.600006461,1,0,0,1,59,219,57,1,,,,,,,,
,,,,,,,,,,,,,FF,,,,,,,,0.9584,,,,,,,,,,,,,,,,,,,,,,610365491336a1f2766ae033,610369a0b6b0254c35327397,2021-07-30_03h53.59.485,Simcolourproject_2stim_asymm_v5,2020.2.10,Win32,60,61025ae37ef11b136ea224fe,,,,,,,,,3693,20.80001175,51.19996991,1,0,0,response1disk,,7,8.800011575,7.19999367,1,0,0,rectangle,8.800011575,7.19999367,1,0,0,8.800011575,7.19999367,1,0,0,1,60,220,82,1,,,,,,,,
,,,,,,,,,,,,,FF,,,,,,,,0.8662,,,,,,,,,,,,,,,,,,,,,,610365491336a1f2766ae033,610369a0b6b0254c35327397,2021-07-30_03h53.59.485,Simcolourproject_2stim_asymm_v5,2020.2.10,Win32,60,61025ae37ef11b136ea224fe,,,,,,,,,1902,50.4000122,-99.20000792,1,0,0,response3disk,,4,20.00001174,-12.00000662,1,0,0,rectangle,20.00001174,-12.00000662,1,0,0,20.00001174,-12.00000662,1,0,0,1,61,221,87,1,,,,,,,,
,,,,,,,,,,,,,FF,,,,,,,,5.1462,,,,,,,,,,,,,,,,,,,,,,610365491336a1f2766ae033,610369a0b6b0254c35327397,2021-07-30_03h53.59.485,Simcolourproject_2stim_asymm_v5,2020.2.10,Win32,60,61025ae37ef11b136ea224fe,,,,,,,,,1178,46.40001214,-20.80000675,1,0,0,response3disk,,5,8.000011563,-15.20000666,1,0,0,rectangle,8.000011563,-15.20000666,1,0,0,8.000011563,-15.20000666,1,0,0,1,62,222,60,1,,,,,,,,
,,,,,,,,,,,,,FF,,,,,,,,1.8473,,,,,,,,,,,,,,,,,,,,,,610365491336a1f2766ae033,610369a0b6b0254c35327397,2021-07-30_03h53.59.485,Simcolourproject_2stim_asymm_v5,2020.2.10,Win32,60,61025ae37ef11b136ea224fe,,,,,,,,,3247,23.20001179,-52.80000722,1,0,0,response3disk,,4,0.800011456,8.799993694,1,0,0,rectangle,0.800011456,8.799993694,1,0,0,0.800011456,8.799993694,1,0,0,1,63,223,33,1,,,,,,,,
,,,,,,,,,,,,,FF,,,,,,,,0.5771,,,,,,,,,,,,,,,,,,,,,,610365491336a1f2766ae033,610369a0b6b0254c35327397,2021-07-30_03h53.59.485,Simcolourproject_2stim_asymm_v5,2020.2.10,Win32,60,61025ae37ef11b136ea224fe,,,,,,,,,1093,36.00001198,61.59999448,1,0,0,response1disk,,7,3.200011492,-13.60000664,1,0,0,rectangle,3.200011492,-13.60000664,1,0,0,3.200011492,-13.60000664,1,0,0,1,64,224,99,1,,,,,,,,
,,,,,,,,,,,,,FF,,,,,,,,0.7223,,,,,,,,,,,,,,,,,,,,,,610365491336a1f2766ae033,610369a0b6b0254c35327397,2021-07-30_03h53.59.485,Simcolourproject_2stim_asymm_v5,2020.2.10,Win32,60,61025ae37ef11b136ea224fe,,,,,,,,,1457,-43.99998921,-86.40000772,1,0,0,response5disk,,3,-17.59998882,-12.00000662,1,0,0,rectangle,-17.59998882,-12.00000662,1,0,0,-17.59998882,-12.00000662,1,0,0,1,65,225,153,1,,,,,,,,
,,,,,,,,,,,,,FF,,,,,,,,1.4236,,,,,,,,,,,,,,,,,,,,,,610365491336a1f2766ae033,610369a0b6b0254c35327397,2021-07-30_03h53.59.485,Simcolourproject_2stim_asymm_v5,2020.2.10,Win32,60,61025ae37ef11b136ea224fe,,,,,,,,,681,35.20001197,-51.2000072,1,0,0,response3disk,,4,23.20001179,6.399993658,1,0,0,rectangle,23.20001179,6.399993658,1,0,0,23.20001179,6.399993658,1,0,0,1,66,226,85,1,,,,,,,,
,,,,,,,,,,,,,FF,,,,,,,,0.7431,,,,,,,,,,,,,,,,,,,,,,610365491336a1f2766ae033,610369a0b6b0254c35327397,2021-07-30_03h53.59.485,Simcolourproject_2stim_asymm_v5,2020.2.10,Win32,60,61025ae37ef11b136ea224fe,,,,,,,,,650,22.40001178,57.59999442,1,0,0,response1disk,,7,14.40001166,-3.200006485,1,0,0,rectangle,14.40001166,-3.200006485,1,0,0,14.40001166,-3.200006485,1,0,0,1,67,227,93,1,,,,,,,,
,,,,,,,,,,,,,FF,,,,,,,,1.1811,,,,,,,,,,,,,,,,,,,,,,610365491336a1f2766ae033,610369a0b6b0254c35327397,2021-07-30_03h53.59.485,Simcolourproject_2stim_asymm_v5,2020.2.10,Win32,60,61025ae37ef11b136ea224fe,,,,,,,,,229,44.0000121,-34.40000695,1,0,0,response3disk,,5,-3.199988604,-5.600006521,1,0,0,rectangle,-3.199988604,-5.600006521,1,0,0,-3.199988604,-5.600006521,1,0,0,1,68,228,72,1,,,,,,,,
,,,,,,,,,,,,,FF,,,,,,,,0.5755,,,,,,,,,,,,,,,,,,,,,,610365491336a1f2766ae033,610369a0b6b0254c35327397,2021-07-30_03h53.59.485,Simcolourproject_2stim_asymm_v5,2020.2.10,Win32,60,61025ae37ef11b136ea224fe,,,,,,,,,3617,24.0000118,33.59999406,1,0,0,response1disk,,7,-7.199988663,-9.60000658,1,0,0,rectangle,-7.199988663,-9.60000658,1,0,0,-7.199988663,-9.60000658,1,0,0,1,69,229,0,1,,,,,,,,
,,,,,,,,,,,,,FF,,,,,,,,0.4792,,,,,,,,,,,,,,,,,,,,,,610365491336a1f2766ae033,610369a0b6b0254c35327397,2021-07-30_03h53.59.485,Simcolourproject_2stim_asymm_v5,2020.2.10,Win32,60,61025ae37ef11b136ea224fe,,,,,,,,,594,24.0000118,43.19996979,1,0,0,response1disk,,7,6.400011539,11.99999374,1,0,0,rectangle,6.400011539,11.99999374,1,0,0,6.400011539,11.99999374,1,0,0,1,70,230,121,1,,,,,,,,
,,,,,,,,,,,,,FF,,,,,,,,1.2078,,,,,,,,,,,,,,,,,,,,,,610365491336a1f2766ae033,610369a0b6b0254c35327397,2021-07-30_03h53.59.485,Simcolourproject_2stim_asymm_v5,2020.2.10,Win32,60,61025ae37ef11b136ea224fe,,,,,,,,,606,35.20001197,-68.00000745,1,0,0,response3disk,,4,11.20001161,-6.400006533,1,0,0,rectangle,11.20001161,-6.400006533,1,0,0,11.20001161,-6.400006533,1,0,0,1,71,231,92,1,,,,,,,,
,,,,,,,,,,,,,FF,,,,,,,,1.1896,,,,,,,,,,,,,,,,,,,,,,610365491336a1f2766ae033,610369a0b6b0254c35327397,2021-07-30_03h53.59.485,Simcolourproject_2stim_asymm_v5,2020.2.10,Win32,60,61025ae37ef11b136ea224fe,,,,,,,,,2824,37.60006083,-55.20000726,1,0,0,response3disk,,4,20.00001174,-4.800006509,1,0,0,rectangle,20.00001174,-4.800006509,1,0,0,20.00001174,-4.800006509,1,0,0,1,72,232,21,1,,,,,,,,
,,,,,,,,,,,,,FF,,,,,,,,1.0147,,,,,,,,,,,,,,,,,,,,,,610365491336a1f2766ae033,610369a0b6b0254c35327397,2021-07-30_03h53.59.485,Simcolourproject_2stim_asymm_v5,2020.2.10,Win32,60,61025ae37ef11b136ea224fe,,,,,,,,,1750,-66.39994072,-26.40000683,1,0,0,response5disk,,2,-19.99998885,7.999993682,1,0,0,rectangle,-19.99998885,7.999993682,1,0,0,-19.99998885,7.999993682,1,0,0,1,73,233,112,1,,,,,,,,
,,,,,,,,,,,,,FF,,,,,,,,0.8635,,,,,,,,,,,,,,,,,,,,,,610365491336a1f2766ae033,610369a0b6b0254c35327397,2021-07-30_03h53.59.485,Simcolourproject_2stim_asymm_v5,2020.2.10,Win32,60,61025ae37ef11b136ea224fe,,,,,,,,,3720,86.40001273,-28.00000685,1,0,0,response3disk,,5,33.60006077,15.19999379,1,0,0,rectangle,33.60006077,15.19999379,1,0,0,33.60006077,15.19999379,1,0,0,1,74,234,70,1,,,,,,,,
,,,,,,,,,,,,,FF,,,,,,,,0.9369,,,,,,,,,,,,,,,,,,,,,,610365491336a1f2766ae033,610369a0b6b0254c35327397,2021-07-30_03h53.59.485,Simcolourproject_2stim_asymm_v5,2020.2.10,Win32,60,61025ae37ef11b136ea224fe,,,,,,,,,480,60.00001234,37.59999412,1,0,0,response1disk,,6,23.20001179,15.19999379,1,0,0,rectangle,23.20001179,15.19999379,1,0,0,23.20001179,15.19999379,1,0,0,1,75,235,38,1,,,,,,,,
,,,,,,,,,,,,,FF,,,,,,,,1.1411,,,,,,,,,,,,,,,,,,,,,,610365491336a1f2766ae033,610369a0b6b0254c35327397,2021-07-30_03h53.59.485,Simcolourproject_2stim_asymm_v5,2020.2.10,Win32,60,61025ae37ef11b136ea224fe,,,,,,,,,704,29.60006071,-74.40000755,1,0,0,response3disk,,4,10.4000116,-10.40000659,1,0,0,rectangle,10.4000116,-10.40000659,1,0,0,10.4000116,-10.40000659,1,0,0,1,76,236,44,1,,,,,,,,
,,,,,,,,,,,,,FF,,,,,,,,0.9579,,,,,,,,,,,,,,,,,,,,,,610365491336a1f2766ae033,610369a0b6b0254c35327397,2021-07-30_03h53.59.485,Simcolourproject_2stim_asymm_v5,2020.2.10,Win32,60,61025ae37ef11b136ea224fe,,,,,,,,,1996,43.20001209,57.59999442,1,0,0,response1disk,,7,-8.799988687,-2.400006473,1,0,0,rectangle,-81.59998977,39.99999416,1,0,0,14.40001166,-1.600006461,1,0,0,1,77,237,24,1,,response7disk_3,TRUE,1,1,"[74,166,110,183,22,200,238,212,124,212,174,263,54,308,64,171,122,88,311,11]",1.1869,rectangle
,,,,,,,,,,,,,FF,,,,,,,,3.3469,,,,,,,,,,,,,,,,,,,,,,610365491336a1f2766ae033,610369a0b6b0254c35327397,2021-07-30_03h53.59.485,Simcolourproject_2stim_asymm_v5,2020.2.10,Win32,60,61025ae37ef11b136ea224fe,,,,,,,,,875,37.60006083,-32.80000693,1,0,0,response3disk,,5,-6.399939823,3.19999361,1,0,0,rectangle,-6.399939823,3.19999361,1,0,0,-6.399939823,3.19999361,1,0,0,1,78,238,100,1,,,,,,,,
,,,,,,,,,,,,,FF,,,,,,,,1.0697,,,,,,,,,,,,,,,,,,,,,,610365491336a1f2766ae033,610369a0b6b0254c35327397,2021-07-30_03h53.59.485,Simcolourproject_2stim_asymm_v5,2020.2.10,Win32,60,61025ae37ef11b136ea224fe,,,,,,,,,1793,74.40001255,-34.40000695,1,0,0,response3disk,,5,13.60006047,5.599993646,1,0,0,rectangle,13.60006047,5.599993646,1,0,0,13.60006047,5.599993646,1,0,0,1,79,239,144,1,,,,,,,,
,,,,,,,,,,,,,FF,,,,,,,,1.0282,,,,,,,,,,,,,,,,,,,,,,610365491336a1f2766ae033,610369a0b6b0254c35327397,2021-07-30_03h53.59.485,Simcolourproject_2stim_asymm_v5,2020.2.10,Win32,60,61025ae37ef11b136ea224fe,,,,,,,,,13,38.40001202,50.39999431,1,0,0,response1disk,,7,1.600060296,8.799993694,1,0,0,rectangle,1.600060296,8.799993694,1,0,0,1.600060296,8.799993694,1,0,0,1,80,240,126,1,,,,,,,,
,,,,,,,,,,,,,FF,,,,,,,,1.0631,,,,,,,,,,,,,,,,,,,,,,610365491336a1f2766ae033,610369a0b6b0254c35327397,2021-07-30_03h53.59.485,Simcolourproject_2stim_asymm_v5,2020.2.10,Win32,60,61025ae37ef11b136ea224fe,,,,,,,,,3268,26.40001184,41.59999418,1,0,0,response1disk,,7,7.200011551,-3.200006485,1,0,0,rectangle,7.200011551,-3.200006485,1,0,0,7.200011551,-3.200006485,1,0,0,1,81,241,94,1,,,,,,,,
,,,,,,,,,,,,,FF,,,,,,,,1.7015,,,,,,,,,,,,,,,,,,,,,,610365491336a1f2766ae033,610369a0b6b0254c35327397,2021-07-30_03h53.59.485,Simcolourproject_2stim_asymm_v5,2020.2.10,Win32,60,61025ae37ef11b136ea224fe,,,,,,,,,4142,-31.99998903,-70.40000749,1,0,0,response5disk,,3,-16.79998881,-14.40000665,1,0,0,rectangle,-16.79998881,-14.40000665,1,0,0,-16.79998881,-14.40000665,1,0,0,1,82,242,109,1,,,,,,,,
