key_resp.keys,key_resp.rt,key_resp_14.keys,key_resp_14.rt,key_resp_15.keys,key_resp_15.rt,key_resp_17.keys,key_resp_17.rt,key_resp_9.keys,key_resp_9.rt,key_resp_10.keys,key_resp_10.rt,practice_comparison,Ecc,mouse_5.x,mouse_5.y,mouse_5.leftButton,mouse_5.midButton,mouse_5.rightButton,mouse_5.clicked_name,pracsimilarity,response_time,mouse_10.x,mouse_10.y,mouse_10.leftButton,mouse_10.midButton,mouse_10.rightButton,mouse_10.clicked_name,mouse_7.x,mouse_7.y,mouse_7.leftButton,mouse_7.midButton,mouse_7.rightButton,mouse_6.x,mouse_6.y,mouse_6.leftButton,mouse_6.midButton,mouse_6.rightButton,duringprac.thisRepN,duringprac.thisTrialN,duringprac.thisN,duringprac.thisIndex,duringprac.ran,participant,session,date,expName,psychopyVersion,OS,frameRate,study_id,mouse_7.clicked_name,catchpracsimilarity,catch_response_time,catchnumberprac,catchtrialorderprac,mouse_6.clicked_name,key_resp_22.keys,key_resp_22.rt,realcomparison,mouse.x,mouse.y,mouse.leftButton,mouse.midButton,mouse.rightButton,mouse.clicked_name,Colour2,similarity,mouse_2.x,mouse_2.y,mouse_2.leftButton,mouse_2.midButton,mouse_2.rightButton,mouse_2.clicked_name,mouse_3.x,mouse_3.y,mouse_3.leftButton,mouse_3.midButton,mouse_3.rightButton,mouse_11.x,mouse_11.y,mouse_11.leftButton,mouse_11.midButton,mouse_11.rightButton,trials_2.thisRepN,trials_2.thisTrialN,trials_2.thisN,trials_2.thisIndex,trials_2.ran,Colour1,mouse_3.clicked_name,catchornah,catchsimilarity,catchnumber,catchtrialorder,catchRT,mouse_11.clicked_name
space,10.5061,space,20.959,space,38.9151,space,7.5996,space,2.2573,space,3.4006,149,FF,-40.99998999,81.79999602,1,0,0,response7disk_5,0,3.6225,-12.19998956,-3.000005245,1,0,0,rectangle_8,-12.19998956,-3.000005245,1,0,0,-12.19998956,-3.000005245,1,0,0,0,0,0,0,1,610347b5b849c3e6a52e4a4a,61036ba78e5a51decd2b1813,2021-07-29_20h06.08.446,Simcolourproject_2stim_asymm_v5,2020.2.10,Win32,60,61025ae37ef11b136ea224fe,,,,,,,,,,,,,,,,,,,,,,,,,,,,,,,,,,,,,,,,,,,,,,
,,,,,,,,,,,,7,PF,-36.19998991,72.99999589,1,0,0,response7disk_5,0,2.4996,-10.59998953,-2.200005233,1,0,0,rectangle_8,-70.59999043,106.599972,1,0,0,-4.199989438,4.999994874,1,0,0,0,1,1,6,1,610347b5b849c3e6a52e4a4a,61036ba78e5a51decd2b1813,2021-07-29_20h06.08.446,Simcolourproject_2stim_asymm_v5,2020.2.10,Win32,60,61025ae37ef11b136ea224fe,response7disk_7,0,3.4022,0,"[2,5]",rectangle_4,,,,,,,,,,,,,,,,,,,,,,,,,,,,,,,,,,,,,,,,
,,,,,,,,,,,,5,PF,94.20001203,70.59997144,1,0,0,response1disk_5,6,6.3331,-0.199989378,1.799994826,1,0,0,rectangle_8,-0.199989378,1.799994826,1,0,0,-0.199989378,1.799994826,1,0,0,0,2,2,4,1,610347b5b849c3e6a52e4a4a,61036ba78e5a51decd2b1813,2021-07-29_20h06.08.446,Simcolourproject_2stim_asymm_v5,2020.2.10,Win32,60,61025ae37ef11b136ea224fe,,,,,,,,,,,,,,,,,,,,,,,,,,,,,,,,,,,,,,,,,,,,,,
,,,,,,,,,,,,67,FF,-48.19999009,64.19997134,1,0,0,response7disk_5,0,2.2001,-4.99998945,-3.800029671,1,0,0,rectangle_8,-4.99998945,-3.800029671,1,0,0,-4.99998945,-3.800029671,1,0,0,0,3,3,5,1,610347b5b849c3e6a52e4a4a,61036ba78e5a51decd2b1813,2021-07-29_20h06.08.446,Simcolourproject_2stim_asymm_v5,2020.2.10,Win32,60,61025ae37ef11b136ea224fe,,,,,,,,,,,,,,,,,,,,,,,,,,,,,,,,,,,,,,,,,,,,,,
,,,,,,,,,,,,88,FF,34.20001113,89.79999614,1,0,0,response1disk_5,7,4.6002,-0.199989378,-3.800029671,1,0,0,rectangle_8,-56.19999021,90.59997174,1,0,0,-12.19998956,-2.200005233,1,0,0,0,4,4,3,1,610347b5b849c3e6a52e4a4a,61036ba78e5a51decd2b1813,2021-07-29_20h06.08.446,Simcolourproject_2stim_asymm_v5,2020.2.10,Win32,60,61025ae37ef11b136ea224fe,response7disk_7,0,2.4022,0,"[2,5]",rectangle_4,,,,,,,,,,,,,,,,,,,,,,,,,,,,,,,,,,,,,,,,
,,,,,,,,,,,,72,PF,-41.79999,82.59997162,1,0,0,response7disk_5,0,1.333,-0.199989378,3.39999485,1,0,0,rectangle_8,-0.199989378,3.39999485,1,0,0,-0.199989378,3.39999485,1,0,0,0,5,5,2,1,610347b5b849c3e6a52e4a4a,61036ba78e5a51decd2b1813,2021-07-29_20h06.08.446,Simcolourproject_2stim_asymm_v5,2020.2.10,Win32,60,61025ae37ef11b136ea224fe,,,,,,,,,,,,,,,,,,,,,,,,,,,,,,,,,,,,,,,,,,,,,,
,,,,,,,,,,,,153,PF,-47.39994125,80.99999601,1,0,0,response7disk_5,0,1.4002,9.400010765,-12.60000539,1,0,0,rectangle_8,9.400010765,-12.60000539,1,0,0,9.400010765,-12.60000539,1,0,0,0,6,6,1,1,610347b5b849c3e6a52e4a4a,61036ba78e5a51decd2b1813,2021-07-29_20h06.08.446,Simcolourproject_2stim_asymm_v5,2020.2.10,Win32,60,61025ae37ef11b136ea224fe,,,,,,,,,,,,,,,,,,,,,,,,,,,,,,,,,,,,,,,,,,,,,,
,,,,,,,,,,,,,FF,,,,,,,,2.384,,,,,,,,,,,,,,,,,,,,,,610347b5b849c3e6a52e4a4a,61036ba78e5a51decd2b1813,2021-07-29_20h06.08.446,Simcolourproject_2stim_asymm_v5,2020.2.10,Win32,60,61025ae37ef11b136ea224fe,,,,,,,space,2.8782,3196,31.00001109,72.19997146,1,0,0,response1disk,,7,-5.799989462,-0.600005209,1,0,0,rectangle,-5.799989462,-0.600005209,1,0,0,-5.799989462,-0.600005209,1,0,0,0,0,0,101,1,,,,,,,,
,,,,,,,,,,,,,FF,,,,,,,,1.7331,,,,,,,,,,,,,,,,,,,,,,610347b5b849c3e6a52e4a4a,61036ba78e5a51decd2b1813,2021-07-29_20h06.08.446,Simcolourproject_2stim_asymm_v5,2020.2.10,Win32,60,61025ae37ef11b136ea224fe,,,,,,,,,2068,-51.39994131,66.59997138,1,0,0,response7disk,,0,2.200010657,2.599970424,1,0,0,rectangle,2.200010657,2.599970424,1,0,0,2.200010657,2.599970424,1,0,0,0,1,1,122,1,,,,,,,,
,,,,,,,,,,,,,FF,,,,,,,,8.7172,,,,,,,,,,,,,,,,,,,,,,610347b5b849c3e6a52e4a4a,61036ba78e5a51decd2b1813,2021-07-29_20h06.08.446,Simcolourproject_2stim_asymm_v5,2020.2.10,Win32,60,61025ae37ef11b136ea224fe,,,,,,,,,272,43.80001128,93.7999962,1,0,0,response1disk,,7,12.60005964,8.999994934,1,0,0,rectangle,12.60005964,8.999994934,1,0,0,12.60005964,8.999994934,1,0,0,0,2,2,79,1,,,,,,,,
,,,,,,,,,,,,,FF,,,,,,,,4.65,,,,,,,,,,,,,,,,,,,,,,610347b5b849c3e6a52e4a4a,61036ba78e5a51decd2b1813,2021-07-29_20h06.08.446,Simcolourproject_2stim_asymm_v5,2020.2.10,Win32,60,61025ae37ef11b136ea224fe,,,,,,,,,114,34.20001113,83.39999604,1,0,0,response1disk,,7,8.600059581,5.799994886,1,0,0,rectangle,8.600059581,5.799994886,1,0,0,8.600059581,5.799994886,1,0,0,0,3,3,73,1,,,,,,,,
,,,,,,,,,,,,,FF,,,,,,,,4.4167,,,,,,,,,,,,,,,,,,,,,,610347b5b849c3e6a52e4a4a,61036ba78e5a51decd2b1813,2021-07-29_20h06.08.446,Simcolourproject_2stim_asymm_v5,2020.2.10,Win32,60,61025ae37ef11b136ea224fe,,,,,,,,,3858,71.80001169,-95.80000663,1,0,0,response3disk,,4,7.800010741,-2.200005233,1,0,0,rectangle,7.800010741,-2.200005233,1,0,0,7.800010741,-2.200005233,1,0,0,0,4,4,25,1,,,,,,,,
,,,,,,,,,,,,,FF,,,,,,,,1.3667,,,,,,,,,,,,,,,,,,,,,,610347b5b849c3e6a52e4a4a,61036ba78e5a51decd2b1813,2021-07-29_20h06.08.446,Simcolourproject_2stim_asymm_v5,2020.2.10,Win32,60,61025ae37ef11b136ea224fe,,,,,,,,,1748,-72.19999045,36.19997092,1,0,0,response7disk,,1,9.400010765,0.199970388,1,0,0,rectangle,9.400010765,0.199970388,1,0,0,9.400010765,0.199970388,1,0,0,0,5,5,68,1,,,,,,,,
,,,,,,,,,,,,,FF,,,,,,,,2.4994,,,,,,,,,,,,,,,,,,,,,,610347b5b849c3e6a52e4a4a,61036ba78e5a51decd2b1813,2021-07-29_20h06.08.446,Simcolourproject_2stim_asymm_v5,2020.2.10,Win32,60,61025ae37ef11b136ea224fe,,,,,,,,,134,31.00001109,67.3999958,1,0,0,response1disk,,7,-2.599989414,0.199970388,1,0,0,rectangle,-2.599989414,0.199970388,1,0,0,-2.599989414,0.199970388,1,0,0,0,6,6,36,1,,,,,,,,
,,,,,,,,,,,,,FF,,,,,,,,1.0833,,,,,,,,,,,,,,,,,,,,,,610347b5b849c3e6a52e4a4a,61036ba78e5a51decd2b1813,2021-07-29_20h06.08.446,Simcolourproject_2stim_asymm_v5,2020.2.10,Win32,60,61025ae37ef11b136ea224fe,,,,,,,,,692,52.60006024,68.1999714,1,0,0,response1disk,,7,-8.199989498,-11.80002979,1,0,0,rectangle,-8.199989498,-11.80002979,1,0,0,-8.199989498,-11.80002979,1,0,0,0,7,7,74,1,,,,,,,,
,,,,,,,,,,,,,FF,,,,,,,,6.1001,,,,,,,,,,,,,,,,,,,,,,610347b5b849c3e6a52e4a4a,61036ba78e5a51decd2b1813,2021-07-29_20h06.08.446,Simcolourproject_2stim_asymm_v5,2020.2.10,Win32,60,61025ae37ef11b136ea224fe,,,,,,,,,292,39.00001121,-83.00000644,1,0,0,response3disk,,4,2.200010657,8.199970508,1,0,0,rectangle,2.200010657,8.199970508,1,0,0,2.200010657,8.199970508,1,0,0,0,8,8,61,1,,,,,,,,
,,,,,,,,,,,,,FF,,,,,,,,1.4664,,,,,,,,,,,,,,,,,,,,,,610347b5b849c3e6a52e4a4a,61036ba78e5a51decd2b1813,2021-07-29_20h06.08.446,Simcolourproject_2stim_asymm_v5,2020.2.10,Win32,60,61025ae37ef11b136ea224fe,,,,,,,,,2388,19.00001091,68.1999714,1,0,0,response1disk,,7,3.800010681,-0.600005209,1,0,0,rectangle,3.800010681,-0.600005209,1,0,0,3.800010681,-0.600005209,1,0,0,0,9,9,18,1,,,,,,,,
,,,,,,,,,,,,,FF,,,,,,,,1.2508,,,,,,,,,,,,,,,,,,,,,,610347b5b849c3e6a52e4a4a,61036ba78e5a51decd2b1813,2021-07-29_20h06.08.446,Simcolourproject_2stim_asymm_v5,2020.2.10,Win32,60,61025ae37ef11b136ea224fe,,,,,,,,,839,51.00001138,85.79999608,1,0,0,response1disk,,7,-24.19998974,-4.600005269,1,0,0,rectangle,-24.19998974,-4.600005269,1,0,0,-24.19998974,-4.600005269,1,0,0,0,10,10,136,1,,,,,,,,
,,,,,,,,,,,,,FF,,,,,,,,4.9508,,,,,,,,,,,,,,,,,,,,,,610347b5b849c3e6a52e4a4a,61036ba78e5a51decd2b1813,2021-07-29_20h06.08.446,Simcolourproject_2stim_asymm_v5,2020.2.10,Win32,60,61025ae37ef11b136ea224fe,,,,,,,,,2144,77.40001178,42.59997102,1,0,0,response1disk,,6,-2.599989414,0.999994814,1,0,0,rectangle,-2.599989414,0.999994814,1,0,0,-2.599989414,0.999994814,1,0,0,0,11,11,91,1,,,,,,,,
,,,,,,,,,,,,,FF,,,,,,,,0.9671,,,,,,,,,,,,,,,,,,,,,,610347b5b849c3e6a52e4a4a,61036ba78e5a51decd2b1813,2021-07-29_20h06.08.446,Simcolourproject_2stim_asymm_v5,2020.2.10,Win32,60,61025ae37ef11b136ea224fe,,,,,,,,,3227,42.20001125,104.9999964,1,0,0,response1disk,,7,0.600059462,-10.20000535,1,0,0,rectangle,0.600059462,-10.20000535,1,0,0,0.600059462,-10.20000535,1,0,0,0,12,12,135,1,,,,,,,,
,,,,,,,,,,,,,FF,,,,,,,,1.6833,,,,,,,,,,,,,,,,,,,,,,610347b5b849c3e6a52e4a4a,61036ba78e5a51decd2b1813,2021-07-29_20h06.08.446,Simcolourproject_2stim_asymm_v5,2020.2.10,Win32,60,61025ae37ef11b136ea224fe,,,,,,,,,4160,52.60006024,94.5999718,1,0,0,response1disk,,7,1.400010645,3.39999485,1,0,0,rectangle,-53.79999018,96.99999624,1,0,0,-0.199989378,-3.000005245,1,0,0,0,13,13,45,1,,response7disk_3,TRUE,0,6,"[14,53,46,38,115,260,277,36,275,92,235,87,170,33,115,116,295,184,105,112]",1.5492,rectangle
,,,,,,,,,,,,,FF,,,,,,,,1.3669,,,,,,,,,,,,,,,,,,,,,,610347b5b849c3e6a52e4a4a,61036ba78e5a51decd2b1813,2021-07-29_20h06.08.446,Simcolourproject_2stim_asymm_v5,2020.2.10,Win32,60,61025ae37ef11b136ea224fe,,,,,,,,,496,44.60006012,87.3999961,1,0,0,response1disk,,7,5.400010705,8.999994934,1,0,0,rectangle,5.400010705,8.999994934,1,0,0,5.400010705,8.999994934,1,0,0,0,14,14,57,1,,,,,,,,
,,,,,,,,,,,,,FF,,,,,,,,1.534,,,,,,,,,,,,,,,,,,,,,,610347b5b849c3e6a52e4a4a,61036ba78e5a51decd2b1813,2021-07-29_20h06.08.446,Simcolourproject_2stim_asymm_v5,2020.2.10,Win32,60,61025ae37ef11b136ea224fe,,,,,,,,,3219,30.20001107,90.59997174,1,0,0,response1disk,,7,-5.799989462,-4.600005269,1,0,0,rectangle,-5.799989462,-4.600005269,1,0,0,-5.799989462,-4.600005269,1,0,0,0,15,15,60,1,,,,,,,,
,,,,,,,,,,,,,FF,,,,,,,,7.5837,,,,,,,,,,,,,,,,,,,,,,610347b5b849c3e6a52e4a4a,61036ba78e5a51decd2b1813,2021-07-29_20h06.08.446,Simcolourproject_2stim_asymm_v5,2020.2.10,Win32,60,61025ae37ef11b136ea224fe,,,,,,,,,3160,63.80001158,-36.60000575,1,0,0,response3disk,,5,-3.399940598,0.199970388,1,0,0,rectangle,-3.399940598,0.199970388,1,0,0,-3.399940598,0.199970388,1,0,0,0,16,16,138,1,,,,,,,,
,,,,,,,,,,,,,FF,,,,,,,,3.6002,,,,,,,,,,,,,,,,,,,,,,610347b5b849c3e6a52e4a4a,61036ba78e5a51decd2b1813,2021-07-29_20h06.08.446,Simcolourproject_2stim_asymm_v5,2020.2.10,Win32,60,61025ae37ef11b136ea224fe,,,,,,,,,3934,27.00001103,-83.00000644,1,0,0,response3disk,,4,-8.199989498,9.799994946,1,0,0,rectangle,-8.199989498,9.799994946,1,0,0,-8.199989498,9.799994946,1,0,0,0,17,17,41,1,,,,,,,,
,,,,,,,,,,,,,FF,,,,,,,,2.2338,,,,,,,,,,,,,,,,,,,,,,610347b5b849c3e6a52e4a4a,61036ba78e5a51decd2b1813,2021-07-29_20h06.08.446,Simcolourproject_2stim_asymm_v5,2020.2.10,Win32,60,61025ae37ef11b136ea224fe,,,,,,,,,3430,-66.59999037,35.39999533,1,0,0,response7disk,,1,6.200010717,-7.800029731,1,0,0,rectangle,6.200010717,-7.800029731,1,0,0,6.200010717,-7.800029731,1,0,0,0,18,18,69,1,,,,,,,,
,,,,,,,,,,,,,FF,,,,,,,,1.2033,,,,,,,,,,,,,,,,,,,,,,610347b5b849c3e6a52e4a4a,61036ba78e5a51decd2b1813,2021-07-29_20h06.08.446,Simcolourproject_2stim_asymm_v5,2020.2.10,Win32,60,61025ae37ef11b136ea224fe,,,,,,,,,104,-82.59999061,-47.80003033,1,0,0,response5disk,,2,-12.99998957,0.999994814,1,0,0,rectangle,-12.99998957,0.999994814,1,0,0,-12.99998957,0.999994814,1,0,0,0,19,19,111,1,,,,,,,,
,,,,,,,,,,,,,FF,,,,,,,,1.6503,,,,,,,,,,,,,,,,,,,,,,610347b5b849c3e6a52e4a4a,61036ba78e5a51decd2b1813,2021-07-29_20h06.08.446,Simcolourproject_2stim_asymm_v5,2020.2.10,Win32,60,61025ae37ef11b136ea224fe,,,,,,,,,14,-48.99999011,-34.20000571,1,0,0,response5disk,,2,-16.19998962,-1.400029635,1,0,0,rectangle,-16.19998962,-1.400029635,1,0,0,-16.19998962,-1.400029635,1,0,0,0,20,20,48,1,,,,,,,,
,,,,,,,,,,,,,FF,,,,,,,,1.8332,,,,,,,,,,,,,,,,,,,,,,610347b5b849c3e6a52e4a4a,61036ba78e5a51decd2b1813,2021-07-29_20h06.08.446,Simcolourproject_2stim_asymm_v5,2020.2.10,Win32,60,61025ae37ef11b136ea224fe,,,,,,,,,2970,40.60006006,78.59997156,1,0,0,response1disk,,7,-0.199989378,-3.800029671,1,0,0,rectangle,-0.199989378,-3.800029671,1,0,0,-0.199989378,-3.800029671,1,0,0,0,21,21,64,1,,,,,,,,
,,,,,,,,,,,,,FF,,,,,,,,3.8178,,,,,,,,,,,,,,,,,,,,,,610347b5b849c3e6a52e4a4a,61036ba78e5a51decd2b1813,2021-07-29_20h06.08.446,Simcolourproject_2stim_asymm_v5,2020.2.10,Win32,60,61025ae37ef11b136ea224fe,,,,,,,,,1459,-53.79999018,75.39999592,1,0,0,response7disk,,0,2.200010657,0.199970388,1,0,0,rectangle,2.200010657,0.199970388,1,0,0,2.200010657,0.199970388,1,0,0,0,22,22,96,1,,,,,,,,
,,,,,,,,,,,,,FF,,,,,,,,1.4842,,,,,,,,,,,,,,,,,,,,,,610347b5b849c3e6a52e4a4a,61036ba78e5a51decd2b1813,2021-07-29_20h06.08.446,Simcolourproject_2stim_asymm_v5,2020.2.10,Win32,60,61025ae37ef11b136ea224fe,,,,,,,,,413,87.00001192,36.19997092,1,0,0,response1disk,,6,3.000010669,5.799994886,1,0,0,rectangle,3.000010669,5.799994886,1,0,0,3.000010669,5.799994886,1,0,0,0,23,23,114,1,,,,,,,,
,,,,,,,,,,,,,FF,,,,,,,,5.0394,,,,,,,,,,,,,,,,,,,,,,610347b5b849c3e6a52e4a4a,61036ba78e5a51decd2b1813,2021-07-29_20h06.08.446,Simcolourproject_2stim_asymm_v5,2020.2.10,Win32,60,61025ae37ef11b136ea224fe,,,,,,,,,3115,-40.99998999,-60.6000061,1,0,0,response5disk,,3,-0.99998939,4.199970448,1,0,0,rectangle,-0.99998939,4.199970448,1,0,0,-0.99998939,4.199970448,1,0,0,0,24,24,67,1,,,,,,,,
,,,,,,,,,,,,,FF,,,,,,,,1.2671,,,,,,,,,,,,,,,,,,,,,,610347b5b849c3e6a52e4a4a,61036ba78e5a51decd2b1813,2021-07-29_20h06.08.446,Simcolourproject_2stim_asymm_v5,2020.2.10,Win32,60,61025ae37ef11b136ea224fe,,,,,,,,,3293,-59.39994143,36.99999535,1,0,0,response7disk,,1,11.8000108,-1.400029635,1,0,0,rectangle,11.8000108,-1.400029635,1,0,0,11.8000108,-1.400029635,1,0,0,0,25,25,47,1,,,,,,,,
,,,,,,,,,,,,,FF,,,,,,,,1.1001,,,,,,,,,,,,,,,,,,,,,,610347b5b849c3e6a52e4a4a,61036ba78e5a51decd2b1813,2021-07-29_20h06.08.446,Simcolourproject_2stim_asymm_v5,2020.2.10,Win32,60,61025ae37ef11b136ea224fe,,,,,,,,,3448,32.60005994,89.79999614,1,0,0,response1disk,,7,11.8000108,10.59997054,1,0,0,rectangle,11.8000108,10.59997054,1,0,0,11.8000108,10.59997054,1,0,0,0,26,26,82,1,,,,,,,,
,,,,,,,,,,,,,FF,,,,,,,,2.217,,,,,,,,,,,,,,,,,,,,,,610347b5b849c3e6a52e4a4a,61036ba78e5a51decd2b1813,2021-07-29_20h06.08.446,Simcolourproject_2stim_asymm_v5,2020.2.10,Win32,60,61025ae37ef11b136ea224fe,,,,,,,,,2711,-78.59999055,-36.60000575,1,0,0,response5disk,,2,-2.599989414,8.999994934,1,0,0,rectangle,-2.599989414,8.999994934,1,0,0,-2.599989414,8.999994934,1,0,0,0,27,27,34,1,,,,,,,,
,,,,,,,,,,,,,FF,,,,,,,,2.7667,,,,,,,,,,,,,,,,,,,,,,610347b5b849c3e6a52e4a4a,61036ba78e5a51decd2b1813,2021-07-29_20h06.08.446,Simcolourproject_2stim_asymm_v5,2020.2.10,Win32,60,61025ae37ef11b136ea224fe,,,,,,,,,3856,-84.99999064,-29.40003005,1,0,0,response5disk,,2,-0.199989378,4.199970448,1,0,0,rectangle,-0.199989378,4.199970448,1,0,0,-0.199989378,4.199970448,1,0,0,0,28,28,84,1,,,,,,,,
,,,,,,,,,,,,,FF,,,,,,,,0.8222,,,,,,,,,,,,,,,,,,,,,,610347b5b849c3e6a52e4a4a,61036ba78e5a51decd2b1813,2021-07-29_20h06.08.446,Simcolourproject_2stim_asymm_v5,2020.2.10,Win32,60,61025ae37ef11b136ea224fe,,,,,,,,,3108,-80.19999057,36.19997092,1,0,0,response7disk,,1,3.000010669,5.799994886,1,0,0,rectangle,3.000010669,5.799994886,1,0,0,3.000010669,5.799994886,1,0,0,0,29,29,105,1,,,,,,,,
,,,,,,,,,,,,,FF,,,,,,,,3.133,,,,,,,,,,,,,,,,,,,,,,610347b5b849c3e6a52e4a4a,61036ba78e5a51decd2b1813,2021-07-29_20h06.08.446,Simcolourproject_2stim_asymm_v5,2020.2.10,Win32,60,61025ae37ef11b136ea224fe,,,,,,,,,796,45.4000113,-71.00000626,1,0,0,response3disk,,4,-3.399940598,-0.600005209,1,0,0,rectangle,-3.399940598,-0.600005209,1,0,0,-3.399940598,-0.600005209,1,0,0,0,30,30,94,1,,,,,,,,
,,,,,,,,,,,,,FF,,,,,,,,2.9126,,,,,,,,,,,,,,,,,,,,,,610347b5b849c3e6a52e4a4a,61036ba78e5a51decd2b1813,2021-07-29_20h06.08.446,Simcolourproject_2stim_asymm_v5,2020.2.10,Win32,60,61025ae37ef11b136ea224fe,,,,,,,,,3500,67.80001163,36.99999535,1,0,0,response1disk,,6,6.200010717,0.199970388,1,0,0,rectangle,6.200010717,0.199970388,1,0,0,6.200010717,0.199970388,1,0,0,0,31,31,107,1,,,,,,,,
,,,,,,,,,,,,,FF,,,,,,,,3.2557,,,,,,,,,,,,,,,,,,,,,,610347b5b849c3e6a52e4a4a,61036ba78e5a51decd2b1813,2021-07-29_20h06.08.446,Simcolourproject_2stim_asymm_v5,2020.2.10,Win32,60,61025ae37ef11b136ea224fe,,,,,,,,,11,69.40001166,-52.60000598,1,0,0,response3disk,,5,8.600059581,-7.800029731,1,0,0,rectangle,45.4000113,-84.60000646,1,0,0,0.600059462,-0.600005209,1,0,0,0,32,32,100,1,,response3disk_3,TRUE,4,4,"[14,53,46,38,115,260,277,36,275,92,235,87,170,33,115,116,295,184,105,112]",2.0215,rectangle
,,,,,,,,,,,,,FF,,,,,,,,2.2671,,,,,,,,,,,,,,,,,,,,,,610347b5b849c3e6a52e4a4a,61036ba78e5a51decd2b1813,2021-07-29_20h06.08.446,Simcolourproject_2stim_asymm_v5,2020.2.10,Win32,60,61025ae37ef11b136ea224fe,,,,,,,,,2088,51.8000114,-40.60000581,1,0,0,response3disk,,5,4.600059521,-8.600005329,1,0,0,rectangle,4.600059521,-8.600005329,1,0,0,4.600059521,-8.600005329,1,0,0,0,33,33,35,1,,,,,,,,
,,,,,,,,,,,,,FF,,,,,,,,2.95,,,,,,,,,,,,,,,,,,,,,,610347b5b849c3e6a52e4a4a,61036ba78e5a51decd2b1813,2021-07-29_20h06.08.446,Simcolourproject_2stim_asymm_v5,2020.2.10,Win32,60,61025ae37ef11b136ea224fe,,,,,,,,,1735,35.80001116,-78.20005519,1,0,0,response3disk,,4,-12.99998957,6.599970484,1,0,0,rectangle,-12.99998957,6.599970484,1,0,0,-12.99998957,6.599970484,1,0,0,0,34,34,132,1,,,,,,,,
,,,,,,,,,,,,,FF,,,,,,,,0.9389,,,,,,,,,,,,,,,,,,,,,,610347b5b849c3e6a52e4a4a,61036ba78e5a51decd2b1813,2021-07-29_20h06.08.446,Simcolourproject_2stim_asymm_v5,2020.2.10,Win32,60,61025ae37ef11b136ea224fe,,,,,,,,,3998,-47.39994125,64.99999577,1,0,0,response7disk,,0,-6.599989474,0.999994814,1,0,0,rectangle,24.60005982,-88.60000652,1,0,0,7.000010729,-3.000005245,1,0,0,0,35,35,95,1,,response3disk_3,TRUE,4,4,"[14,53,46,38,115,260,277,36,275,92,235,87,170,33,115,116,295,184,105,112]",1.7058,rectangle
,,,,,,,,,,,,,FF,,,,,,,,1.2001,,,,,,,,,,,,,,,,,,,,,,610347b5b849c3e6a52e4a4a,61036ba78e5a51decd2b1813,2021-07-29_20h06.08.446,Simcolourproject_2stim_asymm_v5,2020.2.10,Win32,60,61025ae37ef11b136ea224fe,,,,,,,,,56,33.40001112,77.79999596,1,0,0,response1disk,,7,15.00001085,8.199970508,1,0,0,rectangle,15.00001085,8.199970508,1,0,0,15.00001085,8.199970508,1,0,0,0,36,36,14,1,,,,,,,,
,,,,,,,,,,,,,FF,,,,,,,,2.0346,,,,,,,,,,,,,,,,,,,,,,610347b5b849c3e6a52e4a4a,61036ba78e5a51decd2b1813,2021-07-29_20h06.08.446,Simcolourproject_2stim_asymm_v5,2020.2.10,Win32,60,61025ae37ef11b136ea224fe,,,,,,,,,1091,44.60006012,67.3999958,1,0,0,response1disk,,7,-10.59998953,5.799994886,1,0,0,rectangle,-75.39994167,-42.20000583,1,0,0,7.000010729,-2.200005233,1,0,0,0,37,37,46,1,,response5disk_3,TRUE,2,2,"[14,53,46,38,115,260,277,36,275,92,235,87,170,33,115,116,295,184,105,112]",1.7668,rectangle
,,,,,,,,,,,,,FF,,,,,,,,2.3169,,,,,,,,,,,,,,,,,,,,,,610347b5b849c3e6a52e4a4a,61036ba78e5a51decd2b1813,2021-07-29_20h06.08.446,Simcolourproject_2stim_asymm_v5,2020.2.10,Win32,60,61025ae37ef11b136ea224fe,,,,,,,,,4151,-89.79999071,-47.0000059,1,0,0,response5disk,,2,-11.39994072,-11.00000536,1,0,0,rectangle,-11.39994072,-11.00000536,1,0,0,-11.39994072,-11.00000536,1,0,0,0,38,38,159,1,,,,,,,,
,,,,,,,,,,,,,FF,,,,,,,,1.3834,,,,,,,,,,,,,,,,,,,,,,610347b5b849c3e6a52e4a4a,61036ba78e5a51decd2b1813,2021-07-29_20h06.08.446,Simcolourproject_2stim_asymm_v5,2020.2.10,Win32,60,61025ae37ef11b136ea224fe,,,,,,,,,869,71.80001169,-42.20000583,1,0,0,response3disk,,5,-1.799989402,4.999994874,1,0,0,rectangle,-1.799989402,4.999994874,1,0,0,-1.799989402,4.999994874,1,0,0,0,39,39,152,1,,,,,,,,
,,,,,,,,,,,,,FF,,,,,,,,1.5834,,,,,,,,,,,,,,,,,,,,,,610347b5b849c3e6a52e4a4a,61036ba78e5a51decd2b1813,2021-07-29_20h06.08.446,Simcolourproject_2stim_asymm_v5,2020.2.10,Win32,60,61025ae37ef11b136ea224fe,,,,,,,,,3439,99.80001211,35.39999533,1,0,0,response1disk,,6,24.60005982,-8.600005329,1,0,0,rectangle,24.60005982,-8.600005329,1,0,0,24.60005982,-8.600005329,1,0,0,0,40,40,3,1,,,,,,,,
,,,,,,,,,,,,,FF,,,,,,,,0.8167,,,,,,,,,,,,,,,,,,,,,,610347b5b849c3e6a52e4a4a,61036ba78e5a51decd2b1813,2021-07-29_20h06.08.446,Simcolourproject_2stim_asymm_v5,2020.2.10,Win32,60,61025ae37ef11b136ea224fe,,,,,,,,,2194,30.20001107,80.99999601,1,0,0,response1disk,,7,-4.99998945,-8.600005329,1,0,0,rectangle,-4.99998945,-8.600005329,1,0,0,-4.99998945,-8.600005329,1,0,0,0,41,41,6,1,,,,,,,,
,,,,,,,,,,,,,FF,,,,,,,,1.1165,,,,,,,,,,,,,,,,,,,,,,610347b5b849c3e6a52e4a4a,61036ba78e5a51decd2b1813,2021-07-29_20h06.08.446,Simcolourproject_2stim_asymm_v5,2020.2.10,Win32,60,61025ae37ef11b136ea224fe,,,,,,,,,3003,-33.79998988,-52.60000598,1,0,0,response5disk,,3,-12.99998957,1.799994826,1,0,0,rectangle,-12.99998957,1.799994826,1,0,0,-12.99998957,1.799994826,1,0,0,0,42,42,40,1,,,,,,,,
,,,,,,,,,,,,,FF,,,,,,,,1.3674,,,,,,,,,,,,,,,,,,,,,,610347b5b849c3e6a52e4a4a,61036ba78e5a51decd2b1813,2021-07-29_20h06.08.446,Simcolourproject_2stim_asymm_v5,2020.2.10,Win32,60,61025ae37ef11b136ea224fe,,,,,,,,,4336,-48.19999009,75.39999592,1,0,0,response7disk,,0,5.400010705,3.39999485,1,0,0,rectangle,5.400010705,3.39999485,1,0,0,5.400010705,3.39999485,1,0,0,0,43,43,7,1,,,,,,,,
,,,,,,,,,,,,,FF,,,,,,,,1.3001,,,,,,,,,,,,,,,,,,,,,,610347b5b849c3e6a52e4a4a,61036ba78e5a51decd2b1813,2021-07-29_20h06.08.446,Simcolourproject_2stim_asymm_v5,2020.2.10,Win32,60,61025ae37ef11b136ea224fe,,,,,,,,,3702,52.60006024,25.79999518,1,0,0,response1disk,,6,9.400010765,-2.200005233,1,0,0,rectangle,9.400010765,-2.200005233,1,0,0,9.400010765,-2.200005233,1,0,0,0,44,44,124,1,,,,,,,,
,,,,,,,,,,,,,FF,,,,,,,,0.92,,,,,,,,,,,,,,,,,,,,,,610347b5b849c3e6a52e4a4a,61036ba78e5a51decd2b1813,2021-07-29_20h06.08.446,Simcolourproject_2stim_asymm_v5,2020.2.10,Win32,60,61025ae37ef11b136ea224fe,,,,,,,,,2505,36.60006,92.19999617,1,0,0,response1disk,,7,1.400010645,-7.800029731,1,0,0,rectangle,36.60006,-92.60000658,1,0,0,-4.199989438,7.39999491,1,0,0,0,45,45,54,1,,response3disk_3,TRUE,4,4,"[14,53,46,38,115,260,277,36,275,92,235,87,170,33,115,116,295,184,105,112]",1.3502,rectangle
,,,,,,,,,,,,,FF,,,,,,,,2.0666,,,,,,,,,,,,,,,,,,,,,,610347b5b849c3e6a52e4a4a,61036ba78e5a51decd2b1813,2021-07-29_20h06.08.446,Simcolourproject_2stim_asymm_v5,2020.2.10,Win32,60,61025ae37ef11b136ea224fe,,,,,,,,,2351,35.00001115,-56.60000604,1,0,0,response3disk,,4,-4.99998945,7.39999491,1,0,0,rectangle,-4.99998945,7.39999491,1,0,0,-4.99998945,7.39999491,1,0,0,0,46,46,58,1,,,,,,,,
,,,,,,,,,,,,,FF,,,,,,,,0.9672,,,,,,,,,,,,,,,,,,,,,,610347b5b849c3e6a52e4a4a,61036ba78e5a51decd2b1813,2021-07-29_20h06.08.446,Simcolourproject_2stim_asymm_v5,2020.2.10,Win32,60,61025ae37ef11b136ea224fe,,,,,,,,,1067,43.80001128,80.99999601,1,0,0,response1disk,,7,-3.399940598,0.199970388,1,0,0,rectangle,-3.399940598,0.199970388,1,0,0,-3.399940598,0.199970388,1,0,0,0,47,47,144,1,,,,,,,,
,,,,,,,,,,,,,FF,,,,,,,,1.5456,,,,,,,,,,,,,,,,,,,,,,610347b5b849c3e6a52e4a4a,61036ba78e5a51decd2b1813,2021-07-29_20h06.08.446,Simcolourproject_2stim_asymm_v5,2020.2.10,Win32,60,61025ae37ef11b136ea224fe,,,,,,,,,3237,65.4000116,-37.40003017,1,0,0,response3disk,,5,0.600059462,8.199970508,1,0,0,rectangle,0.600059462,8.199970508,1,0,0,0.600059462,8.199970508,1,0,0,0,48,48,133,1,,,,,,,,
,,,,,,,,,,,,,FF,,,,,,,,0.9167,,,,,,,,,,,,,,,,,,,,,,610347b5b849c3e6a52e4a4a,61036ba78e5a51decd2b1813,2021-07-29_20h06.08.446,Simcolourproject_2stim_asymm_v5,2020.2.10,Win32,60,61025ae37ef11b136ea224fe,,,,,,,,,3135,36.60006,72.99999589,1,0,0,response1disk,,7,-4.199989438,-13.40002981,1,0,0,rectangle,-4.199989438,-13.40002981,1,0,0,-4.199989438,-13.40002981,1,0,0,0,49,49,50,1,,,,,,,,
,,,,,,,,,,,,,FF,,,,,,,,1.1505,,,,,,,,,,,,,,,,,,,,,,610347b5b849c3e6a52e4a4a,61036ba78e5a51decd2b1813,2021-07-29_20h06.08.446,Simcolourproject_2stim_asymm_v5,2020.2.10,Win32,60,61025ae37ef11b136ea224fe,,,,,,,,,1125,54.20001143,34.5999709,1,0,0,response1disk,,6,15.00001085,8.199970508,1,0,0,rectangle,15.00001085,8.199970508,1,0,0,15.00001085,8.199970508,1,0,0,0,50,50,49,1,,,,,,,,
,,,,,,,,,,,,,FF,,,,,,,,1.9054,,,,,,,,,,,,,,,,,,,,,,610347b5b849c3e6a52e4a4a,61036ba78e5a51decd2b1813,2021-07-29_20h06.08.446,Simcolourproject_2stim_asymm_v5,2020.2.10,Win32,60,61025ae37ef11b136ea224fe,,,,,,,,,1184,45.4000113,94.5999718,1,0,0,response1disk,,7,1.400010645,-9.400029755,1,0,0,rectangle,1.400010645,-9.400029755,1,0,0,1.400010645,-9.400029755,1,0,0,0,51,51,142,1,,,,,,,,
,,,,,,,,,,,,,FF,,,,,,,,1.417,,,,,,,,,,,,,,,,,,,,,,610347b5b849c3e6a52e4a4a,61036ba78e5a51decd2b1813,2021-07-29_20h06.08.446,Simcolourproject_2stim_asymm_v5,2020.2.10,Win32,60,61025ae37ef11b136ea224fe,,,,,,,,,1251,43.80001128,26.59997078,1,0,0,response1disk,,6,-8.99998951,-3.000005245,1,0,0,rectangle,-50.59999013,83.39999604,1,0,0,2.200010657,-3.000005245,1,0,0,0,52,52,33,1,,response7disk_3,TRUE,0,0,"[14,53,46,38,115,260,277,36,275,92,235,87,170,33,115,116,295,184,105,112]",1.4339,rectangle
,,,,,,,,,,,,,FF,,,,,,,,0.8726,,,,,,,,,,,,,,,,,,,,,,610347b5b849c3e6a52e4a4a,61036ba78e5a51decd2b1813,2021-07-29_20h06.08.446,Simcolourproject_2stim_asymm_v5,2020.2.10,Win32,60,61025ae37ef11b136ea224fe,,,,,,,,,297,50.20001137,86.59997168,1,0,0,response1disk,,7,-5.799989462,-3.000005245,1,0,0,rectangle,-5.799989462,-3.000005245,1,0,0,-5.799989462,-3.000005245,1,0,0,0,53,53,120,1,,,,,,,,
,,,,,,,,,,,,,FF,,,,,,,,0.8,,,,,,,,,,,,,,,,,,,,,,610347b5b849c3e6a52e4a4a,61036ba78e5a51decd2b1813,2021-07-29_20h06.08.446,Simcolourproject_2stim_asymm_v5,2020.2.10,Win32,60,61025ae37ef11b136ea224fe,,,,,,,,,1510,64.60006042,112.1999965,1,0,0,response1disk,,7,-0.199989378,13.79999501,1,0,0,rectangle,-0.199989378,13.79999501,1,0,0,-0.199989378,13.79999501,1,0,0,0,54,54,131,1,,,,,,,,
,,,,,,,,,,,,,FF,,,,,,,,1.9168,,,,,,,,,,,,,,,,,,,,,,610347b5b849c3e6a52e4a4a,61036ba78e5a51decd2b1813,2021-07-29_20h06.08.446,Simcolourproject_2stim_asymm_v5,2020.2.10,Win32,60,61025ae37ef11b136ea224fe,,,,,,,,,237,32.60005994,74.5999715,1,0,0,response1disk,,7,7.000010729,-7.800029731,1,0,0,rectangle,7.000010729,-7.800029731,1,0,0,7.000010729,-7.800029731,1,0,0,0,55,55,129,1,,,,,,,,
,,,,,,,,,,,,,FF,,,,,,,,2.8002,,,,,,,,,,,,,,,,,,,,,,610347b5b849c3e6a52e4a4a,61036ba78e5a51decd2b1813,2021-07-29_20h06.08.446,Simcolourproject_2stim_asymm_v5,2020.2.10,Win32,60,61025ae37ef11b136ea224fe,,,,,,,,,2508,49.40001136,88.99999613,1,0,0,response1disk,,7,5.400010705,8.999994934,1,0,0,rectangle,5.400010705,8.999994934,1,0,0,5.400010705,8.999994934,1,0,0,0,56,56,102,1,,,,,,,,
,,,,,,,,,,,,,FF,,,,,,,,0.7169,,,,,,,,,,,,,,,,,,,,,,610347b5b849c3e6a52e4a4a,61036ba78e5a51decd2b1813,2021-07-29_20h06.08.446,Simcolourproject_2stim_asymm_v5,2020.2.10,Win32,60,61025ae37ef11b136ea224fe,,,,,,,,,4370,-42.59999001,80.19999599,1,0,0,response7disk,,0,-4.99998945,7.39999491,1,0,0,rectangle,-4.99998945,7.39999491,1,0,0,-4.99998945,7.39999491,1,0,0,0,57,57,43,1,,,,,,,,
,,,,,,,,,,,,,FF,,,,,,,,1.2837,,,,,,,,,,,,,,,,,,,,,,610347b5b849c3e6a52e4a4a,61036ba78e5a51decd2b1813,2021-07-29_20h06.08.446,Simcolourproject_2stim_asymm_v5,2020.2.10,Win32,60,61025ae37ef11b136ea224fe,,,,,,,,,2219,-34.59998989,-88.60000652,1,0,0,response5disk,,3,-5.799989462,-3.000005245,1,0,0,rectangle,-5.799989462,-3.000005245,1,0,0,-5.799989462,-3.000005245,1,0,0,0,58,58,78,1,,,,,,,,
,,,,,,,,,,,,,FF,,,,,,,,0.7887,,,,,,,,,,,,,,,,,,,,,,610347b5b849c3e6a52e4a4a,61036ba78e5a51decd2b1813,2021-07-29_20h06.08.446,Simcolourproject_2stim_asymm_v5,2020.2.10,Win32,60,61025ae37ef11b136ea224fe,,,,,,,,,502,46.20001131,100.1999963,1,0,0,response1disk,,7,-16.19998962,0.199970388,1,0,0,rectangle,-16.19998962,0.199970388,1,0,0,-16.19998962,0.199970388,1,0,0,0,59,59,83,1,,,,,,,,
,,,,,,,,,,,,,FF,,,,,,,,1.0502,,,,,,,,,,,,,,,,,,,,,,610347b5b849c3e6a52e4a4a,61036ba78e5a51decd2b1813,2021-07-29_20h06.08.446,Simcolourproject_2stim_asymm_v5,2020.2.10,Win32,60,61025ae37ef11b136ea224fe,,,,,,,,,3908,-72.19999045,33.7999953,1,0,0,response7disk,,1,13.40001082,-3.800029671,1,0,0,rectangle,13.40001082,-3.800029671,1,0,0,13.40001082,-3.800029671,1,0,0,0,60,60,93,1,,,,,,,,
,,,,,,,,,,,,,FF,,,,,,,,1.3334,,,,,,,,,,,,,,,,,,,,,,610347b5b849c3e6a52e4a4a,61036ba78e5a51decd2b1813,2021-07-29_20h06.08.446,Simcolourproject_2stim_asymm_v5,2020.2.10,Win32,60,61025ae37ef11b136ea224fe,,,,,,,,,4277,64.60006042,-27.0000056,1,0,0,response3disk,,5,-1.799989402,3.39999485,1,0,0,rectangle,-1.799989402,3.39999485,1,0,0,-1.799989402,3.39999485,1,0,0,0,61,61,156,1,,,,,,,,
,,,,,,,,,,,,,FF,,,,,,,,1.3833,,,,,,,,,,,,,,,,,,,,,,610347b5b849c3e6a52e4a4a,61036ba78e5a51decd2b1813,2021-07-29_20h06.08.446,Simcolourproject_2stim_asymm_v5,2020.2.10,Win32,60,61025ae37ef11b136ea224fe,,,,,,,,,393,65.4000116,29.79999524,1,0,0,response1disk,,6,7.000010729,10.59997054,1,0,0,rectangle,7.000010729,10.59997054,1,0,0,7.000010729,10.59997054,1,0,0,0,62,62,92,1,,,,,,,,
,,,,,,,,,,,,,FF,,,,,,,,0.6723,,,,,,,,,,,,,,,,,,,,,,610347b5b849c3e6a52e4a4a,61036ba78e5a51decd2b1813,2021-07-29_20h06.08.446,Simcolourproject_2stim_asymm_v5,2020.2.10,Win32,60,61025ae37ef11b136ea224fe,,,,,,,,,1160,47.80001134,67.3999958,1,0,0,response1disk,,7,1.400010645,0.999994814,1,0,0,rectangle,1.400010645,0.999994814,1,0,0,1.400010645,0.999994814,1,0,0,0,63,63,110,1,,,,,,,,
,,,,,,,,,,,,,FF,,,,,,,,3.9795,,,,,,,,,,,,,,,,,,,,,,610347b5b849c3e6a52e4a4a,61036ba78e5a51decd2b1813,2021-07-29_20h06.08.446,Simcolourproject_2stim_asymm_v5,2020.2.10,Win32,60,61025ae37ef11b136ea224fe,,,,,,,,,1088,72.60006053,-39.00000578,1,0,0,response3disk,,5,2.200010657,-6.200005293,1,0,0,rectangle,2.200010657,-6.200005293,1,0,0,2.200010657,-6.200005293,1,0,0,0,64,64,63,1,,,,,,,,
,,,,,,,,,,,,,FF,,,,,,,,1.8664,,,,,,,,,,,,,,,,,,,,,,610347b5b849c3e6a52e4a4a,61036ba78e5a51decd2b1813,2021-07-29_20h06.08.446,Simcolourproject_2stim_asymm_v5,2020.2.10,Win32,60,61025ae37ef11b136ea224fe,,,,,,,,,146,36.60006,81.79999602,1,0,0,response1disk,,7,-5.799989462,-3.000005245,1,0,0,rectangle,-5.799989462,-3.000005245,1,0,0,-5.799989462,-3.000005245,1,0,0,0,65,65,21,1,,,,,,,,
,,,,,,,,,,,,,FF,,,,,,,,2.0356,,,,,,,,,,,,,,,,,,,,,,610347b5b849c3e6a52e4a4a,61036ba78e5a51decd2b1813,2021-07-29_20h06.08.446,Simcolourproject_2stim_asymm_v5,2020.2.10,Win32,60,61025ae37ef11b136ea224fe,,,,,,,,,3211,51.8000114,64.99999577,1,0,0,response1disk,,7,2.200010657,4.999994874,1,0,0,rectangle,2.200010657,4.999994874,1,0,0,2.200010657,4.999994874,1,0,0,0,66,66,90,1,,,,,,,,
,,,,,,,,,,,,,FF,,,,,,,,0.9002,,,,,,,,,,,,,,,,,,,,,,610347b5b849c3e6a52e4a4a,61036ba78e5a51decd2b1813,2021-07-29_20h06.08.446,Simcolourproject_2stim_asymm_v5,2020.2.10,Win32,60,61025ae37ef11b136ea224fe,,,,,,,,,3032,48.60006018,79.39999598,0,0,1,response1disk,,7,-0.199989378,2.599970424,1,0,0,rectangle,-0.199989378,2.599970424,1,0,0,-0.199989378,2.599970424,1,0,0,0,67,67,2,1,,,,,,,,
,,,,,,,,,,,,,FF,,,,,,,,1.4333,,,,,,,,,,,,,,,,,,,,,,610347b5b849c3e6a52e4a4a,61036ba78e5a51decd2b1813,2021-07-29_20h06.08.446,Simcolourproject_2stim_asymm_v5,2020.2.10,Win32,60,61025ae37ef11b136ea224fe,,,,,,,,,2888,-64.19999033,49.79999554,1,0,0,response7disk,,1,7.800010741,-3.800029671,1,0,0,rectangle,7.800010741,-3.800029671,1,0,0,7.800010741,-3.800029671,1,0,0,0,68,68,10,1,,,,,,,,
,,,,,,,,,,,,,FF,,,,,,,,2.0334,,,,,,,,,,,,,,,,,,,,,,610347b5b849c3e6a52e4a4a,61036ba78e5a51decd2b1813,2021-07-29_20h06.08.446,Simcolourproject_2stim_asymm_v5,2020.2.10,Win32,60,61025ae37ef11b136ea224fe,,,,,,,,,2846,79.0000118,-22.20000553,1,0,0,response3disk,,5,4.600059521,1.799994826,1,0,0,rectangle,4.600059521,1.799994826,1,0,0,4.600059521,1.799994826,1,0,0,0,69,69,80,1,,,,,,,,
,,,,,,,,,,,,,FF,,,,,,,,0.8332,,,,,,,,,,,,,,,,,,,,,,610347b5b849c3e6a52e4a4a,61036ba78e5a51decd2b1813,2021-07-29_20h06.08.446,Simcolourproject_2stim_asymm_v5,2020.2.10,Win32,60,61025ae37ef11b136ea224fe,,,,,,,,,2579,39.00001121,68.1999714,1,0,0,response1disk,,7,-0.199989378,-5.400029695,1,0,0,rectangle,-0.199989378,-5.400029695,1,0,0,-0.199989378,-5.400029695,1,0,0,0,70,70,23,1,,,,,,,,
,,,,,,,,,,,,,FF,,,,,,,,2.1727,,,,,,,,,,,,,,,,,,,,,,610347b5b849c3e6a52e4a4a,61036ba78e5a51decd2b1813,2021-07-29_20h06.08.446,Simcolourproject_2stim_asymm_v5,2020.2.10,Win32,60,61025ae37ef11b136ea224fe,,,,,,,,,1322,92.60006083,63.39999574,1,0,0,response1disk,,6,18.2000109,-1.400029635,1,0,0,rectangle,18.2000109,-1.400029635,1,0,0,18.2000109,-1.400029635,1,0,0,0,71,71,134,1,,,,,,,,
,,,,,,,,,,,,,FF,,,,,,,,1.3722,,,,,,,,,,,,,,,,,,,,,,610347b5b849c3e6a52e4a4a,61036ba78e5a51decd2b1813,2021-07-29_20h06.08.446,Simcolourproject_2stim_asymm_v5,2020.2.10,Win32,60,61025ae37ef11b136ea224fe,,,,,,,,,1202,26.20001101,-95.00000662,1,0,0,response3disk,,4,11.8000108,-7.800029731,1,0,0,rectangle,11.8000108,-7.800029731,1,0,0,11.8000108,-7.800029731,1,0,0,0,72,72,1,1,,,,,,,,
,,,,,,,,,,,,,FF,,,,,,,,1.9502,,,,,,,,,,,,,,,,,,,,,,610347b5b849c3e6a52e4a4a,61036ba78e5a51decd2b1813,2021-07-29_20h06.08.446,Simcolourproject_2stim_asymm_v5,2020.2.10,Win32,60,61025ae37ef11b136ea224fe,,,,,,,,,2390,94.20001203,43.39999545,1,0,0,response1disk,,6,13.40001082,1.799994826,1,0,0,rectangle,13.40001082,1.799994826,1,0,0,13.40001082,1.799994826,1,0,0,0,73,73,66,1,,,,,,,,
,,,,,,,,,,,,,FF,,,,,,,,0.8164,,,,,,,,,,,,,,,,,,,,,,610347b5b849c3e6a52e4a4a,61036ba78e5a51decd2b1813,2021-07-29_20h06.08.446,Simcolourproject_2stim_asymm_v5,2020.2.10,Win32,60,61025ae37ef11b136ea224fe,,,,,,,,,121,40.60006006,90.59997174,1,0,0,response1disk,,7,-4.199989438,-5.400029695,1,0,0,rectangle,-4.199989438,-5.400029695,1,0,0,-4.199989438,-5.400029695,1,0,0,0,74,74,141,1,,,,,,,,
,,,,,,,,,,,,,FF,,,,,,,,2.3166,,,,,,,,,,,,,,,,,,,,,,610347b5b849c3e6a52e4a4a,61036ba78e5a51decd2b1813,2021-07-29_20h06.08.446,Simcolourproject_2stim_asymm_v5,2020.2.10,Win32,60,61025ae37ef11b136ea224fe,,,,,,,,,3463,69.40001166,-31.80003009,1,0,0,response3disk,,5,1.400010645,3.39999485,1,0,0,rectangle,1.400010645,3.39999485,1,0,0,1.400010645,3.39999485,1,0,0,0,75,75,71,1,,,,,,,,
,,,,,,,,,,,,,FF,,,,,,,,1.2502,,,,,,,,,,,,,,,,,,,,,,610347b5b849c3e6a52e4a4a,61036ba78e5a51decd2b1813,2021-07-29_20h06.08.446,Simcolourproject_2stim_asymm_v5,2020.2.10,Win32,60,61025ae37ef11b136ea224fe,,,,,,,,,889,-51.39994131,-59.80003051,1,0,0,response5disk,,3,7.000010729,-0.600005209,1,0,0,rectangle,7.000010729,-0.600005209,1,0,0,7.000010729,-0.600005209,1,0,0,0,76,76,15,1,,,,,,,,
,,,,,,,,,,,,,FF,,,,,,,,2.0337,,,,,,,,,,,,,,,,,,,,,,610347b5b849c3e6a52e4a4a,61036ba78e5a51decd2b1813,2021-07-29_20h06.08.446,Simcolourproject_2stim_asymm_v5,2020.2.10,Win32,60,61025ae37ef11b136ea224fe,,,,,,,,,3826,99.0000121,34.5999709,1,0,0,response1disk,,6,-12.19998956,1.799994826,1,0,0,rectangle,-12.19998956,1.799994826,1,0,0,-12.19998956,1.799994826,1,0,0,0,77,77,121,1,,,,,,,,
,,,,,,,,,,,,,FF,,,,,,,,3.0166,,,,,,,,,,,,,,,,,,,,,,610347b5b849c3e6a52e4a4a,61036ba78e5a51decd2b1813,2021-07-29_20h06.08.446,Simcolourproject_2stim_asymm_v5,2020.2.10,Win32,60,61025ae37ef11b136ea224fe,,,,,,,,,894,-36.19998991,-69.40000623,1,0,0,response5disk,,3,-12.19998956,-2.200005233,1,0,0,rectangle,-12.19998956,-2.200005233,1,0,0,-12.19998956,-2.200005233,1,0,0,0,78,78,145,1,,,,,,,,
,,,,,,,,,,,,,FF,,,,,,,,0.8512,,,,,,,,,,,,,,,,,,,,,,610347b5b849c3e6a52e4a4a,61036ba78e5a51decd2b1813,2021-07-29_20h06.08.446,Simcolourproject_2stim_asymm_v5,2020.2.10,Win32,60,61025ae37ef11b136ea224fe,,,,,,,,,848,34.20001113,68.99999583,1,0,0,response1disk,,7,-10.59998953,-4.600005269,1,0,0,rectangle,-10.59998953,-4.600005269,1,0,0,-10.59998953,-4.600005269,1,0,0,0,79,79,99,1,,,,,,,,
,,,,,,,,,,,,,FF,,,,,,,,1.4332,,,,,,,,,,,,,,,,,,,,,,610347b5b849c3e6a52e4a4a,61036ba78e5a51decd2b1813,2021-07-29_20h06.08.446,Simcolourproject_2stim_asymm_v5,2020.2.10,Win32,60,61025ae37ef11b136ea224fe,,,,,,,,,2060,92.60006083,48.1999711,1,0,0,response1disk,,6,12.60005964,-2.200005233,1,0,0,rectangle,12.60005964,-2.200005233,1,0,0,12.60005964,-2.200005233,1,0,0,0,80,80,98,1,,,,,,,,
,,,,,,,,,,,,,FF,,,,,,,,1.5001,,,,,,,,,,,,,,,,,,,,,,610347b5b849c3e6a52e4a4a,61036ba78e5a51decd2b1813,2021-07-29_20h06.08.446,Simcolourproject_2stim_asymm_v5,2020.2.10,Win32,60,61025ae37ef11b136ea224fe,,,,,,,,,1077,49.40001136,-79.00000638,1,0,0,response3disk,,4,-2.599989414,8.999994934,1,0,0,rectangle,-2.599989414,8.999994934,1,0,0,-2.599989414,8.999994934,1,0,0,0,81,81,150,1,,,,,,,,
,,,,,,,,,,,,,FF,,,,,,,,0.8507,,,,,,,,,,,,,,,,,,,,,,610347b5b849c3e6a52e4a4a,61036ba78e5a51decd2b1813,2021-07-29_20h06.08.446,Simcolourproject_2stim_asymm_v5,2020.2.10,Win32,60,61025ae37ef11b136ea224fe,,,,,,,,,2578,49.40001136,87.3999961,1,0,0,response1disk,,7,-0.199989378,-7.000005305,1,0,0,rectangle,-0.199989378,-7.000005305,1,0,0,-0.199989378,-7.000005305,1,0,0,0,82,82,115,1,,,,,,,,
,,,,,,,,,,,,,FF,,,,,,,,1.3881,,,,,,,,,,,,,,,,,,,,,,610347b5b849c3e6a52e4a4a,61036ba78e5a51decd2b1813,2021-07-29_20h06.08.446,Simcolourproject_2stim_asymm_v5,2020.2.10,Win32,60,61025ae37ef11b136ea224fe,,,,,,,,,1437,87.80001193,52.99999559,1,0,0,response1disk,,6,1.400010645,-3.000005245,1,0,0,rectangle,1.400010645,-3.000005245,1,0,0,1.400010645,-3.000005245,1,0,0,0,83,83,9,1,,,,,,,,
,,,,,,,,,,,,,FF,,,,,,,,1.1334,,,,,,,,,,,,,,,,,,,,,,610347b5b849c3e6a52e4a4a,61036ba78e5a51decd2b1813,2021-07-29_20h06.08.446,Simcolourproject_2stim_asymm_v5,2020.2.10,Win32,60,61025ae37ef11b136ea224fe,,,,,,,,,1482,42.20001125,67.3999958,1,0,0,response1disk,,7,-6.599989474,-7.800029731,1,0,0,rectangle,-6.599989474,-7.800029731,1,0,0,-6.599989474,-7.800029731,1,0,0,0,84,84,8,1,,,,,,,,
,,,,,,,,,,,,,FF,,,,,,,,1.2513,,,,,,,,,,,,,,,,,,,,,,610347b5b849c3e6a52e4a4a,61036ba78e5a51decd2b1813,2021-07-29_20h06.08.446,Simcolourproject_2stim_asymm_v5,2020.2.10,Win32,60,61025ae37ef11b136ea224fe,,,,,,,,,2179,49.40001136,-75.80000633,1,0,0,response3disk,,4,12.60005964,-10.20000535,1,0,0,rectangle,12.60005964,-10.20000535,1,0,0,12.60005964,-10.20000535,1,0,0,0,85,85,65,1,,,,,,,,
,,,,,,,,,,,,,FF,,,,,,,,1.9172,,,,,,,,,,,,,,,,,,,,,,610347b5b849c3e6a52e4a4a,61036ba78e5a51decd2b1813,2021-07-29_20h06.08.446,Simcolourproject_2stim_asymm_v5,2020.2.10,Win32,60,61025ae37ef11b136ea224fe,,,,,,,,,264,-52.19999015,66.59997138,1,0,0,response7disk,,0,-4.199989438,9.799994946,1,0,0,rectangle,83.80001187,-44.60000587,1,0,0,1.400010645,0.999994814,1,0,0,0,86,86,13,1,,response3disk_3,TRUE,5,5,"[14,53,46,38,115,260,277,36,275,92,235,87,170,33,115,116,295,184,105,112]",1.6971,rectangle
,,,,,,,,,,,,,FF,,,,,,,,1.1832,,,,,,,,,,,,,,,,,,,,,,610347b5b849c3e6a52e4a4a,61036ba78e5a51decd2b1813,2021-07-29_20h06.08.446,Simcolourproject_2stim_asymm_v5,2020.2.10,Win32,60,61025ae37ef11b136ea224fe,,,,,,,,,1613,-79.39994173,-30.20000565,1,0,0,response5disk,,2,7.000010729,3.39999485,1,0,0,rectangle,7.000010729,3.39999485,1,0,0,7.000010729,3.39999485,1,0,0,0,87,87,38,1,,,,,,,,
,,,,,,,,,,,,,FF,,,,,,,,1.4502,,,,,,,,,,,,,,,,,,,,,,610347b5b849c3e6a52e4a4a,61036ba78e5a51decd2b1813,2021-07-29_20h06.08.446,Simcolourproject_2stim_asymm_v5,2020.2.10,Win32,60,61025ae37ef11b136ea224fe,,,,,,,,,2776,-64.99999034,55.39999563,1,0,0,response7disk,,1,11.8000108,3.39999485,1,0,0,rectangle,11.8000108,3.39999485,1,0,0,11.8000108,3.39999485,1,0,0,0,88,88,140,1,,,,,,,,
,,,,,,,,,,,,,FF,,,,,,,,1.0172,,,,,,,,,,,,,,,,,,,,,,610347b5b849c3e6a52e4a4a,61036ba78e5a51decd2b1813,2021-07-29_20h06.08.446,Simcolourproject_2stim_asymm_v5,2020.2.10,Win32,60,61025ae37ef11b136ea224fe,,,,,,,,,1337,39.80001122,69.79999584,1,0,0,response1disk,,7,-8.199989498,-9.400029755,1,0,0,rectangle,-8.199989498,-9.400029755,1,0,0,-8.199989498,-9.400029755,1,0,0,0,89,89,32,1,,,,,,,,
,,,,,,,,,,,,,FF,,,,,,,,1.3668,,,,,,,,,,,,,,,,,,,,,,610347b5b849c3e6a52e4a4a,61036ba78e5a51decd2b1813,2021-07-29_20h06.08.446,Simcolourproject_2stim_asymm_v5,2020.2.10,Win32,60,61025ae37ef11b136ea224fe,,,,,,,,,749,36.60006,75.39999592,1,0,0,response1disk,,7,1.400010645,7.39999491,1,0,0,rectangle,1.400010645,7.39999491,1,0,0,1.400010645,7.39999491,1,0,0,0,90,90,112,1,,,,,,,,
,,,,,,,,,,,,,FF,,,,,,,,0.8054,,,,,,,,,,,,,,,,,,,,,,610347b5b849c3e6a52e4a4a,61036ba78e5a51decd2b1813,2021-07-29_20h06.08.446,Simcolourproject_2stim_asymm_v5,2020.2.10,Win32,60,61025ae37ef11b136ea224fe,,,,,,,,,573,47.00001132,96.99999624,1,0,0,response1disk,,7,1.400010645,4.999994874,1,0,0,rectangle,43.00001127,87.3999961,1,0,0,-1.799989402,0.199970388,1,0,0,0,91,91,0,1,,response1disk_3,TRUE,7,7,"[14,53,46,38,115,260,277,36,275,92,235,87,170,33,115,116,295,184,105,112]",1.5997,rectangle
,,,,,,,,,,,,,FF,,,,,,,,0.8668,,,,,,,,,,,,,,,,,,,,,,610347b5b849c3e6a52e4a4a,61036ba78e5a51decd2b1813,2021-07-29_20h06.08.446,Simcolourproject_2stim_asymm_v5,2020.2.10,Win32,60,61025ae37ef11b136ea224fe,,,,,,,,,1817,-45.79999006,89.79999614,1,0,0,response7disk,,0,-1.799989402,0.999994814,1,0,0,rectangle,-1.799989402,0.999994814,1,0,0,-1.799989402,0.999994814,1,0,0,0,92,92,55,1,,,,,,,,
,,,,,,,,,,,,,FF,,,,,,,,1.0821,,,,,,,,,,,,,,,,,,,,,,610347b5b849c3e6a52e4a4a,61036ba78e5a51decd2b1813,2021-07-29_20h06.08.446,Simcolourproject_2stim_asymm_v5,2020.2.10,Win32,60,61025ae37ef11b136ea224fe,,,,,,,,,2237,-38.59998995,-47.0000059,1,0,0,response5disk,,3,8.600059581,2.599970424,1,0,0,rectangle,8.600059581,2.599970424,1,0,0,8.600059581,2.599970424,1,0,0,0,93,93,62,1,,,,,,,,
,,,,,,,,,,,,,FF,,,,,,,,2.8837,,,,,,,,,,,,,,,,,,,,,,610347b5b849c3e6a52e4a4a,61036ba78e5a51decd2b1813,2021-07-29_20h06.08.446,Simcolourproject_2stim_asymm_v5,2020.2.10,Win32,60,61025ae37ef11b136ea224fe,,,,,,,,,2109,95.80001205,47.39999551,1,0,0,response1disk,,6,7.000010729,4.199970448,1,0,0,rectangle,7.000010729,4.199970448,1,0,0,7.000010729,4.199970448,1,0,0,0,94,94,37,1,,,,,,,,
,,,,,,,,,,,,,FF,,,,,,,,0.9999,,,,,,,,,,,,,,,,,,,,,,610347b5b849c3e6a52e4a4a,61036ba78e5a51decd2b1813,2021-07-29_20h06.08.446,Simcolourproject_2stim_asymm_v5,2020.2.10,Win32,60,61025ae37ef11b136ea224fe,,,,,,,,,2491,41.40001124,68.1999714,1,0,0,response1disk,,7,-8.99998951,-1.400029635,1,0,0,rectangle,-8.99998951,-1.400029635,1,0,0,-8.99998951,-1.400029635,1,0,0,0,95,95,108,1,,,,,,,,
,,,,,,,,,,,,,FF,,,,,,,,1.4173,,,,,,,,,,,,,,,,,,,,,,610347b5b849c3e6a52e4a4a,61036ba78e5a51decd2b1813,2021-07-29_20h06.08.446,Simcolourproject_2stim_asymm_v5,2020.2.10,Win32,60,61025ae37ef11b136ea224fe,,,,,,,,,3879,-53.79999018,-39.80003021,1,0,0,response5disk,,2,-2.599989414,0.199970388,1,0,0,rectangle,-2.599989414,0.199970388,1,0,0,-2.599989414,0.199970388,1,0,0,0,96,96,56,1,,,,,,,,
,,,,,,,,,,,,,FF,,,,,,,,1.1502,,,,,,,,,,,,,,,,,,,,,,610347b5b849c3e6a52e4a4a,61036ba78e5a51decd2b1813,2021-07-29_20h06.08.446,Simcolourproject_2stim_asymm_v5,2020.2.10,Win32,60,61025ae37ef11b136ea224fe,,,,,,,,,860,41.40001124,69.79999584,1,0,0,response1disk,,7,5.400010705,4.999994874,1,0,0,rectangle,5.400010705,4.999994874,1,0,0,5.400010705,4.999994874,1,0,0,0,97,97,109,1,,,,,,,,
,,,,,,,,,,,,,FF,,,,,,,,2.0957,,,,,,,,,,,,,,,,,,,,,,610347b5b849c3e6a52e4a4a,61036ba78e5a51decd2b1813,2021-07-29_20h06.08.446,Simcolourproject_2stim_asymm_v5,2020.2.10,Win32,60,61025ae37ef11b136ea224fe,,,,,,,,,4348,-21.7999897,-91.80000657,1,0,0,response5disk,,3,2.200010657,-2.200005233,1,0,0,rectangle,2.200010657,-2.200005233,1,0,0,2.200010657,-2.200005233,1,0,0,0,98,98,81,1,,,,,,,,
,,,,,,,,,,,,,FF,,,,,,,,0.9005,,,,,,,,,,,,,,,,,,,,,,610347b5b849c3e6a52e4a4a,61036ba78e5a51decd2b1813,2021-07-29_20h06.08.446,Simcolourproject_2stim_asymm_v5,2020.2.10,Win32,60,61025ae37ef11b136ea224fe,,,,,,,,,2000,35.00001115,96.99999624,1,0,0,response1disk,,7,-0.99998939,-0.600005209,1,0,0,rectangle,-0.99998939,-0.600005209,1,0,0,-0.99998939,-0.600005209,1,0,0,0,99,99,17,1,,,,,,,,
,,,,,,,,,,,,,FF,,,,,,,,1.0669,,,,,,,,,,,,,,,,,,,,,,610347b5b849c3e6a52e4a4a,61036ba78e5a51decd2b1813,2021-07-29_20h06.08.446,Simcolourproject_2stim_asymm_v5,2020.2.10,Win32,60,61025ae37ef11b136ea224fe,,,,,,,,,1684,-69.79999042,30.59997084,1,0,0,response7disk,,1,-8.99998951,-1.400029635,1,0,0,rectangle,-8.99998951,-1.400029635,1,0,0,-8.99998951,-1.400029635,1,0,0,0,100,100,86,1,,,,,,,,
,,,,,,,,,,,,,FF,,,,,,,,1.0824,,,,,,,,,,,,,,,,,,,,,,610347b5b849c3e6a52e4a4a,61036ba78e5a51decd2b1813,2021-07-29_20h06.08.446,Simcolourproject_2stim_asymm_v5,2020.2.10,Win32,60,61025ae37ef11b136ea224fe,,,,,,,,,1663,68.60006047,-30.20000565,1,0,0,response3disk,,5,5.400010705,9.799994946,1,0,0,rectangle,5.400010705,9.799994946,1,0,0,5.400010705,9.799994946,1,0,0,0,101,101,147,1,,,,,,,,
,,,,,,,,,,,,,FF,,,,,,,,1.3115,,,,,,,,,,,,,,,,,,,,,,610347b5b849c3e6a52e4a4a,61036ba78e5a51decd2b1813,2021-07-29_20h06.08.446,Simcolourproject_2stim_asymm_v5,2020.2.10,Win32,60,61025ae37ef11b136ea224fe,,,,,,,,,2561,41.40001124,91.39999616,1,0,0,response1disk,,7,7.800010741,-0.600005209,1,0,0,rectangle,7.800010741,-0.600005209,1,0,0,7.800010741,-0.600005209,1,0,0,0,102,102,143,1,,,,,,,,
,,,,,,,,,,,,,FF,,,,,,,,1.65,,,,,,,,,,,,,,,,,,,,,,610347b5b849c3e6a52e4a4a,61036ba78e5a51decd2b1813,2021-07-29_20h06.08.446,Simcolourproject_2stim_asymm_v5,2020.2.10,Win32,60,61025ae37ef11b136ea224fe,,,,,,,,,310,41.40001124,90.59997174,1,0,0,response1disk,,7,2.200010657,7.39999491,1,0,0,rectangle,2.200010657,7.39999491,1,0,0,2.200010657,7.39999491,1,0,0,0,103,103,51,1,,,,,,,,
,,,,,,,,,,,,,FF,,,,,,,,0.9669,,,,,,,,,,,,,,,,,,,,,,610347b5b849c3e6a52e4a4a,61036ba78e5a51decd2b1813,2021-07-29_20h06.08.446,Simcolourproject_2stim_asymm_v5,2020.2.10,Win32,60,61025ae37ef11b136ea224fe,,,,,,,,,225,34.20001113,74.5999715,1,0,0,response1disk,,7,5.400010705,7.39999491,1,0,0,rectangle,-81.79999059,-29.40003005,1,0,0,15.80001086,-3.800029671,1,0,0,0,104,104,137,1,,response5disk_3,TRUE,2,2,"[14,53,46,38,115,260,277,36,275,92,235,87,170,33,115,116,295,184,105,112]",1.9453,rectangle
,,,,,,,,,,,,,FF,,,,,,,,0.8172,,,,,,,,,,,,,,,,,,,,,,610347b5b849c3e6a52e4a4a,61036ba78e5a51decd2b1813,2021-07-29_20h06.08.446,Simcolourproject_2stim_asymm_v5,2020.2.10,Win32,60,61025ae37ef11b136ea224fe,,,,,,,,,1093,31.8000111,69.79999584,1,0,0,response1disk,,7,4.600059521,2.599970424,1,0,0,rectangle,4.600059521,2.599970424,1,0,0,4.600059521,2.599970424,1,0,0,0,105,105,118,1,,,,,,,,
,,,,,,,,,,,,,FF,,,,,,,,0.8337,,,,,,,,,,,,,,,,,,,,,,610347b5b849c3e6a52e4a4a,61036ba78e5a51decd2b1813,2021-07-29_20h06.08.446,Simcolourproject_2stim_asymm_v5,2020.2.10,Win32,60,61025ae37ef11b136ea224fe,,,,,,,,,708,39.00001121,74.5999715,1,0,0,response1disk,,7,-0.99998939,-0.600005209,1,0,0,rectangle,-0.99998939,-0.600005209,1,0,0,-0.99998939,-0.600005209,1,0,0,0,106,106,103,1,,,,,,,,
,,,,,,,,,,,,,FF,,,,,,,,1.0671,,,,,,,,,,,,,,,,,,,,,,610347b5b849c3e6a52e4a4a,61036ba78e5a51decd2b1813,2021-07-29_20h06.08.446,Simcolourproject_2stim_asymm_v5,2020.2.10,Win32,60,61025ae37ef11b136ea224fe,,,,,,,,,3346,34.20001113,87.3999961,1,0,0,response1disk,,7,9.400010765,13.79999501,1,0,0,rectangle,9.400010765,13.79999501,1,0,0,9.400010765,13.79999501,1,0,0,0,107,107,157,1,,,,,,,,
,,,,,,,,,,,,,FF,,,,,,,,0.8386,,,,,,,,,,,,,,,,,,,,,,610347b5b849c3e6a52e4a4a,61036ba78e5a51decd2b1813,2021-07-29_20h06.08.446,Simcolourproject_2stim_asymm_v5,2020.2.10,Win32,60,61025ae37ef11b136ea224fe,,,,,,,,,4013,43.80001128,76.19999593,1,0,0,response1disk,,7,9.400010765,8.199970508,1,0,0,rectangle,9.400010765,8.199970508,1,0,0,9.400010765,8.199970508,1,0,0,0,108,108,151,1,,,,,,,,
,,,,,,,,,,,,,FF,,,,,,,,1.2828,,,,,,,,,,,,,,,,,,,,,,610347b5b849c3e6a52e4a4a,61036ba78e5a51decd2b1813,2021-07-29_20h06.08.446,Simcolourproject_2stim_asymm_v5,2020.2.10,Win32,60,61025ae37ef11b136ea224fe,,,,,,,,,3203,55.00001144,-95.80000663,1,0,0,response3disk,,4,0.600059462,-5.400029695,1,0,0,rectangle,0.600059462,-5.400029695,1,0,0,0.600059462,-5.400029695,1,0,0,0,109,109,20,1,,,,,,,,
,,,,,,,,,,,,,FF,,,,,,,,0.762,,,,,,,,,,,,,,,,,,,,,,610347b5b849c3e6a52e4a4a,61036ba78e5a51decd2b1813,2021-07-29_20h06.08.446,Simcolourproject_2stim_asymm_v5,2020.2.10,Win32,60,61025ae37ef11b136ea224fe,,,,,,,,,3659,50.20001137,99.39999628,1,0,0,response1disk,,7,9.400010765,6.599970484,1,0,0,rectangle,9.400010765,6.599970484,1,0,0,9.400010765,6.599970484,1,0,0,0,110,110,70,1,,,,,,,,
,,,,,,,,,,,,,FF,,,,,,,,1.4838,,,,,,,,,,,,,,,,,,,,,,610347b5b849c3e6a52e4a4a,61036ba78e5a51decd2b1813,2021-07-29_20h06.08.446,Simcolourproject_2stim_asymm_v5,2020.2.10,Win32,60,61025ae37ef11b136ea224fe,,,,,,,,,4009,43.80001128,64.19997134,1,0,0,response1disk,,7,8.600059581,3.39999485,1,0,0,rectangle,-98.59999084,46.59997108,1,0,0,2.200010657,-2.200005233,1,0,0,0,111,111,89,1,,response7disk_3,TRUE,1,1,"[14,53,46,38,115,260,277,36,275,92,235,87,170,33,115,116,295,184,105,112]",1.3393,rectangle
,,,,,,,,,,,,,FF,,,,,,,,0.9502,,,,,,,,,,,,,,,,,,,,,,610347b5b849c3e6a52e4a4a,61036ba78e5a51decd2b1813,2021-07-29_20h06.08.446,Simcolourproject_2stim_asymm_v5,2020.2.10,Win32,60,61025ae37ef11b136ea224fe,,,,,,,,,2933,71.00001168,45.79999548,1,0,0,response1disk,,6,5.400010705,3.39999485,1,0,0,rectangle,5.400010705,3.39999485,1,0,0,5.400010705,3.39999485,1,0,0,0,112,112,87,1,,,,,,,,
,,,,,,,,,,,,,FF,,,,,,,,1.9668,,,,,,,,,,,,,,,,,,,,,,610347b5b849c3e6a52e4a4a,61036ba78e5a51decd2b1813,2021-07-29_20h06.08.446,Simcolourproject_2stim_asymm_v5,2020.2.10,Win32,60,61025ae37ef11b136ea224fe,,,,,,,,,2102,79.80001181,-63.00000614,1,0,0,response3disk,,5,-7.399940658,0.999994814,1,0,0,rectangle,-7.399940658,0.999994814,1,0,0,-7.399940658,0.999994814,1,0,0,0,113,113,31,1,,,,,,,,
,,,,,,,,,,,,,FF,,,,,,,,0.7833,,,,,,,,,,,,,,,,,,,,,,610347b5b849c3e6a52e4a4a,61036ba78e5a51decd2b1813,2021-07-29_20h06.08.446,Simcolourproject_2stim_asymm_v5,2020.2.10,Win32,60,61025ae37ef11b136ea224fe,,,,,,,,,3083,55.00001144,88.99999613,1,0,0,response1disk,,7,-0.99998939,-8.600005329,1,0,0,rectangle,-89.79999071,59.39999568,1,0,0,1.400010645,-4.600005269,1,0,0,0,114,114,5,1,,response7disk_3,TRUE,1,1,"[14,53,46,38,115,260,277,36,275,92,235,87,170,33,115,116,295,184,105,112]",1.5164,rectangle
,,,,,,,,,,,,,FF,,,,,,,,0.867,,,,,,,,,,,,,,,,,,,,,,610347b5b849c3e6a52e4a4a,61036ba78e5a51decd2b1813,2021-07-29_20h06.08.446,Simcolourproject_2stim_asymm_v5,2020.2.10,Win32,60,61025ae37ef11b136ea224fe,,,,,,,,,1014,47.00001132,96.19999623,1,0,0,response1disk,,7,6.200010717,10.59997054,1,0,0,rectangle,-92.99999076,59.39999568,1,0,0,-4.199989438,-0.600005209,1,0,0,0,115,115,104,1,,response7disk_3,TRUE,1,1,"[14,53,46,38,115,260,277,36,275,92,235,87,170,33,115,116,295,184,105,112]",1.2726,rectangle
,,,,,,,,,,,,,FF,,,,,,,,0.8499,,,,,,,,,,,,,,,,,,,,,,610347b5b849c3e6a52e4a4a,61036ba78e5a51decd2b1813,2021-07-29_20h06.08.446,Simcolourproject_2stim_asymm_v5,2020.2.10,Win32,60,61025ae37ef11b136ea224fe,,,,,,,,,3024,38.20001119,100.9999963,1,0,0,response1disk,,7,4.600059521,9.799994946,1,0,0,rectangle,4.600059521,9.799994946,1,0,0,4.600059521,9.799994946,1,0,0,0,116,116,39,1,,,,,,,,
,,,,,,,,,,,,,FF,,,,,,,,2.8208,,,,,,,,,,,,,,,,,,,,,,610347b5b849c3e6a52e4a4a,61036ba78e5a51decd2b1813,2021-07-29_20h06.08.446,Simcolourproject_2stim_asymm_v5,2020.2.10,Win32,60,61025ae37ef11b136ea224fe,,,,,,,,,934,23.80001098,65.79999578,1,0,0,response1disk,,7,0.600059462,1.799994826,1,0,0,rectangle,0.600059462,1.799994826,1,0,0,0.600059462,1.799994826,1,0,0,0,117,117,97,1,,,,,,,,
,,,,,,,,,,,,,FF,,,,,,,,1.6834,,,,,,,,,,,,,,,,,,,,,,610347b5b849c3e6a52e4a4a,61036ba78e5a51decd2b1813,2021-07-29_20h06.08.446,Simcolourproject_2stim_asymm_v5,2020.2.10,Win32,60,61025ae37ef11b136ea224fe,,,,,,,,,949,27.80001104,-75.80000633,1,0,0,response3disk,,4,0.600059462,-4.600005269,1,0,0,rectangle,0.600059462,-4.600005269,1,0,0,0.600059462,-4.600005269,1,0,0,0,118,118,139,1,,,,,,,,
,,,,,,,,,,,,,FF,,,,,,,,1.15,,,,,,,,,,,,,,,,,,,,,,610347b5b849c3e6a52e4a4a,61036ba78e5a51decd2b1813,2021-07-29_20h06.08.446,Simcolourproject_2stim_asymm_v5,2020.2.10,Win32,60,61025ae37ef11b136ea224fe,,,,,,,,,2688,40.60006006,70.59997144,1,0,0,response1disk,,7,3.800010681,-2.200005233,1,0,0,rectangle,3.800010681,-2.200005233,1,0,0,3.800010681,-2.200005233,1,0,0,0,119,119,28,1,,,,,,,,
,,,,,,,,,,,,,FF,,,,,,,,1.6167,,,,,,,,,,,,,,,,,,,,,,610347b5b849c3e6a52e4a4a,61036ba78e5a51decd2b1813,2021-07-29_20h06.08.446,Simcolourproject_2stim_asymm_v5,2020.2.10,Win32,60,61025ae37ef11b136ea224fe,,,,,,,,,4108,-77.79999053,-38.20000577,1,0,0,response5disk,,2,-4.199989438,-10.20000535,1,0,0,rectangle,-4.199989438,-10.20000535,1,0,0,-4.199989438,-10.20000535,1,0,0,0,120,120,119,1,,,,,,,,
,,,,,,,,,,,,,FF,,,,,,,,0.9501,,,,,,,,,,,,,,,,,,,,,,610347b5b849c3e6a52e4a4a,61036ba78e5a51decd2b1813,2021-07-29_20h06.08.446,Simcolourproject_2stim_asymm_v5,2020.2.10,Win32,60,61025ae37ef11b136ea224fe,,,,,,,,,2762,57.40001148,110.599972,1,0,0,response1disk,,7,-0.199989378,7.39999491,1,0,0,rectangle,-0.199989378,7.39999491,1,0,0,-0.199989378,7.39999491,1,0,0,0,121,121,76,1,,,,,,,,
,,,,,,,,,,,,,FF,,,,,,,,1.2831,,,,,,,,,,,,,,,,,,,,,,610347b5b849c3e6a52e4a4a,61036ba78e5a51decd2b1813,2021-07-29_20h06.08.446,Simcolourproject_2stim_asymm_v5,2020.2.10,Win32,60,61025ae37ef11b136ea224fe,,,,,,,,,3863,46.20001131,79.39999598,1,0,0,response1disk,,7,10.20001078,8.199970508,1,0,0,rectangle,10.20001078,8.199970508,1,0,0,10.20001078,8.199970508,1,0,0,0,122,122,16,1,,,,,,,,
,,,,,,,,,,,,,FF,,,,,,,,0.806,,,,,,,,,,,,,,,,,,,,,,610347b5b849c3e6a52e4a4a,61036ba78e5a51decd2b1813,2021-07-29_20h06.08.446,Simcolourproject_2stim_asymm_v5,2020.2.10,Win32,60,61025ae37ef11b136ea224fe,,,,,,,,,3612,35.00001115,76.99999595,1,0,0,response1disk,,7,0.600059462,5.799994886,1,0,0,rectangle,0.600059462,5.799994886,1,0,0,0.600059462,5.799994886,1,0,0,0,123,123,22,1,,,,,,,,
,,,,,,,,,,,,,FF,,,,,,,,0.9881,,,,,,,,,,,,,,,,,,,,,,610347b5b849c3e6a52e4a4a,61036ba78e5a51decd2b1813,2021-07-29_20h06.08.446,Simcolourproject_2stim_asymm_v5,2020.2.10,Win32,60,61025ae37ef11b136ea224fe,,,,,,,,,2287,43.80001128,89.79999614,1,0,0,response1disk,,7,8.600059581,6.599970484,1,0,0,rectangle,8.600059581,6.599970484,1,0,0,8.600059581,6.599970484,1,0,0,0,124,124,113,1,,,,,,,,
,,,,,,,,,,,,,FF,,,,,,,,0.7499,,,,,,,,,,,,,,,,,,,,,,610347b5b849c3e6a52e4a4a,61036ba78e5a51decd2b1813,2021-07-29_20h06.08.446,Simcolourproject_2stim_asymm_v5,2020.2.10,Win32,60,61025ae37ef11b136ea224fe,,,,,,,,,1039,47.00001132,82.59997162,1,0,0,response1disk,,7,-5.799989462,-5.400029695,1,0,0,rectangle,-5.799989462,-5.400029695,1,0,0,-5.799989462,-5.400029695,1,0,0,0,125,125,4,1,,,,,,,,
,,,,,,,,,,,,,FF,,,,,,,,0.8509,,,,,,,,,,,,,,,,,,,,,,610347b5b849c3e6a52e4a4a,61036ba78e5a51decd2b1813,2021-07-29_20h06.08.446,Simcolourproject_2stim_asymm_v5,2020.2.10,Win32,60,61025ae37ef11b136ea224fe,,,,,,,,,2471,30.20001107,52.19997116,1,0,0,response1disk,,7,10.20001078,12.19997057,1,0,0,rectangle,10.20001078,12.19997057,1,0,0,10.20001078,12.19997057,1,0,0,0,126,126,11,1,,,,,,,,
,,,,,,,,,,,,,FF,,,,,,,,1.4836,,,,,,,,,,,,,,,,,,,,,,610347b5b849c3e6a52e4a4a,61036ba78e5a51decd2b1813,2021-07-29_20h06.08.446,Simcolourproject_2stim_asymm_v5,2020.2.10,Win32,60,61025ae37ef11b136ea224fe,,,,,,,,,4001,-49.79999012,-81.40000641,1,0,0,response5disk,,3,-6.599989474,-1.400029635,1,0,0,rectangle,-6.599989474,-1.400029635,1,0,0,-6.599989474,-1.400029635,1,0,0,0,127,127,30,1,,,,,,,,
,,,,,,,,,,,,,FF,,,,,,,,0.7786,,,,,,,,,,,,,,,,,,,,,,610347b5b849c3e6a52e4a4a,61036ba78e5a51decd2b1813,2021-07-29_20h06.08.446,Simcolourproject_2stim_asymm_v5,2020.2.10,Win32,60,61025ae37ef11b136ea224fe,,,,,,,,,3456,45.4000113,91.39999616,1,0,0,response1disk,,7,7.800010741,-0.600005209,1,0,0,rectangle,7.800010741,-0.600005209,1,0,0,7.800010741,-0.600005209,1,0,0,0,128,128,148,1,,,,,,,,
,,,,,,,,,,,,,FF,,,,,,,,1.4997,,,,,,,,,,,,,,,,,,,,,,610347b5b849c3e6a52e4a4a,61036ba78e5a51decd2b1813,2021-07-29_20h06.08.446,Simcolourproject_2stim_asymm_v5,2020.2.10,Win32,60,61025ae37ef11b136ea224fe,,,,,,,,,3675,-79.39994173,-59.80003051,1,0,0,response5disk,,2,6.200010717,-6.200005293,1,0,0,rectangle,6.200010717,-6.200005293,1,0,0,6.200010717,-6.200005293,1,0,0,0,129,129,126,1,,,,,,,,
,,,,,,,,,,,,,FF,,,,,,,,1.6502,,,,,,,,,,,,,,,,,,,,,,610347b5b849c3e6a52e4a4a,61036ba78e5a51decd2b1813,2021-07-29_20h06.08.446,Simcolourproject_2stim_asymm_v5,2020.2.10,Win32,60,61025ae37ef11b136ea224fe,,,,,,,,,1430,97.40001208,46.59997108,1,0,0,response1disk,,6,16.6000597,-2.200005233,1,0,0,rectangle,16.6000597,-2.200005233,1,0,0,16.6000597,-2.200005233,1,0,0,0,130,130,59,1,,,,,,,,
,,,,,,,,,,,,,FF,,,,,,,,0.7337,,,,,,,,,,,,,,,,,,,,,,610347b5b849c3e6a52e4a4a,61036ba78e5a51decd2b1813,2021-07-29_20h06.08.446,Simcolourproject_2stim_asymm_v5,2020.2.10,Win32,60,61025ae37ef11b136ea224fe,,,,,,,,,3575,26.20001101,61.79999572,1,0,0,response1disk,,7,-4.99998945,-2.200005233,1,0,0,rectangle,-4.99998945,-2.200005233,1,0,0,-4.99998945,-2.200005233,1,0,0,0,131,131,77,1,,,,,,,,
,,,,,,,,,,,,,FF,,,,,,,,1.0727,,,,,,,,,,,,,,,,,,,,,,610347b5b849c3e6a52e4a4a,61036ba78e5a51decd2b1813,2021-07-29_20h06.08.446,Simcolourproject_2stim_asymm_v5,2020.2.10,Win32,60,61025ae37ef11b136ea224fe,,,,,,,,,1479,43.80001128,81.79999602,1,0,0,response1disk,,7,3.000010669,-13.40002981,1,0,0,rectangle,3.000010669,-13.40002981,1,0,0,3.000010669,-13.40002981,1,0,0,0,132,132,26,1,,,,,,,,
,,,,,,,,,,,,,FF,,,,,,,,0.8171,,,,,,,,,,,,,,,,,,,,,,610347b5b849c3e6a52e4a4a,61036ba78e5a51decd2b1813,2021-07-29_20h06.08.446,Simcolourproject_2stim_asymm_v5,2020.2.10,Win32,60,61025ae37ef11b136ea224fe,,,,,,,,,4095,-46.59999007,72.99999589,1,0,0,response7disk,,0,-3.399940598,0.999994814,1,0,0,rectangle,-3.399940598,0.999994814,1,0,0,-3.399940598,0.999994814,1,0,0,0,133,133,158,1,,,,,,,,
,,,,,,,,,,,,,FF,,,,,,,,0.7504,,,,,,,,,,,,,,,,,,,,,,610347b5b849c3e6a52e4a4a,61036ba78e5a51decd2b1813,2021-07-29_20h06.08.446,Simcolourproject_2stim_asymm_v5,2020.2.10,Win32,60,61025ae37ef11b136ea224fe,,,,,,,,,505,49.40001136,87.3999961,1,0,0,response1disk,,7,7.800010741,8.999994934,1,0,0,rectangle,7.800010741,8.999994934,1,0,0,7.800010741,8.999994934,1,0,0,0,134,134,27,1,,,,,,,,
,,,,,,,,,,,,,FF,,,,,,,,1.4336,,,,,,,,,,,,,,,,,,,,,,610347b5b849c3e6a52e4a4a,61036ba78e5a51decd2b1813,2021-07-29_20h06.08.446,Simcolourproject_2stim_asymm_v5,2020.2.10,Win32,60,61025ae37ef11b136ea224fe,,,,,,,,,2617,35.00001115,75.39999592,1,0,0,response1disk,,7,0.600059462,-7.000005305,1,0,0,rectangle,0.600059462,-7.000005305,1,0,0,0.600059462,-7.000005305,1,0,0,0,135,135,29,1,,,,,,,,
,,,,,,,,,,,,,FF,,,,,,,,1.8003,,,,,,,,,,,,,,,,,,,,,,610347b5b849c3e6a52e4a4a,61036ba78e5a51decd2b1813,2021-07-29_20h06.08.446,Simcolourproject_2stim_asymm_v5,2020.2.10,Win32,60,61025ae37ef11b136ea224fe,,,,,,,,,124,34.20001113,96.19999623,1,0,0,response1disk,,7,6.200010717,10.59997054,1,0,0,rectangle,6.200010717,10.59997054,1,0,0,6.200010717,10.59997054,1,0,0,0,136,136,127,1,,,,,,,,
,,,,,,,,,,,,,FF,,,,,,,,0.7214,,,,,,,,,,,,,,,,,,,,,,610347b5b849c3e6a52e4a4a,61036ba78e5a51decd2b1813,2021-07-29_20h06.08.446,Simcolourproject_2stim_asymm_v5,2020.2.10,Win32,60,61025ae37ef11b136ea224fe,,,,,,,,,2973,42.20001125,84.99999607,1,0,0,response1disk,,7,-9.799989522,9.799994946,1,0,0,rectangle,-9.799989522,9.799994946,1,0,0,-9.799989522,9.799994946,1,0,0,0,137,137,125,1,,,,,,,,
,,,,,,,,,,,,,FF,,,,,,,,0.9835,,,,,,,,,,,,,,,,,,,,,,610347b5b849c3e6a52e4a4a,61036ba78e5a51decd2b1813,2021-07-29_20h06.08.446,Simcolourproject_2stim_asymm_v5,2020.2.10,Win32,60,61025ae37ef11b136ea224fe,,,,,,,,,2504,59.0000115,85.79999608,1,0,0,response1disk,,7,8.600059581,4.199970448,1,0,0,rectangle,8.600059581,4.199970448,1,0,0,8.600059581,4.199970448,1,0,0,0,138,138,106,1,,,,,,,,
,,,,,,,,,,,,,FF,,,,,,,,1.2335,,,,,,,,,,,,,,,,,,,,,,610347b5b849c3e6a52e4a4a,61036ba78e5a51decd2b1813,2021-07-29_20h06.08.446,Simcolourproject_2stim_asymm_v5,2020.2.10,Win32,60,61025ae37ef11b136ea224fe,,,,,,,,,1528,-24.99998975,-80.6000064,1,0,0,response5disk,,3,-1.799989402,-0.600005209,1,0,0,rectangle,-1.799989402,-0.600005209,1,0,0,-1.799989402,-0.600005209,1,0,0,0,139,139,123,1,,,,,,,,
,,,,,,,,,,,,,FF,,,,,,,,0.7668,,,,,,,,,,,,,,,,,,,,,,610347b5b849c3e6a52e4a4a,61036ba78e5a51decd2b1813,2021-07-29_20h06.08.446,Simcolourproject_2stim_asymm_v5,2020.2.10,Win32,60,61025ae37ef11b136ea224fe,,,,,,,,,4140,-48.99999011,80.19999599,1,0,0,response7disk,,0,-5.799989462,4.199970448,1,0,0,rectangle,-5.799989462,4.199970448,1,0,0,-5.799989462,4.199970448,1,0,0,0,140,140,130,1,,,,,,,,
,,,,,,,,,,,,,FF,,,,,,,,0.9002,,,,,,,,,,,,,,,,,,,,,,610347b5b849c3e6a52e4a4a,61036ba78e5a51decd2b1813,2021-07-29_20h06.08.446,Simcolourproject_2stim_asymm_v5,2020.2.10,Win32,60,61025ae37ef11b136ea224fe,,,,,,,,,4194,43.00001127,81.79999602,1,0,0,response1disk,,7,1.400010645,4.199970448,1,0,0,rectangle,1.400010645,4.199970448,1,0,0,1.400010645,4.199970448,1,0,0,0,141,141,72,1,,,,,,,,
,,,,,,,,,,,,,FF,,,,,,,,1.6233,,,,,,,,,,,,,,,,,,,,,,610347b5b849c3e6a52e4a4a,61036ba78e5a51decd2b1813,2021-07-29_20h06.08.446,Simcolourproject_2stim_asymm_v5,2020.2.10,Win32,60,61025ae37ef11b136ea224fe,,,,,,,,,3847,-73.79999048,-46.20000589,1,0,0,response5disk,,2,-15.39994078,-11.00000536,1,0,0,rectangle,-15.39994078,-11.00000536,1,0,0,-15.39994078,-11.00000536,1,0,0,0,142,142,75,1,,,,,,,,
,,,,,,,,,,,,,FF,,,,,,,,1.7795,,,,,,,,,,,,,,,,,,,,,,610347b5b849c3e6a52e4a4a,61036ba78e5a51decd2b1813,2021-07-29_20h06.08.446,Simcolourproject_2stim_asymm_v5,2020.2.10,Win32,60,61025ae37ef11b136ea224fe,,,,,,,,,887,-51.39994131,68.99999583,1,0,0,response7disk,,0,-3.399940598,-6.200005293,1,0,0,rectangle,-3.399940598,-6.200005293,1,0,0,-3.399940598,-6.200005293,1,0,0,0,143,143,128,1,,,,,,,,
,,,,,,,,,,,,,FF,,,,,,,,0.817,,,,,,,,,,,,,,,,,,,,,,610347b5b849c3e6a52e4a4a,61036ba78e5a51decd2b1813,2021-07-29_20h06.08.446,Simcolourproject_2stim_asymm_v5,2020.2.10,Win32,60,61025ae37ef11b136ea224fe,,,,,,,,,661,67.80001163,107.3999964,1,0,0,response1disk,,7,-0.199989378,-7.000005305,1,0,0,rectangle,-0.199989378,-7.000005305,1,0,0,-0.199989378,-7.000005305,1,0,0,0,144,144,153,1,,,,,,,,
,,,,,,,,,,,,,FF,,,,,,,,0.8397,,,,,,,,,,,,,,,,,,,,,,610347b5b849c3e6a52e4a4a,61036ba78e5a51decd2b1813,2021-07-29_20h06.08.446,Simcolourproject_2stim_asymm_v5,2020.2.10,Win32,60,61025ae37ef11b136ea224fe,,,,,,,,,830,57.40001148,89.79999614,1,0,0,response1disk,,7,7.000010729,2.599970424,1,0,0,rectangle,7.000010729,2.599970424,1,0,0,7.000010729,2.599970424,1,0,0,0,145,145,116,1,,,,,,,,
,,,,,,,,,,,,,FF,,,,,,,,0.7833,,,,,,,,,,,,,,,,,,,,,,610347b5b849c3e6a52e4a4a,61036ba78e5a51decd2b1813,2021-07-29_20h06.08.446,Simcolourproject_2stim_asymm_v5,2020.2.10,Win32,60,61025ae37ef11b136ea224fe,,,,,,,,,4310,55.00001144,83.39999604,1,0,0,response1disk,,7,-1.799989402,-2.200005233,1,0,0,rectangle,-1.799989402,-2.200005233,1,0,0,-1.799989402,-2.200005233,1,0,0,0,146,146,19,1,,,,,,,,
,,,,,,,,,,,,,FF,,,,,,,,0.6337,,,,,,,,,,,,,,,,,,,,,,610347b5b849c3e6a52e4a4a,61036ba78e5a51decd2b1813,2021-07-29_20h06.08.446,Simcolourproject_2stim_asymm_v5,2020.2.10,Win32,60,61025ae37ef11b136ea224fe,,,,,,,,,1999,47.00001132,69.79999584,1,0,0,response1disk,,7,-2.599989414,3.39999485,1,0,0,rectangle,-2.599989414,3.39999485,1,0,0,-2.599989414,3.39999485,1,0,0,0,147,147,88,1,,,,,,,,
,,,,,,,,,,,,,FF,,,,,,,,0.7889,,,,,,,,,,,,,,,,,,,,,,610347b5b849c3e6a52e4a4a,61036ba78e5a51decd2b1813,2021-07-29_20h06.08.446,Simcolourproject_2stim_asymm_v5,2020.2.10,Win32,60,61025ae37ef11b136ea224fe,,,,,,,,,454,55.80001146,82.59997162,1,0,0,response1disk,,7,-4.99998945,0.999994814,1,0,0,rectangle,-4.99998945,0.999994814,1,0,0,-4.99998945,0.999994814,1,0,0,0,148,148,53,1,,,,,,,,
,,,,,,,,,,,,,FF,,,,,,,,0.7219,,,,,,,,,,,,,,,,,,,,,,610347b5b849c3e6a52e4a4a,61036ba78e5a51decd2b1813,2021-07-29_20h06.08.446,Simcolourproject_2stim_asymm_v5,2020.2.10,Win32,60,61025ae37ef11b136ea224fe,,,,,,,,,3159,36.60006,69.79999584,1,0,0,response1disk,,7,-0.99998939,4.999994874,1,0,0,rectangle,-0.99998939,4.999994874,1,0,0,-0.99998939,4.999994874,1,0,0,0,149,149,155,1,,,,,,,,
,,,,,,,,,,,,,FF,,,,,,,,0.5394,,,,,,,,,,,,,,,,,,,,,,610347b5b849c3e6a52e4a4a,61036ba78e5a51decd2b1813,2021-07-29_20h06.08.446,Simcolourproject_2stim_asymm_v5,2020.2.10,Win32,60,61025ae37ef11b136ea224fe,,,,,,,,,2202,53.40001142,74.5999715,1,0,0,response1disk,,7,5.400010705,9.799994946,1,0,0,rectangle,5.400010705,9.799994946,1,0,0,5.400010705,9.799994946,1,0,0,0,150,150,44,1,,,,,,,,
,,,,,,,,,,,,,FF,,,,,,,,0.6055,,,,,,,,,,,,,,,,,,,,,,610347b5b849c3e6a52e4a4a,61036ba78e5a51decd2b1813,2021-07-29_20h06.08.446,Simcolourproject_2stim_asymm_v5,2020.2.10,Win32,60,61025ae37ef11b136ea224fe,,,,,,,,,3530,47.00001132,79.39999598,1,0,0,response1disk,,7,-13.79998958,-8.600005329,1,0,0,rectangle,-13.79998958,-8.600005329,1,0,0,-13.79998958,-8.600005329,1,0,0,0,151,151,24,1,,,,,,,,
,,,,,,,,,,,,,FF,,,,,,,,0.6391,,,,,,,,,,,,,,,,,,,,,,610347b5b849c3e6a52e4a4a,61036ba78e5a51decd2b1813,2021-07-29_20h06.08.446,Simcolourproject_2stim_asymm_v5,2020.2.10,Win32,60,61025ae37ef11b136ea224fe,,,,,,,,,694,51.00001138,84.19999605,1,0,0,response1disk,,7,-3.399940598,0.999994814,1,0,0,rectangle,-3.399940598,0.999994814,1,0,0,-3.399940598,0.999994814,1,0,0,0,152,152,42,1,,,,,,,,
,,,,,,,,,,,,,FF,,,,,,,,0.6005,,,,,,,,,,,,,,,,,,,,,,610347b5b849c3e6a52e4a4a,61036ba78e5a51decd2b1813,2021-07-29_20h06.08.446,Simcolourproject_2stim_asymm_v5,2020.2.10,Win32,60,61025ae37ef11b136ea224fe,,,,,,,,,2859,48.60006018,84.19999605,1,0,0,response1disk,,7,3.000010669,6.599970484,1,0,0,rectangle,3.000010669,6.599970484,1,0,0,3.000010669,6.599970484,1,0,0,0,153,153,52,1,,,,,,,,
,,,,,,,,,,,,,FF,,,,,,,,0.55,,,,,,,,,,,,,,,,,,,,,,610347b5b849c3e6a52e4a4a,61036ba78e5a51decd2b1813,2021-07-29_20h06.08.446,Simcolourproject_2stim_asymm_v5,2020.2.10,Win32,60,61025ae37ef11b136ea224fe,,,,,,,,,3589,59.0000115,88.99999613,1,0,0,response1disk,,7,-4.99998945,0.199970388,1,0,0,rectangle,-4.99998945,0.199970388,1,0,0,-4.99998945,0.199970388,1,0,0,0,154,154,149,1,,,,,,,,
,,,,,,,,,,,,,FF,,,,,,,,1.2897,,,,,,,,,,,,,,,,,,,,,,610347b5b849c3e6a52e4a4a,61036ba78e5a51decd2b1813,2021-07-29_20h06.08.446,Simcolourproject_2stim_asymm_v5,2020.2.10,Win32,60,61025ae37ef11b136ea224fe,,,,,,,,,3946,-115.3999423,-42.20000583,1,0,0,response5disk,,2,-26.59998977,-7.800029731,0,0,1,rectangle,-26.59998977,-7.800029731,0,0,1,-26.59998977,-7.800029731,0,0,1,0,155,155,154,1,,,,,,,,
,,,,,,,,,,,,,FF,,,,,,,,1.529,,,,,,,,,,,,,,,,,,,,,,610347b5b849c3e6a52e4a4a,61036ba78e5a51decd2b1813,2021-07-29_20h06.08.446,Simcolourproject_2stim_asymm_v5,2020.2.10,Win32,60,61025ae37ef11b136ea224fe,,,,,,,,,1257,27.80001104,66.59997138,1,0,0,response1disk,,7,-4.199989438,-3.800029671,1,0,0,rectangle,-4.199989438,-3.800029671,1,0,0,-4.199989438,-3.800029671,1,0,0,0,156,156,85,1,,,,,,,,
,,,,,,,,,,,,,FF,,,,,,,,2.4567,,,,,,,,,,,,,,,,,,,,,,610347b5b849c3e6a52e4a4a,61036ba78e5a51decd2b1813,2021-07-29_20h06.08.446,Simcolourproject_2stim_asymm_v5,2020.2.10,Win32,60,61025ae37ef11b136ea224fe,,,,,,,,,1808,71.80001169,37.79999536,1,0,0,response1disk,,6,2.200010657,0.199970388,1,0,0,rectangle,2.200010657,0.199970388,1,0,0,2.200010657,0.199970388,1,0,0,0,157,157,117,1,,,,,,,,
,,,,,,,,,,,,,FF,,,,,,,,0.7558,,,,,,,,,,,,,,,,,,,,,,610347b5b849c3e6a52e4a4a,61036ba78e5a51decd2b1813,2021-07-29_20h06.08.446,Simcolourproject_2stim_asymm_v5,2020.2.10,Win32,60,61025ae37ef11b136ea224fe,,,,,,,,,4363,-37.79998994,57.79999566,1,0,0,response7disk,,0,-6.599989474,0.999994814,1,0,0,rectangle,-6.599989474,0.999994814,1,0,0,-6.599989474,0.999994814,1,0,0,0,158,158,146,1,,,,,,,,
,,,,,,,,,,,,,FF,,,,,,,,1.0725,,,,,,,,,,,,,,,,,,,,,,610347b5b849c3e6a52e4a4a,61036ba78e5a51decd2b1813,2021-07-29_20h06.08.446,Simcolourproject_2stim_asymm_v5,2020.2.10,Win32,60,61025ae37ef11b136ea224fe,,,,,,,,,826,73.40001172,46.59997108,1,0,0,response1disk,,6,1.400010645,0.199970388,1,0,0,rectangle,1.400010645,0.199970388,1,0,0,1.400010645,0.199970388,1,0,0,0,159,159,12,1,,,,,,,,
,,,,,,,,,,,,,FF,,,,,,,,1.317,,,,,,,,,,,,,,,,,,,,,,610347b5b849c3e6a52e4a4a,61036ba78e5a51decd2b1813,2021-07-29_20h06.08.446,Simcolourproject_2stim_asymm_v5,2020.2.10,Win32,60,61025ae37ef11b136ea224fe,,,,,,,,,3196,-66.59999037,42.59997102,1,0,0,response7disk,,1,-0.199989378,0.999994814,1,0,0,rectangle,-0.199989378,0.999994814,1,0,0,-0.199989378,0.999994814,1,0,0,1,0,160,111,1,,,,,,,,
,,,,,,,,,,,,,FF,,,,,,,,0.667,,,,,,,,,,,,,,,,,,,,,,610347b5b849c3e6a52e4a4a,61036ba78e5a51decd2b1813,2021-07-29_20h06.08.446,Simcolourproject_2stim_asymm_v5,2020.2.10,Win32,60,61025ae37ef11b136ea224fe,,,,,,,,,2068,29.40001106,64.19997134,1,0,0,response1disk,,7,-4.99998945,4.999994874,1,0,0,rectangle,-4.99998945,4.999994874,1,0,0,-4.99998945,4.999994874,1,0,0,1,1,161,15,1,,,,,,,,
,,,,,,,,,,,,,FF,,,,,,,,0.9999,,,,,,,,,,,,,,,,,,,,,,610347b5b849c3e6a52e4a4a,61036ba78e5a51decd2b1813,2021-07-29_20h06.08.446,Simcolourproject_2stim_asymm_v5,2020.2.10,Win32,60,61025ae37ef11b136ea224fe,,,,,,,,,272,30.20001107,55.39999563,1,0,0,response1disk,,7,5.400010705,4.199970448,1,0,0,rectangle,5.400010705,4.199970448,1,0,0,5.400010705,4.199970448,1,0,0,1,2,162,28,1,,,,,,,,
,,,,,,,,,,,,,FF,,,,,,,,0.668,,,,,,,,,,,,,,,,,,,,,,610347b5b849c3e6a52e4a4a,61036ba78e5a51decd2b1813,2021-07-29_20h06.08.446,Simcolourproject_2stim_asymm_v5,2020.2.10,Win32,60,61025ae37ef11b136ea224fe,,,,,,,,,114,49.40001136,80.99999601,1,0,0,response1disk,,7,-0.99998939,1.799994826,1,0,0,rectangle,-0.99998939,1.799994826,1,0,0,-0.99998939,1.799994826,1,0,0,1,3,163,80,1,,,,,,,,
,,,,,,,,,,,,,FF,,,,,,,,1.8055,,,,,,,,,,,,,,,,,,,,,,610347b5b849c3e6a52e4a4a,61036ba78e5a51decd2b1813,2021-07-29_20h06.08.446,Simcolourproject_2stim_asymm_v5,2020.2.10,Win32,60,61025ae37ef11b136ea224fe,,,,,,,,,3858,-44.19999003,-63.00000614,1,0,0,response5disk,,3,-4.99998945,-4.600005269,1,0,0,rectangle,-4.99998945,-4.600005269,1,0,0,-4.99998945,-4.600005269,1,0,0,1,4,164,23,1,,,,,,,,
,,,,,,,,,,,,,FF,,,,,,,,2.3502,,,,,,,,,,,,,,,,,,,,,,610347b5b849c3e6a52e4a4a,61036ba78e5a51decd2b1813,2021-07-29_20h06.08.446,Simcolourproject_2stim_asymm_v5,2020.2.10,Win32,60,61025ae37ef11b136ea224fe,,,,,,,,,1748,-83.39994179,-53.40003041,1,0,0,response5disk,,2,-4.199989438,-4.600005269,1,0,0,rectangle,-4.199989438,-4.600005269,1,0,0,-4.199989438,-4.600005269,1,0,0,1,5,165,57,1,,,,,,,,
,,,,,,,,,,,,,FF,,,,,,,,0.6824,,,,,,,,,,,,,,,,,,,,,,610347b5b849c3e6a52e4a4a,61036ba78e5a51decd2b1813,2021-07-29_20h06.08.446,Simcolourproject_2stim_asymm_v5,2020.2.10,Win32,60,61025ae37ef11b136ea224fe,,,,,,,,,134,36.60006,79.39999598,1,0,0,response1disk,,7,0.600059462,3.39999485,1,0,0,rectangle,0.600059462,3.39999485,1,0,0,0.600059462,3.39999485,1,0,0,1,6,166,69,1,,,,,,,,
,,,,,,,,,,,,,FF,,,,,,,,0.6892,,,,,,,,,,,,,,,,,,,,,,610347b5b849c3e6a52e4a4a,61036ba78e5a51decd2b1813,2021-07-29_20h06.08.446,Simcolourproject_2stim_asymm_v5,2020.2.10,Win32,60,61025ae37ef11b136ea224fe,,,,,,,,,692,46.20001131,74.5999715,1,0,0,response1disk,,7,0.600059462,-8.600005329,1,0,0,rectangle,0.600059462,-8.600005329,1,0,0,0.600059462,-8.600005329,1,0,0,1,7,167,151,1,,,,,,,,
,,,,,,,,,,,,,FF,,,,,,,,0.7668,,,,,,,,,,,,,,,,,,,,,,610347b5b849c3e6a52e4a4a,61036ba78e5a51decd2b1813,2021-07-29_20h06.08.446,Simcolourproject_2stim_asymm_v5,2020.2.10,Win32,60,61025ae37ef11b136ea224fe,,,,,,,,,292,53.40001142,84.99999607,1,0,0,response1disk,,7,-3.399940598,5.799994886,1,0,0,rectangle,-3.399940598,5.799994886,1,0,0,-3.399940598,5.799994886,1,0,0,1,8,168,157,1,,,,,,,,
,,,,,,,,,,,,,FF,,,,,,,,0.9662,,,,,,,,,,,,,,,,,,,,,,610347b5b849c3e6a52e4a4a,61036ba78e5a51decd2b1813,2021-07-29_20h06.08.446,Simcolourproject_2stim_asymm_v5,2020.2.10,Win32,60,61025ae37ef11b136ea224fe,,,,,,,,,2388,36.60006,60.99999571,1,0,0,response1disk,,7,-5.799989462,-4.600005269,1,0,0,rectangle,-31.39994102,69.79999584,1,0,0,-6.599989474,0.199970388,1,0,0,1,9,169,48,1,,response7disk_3,TRUE,0,0,"[14,53,46,38,115,260,277,36,275,92,235,87,170,33,115,116,295,184,105,112]",1.6338,rectangle
,,,,,,,,,,,,,FF,,,,,,,,0.6502,,,,,,,,,,,,,,,,,,,,,,610347b5b849c3e6a52e4a4a,61036ba78e5a51decd2b1813,2021-07-29_20h06.08.446,Simcolourproject_2stim_asymm_v5,2020.2.10,Win32,60,61025ae37ef11b136ea224fe,,,,,,,,,839,36.60006,67.3999958,1,0,0,response1disk,,7,0.600059462,-0.600005209,1,0,0,rectangle,0.600059462,-0.600005209,1,0,0,0.600059462,-0.600005209,1,0,0,1,10,170,11,1,,,,,,,,
,,,,,,,,,,,,,FF,,,,,,,,0.5666,,,,,,,,,,,,,,,,,,,,,,610347b5b849c3e6a52e4a4a,61036ba78e5a51decd2b1813,2021-07-29_20h06.08.446,Simcolourproject_2stim_asymm_v5,2020.2.10,Win32,60,61025ae37ef11b136ea224fe,,,,,,,,,2144,52.60006024,88.99999613,1,0,0,response1disk,,7,-8.99998951,-13.40002981,1,0,0,rectangle,-8.99998951,-13.40002981,1,0,0,-8.99998951,-13.40002981,1,0,0,1,11,171,101,1,,,,,,,,
,,,,,,,,,,,,,FF,,,,,,,,0.6173,,,,,,,,,,,,,,,,,,,,,,610347b5b849c3e6a52e4a4a,61036ba78e5a51decd2b1813,2021-07-29_20h06.08.446,Simcolourproject_2stim_asymm_v5,2020.2.10,Win32,60,61025ae37ef11b136ea224fe,,,,,,,,,3227,43.80001128,68.99999583,1,0,0,response1disk,,7,3.000010669,5.799994886,1,0,0,rectangle,3.000010669,5.799994886,1,0,0,3.000010669,5.799994886,1,0,0,1,12,172,82,1,,,,,,,,
,,,,,,,,,,,,,FF,,,,,,,,0.7337,,,,,,,,,,,,,,,,,,,,,,610347b5b849c3e6a52e4a4a,61036ba78e5a51decd2b1813,2021-07-29_20h06.08.446,Simcolourproject_2stim_asymm_v5,2020.2.10,Win32,60,61025ae37ef11b136ea224fe,,,,,,,,,4160,52.60006024,94.5999718,1,0,0,response1disk,,7,-0.199989378,10.59997054,1,0,0,rectangle,-0.199989378,10.59997054,1,0,0,-0.199989378,10.59997054,1,0,0,1,13,173,89,1,,,,,,,,
,,,,,,,,,,,,,FF,,,,,,,,0.9334,,,,,,,,,,,,,,,,,,,,,,610347b5b849c3e6a52e4a4a,61036ba78e5a51decd2b1813,2021-07-29_20h06.08.446,Simcolourproject_2stim_asymm_v5,2020.2.10,Win32,60,61025ae37ef11b136ea224fe,,,,,,,,,496,27.80001104,82.59997162,1,0,0,response1disk,,7,-5.799989462,-7.800029731,1,0,0,rectangle,-5.799989462,-7.800029731,1,0,0,-5.799989462,-7.800029731,1,0,0,1,14,174,127,1,,,,,,,,
,,,,,,,,,,,,,FF,,,,,,,,0.517,,,,,,,,,,,,,,,,,,,,,,610347b5b849c3e6a52e4a4a,61036ba78e5a51decd2b1813,2021-07-29_20h06.08.446,Simcolourproject_2stim_asymm_v5,2020.2.10,Win32,60,61025ae37ef11b136ea224fe,,,,,,,,,3219,55.80001146,80.99999601,1,0,0,response1disk,,7,5.400010705,1.799994826,1,0,0,rectangle,5.400010705,1.799994826,1,0,0,5.400010705,1.799994826,1,0,0,1,15,175,76,1,,,,,,,,
,,,,,,,,,,,,,FF,,,,,,,,0.9389,,,,,,,,,,,,,,,,,,,,,,610347b5b849c3e6a52e4a4a,61036ba78e5a51decd2b1813,2021-07-29_20h06.08.446,Simcolourproject_2stim_asymm_v5,2020.2.10,Win32,60,61025ae37ef11b136ea224fe,,,,,,,,,3160,63.00001156,36.19997092,1,0,0,response1disk,,6,-0.199989378,0.199970388,1,0,0,rectangle,-0.199989378,0.199970388,1,0,0,-0.199989378,0.199970388,1,0,0,1,16,176,77,1,,,,,,,,
,,,,,,,,,,,,,FF,,,,,,,,2.4388,,,,,,,,,,,,,,,,,,,,,,610347b5b849c3e6a52e4a4a,61036ba78e5a51decd2b1813,2021-07-29_20h06.08.446,Simcolourproject_2stim_asymm_v5,2020.2.10,Win32,60,61025ae37ef11b136ea224fe,,,,,,,,,3934,80.60006065,-47.0000059,1,0,0,response3disk,,5,3.800010681,0.999994814,1,0,0,rectangle,3.800010681,0.999994814,1,0,0,3.800010681,0.999994814,1,0,0,1,17,177,96,1,,,,,,,,
,,,,,,,,,,,,,FF,,,,,,,,1.2176,,,,,,,,,,,,,,,,,,,,,,610347b5b849c3e6a52e4a4a,61036ba78e5a51decd2b1813,2021-07-29_20h06.08.446,Simcolourproject_2stim_asymm_v5,2020.2.10,Win32,60,61025ae37ef11b136ea224fe,,,,,,,,,3430,-31.39994102,-53.40003041,1,0,0,response5disk,,3,3.000010669,2.599970424,1,0,0,rectangle,3.000010669,2.599970424,1,0,0,3.000010669,2.599970424,1,0,0,1,18,178,70,1,,,,,,,,
,,,,,,,,,,,,,FF,,,,,,,,0.7,,,,,,,,,,,,,,,,,,,,,,610347b5b849c3e6a52e4a4a,61036ba78e5a51decd2b1813,2021-07-29_20h06.08.446,Simcolourproject_2stim_asymm_v5,2020.2.10,Win32,60,61025ae37ef11b136ea224fe,,,,,,,,,104,51.8000114,84.99999607,1,0,0,response1disk,,7,13.40001082,8.199970508,1,0,0,rectangle,13.40001082,8.199970508,1,0,0,13.40001082,8.199970508,1,0,0,1,19,179,143,1,,,,,,,,
,,,,,,,,,,,,,FF,,,,,,,,1.5674,,,,,,,,,,,,,,,,,,,,,,610347b5b849c3e6a52e4a4a,61036ba78e5a51decd2b1813,2021-07-29_20h06.08.446,Simcolourproject_2stim_asymm_v5,2020.2.10,Win32,60,61025ae37ef11b136ea224fe,,,,,,,,,14,76.60006059,-56.60000604,1,0,0,response3disk,,5,15.00001085,-9.400029755,1,0,0,rectangle,15.00001085,-9.400029755,1,0,0,15.00001085,-9.400029755,1,0,0,1,20,180,139,1,,,,,,,,
,,,,,,,,,,,,,FF,,,,,,,,0.6165,,,,,,,,,,,,,,,,,,,,,,610347b5b849c3e6a52e4a4a,61036ba78e5a51decd2b1813,2021-07-29_20h06.08.446,Simcolourproject_2stim_asymm_v5,2020.2.10,Win32,60,61025ae37ef11b136ea224fe,,,,,,,,,2970,27.00001103,69.79999584,1,0,0,response1disk,,7,1.400010645,0.199970388,1,0,0,rectangle,1.400010645,0.199970388,1,0,0,1.400010645,0.199970388,1,0,0,1,21,181,123,1,,,,,,,,
,,,,,,,,,,,,,FF,,,,,,,,1.017,,,,,,,,,,,,,,,,,,,,,,610347b5b849c3e6a52e4a4a,61036ba78e5a51decd2b1813,2021-07-29_20h06.08.446,Simcolourproject_2stim_asymm_v5,2020.2.10,Win32,60,61025ae37ef11b136ea224fe,,,,,,,,,1459,-77.79999053,47.39999551,1,0,0,response7disk,,1,-12.19998956,-0.600005209,1,0,0,rectangle,-12.19998956,-0.600005209,1,0,0,-12.19998956,-0.600005209,1,0,0,1,22,182,41,1,,,,,,,,
,,,,,,,,,,,,,FF,,,,,,,,0.8335,,,,,,,,,,,,,,,,,,,,,,610347b5b849c3e6a52e4a4a,61036ba78e5a51decd2b1813,2021-07-29_20h06.08.446,Simcolourproject_2stim_asymm_v5,2020.2.10,Win32,60,61025ae37ef11b136ea224fe,,,,,,,,,413,42.20001125,74.5999715,1,0,0,response1disk,,7,-0.99998939,-7.000005305,1,0,0,rectangle,77.40001178,-39.80003021,1,0,0,7.800010741,-5.400029695,1,0,0,1,23,183,99,1,,response3disk_3,TRUE,5,5,"[14,53,46,38,115,260,277,36,275,92,235,87,170,33,115,116,295,184,105,112]",1.5498,rectangle
,,,,,,,,,,,,,FF,,,,,,,,3.2841,,,,,,,,,,,,,,,,,,,,,,610347b5b849c3e6a52e4a4a,61036ba78e5a51decd2b1813,2021-07-29_20h06.08.446,Simcolourproject_2stim_asymm_v5,2020.2.10,Win32,60,61025ae37ef11b136ea224fe,,,,,,,,,3115,86.20001191,-56.60000604,1,0,0,response3disk,,5,3.000010669,4.999994874,1,0,0,rectangle,3.000010669,4.999994874,1,0,0,3.000010669,4.999994874,1,0,0,1,24,184,10,1,,,,,,,,
,,,,,,,,,,,,,FF,,,,,,,,2.367,,,,,,,,,,,,,,,,,,,,,,610347b5b849c3e6a52e4a4a,61036ba78e5a51decd2b1813,2021-07-29_20h06.08.446,Simcolourproject_2stim_asymm_v5,2020.2.10,Win32,60,61025ae37ef11b136ea224fe,,,,,,,,,3293,39.80001122,-76.60000634,1,0,0,response3disk,,4,3.000010669,2.599970424,1,0,0,rectangle,3.000010669,2.599970424,1,0,0,3.000010669,2.599970424,1,0,0,1,25,185,129,1,,,,,,,,
,,,,,,,,,,,,,FF,,,,,,,,0.9489,,,,,,,,,,,,,,,,,,,,,,610347b5b849c3e6a52e4a4a,61036ba78e5a51decd2b1813,2021-07-29_20h06.08.446,Simcolourproject_2stim_asymm_v5,2020.2.10,Win32,60,61025ae37ef11b136ea224fe,,,,,,,,,3448,39.80001122,72.99999589,1,0,0,response1disk,,7,8.600059581,-11.00000536,1,0,0,rectangle,8.600059581,-11.00000536,1,0,0,8.600059581,-11.00000536,1,0,0,1,26,186,158,1,,,,,,,,
,,,,,,,,,,,,,FF,,,,,,,,1.9392,,,,,,,,,,,,,,,,,,,,,,610347b5b849c3e6a52e4a4a,61036ba78e5a51decd2b1813,2021-07-29_20h06.08.446,Simcolourproject_2stim_asymm_v5,2020.2.10,Win32,60,61025ae37ef11b136ea224fe,,,,,,,,,2711,78.20001179,-49.40003035,1,0,0,response3disk,,5,2.200010657,6.599970484,1,0,0,rectangle,2.200010657,6.599970484,1,0,0,2.200010657,6.599970484,1,0,0,1,27,187,20,1,,,,,,,,
,,,,,,,,,,,,,FF,,,,,,,,1.4451,,,,,,,,,,,,,,,,,,,,,,610347b5b849c3e6a52e4a4a,61036ba78e5a51decd2b1813,2021-07-29_20h06.08.446,Simcolourproject_2stim_asymm_v5,2020.2.10,Win32,60,61025ae37ef11b136ea224fe,,,,,,,,,3856,-88.19999069,-50.20000595,1,0,0,response5disk,,2,3.800010681,-7.000005305,1,0,0,rectangle,3.800010681,-7.000005305,1,0,0,3.800010681,-7.000005305,1,0,0,1,28,188,58,1,,,,,,,,
,,,,,,,,,,,,,FF,,,,,,,,1.6343,,,,,,,,,,,,,,,,,,,,,,610347b5b849c3e6a52e4a4a,61036ba78e5a51decd2b1813,2021-07-29_20h06.08.446,Simcolourproject_2stim_asymm_v5,2020.2.10,Win32,60,61025ae37ef11b136ea224fe,,,,,,,,,3108,-27.39994096,-83.00000644,1,0,0,response5disk,,3,-8.199989498,-5.400029695,1,0,0,rectangle,-8.199989498,-5.400029695,1,0,0,-8.199989498,-5.400029695,1,0,0,1,29,189,159,1,,,,,,,,
,,,,,,,,,,,,,FF,,,,,,,,2.5117,,,,,,,,,,,,,,,,,,,,,,610347b5b849c3e6a52e4a4a,61036ba78e5a51decd2b1813,2021-07-29_20h06.08.446,Simcolourproject_2stim_asymm_v5,2020.2.10,Win32,60,61025ae37ef11b136ea224fe,,,,,,,,,796,50.20001137,-66.20000619,1,0,0,response3disk,,4,-14.59998959,11.39999497,1,0,0,rectangle,-14.59998959,11.39999497,1,0,0,-14.59998959,11.39999497,1,0,0,1,30,190,144,1,,,,,,,,
,,,,,,,,,,,,,FF,,,,,,,,0.7835,,,,,,,,,,,,,,,,,,,,,,610347b5b849c3e6a52e4a4a,61036ba78e5a51decd2b1813,2021-07-29_20h06.08.446,Simcolourproject_2stim_asymm_v5,2020.2.10,Win32,60,61025ae37ef11b136ea224fe,,,,,,,,,3500,31.8000111,62.59997132,1,0,0,response1disk,,7,8.600059581,12.99999499,1,0,0,rectangle,8.600059581,12.99999499,1,0,0,8.600059581,12.99999499,1,0,0,1,31,191,136,1,,,,,,,,
,,,,,,,,,,,,,FF,,,,,,,,1.1284,,,,,,,,,,,,,,,,,,,,,,610347b5b849c3e6a52e4a4a,61036ba78e5a51decd2b1813,2021-07-29_20h06.08.446,Simcolourproject_2stim_asymm_v5,2020.2.10,Win32,60,61025ae37ef11b136ea224fe,,,,,,,,,11,29.40001106,60.19997128,1,0,0,response1disk,,7,-3.399940598,-0.600005209,1,0,0,rectangle,-3.399940598,-0.600005209,1,0,0,-3.399940598,-0.600005209,1,0,0,1,32,192,122,1,,,,,,,,
,,,,,,,,,,,,,FF,,,,,,,,1.7505,,,,,,,,,,,,,,,,,,,,,,610347b5b849c3e6a52e4a4a,61036ba78e5a51decd2b1813,2021-07-29_20h06.08.446,Simcolourproject_2stim_asymm_v5,2020.2.10,Win32,60,61025ae37ef11b136ea224fe,,,,,,,,,2088,48.60006018,-43.00000584,1,0,0,response3disk,,5,13.40001082,-13.40002981,1,0,0,rectangle,13.40001082,-13.40002981,1,0,0,13.40001082,-13.40002981,1,0,0,1,33,193,34,1,,,,,,,,
,,,,,,,,,,,,,FF,,,,,,,,2.4836,,,,,,,,,,,,,,,,,,,,,,610347b5b849c3e6a52e4a4a,61036ba78e5a51decd2b1813,2021-07-29_20h06.08.446,Simcolourproject_2stim_asymm_v5,2020.2.10,Win32,60,61025ae37ef11b136ea224fe,,,,,,,,,1735,-49.79999012,-71.00000626,1,0,0,response5disk,,3,8.600059581,8.199970508,1,0,0,rectangle,8.600059581,8.199970508,1,0,0,8.600059581,8.199970508,1,0,0,1,34,194,65,1,,,,,,,,
,,,,,,,,,,,,,FF,,,,,,,,0.9832,,,,,,,,,,,,,,,,,,,,,,610347b5b849c3e6a52e4a4a,61036ba78e5a51decd2b1813,2021-07-29_20h06.08.446,Simcolourproject_2stim_asymm_v5,2020.2.10,Win32,60,61025ae37ef11b136ea224fe,,,,,,,,,3998,-36.19998991,47.39999551,1,0,0,response7disk,,0,-10.59998953,8.199970508,1,0,0,rectangle,-10.59998953,8.199970508,1,0,0,-10.59998953,8.199970508,1,0,0,1,35,195,19,1,,,,,,,,
,,,,,,,,,,,,,FF,,,,,,,,0.7505,,,,,,,,,,,,,,,,,,,,,,610347b5b849c3e6a52e4a4a,61036ba78e5a51decd2b1813,2021-07-29_20h06.08.446,Simcolourproject_2stim_asymm_v5,2020.2.10,Win32,60,61025ae37ef11b136ea224fe,,,,,,,,,56,39.00001121,80.99999601,1,0,0,response1disk,,7,10.20001078,12.99999499,1,0,0,rectangle,10.20001078,12.99999499,1,0,0,10.20001078,12.99999499,1,0,0,1,36,196,22,1,,,,,,,,
,,,,,,,,,,,,,FF,,,,,,,,0.5721,,,,,,,,,,,,,,,,,,,,,,610347b5b849c3e6a52e4a4a,61036ba78e5a51decd2b1813,2021-07-29_20h06.08.446,Simcolourproject_2stim_asymm_v5,2020.2.10,Win32,60,61025ae37ef11b136ea224fe,,,,,,,,,1091,37.40001118,61.79999572,1,0,0,response1disk,,7,7.000010729,7.39999491,1,0,0,rectangle,7.000010729,7.39999491,1,0,0,7.000010729,7.39999491,1,0,0,1,37,197,37,1,,,,,,,,
,,,,,,,,,,,,,FF,,,,,,,,1.4395,,,,,,,,,,,,,,,,,,,,,,610347b5b849c3e6a52e4a4a,61036ba78e5a51decd2b1813,2021-07-29_20h06.08.446,Simcolourproject_2stim_asymm_v5,2020.2.10,Win32,60,61025ae37ef11b136ea224fe,,,,,,,,,4151,-24.99998975,-89.40000653,1,0,0,response5disk,,3,8.600059581,-1.400029635,1,0,0,rectangle,8.600059581,-1.400029635,1,0,0,8.600059581,-1.400029635,1,0,0,1,38,198,132,1,,,,,,,,
,,,,,,,,,,,,,FF,,,,,,,,1.9333,,,,,,,,,,,,,,,,,,,,,,610347b5b849c3e6a52e4a4a,61036ba78e5a51decd2b1813,2021-07-29_20h06.08.446,Simcolourproject_2stim_asymm_v5,2020.2.10,Win32,60,61025ae37ef11b136ea224fe,,,,,,,,,869,79.0000118,41.79999542,1,0,0,response1disk,,6,-8.99998951,-1.400029635,1,0,0,rectangle,-8.99998951,-1.400029635,1,0,0,-8.99998951,-1.400029635,1,0,0,1,39,199,50,1,,,,,,,,
,,,,,,,,,,,,,FF,,,,,,,,1.6338,,,,,,,,,,,,,,,,,,,,,,610347b5b849c3e6a52e4a4a,61036ba78e5a51decd2b1813,2021-07-29_20h06.08.446,Simcolourproject_2stim_asymm_v5,2020.2.10,Win32,60,61025ae37ef11b136ea224fe,,,,,,,,,3439,59.80001152,-44.60000587,1,0,0,response3disk,,5,7.000010729,-1.400029635,1,0,0,rectangle,7.000010729,-1.400029635,1,0,0,7.000010729,-1.400029635,1,0,0,1,40,200,152,1,,,,,,,,
,,,,,,,,,,,,,FF,,,,,,,,0.7332,,,,,,,,,,,,,,,,,,,,,,610347b5b849c3e6a52e4a4a,61036ba78e5a51decd2b1813,2021-07-29_20h06.08.446,Simcolourproject_2stim_asymm_v5,2020.2.10,Win32,60,61025ae37ef11b136ea224fe,,,,,,,,,2194,51.00001138,85.79999608,1,0,0,response1disk,,7,7.000010729,-0.600005209,1,0,0,rectangle,7.000010729,-0.600005209,1,0,0,7.000010729,-0.600005209,1,0,0,1,41,201,142,1,,,,,,,,
,,,,,,,,,,,,,FF,,,,,,,,1.2999,,,,,,,,,,,,,,,,,,,,,,610347b5b849c3e6a52e4a4a,61036ba78e5a51decd2b1813,2021-07-29_20h06.08.446,Simcolourproject_2stim_asymm_v5,2020.2.10,Win32,60,61025ae37ef11b136ea224fe,,,,,,,,,3003,-47.39994125,-81.40000641,1,0,0,response5disk,,3,-5.799989462,0.199970388,1,0,0,rectangle,-5.799989462,0.199970388,1,0,0,-5.799989462,0.199970388,1,0,0,1,42,202,102,1,,,,,,,,
,,,,,,,,,,,,,FF,,,,,,,,1.2501,,,,,,,,,,,,,,,,,,,,,,610347b5b849c3e6a52e4a4a,61036ba78e5a51decd2b1813,2021-07-29_20h06.08.446,Simcolourproject_2stim_asymm_v5,2020.2.10,Win32,60,61025ae37ef11b136ea224fe,,,,,,,,,4336,-67.39994155,50.59997114,1,0,0,response7disk,,1,-11.39994072,8.999994934,1,0,0,rectangle,-11.39994072,8.999994934,1,0,0,-11.39994072,8.999994934,1,0,0,1,43,203,13,1,,,,,,,,
,,,,,,,,,,,,,FF,,,,,,,,1.2499,,,,,,,,,,,,,,,,,,,,,,610347b5b849c3e6a52e4a4a,61036ba78e5a51decd2b1813,2021-07-29_20h06.08.446,Simcolourproject_2stim_asymm_v5,2020.2.10,Win32,60,61025ae37ef11b136ea224fe,,,,,,,,,3702,47.00001132,57.79999566,1,0,0,response1disk,,7,1.400010645,-5.400029695,1,0,0,rectangle,1.400010645,-5.400029695,1,0,0,1.400010645,-5.400029695,1,0,0,1,44,204,5,1,,,,,,,,
,,,,,,,,,,,,,FF,,,,,,,,0.656,,,,,,,,,,,,,,,,,,,,,,610347b5b849c3e6a52e4a4a,61036ba78e5a51decd2b1813,2021-07-29_20h06.08.446,Simcolourproject_2stim_asymm_v5,2020.2.10,Win32,60,61025ae37ef11b136ea224fe,,,,,,,,,2505,38.20001119,60.19997128,1,0,0,response1disk,,7,5.400010705,4.999994874,1,0,0,rectangle,5.400010705,4.999994874,1,0,0,5.400010705,4.999994874,1,0,0,1,45,205,81,1,,,,,,,,
,,,,,,,,,,,,,FF,,,,,,,,1.155,,,,,,,,,,,,,,,,,,,,,,610347b5b849c3e6a52e4a4a,61036ba78e5a51decd2b1813,2021-07-29_20h06.08.446,Simcolourproject_2stim_asymm_v5,2020.2.10,Win32,60,61025ae37ef11b136ea224fe,,,,,,,,,2351,77.40001178,44.19997104,1,0,0,response1disk,,6,-2.599989414,2.599970424,1,0,0,rectangle,-2.599989414,2.599970424,1,0,0,-2.599989414,2.599970424,1,0,0,1,46,206,62,1,,,,,,,,
,,,,,,,,,,,,,FF,,,,,,,,0.5727,,,,,,,,,,,,,,,,,,,,,,610347b5b849c3e6a52e4a4a,61036ba78e5a51decd2b1813,2021-07-29_20h06.08.446,Simcolourproject_2stim_asymm_v5,2020.2.10,Win32,60,61025ae37ef11b136ea224fe,,,,,,,,,1067,64.60006042,102.5999719,1,0,0,response1disk,,7,8.600059581,8.999994934,1,0,0,rectangle,8.600059581,8.999994934,1,0,0,8.600059581,8.999994934,1,0,0,1,47,207,56,1,,,,,,,,
,,,,,,,,,,,,,FF,,,,,,,,2.4502,,,,,,,,,,,,,,,,,,,,,,610347b5b849c3e6a52e4a4a,61036ba78e5a51decd2b1813,2021-07-29_20h06.08.446,Simcolourproject_2stim_asymm_v5,2020.2.10,Win32,60,61025ae37ef11b136ea224fe,,,,,,,,,3237,79.80001181,-47.0000059,1,0,0,response3disk,,5,16.6000597,8.199970508,1,0,0,rectangle,16.6000597,8.199970508,1,0,0,16.6000597,8.199970508,1,0,0,1,48,208,95,1,,,,,,,,
,,,,,,,,,,,,,FF,,,,,,,,0.6706,,,,,,,,,,,,,,,,,,,,,,610347b5b849c3e6a52e4a4a,61036ba78e5a51decd2b1813,2021-07-29_20h06.08.446,Simcolourproject_2stim_asymm_v5,2020.2.10,Win32,60,61025ae37ef11b136ea224fe,,,,,,,,,3135,48.60006018,93.7999962,1,0,0,response1disk,,7,2.200010657,2.599970424,1,0,0,rectangle,2.200010657,2.599970424,1,0,0,2.200010657,2.599970424,1,0,0,1,49,209,67,1,,,,,,,,
,,,,,,,,,,,,,FF,,,,,,,,1.0165,,,,,,,,,,,,,,,,,,,,,,610347b5b849c3e6a52e4a4a,61036ba78e5a51decd2b1813,2021-07-29_20h06.08.446,Simcolourproject_2stim_asymm_v5,2020.2.10,Win32,60,61025ae37ef11b136ea224fe,,,,,,,,,1125,71.80001169,48.1999711,1,0,0,response1disk,,6,10.20001078,4.199970448,1,0,0,rectangle,10.20001078,4.199970448,1,0,0,10.20001078,4.199970448,1,0,0,1,50,210,43,1,,,,,,,,
,,,,,,,,,,,,,FF,,,,,,,,0.6838,,,,,,,,,,,,,,,,,,,,,,610347b5b849c3e6a52e4a4a,61036ba78e5a51decd2b1813,2021-07-29_20h06.08.446,Simcolourproject_2stim_asymm_v5,2020.2.10,Win32,60,61025ae37ef11b136ea224fe,,,,,,,,,1184,41.40001124,78.59997156,1,0,0,response1disk,,7,4.600059521,-3.800029671,1,0,0,rectangle,4.600059521,-3.800029671,1,0,0,4.600059521,-3.800029671,1,0,0,1,51,211,107,1,,,,,,,,
,,,,,,,,,,,,,FF,,,,,,,,0.7343,,,,,,,,,,,,,,,,,,,,,,610347b5b849c3e6a52e4a4a,61036ba78e5a51decd2b1813,2021-07-29_20h06.08.446,Simcolourproject_2stim_asymm_v5,2020.2.10,Win32,60,61025ae37ef11b136ea224fe,,,,,,,,,1251,43.80001128,80.19999599,1,0,0,response1disk,,7,4.600059521,4.999994874,1,0,0,rectangle,4.600059521,4.999994874,1,0,0,4.600059521,4.999994874,1,0,0,1,52,212,61,1,,,,,,,,
,,,,,,,,,,,,,FF,,,,,,,,0.706,,,,,,,,,,,,,,,,,,,,,,610347b5b849c3e6a52e4a4a,61036ba78e5a51decd2b1813,2021-07-29_20h06.08.446,Simcolourproject_2stim_asymm_v5,2020.2.10,Win32,60,61025ae37ef11b136ea224fe,,,,,,,,,297,40.60006006,78.59997156,1,0,0,response1disk,,7,1.400010645,4.999994874,1,0,0,rectangle,1.400010645,4.999994874,1,0,0,1.400010645,4.999994874,1,0,0,1,53,213,21,1,,,,,,,,
,,,,,,,,,,,,,FF,,,,,,,,0.7331,,,,,,,,,,,,,,,,,,,,,,610347b5b849c3e6a52e4a4a,61036ba78e5a51decd2b1813,2021-07-29_20h06.08.446,Simcolourproject_2stim_asymm_v5,2020.2.10,Win32,60,61025ae37ef11b136ea224fe,,,,,,,,,1510,57.40001148,86.59997168,1,0,0,response1disk,,7,-0.99998939,-4.600005269,1,0,0,rectangle,-0.99998939,-4.600005269,1,0,0,-0.99998939,-4.600005269,1,0,0,1,54,214,12,1,,,,,,,,
,,,,,,,,,,,,,FF,,,,,,,,0.773,,,,,,,,,,,,,,,,,,,,,,610347b5b849c3e6a52e4a4a,61036ba78e5a51decd2b1813,2021-07-29_20h06.08.446,Simcolourproject_2stim_asymm_v5,2020.2.10,Win32,60,61025ae37ef11b136ea224fe,,,,,,,,,237,46.20001131,87.3999961,1,0,0,response1disk,,7,-0.99998939,-4.600005269,1,0,0,rectangle,-0.99998939,-4.600005269,1,0,0,-0.99998939,-4.600005269,1,0,0,1,55,215,6,1,,,,,,,,
,,,,,,,,,,,,,FF,,,,,,,,0.7325,,,,,,,,,,,,,,,,,,,,,,610347b5b849c3e6a52e4a4a,61036ba78e5a51decd2b1813,2021-07-29_20h06.08.446,Simcolourproject_2stim_asymm_v5,2020.2.10,Win32,60,61025ae37ef11b136ea224fe,,,,,,,,,2508,35.80001116,59.39999568,1,0,0,response1disk,,7,-6.599989474,-6.200005293,1,0,0,rectangle,-6.599989474,-6.200005293,1,0,0,-6.599989474,-6.200005293,1,0,0,1,56,216,24,1,,,,,,,,
,,,,,,,,,,,,,FF,,,,,,,,0.7667,,,,,,,,,,,,,,,,,,,,,,610347b5b849c3e6a52e4a4a,61036ba78e5a51decd2b1813,2021-07-29_20h06.08.446,Simcolourproject_2stim_asymm_v5,2020.2.10,Win32,60,61025ae37ef11b136ea224fe,,,,,,,,,4370,-61.7999903,95.39999622,1,0,0,response7disk,,0,0.600059462,-3.000005245,1,0,0,rectangle,0.600059462,-3.000005245,1,0,0,0.600059462,-3.000005245,1,0,0,1,57,217,87,1,,,,,,,,
,,,,,,,,,,,,,FF,,,,,,,,1.6173,,,,,,,,,,,,,,,,,,,,,,610347b5b849c3e6a52e4a4a,61036ba78e5a51decd2b1813,2021-07-29_20h06.08.446,Simcolourproject_2stim_asymm_v5,2020.2.10,Win32,60,61025ae37ef11b136ea224fe,,,,,,,,,2219,75.80001175,36.99999535,1,0,0,response1disk,,6,3.000010669,-5.400029695,1,0,0,rectangle,3.000010669,-5.400029695,1,0,0,3.000010669,-5.400029695,1,0,0,1,58,218,26,1,,,,,,,,
,,,,,,,,,,,,,FF,,,,,,,,0.7163,,,,,,,,,,,,,,,,,,,,,,610347b5b849c3e6a52e4a4a,61036ba78e5a51decd2b1813,2021-07-29_20h06.08.446,Simcolourproject_2stim_asymm_v5,2020.2.10,Win32,60,61025ae37ef11b136ea224fe,,,,,,,,,502,40.60006006,89.79999614,1,0,0,response1disk,,7,1.400010645,-2.200005233,1,0,0,rectangle,1.400010645,-2.200005233,1,0,0,1.400010645,-2.200005233,1,0,0,1,59,219,137,1,,,,,,,,
,,,,,,,,,,,,,FF,,,,,,,,1.2117,,,,,,,,,,,,,,,,,,,,,,610347b5b849c3e6a52e4a4a,61036ba78e5a51decd2b1813,2021-07-29_20h06.08.446,Simcolourproject_2stim_asymm_v5,2020.2.10,Win32,60,61025ae37ef11b136ea224fe,,,,,,,,,3908,-74.59999049,36.19997092,1,0,0,response7disk,,1,19.80001092,-3.000005245,1,0,0,rectangle,19.80001092,-3.000005245,1,0,0,19.80001092,-3.000005245,1,0,0,1,60,220,71,1,,,,,,,,
,,,,,,,,,,,,,FF,,,,,,,,1.7496,,,,,,,,,,,,,,,,,,,,,,610347b5b849c3e6a52e4a4a,61036ba78e5a51decd2b1813,2021-07-29_20h06.08.446,Simcolourproject_2stim_asymm_v5,2020.2.10,Win32,60,61025ae37ef11b136ea224fe,,,,,,,,,4277,77.40001178,-27.0000056,1,0,0,response3disk,,5,8.600059581,0.199970388,1,0,0,rectangle,8.600059581,0.199970388,1,0,0,8.600059581,0.199970388,1,0,0,1,61,221,90,1,,,,,,,,
,,,,,,,,,,,,,FF,,,,,,,,0.5498,,,,,,,,,,,,,,,,,,,,,,610347b5b849c3e6a52e4a4a,61036ba78e5a51decd2b1813,2021-07-29_20h06.08.446,Simcolourproject_2stim_asymm_v5,2020.2.10,Win32,60,61025ae37ef11b136ea224fe,,,,,,,,,393,53.40001142,66.59997138,1,0,0,response1disk,,7,-2.599989414,0.199970388,1,0,0,rectangle,-2.599989414,0.199970388,1,0,0,-2.599989414,0.199970388,1,0,0,1,62,222,51,1,,,,,,,,
,,,,,,,,,,,,,FF,,,,,,,,0.5886,,,,,,,,,,,,,,,,,,,,,,610347b5b849c3e6a52e4a4a,61036ba78e5a51decd2b1813,2021-07-29_20h06.08.446,Simcolourproject_2stim_asymm_v5,2020.2.10,Win32,60,61025ae37ef11b136ea224fe,,,,,,,,,1160,43.00001127,90.59997174,1,0,0,response1disk,,7,3.000010669,3.39999485,1,0,0,rectangle,3.000010669,3.39999485,1,0,0,3.000010669,3.39999485,1,0,0,1,63,223,148,1,,,,,,,,
,,,,,,,,,,,,,FF,,,,,,,,0.7385,,,,,,,,,,,,,,,,,,,,,,610347b5b849c3e6a52e4a4a,61036ba78e5a51decd2b1813,2021-07-29_20h06.08.446,Simcolourproject_2stim_asymm_v5,2020.2.10,Win32,60,61025ae37ef11b136ea224fe,,,,,,,,,1088,38.20001119,88.99999613,1,0,0,response1disk,,7,-3.399940598,-0.600005209,1,0,0,rectangle,-3.399940598,-0.600005209,1,0,0,-3.399940598,-0.600005209,1,0,0,1,64,224,63,1,,,,,,,,
,,,,,,,,,,,,,FF,,,,,,,,0.7053,,,,,,,,,,,,,,,,,,,,,,610347b5b849c3e6a52e4a4a,61036ba78e5a51decd2b1813,2021-07-29_20h06.08.446,Simcolourproject_2stim_asymm_v5,2020.2.10,Win32,60,61025ae37ef11b136ea224fe,,,,,,,,,146,35.80001116,63.39999574,1,0,0,response1disk,,7,8.600059581,7.39999491,1,0,0,rectangle,8.600059581,7.39999491,1,0,0,8.600059581,7.39999491,1,0,0,1,65,225,91,1,,,,,,,,
,,,,,,,,,,,,,FF,,,,,,,,0.6132,,,,,,,,,,,,,,,,,,,,,,610347b5b849c3e6a52e4a4a,61036ba78e5a51decd2b1813,2021-07-29_20h06.08.446,Simcolourproject_2stim_asymm_v5,2020.2.10,Win32,60,61025ae37ef11b136ea224fe,,,,,,,,,3211,43.00001127,84.19999605,1,0,0,response1disk,,7,-1.799989402,4.199970448,1,0,0,rectangle,-1.799989402,4.199970448,1,0,0,-1.799989402,4.199970448,1,0,0,1,66,226,47,1,,,,,,,,
,,,,,,,,,,,,,FF,,,,,,,,0.7171,,,,,,,,,,,,,,,,,,,,,,610347b5b849c3e6a52e4a4a,61036ba78e5a51decd2b1813,2021-07-29_20h06.08.446,Simcolourproject_2stim_asymm_v5,2020.2.10,Win32,60,61025ae37ef11b136ea224fe,,,,,,,,,3032,53.40001142,97.79999626,1,0,0,response1disk,,7,-0.199989378,0.999994814,1,0,0,rectangle,-0.199989378,0.999994814,1,0,0,-0.199989378,0.999994814,1,0,0,1,67,227,120,1,,,,,,,,
,,,,,,,,,,,,,FF,,,,,,,,3.3168,,,,,,,,,,,,,,,,,,,,,,610347b5b849c3e6a52e4a4a,61036ba78e5a51decd2b1813,2021-07-29_20h06.08.446,Simcolourproject_2stim_asymm_v5,2020.2.10,Win32,60,61025ae37ef11b136ea224fe,,,,,,,,,2888,-84.99999064,-36.60000575,1,0,0,response5disk,,2,-4.99998945,-6.200005293,1,0,0,rectangle,-4.99998945,-6.200005293,1,0,0,-4.99998945,-6.200005293,1,0,0,1,68,228,98,1,,,,,,,,
,,,,,,,,,,,,,FF,,,,,,,,0.8331,,,,,,,,,,,,,,,,,,,,,,610347b5b849c3e6a52e4a4a,61036ba78e5a51decd2b1813,2021-07-29_20h06.08.446,Simcolourproject_2stim_asymm_v5,2020.2.10,Win32,60,61025ae37ef11b136ea224fe,,,,,,,,,2846,43.00001127,88.19999611,1,0,0,response1disk,,7,3.800010681,2.599970424,1,0,0,rectangle,3.800010681,2.599970424,1,0,0,3.800010681,2.599970424,1,0,0,1,69,229,118,1,,,,,,,,
,,,,,,,,,,,,,FF,,,,,,,,0.8334,,,,,,,,,,,,,,,,,,,,,,610347b5b849c3e6a52e4a4a,61036ba78e5a51decd2b1813,2021-07-29_20h06.08.446,Simcolourproject_2stim_asymm_v5,2020.2.10,Win32,60,61025ae37ef11b136ea224fe,,,,,,,,,2579,51.00001138,82.59997162,1,0,0,response1disk,,7,0.600059462,7.39999491,1,0,0,rectangle,0.600059462,7.39999491,1,0,0,0.600059462,7.39999491,1,0,0,1,70,230,68,1,,,,,,,,
,,,,,,,,,,,,,FF,,,,,,,,0.5788,,,,,,,,,,,,,,,,,,,,,,610347b5b849c3e6a52e4a4a,61036ba78e5a51decd2b1813,2021-07-29_20h06.08.446,Simcolourproject_2stim_asymm_v5,2020.2.10,Win32,60,61025ae37ef11b136ea224fe,,,,,,,,,1322,51.8000114,79.39999598,1,0,0,response1disk,,7,7.000010729,4.199970448,1,0,0,rectangle,7.000010729,4.199970448,1,0,0,7.000010729,4.199970448,1,0,0,1,71,231,121,1,,,,,,,,
,,,,,,,,,,,,,FF,,,,,,,,1.5,,,,,,,,,,,,,,,,,,,,,,610347b5b849c3e6a52e4a4a,61036ba78e5a51decd2b1813,2021-07-29_20h06.08.446,Simcolourproject_2stim_asymm_v5,2020.2.10,Win32,60,61025ae37ef11b136ea224fe,,,,,,,,,1202,74.20001173,-52.60000598,1,0,0,response3disk,,5,11.00001079,-5.400029695,1,0,0,rectangle,11.00001079,-5.400029695,1,0,0,11.00001079,-5.400029695,1,0,0,1,72,232,46,1,,,,,,,,
,,,,,,,,,,,,,FF,,,,,,,,0.6455,,,,,,,,,,,,,,,,,,,,,,610347b5b849c3e6a52e4a4a,61036ba78e5a51decd2b1813,2021-07-29_20h06.08.446,Simcolourproject_2stim_asymm_v5,2020.2.10,Win32,60,61025ae37ef11b136ea224fe,,,,,,,,,2390,38.20001119,68.99999583,1,0,0,response1disk,,7,-2.599989414,-7.800029731,1,0,0,rectangle,-2.599989414,-7.800029731,1,0,0,-2.599989414,-7.800029731,1,0,0,1,73,233,113,1,,,,,,,,
,,,,,,,,,,,,,FF,,,,,,,,1.1498,,,,,,,,,,,,,,,,,,,,,,610347b5b849c3e6a52e4a4a,61036ba78e5a51decd2b1813,2021-07-29_20h06.08.446,Simcolourproject_2stim_asymm_v5,2020.2.10,Win32,60,61025ae37ef11b136ea224fe,,,,,,,,,121,44.60006012,82.59997162,1,0,0,response1disk,,7,3.000010669,-11.00000536,1,0,0,rectangle,91.80001199,-39.80003021,1,0,0,7.800010741,-2.200005233,1,0,0,1,74,234,52,1,,response3disk_3,TRUE,5,5,"[14,53,46,38,115,260,277,36,275,92,235,87,170,33,115,116,295,184,105,112]",1.3007,rectangle
,,,,,,,,,,,,,FF,,,,,,,,1.7838,,,,,,,,,,,,,,,,,,,,,,610347b5b849c3e6a52e4a4a,61036ba78e5a51decd2b1813,2021-07-29_20h06.08.446,Simcolourproject_2stim_asymm_v5,2020.2.10,Win32,60,61025ae37ef11b136ea224fe,,,,,,,,,3463,31.00001109,-62.20000613,1,0,0,response3disk,,4,-8.199989498,2.599970424,1,0,0,rectangle,-8.199989498,2.599970424,1,0,0,-8.199989498,2.599970424,1,0,0,1,75,235,156,1,,,,,,,,
,,,,,,,,,,,,,FF,,,,,,,,1.7502,,,,,,,,,,,,,,,,,,,,,,610347b5b849c3e6a52e4a4a,61036ba78e5a51decd2b1813,2021-07-29_20h06.08.446,Simcolourproject_2stim_asymm_v5,2020.2.10,Win32,60,61025ae37ef11b136ea224fe,,,,,,,,,889,-44.19999003,-63.00000614,1,0,0,response5disk,,3,-2.599989414,8.199970508,1,0,0,rectangle,-2.599989414,8.199970508,1,0,0,-2.599989414,8.199970508,1,0,0,1,76,236,109,1,,,,,,,,
,,,,,,,,,,,,,FF,,,,,,,,2.8335,,,,,,,,,,,,,,,,,,,,,,610347b5b849c3e6a52e4a4a,61036ba78e5a51decd2b1813,2021-07-29_20h06.08.446,Simcolourproject_2stim_asymm_v5,2020.2.10,Win32,60,61025ae37ef11b136ea224fe,,,,,,,,,3826,74.20001173,-47.0000059,1,0,0,response3disk,,5,15.80001086,-2.200005233,1,0,0,rectangle,15.80001086,-2.200005233,1,0,0,15.80001086,-2.200005233,1,0,0,1,77,237,140,1,,,,,,,,
,,,,,,,,,,,,,FF,,,,,,,,1.3668,,,,,,,,,,,,,,,,,,,,,,610347b5b849c3e6a52e4a4a,61036ba78e5a51decd2b1813,2021-07-29_20h06.08.446,Simcolourproject_2stim_asymm_v5,2020.2.10,Win32,60,61025ae37ef11b136ea224fe,,,,,,,,,894,71.00001168,-51.80003039,1,0,0,response3disk,,5,9.400010765,-7.800029731,1,0,0,rectangle,9.400010765,-7.800029731,1,0,0,9.400010765,-7.800029731,1,0,0,1,78,238,16,1,,,,,,,,
,,,,,,,,,,,,,FF,,,,,,,,0.8834,,,,,,,,,,,,,,,,,,,,,,610347b5b849c3e6a52e4a4a,61036ba78e5a51decd2b1813,2021-07-29_20h06.08.446,Simcolourproject_2stim_asymm_v5,2020.2.10,Win32,60,61025ae37ef11b136ea224fe,,,,,,,,,848,40.60006006,101.7999963,1,0,0,response1disk,,7,-4.99998945,10.59997054,1,0,0,rectangle,-4.99998945,10.59997054,1,0,0,-4.99998945,10.59997054,1,0,0,1,79,239,115,1,,,,,,,,
,,,,,,,,,,,,,FF,,,,,,,,2.005,,,,,,,,,,,,,,,,,,,,,,610347b5b849c3e6a52e4a4a,61036ba78e5a51decd2b1813,2021-07-29_20h06.08.446,Simcolourproject_2stim_asymm_v5,2020.2.10,Win32,60,61025ae37ef11b136ea224fe,,,,,,,,,2060,71.80001169,47.39999551,1,0,0,response1disk,,6,15.80001086,4.999994874,1,0,0,rectangle,15.80001086,4.999994874,1,0,0,15.80001086,4.999994874,1,0,0,1,80,240,45,1,,,,,,,,
,,,,,,,,,,,,,FF,,,,,,,,0.7004,,,,,,,,,,,,,,,,,,,,,,610347b5b849c3e6a52e4a4a,61036ba78e5a51decd2b1813,2021-07-29_20h06.08.446,Simcolourproject_2stim_asymm_v5,2020.2.10,Win32,60,61025ae37ef11b136ea224fe,,,,,,,,,1077,35.00001115,87.3999961,1,0,0,response1disk,,7,1.400010645,9.799994946,1,0,0,rectangle,1.400010645,9.799994946,1,0,0,1.400010645,9.799994946,1,0,0,1,81,241,75,1,,,,,,,,
,,,,,,,,,,,,,FF,,,,,,,,1.3999,,,,,,,,,,,,,,,,,,,,,,610347b5b849c3e6a52e4a4a,61036ba78e5a51decd2b1813,2021-07-29_20h06.08.446,Simcolourproject_2stim_asymm_v5,2020.2.10,Win32,60,61025ae37ef11b136ea224fe,,,,,,,,,2578,34.20001113,70.59997144,1,0,0,response1disk,,7,-11.39994072,-6.200005293,1,0,0,rectangle,-11.39994072,-6.200005293,1,0,0,-11.39994072,-6.200005293,1,0,0,1,82,242,9,1,,,,,,,,
,,,,,,,,,,,,,FF,,,,,,,,1.5665,,,,,,,,,,,,,,,,,,,,,,610347b5b849c3e6a52e4a4a,61036ba78e5a51decd2b1813,2021-07-29_20h06.08.446,Simcolourproject_2stim_asymm_v5,2020.2.10,Win32,60,61025ae37ef11b136ea224fe,,,,,,,,,1437,54.20001143,-55.00000602,1,0,0,response3disk,,4,31.00001109,-3.000005245,1,0,0,rectangle,31.00001109,-3.000005245,1,0,0,31.00001109,-3.000005245,1,0,0,1,83,243,72,1,,,,,,,,
