key_resp.keys,key_resp.rt,key_resp_14.keys,key_resp_14.rt,key_resp_15.keys,key_resp_15.rt,key_resp_17.keys,key_resp_17.rt,key_resp_9.keys,key_resp_9.rt,key_resp_10.keys,key_resp_10.rt,practice_comparison,Ecc,mouse_5.x,mouse_5.y,mouse_5.leftButton,mouse_5.midButton,mouse_5.rightButton,mouse_5.clicked_name,pracsimilarity,response_time,mouse_10.x,mouse_10.y,mouse_10.leftButton,mouse_10.midButton,mouse_10.rightButton,mouse_10.clicked_name,mouse_7.x,mouse_7.y,mouse_7.leftButton,mouse_7.midButton,mouse_7.rightButton,mouse_6.x,mouse_6.y,mouse_6.leftButton,mouse_6.midButton,mouse_6.rightButton,duringprac.thisRepN,duringprac.thisTrialN,duringprac.thisN,duringprac.thisIndex,duringprac.ran,participant,session,date,expName,psychopyVersion,OS,frameRate,study_id,mouse_7.clicked_name,catchpracsimilarity,catch_response_time,catchnumberprac,catchtrialorderprac,mouse_6.clicked_name,key_resp_22.keys,key_resp_22.rt,realcomparison,mouse.x,mouse.y,mouse.leftButton,mouse.midButton,mouse.rightButton,mouse.clicked_name,Colour2,similarity,mouse_2.x,mouse_2.y,mouse_2.leftButton,mouse_2.midButton,mouse_2.rightButton,mouse_2.clicked_name,mouse_3.x,mouse_3.y,mouse_3.leftButton,mouse_3.midButton,mouse_3.rightButton,mouse_11.x,mouse_11.y,mouse_11.leftButton,mouse_11.midButton,mouse_11.rightButton,trials_2.thisRepN,trials_2.thisTrialN,trials_2.thisN,trials_2.thisIndex,trials_2.ran,Colour1,mouse_3.clicked_name,catchornah,catchsimilarity,catchnumber,catchtrialorder,catchRT,mouse_11.clicked_name
space,2.6437,space,10.3517,space,26.9842,space,2.8321,space,2.4345,space,3.1635,131,PF,49,83,1,0,0,response1disk_5,7,6.0271,9,-1,1,0,0,rectangle_8,9,-1,1,0,0,9,-1,1,0,0,0,0,0,4,1,61032bce6198732a57f68dff,61036f04377eb09d6274ba59,2021-07-29_23h17.21.603,Simcolourproject_2stim_asymm_v5,2020.2.10,MacIntel,60,61025ae37ef11b136ea224fe,,,,,,,,,,,,,,,,,,,,,,,,,,,,,,,,,,,,,,,,,,,,,,
,,,,,,,,,,,,78,FF,37,73,1,0,0,response1disk_5,7,7.3704,-5,-6,1,0,0,rectangle_8,-66,-35,1,0,0,-1,0,1,0,0,0,1,1,3,1,61032bce6198732a57f68dff,61036f04377eb09d6274ba59,2021-07-29_23h17.21.603,Simcolourproject_2stim_asymm_v5,2020.2.10,MacIntel,60,61025ae37ef11b136ea224fe,response5disk_7,2,3.2351,2,"[2,5]",rectangle_4,,,,,,,,,,,,,,,,,,,,,,,,,,,,,,,,,,,,,,,,
,,,,,,,,,,,,95,PF,41,83,1,0,0,response1disk_5,7,4.7175,-1,-8,1,0,0,rectangle_8,-1,-8,1,0,0,-1,-8,1,0,0,0,2,2,6,1,61032bce6198732a57f68dff,61036f04377eb09d6274ba59,2021-07-29_23h17.21.603,Simcolourproject_2stim_asymm_v5,2020.2.10,MacIntel,60,61025ae37ef11b136ea224fe,,,,,,,,,,,,,,,,,,,,,,,,,,,,,,,,,,,,,,,,,,,,,,
,,,,,,,,,,,,135,FF,74,-43,1,0,0,response3disk_5,5,5.7529,-4,-8,1,0,0,rectangle_8,-4,-8,1,0,0,-4,-8,1,0,0,0,3,3,5,1,61032bce6198732a57f68dff,61036f04377eb09d6274ba59,2021-07-29_23h17.21.603,Simcolourproject_2stim_asymm_v5,2020.2.10,MacIntel,60,61025ae37ef11b136ea224fe,,,,,,,,,,,,,,,,,,,,,,,,,,,,,,,,,,,,,,,,,,,,,,
,,,,,,,,,,,,73,FF,32,52,1,0,0,response1disk_5,7,2.4857,-2,10,1,0,0,rectangle_8,-78,-19,1,0,0,-10,1,1,0,0,0,4,4,0,1,61032bce6198732a57f68dff,61036f04377eb09d6274ba59,2021-07-29_23h17.21.603,Simcolourproject_2stim_asymm_v5,2020.2.10,MacIntel,60,61025ae37ef11b136ea224fe,response5disk_7,2,1.7846,2,"[2,5]",rectangle_4,,,,,,,,,,,,,,,,,,,,,,,,,,,,,,,,,,,,,,,,
,,,,,,,,,,,,74,PF,-76,-31,1,0,0,response5disk_5,2,4.2189,1,3,1,0,0,rectangle_8,1,3,1,0,0,1,3,1,0,0,0,5,5,1,1,61032bce6198732a57f68dff,61036f04377eb09d6274ba59,2021-07-29_23h17.21.603,Simcolourproject_2stim_asymm_v5,2020.2.10,MacIntel,60,61025ae37ef11b136ea224fe,,,,,,,,,,,,,,,,,,,,,,,,,,,,,,,,,,,,,,,,,,,,,,
,,,,,,,,,,,,129,PF,-72,-28,1,0,0,response5disk_5,2,1.5428,8,5,1,0,0,rectangle_8,8,5,1,0,0,8,5,1,0,0,0,6,6,2,1,61032bce6198732a57f68dff,61036f04377eb09d6274ba59,2021-07-29_23h17.21.603,Simcolourproject_2stim_asymm_v5,2020.2.10,MacIntel,60,61025ae37ef11b136ea224fe,,,,,,,,,,,,,,,,,,,,,,,,,,,,,,,,,,,,,,,,,,,,,,
,,,,,,,,,,,,,FF,,,,,,,,2.5246,,,,,,,,,,,,,,,,,,,,,,61032bce6198732a57f68dff,61036f04377eb09d6274ba59,2021-07-29_23h17.21.603,Simcolourproject_2stim_asymm_v5,2020.2.10,MacIntel,60,61025ae37ef11b136ea224fe,,,,,,,space,1.8992,2812,55,33,1,0,0,response1disk,,6,-4,-4,1,0,0,rectangle,-4,-4,1,0,0,-4,-4,1,0,0,0,0,0,120,1,,,,,,,,
,,,,,,,,,,,,,FF,,,,,,,,1.2848,,,,,,,,,,,,,,,,,,,,,,61032bce6198732a57f68dff,61036f04377eb09d6274ba59,2021-07-29_23h17.21.603,Simcolourproject_2stim_asymm_v5,2020.2.10,MacIntel,60,61025ae37ef11b136ea224fe,,,,,,,,,4317,36,68,1,0,0,response1disk,,7,-16,-4,1,0,0,rectangle,-16,-4,1,0,0,-16,-4,1,0,0,0,1,1,70,1,,,,,,,,
,,,,,,,,,,,,,FF,,,,,,,,1.0742,,,,,,,,,,,,,,,,,,,,,,61032bce6198732a57f68dff,61036f04377eb09d6274ba59,2021-07-29_23h17.21.603,Simcolourproject_2stim_asymm_v5,2020.2.10,MacIntel,60,61025ae37ef11b136ea224fe,,,,,,,,,4178,57,114,1,0,0,response1disk,,7,2,6,1,0,0,rectangle,2,6,1,0,0,2,6,1,0,0,0,2,2,79,1,,,,,,,,
,,,,,,,,,,,,,FF,,,,,,,,1.9846,,,,,,,,,,,,,,,,,,,,,,61032bce6198732a57f68dff,61036f04377eb09d6274ba59,2021-07-29_23h17.21.603,Simcolourproject_2stim_asymm_v5,2020.2.10,MacIntel,60,61025ae37ef11b136ea224fe,,,,,,,,,1672,-39,-69,1,0,0,response5disk,,3,-1,-8,1,0,0,rectangle,-1,-8,1,0,0,-1,-8,1,0,0,0,3,3,142,1,,,,,,,,
,,,,,,,,,,,,,FF,,,,,,,,2.3844,,,,,,,,,,,,,,,,,,,,,,61032bce6198732a57f68dff,61036f04377eb09d6274ba59,2021-07-29_23h17.21.603,Simcolourproject_2stim_asymm_v5,2020.2.10,MacIntel,60,61025ae37ef11b136ea224fe,,,,,,,,,2189,68,36,1,0,0,response1disk,,6,-9,0,1,0,0,rectangle,-9,0,1,0,0,-9,0,1,0,0,0,4,4,119,1,,,,,,,,
,,,,,,,,,,,,,FF,,,,,,,,2.602,,,,,,,,,,,,,,,,,,,,,,61032bce6198732a57f68dff,61036f04377eb09d6274ba59,2021-07-29_23h17.21.603,Simcolourproject_2stim_asymm_v5,2020.2.10,MacIntel,60,61025ae37ef11b136ea224fe,,,,,,,,,2462,77,-24,1,0,0,response3disk,,5,3,-2,1,0,0,rectangle,3,-2,1,0,0,3,-2,1,0,0,0,5,5,17,1,,,,,,,,
,,,,,,,,,,,,,FF,,,,,,,,3.4517,,,,,,,,,,,,,,,,,,,,,,61032bce6198732a57f68dff,61036f04377eb09d6274ba59,2021-07-29_23h17.21.603,Simcolourproject_2stim_asymm_v5,2020.2.10,MacIntel,60,61025ae37ef11b136ea224fe,,,,,,,,,3256,30,-94,1,0,0,response3disk,,4,-1,-6,1,0,0,rectangle,-1,-6,1,0,0,-1,-6,1,0,0,0,6,6,30,1,,,,,,,,
,,,,,,,,,,,,,FF,,,,,,,,2.1353,,,,,,,,,,,,,,,,,,,,,,61032bce6198732a57f68dff,61036f04377eb09d6274ba59,2021-07-29_23h17.21.603,Simcolourproject_2stim_asymm_v5,2020.2.10,MacIntel,60,61025ae37ef11b136ea224fe,,,,,,,,,940,74,-19,1,0,0,response3disk,,5,-3,5,1,0,0,rectangle,-3,5,1,0,0,-3,5,1,0,0,0,7,7,36,1,,,,,,,,
,,,,,,,,,,,,,FF,,,,,,,,1.8197,,,,,,,,,,,,,,,,,,,,,,61032bce6198732a57f68dff,61036f04377eb09d6274ba59,2021-07-29_23h17.21.603,Simcolourproject_2stim_asymm_v5,2020.2.10,MacIntel,60,61025ae37ef11b136ea224fe,,,,,,,,,1281,40,-72,1,0,0,response3disk,,4,-4,-2,1,0,0,rectangle,-4,-2,1,0,0,-4,-2,1,0,0,0,8,8,69,1,,,,,,,,
,,,,,,,,,,,,,FF,,,,,,,,1.4699,,,,,,,,,,,,,,,,,,,,,,61032bce6198732a57f68dff,61036f04377eb09d6274ba59,2021-07-29_23h17.21.603,Simcolourproject_2stim_asymm_v5,2020.2.10,MacIntel,60,61025ae37ef11b136ea224fe,,,,,,,,,1888,-68,-40,1,0,0,response5disk,,2,0,3,1,0,0,rectangle,0,3,1,0,0,0,3,1,0,0,0,9,9,91,1,,,,,,,,
,,,,,,,,,,,,,FF,,,,,,,,1.1677,,,,,,,,,,,,,,,,,,,,,,61032bce6198732a57f68dff,61036f04377eb09d6274ba59,2021-07-29_23h17.21.603,Simcolourproject_2stim_asymm_v5,2020.2.10,MacIntel,60,61025ae37ef11b136ea224fe,,,,,,,,,4110,69,38,1,0,0,response1disk,,6,-5,-6,1,0,0,rectangle,-5,-6,1,0,0,-5,-6,1,0,0,0,10,10,75,1,,,,,,,,
,,,,,,,,,,,,,FF,,,,,,,,2.051,,,,,,,,,,,,,,,,,,,,,,61032bce6198732a57f68dff,61036f04377eb09d6274ba59,2021-07-29_23h17.21.603,Simcolourproject_2stim_asymm_v5,2020.2.10,MacIntel,60,61025ae37ef11b136ea224fe,,,,,,,,,2595,74,-51,1,0,0,response3disk,,5,-3,-4,1,0,0,rectangle,-3,-4,1,0,0,-3,-4,1,0,0,0,11,11,37,1,,,,,,,,
,,,,,,,,,,,,,FF,,,,,,,,1.4345,,,,,,,,,,,,,,,,,,,,,,61032bce6198732a57f68dff,61036f04377eb09d6274ba59,2021-07-29_23h17.21.603,Simcolourproject_2stim_asymm_v5,2020.2.10,MacIntel,60,61025ae37ef11b136ea224fe,,,,,,,,,1482,67,-62,1,0,0,response3disk,,5,-5,-4,1,0,0,rectangle,-5,-4,1,0,0,-5,-4,1,0,0,0,12,12,34,1,,,,,,,,
,,,,,,,,,,,,,FF,,,,,,,,1.5213,,,,,,,,,,,,,,,,,,,,,,61032bce6198732a57f68dff,61036f04377eb09d6274ba59,2021-07-29_23h17.21.603,Simcolourproject_2stim_asymm_v5,2020.2.10,MacIntel,60,61025ae37ef11b136ea224fe,,,,,,,,,1785,78,31,1,0,0,response1disk,,6,-9,0,1,0,0,rectangle,-9,0,1,0,0,-9,0,1,0,0,0,13,13,159,1,,,,,,,,
,,,,,,,,,,,,,FF,,,,,,,,2.1391,,,,,,,,,,,,,,,,,,,,,,61032bce6198732a57f68dff,61036f04377eb09d6274ba59,2021-07-29_23h17.21.603,Simcolourproject_2stim_asymm_v5,2020.2.10,MacIntel,60,61025ae37ef11b136ea224fe,,,,,,,,,1440,82,56,1,0,0,response1disk,,6,-4,-3,1,0,0,rectangle,-76,-31,1,0,0,-13,4,1,0,0,0,14,14,83,1,,response5disk_3,TRUE,2,2,"[227,278,112,283,244,57,56,140,17,321,254,15,163,196,151,298,268,285,240,184]",1.6029,rectangle
,,,,,,,,,,,,,FF,,,,,,,,1.3865,,,,,,,,,,,,,,,,,,,,,,61032bce6198732a57f68dff,61036f04377eb09d6274ba59,2021-07-29_23h17.21.603,Simcolourproject_2stim_asymm_v5,2020.2.10,MacIntel,60,61025ae37ef11b136ea224fe,,,,,,,,,2315,46,-74,1,0,0,response3disk,,4,-2,-3,1,0,0,rectangle,-2,-3,1,0,0,-2,-3,1,0,0,0,15,15,129,1,,,,,,,,
,,,,,,,,,,,,,FF,,,,,,,,1.8346,,,,,,,,,,,,,,,,,,,,,,61032bce6198732a57f68dff,61036f04377eb09d6274ba59,2021-07-29_23h17.21.603,Simcolourproject_2stim_asymm_v5,2020.2.10,MacIntel,60,61025ae37ef11b136ea224fe,,,,,,,,,3796,65,-30,1,0,0,response3disk,,5,2,1,1,0,0,rectangle,57,32,1,0,0,-1,-4,1,0,0,0,16,16,57,1,,response1disk_3,TRUE,6,6,"[227,278,112,283,244,57,56,140,17,321,254,15,163,196,151,298,268,285,240,184]",2.0167,rectangle
,,,,,,,,,,,,,FF,,,,,,,,1.0839,,,,,,,,,,,,,,,,,,,,,,61032bce6198732a57f68dff,61036f04377eb09d6274ba59,2021-07-29_23h17.21.603,Simcolourproject_2stim_asymm_v5,2020.2.10,MacIntel,60,61025ae37ef11b136ea224fe,,,,,,,,,2334,37,-89,1,0,0,response3disk,,4,-8,-3,1,0,0,rectangle,-8,-3,1,0,0,-8,-3,1,0,0,0,17,17,97,1,,,,,,,,
,,,,,,,,,,,,,FF,,,,,,,,1.1017,,,,,,,,,,,,,,,,,,,,,,61032bce6198732a57f68dff,61036f04377eb09d6274ba59,2021-07-29_23h17.21.603,Simcolourproject_2stim_asymm_v5,2020.2.10,MacIntel,60,61025ae37ef11b136ea224fe,,,,,,,,,609,28,-68,1,0,0,response3disk,,4,-1,-4,1,0,0,rectangle,-1,-4,1,0,0,-1,-4,1,0,0,0,18,18,139,1,,,,,,,,
,,,,,,,,,,,,,FF,,,,,,,,1.201,,,,,,,,,,,,,,,,,,,,,,61032bce6198732a57f68dff,61036f04377eb09d6274ba59,2021-07-29_23h17.21.603,Simcolourproject_2stim_asymm_v5,2020.2.10,MacIntel,60,61025ae37ef11b136ea224fe,,,,,,,,,61,72,-44,1,0,0,response3disk,,5,1,2,1,0,0,rectangle,1,2,1,0,0,1,2,1,0,0,0,19,19,122,1,,,,,,,,
,,,,,,,,,,,,,FF,,,,,,,,1.7502,,,,,,,,,,,,,,,,,,,,,,61032bce6198732a57f68dff,61036f04377eb09d6274ba59,2021-07-29_23h17.21.603,Simcolourproject_2stim_asymm_v5,2020.2.10,MacIntel,60,61025ae37ef11b136ea224fe,,,,,,,,,2188,67,33,1,0,0,response1disk,,6,-16,-6,1,0,0,rectangle,-16,-6,1,0,0,-16,-6,1,0,0,0,20,20,105,1,,,,,,,,
,,,,,,,,,,,,,FF,,,,,,,,1.3356,,,,,,,,,,,,,,,,,,,,,,61032bce6198732a57f68dff,61036f04377eb09d6274ba59,2021-07-29_23h17.21.603,Simcolourproject_2stim_asymm_v5,2020.2.10,MacIntel,60,61025ae37ef11b136ea224fe,,,,,,,,,3843,-82,31,1,0,0,response7disk,,1,-11,2,1,0,0,rectangle,-11,2,1,0,0,-11,2,1,0,0,0,21,21,136,1,,,,,,,,
,,,,,,,,,,,,,FF,,,,,,,,1.0677,,,,,,,,,,,,,,,,,,,,,,61032bce6198732a57f68dff,61036f04377eb09d6274ba59,2021-07-29_23h17.21.603,Simcolourproject_2stim_asymm_v5,2020.2.10,MacIntel,60,61025ae37ef11b136ea224fe,,,,,,,,,2015,71,-54,1,0,0,response3disk,,5,-5,-1,1,0,0,rectangle,-5,-1,1,0,0,-5,-1,1,0,0,0,22,22,60,1,,,,,,,,
,,,,,,,,,,,,,FF,,,,,,,,4.6816,,,,,,,,,,,,,,,,,,,,,,61032bce6198732a57f68dff,61036f04377eb09d6274ba59,2021-07-29_23h17.21.603,Simcolourproject_2stim_asymm_v5,2020.2.10,MacIntel,60,61025ae37ef11b136ea224fe,,,,,,,,,247,34,-68,1,0,0,response3disk,,4,-4,13,1,0,0,rectangle,-4,13,1,0,0,-4,13,1,0,0,0,23,23,67,1,,,,,,,,
,,,,,,,,,,,,,FF,,,,,,,,2.1527,,,,,,,,,,,,,,,,,,,,,,61032bce6198732a57f68dff,61036f04377eb09d6274ba59,2021-07-29_23h17.21.603,Simcolourproject_2stim_asymm_v5,2020.2.10,MacIntel,60,61025ae37ef11b136ea224fe,,,,,,,,,3091,46,-85,1,0,0,response3disk,,4,-12,12,1,0,0,rectangle,-12,12,1,0,0,-12,12,1,0,0,0,24,24,101,1,,,,,,,,
,,,,,,,,,,,,,FF,,,,,,,,2.1364,,,,,,,,,,,,,,,,,,,,,,61032bce6198732a57f68dff,61036f04377eb09d6274ba59,2021-07-29_23h17.21.603,Simcolourproject_2stim_asymm_v5,2020.2.10,MacIntel,60,61025ae37ef11b136ea224fe,,,,,,,,,294,62,-81,1,0,0,response3disk,,4,-3,-8,1,0,0,rectangle,-3,-8,1,0,0,-3,-8,1,0,0,0,25,25,90,1,,,,,,,,
,,,,,,,,,,,,,FF,,,,,,,,1.7834,,,,,,,,,,,,,,,,,,,,,,61032bce6198732a57f68dff,61036f04377eb09d6274ba59,2021-07-29_23h17.21.603,Simcolourproject_2stim_asymm_v5,2020.2.10,MacIntel,60,61025ae37ef11b136ea224fe,,,,,,,,,3479,69,-46,1,0,0,response3disk,,5,-4,1,1,0,0,rectangle,-4,1,1,0,0,-4,1,1,0,0,0,26,26,73,1,,,,,,,,
,,,,,,,,,,,,,FF,,,,,,,,1.1673,,,,,,,,,,,,,,,,,,,,,,61032bce6198732a57f68dff,61036f04377eb09d6274ba59,2021-07-29_23h17.21.603,Simcolourproject_2stim_asymm_v5,2020.2.10,MacIntel,60,61025ae37ef11b136ea224fe,,,,,,,,,1387,60,-41,1,0,0,response3disk,,5,-23,3,1,0,0,rectangle,-23,3,1,0,0,-23,3,1,0,0,0,27,27,39,1,,,,,,,,
,,,,,,,,,,,,,FF,,,,,,,,1.3551,,,,,,,,,,,,,,,,,,,,,,61032bce6198732a57f68dff,61036f04377eb09d6274ba59,2021-07-29_23h17.21.603,Simcolourproject_2stim_asymm_v5,2020.2.10,MacIntel,60,61025ae37ef11b136ea224fe,,,,,,,,,4063,34,90,1,0,0,response1disk,,7,-8,1,1,0,0,rectangle,-8,1,1,0,0,-8,1,1,0,0,0,28,28,87,1,,,,,,,,
,,,,,,,,,,,,,FF,,,,,,,,1.3703,,,,,,,,,,,,,,,,,,,,,,61032bce6198732a57f68dff,61036f04377eb09d6274ba59,2021-07-29_23h17.21.603,Simcolourproject_2stim_asymm_v5,2020.2.10,MacIntel,60,61025ae37ef11b136ea224fe,,,,,,,,,3004,59,-71,1,0,0,response3disk,,4,-13,-6,1,0,0,rectangle,-13,-6,1,0,0,-13,-6,1,0,0,0,29,29,58,1,,,,,,,,
,,,,,,,,,,,,,FF,,,,,,,,2.653,,,,,,,,,,,,,,,,,,,,,,61032bce6198732a57f68dff,61036f04377eb09d6274ba59,2021-07-29_23h17.21.603,Simcolourproject_2stim_asymm_v5,2020.2.10,MacIntel,60,61025ae37ef11b136ea224fe,,,,,,,,,897,-47,-74,1,0,0,response5disk,,3,-5,-11,1,0,0,rectangle,-5,-11,1,0,0,-5,-11,1,0,0,0,30,30,77,1,,,,,,,,
,,,,,,,,,,,,,FF,,,,,,,,1.153,,,,,,,,,,,,,,,,,,,,,,61032bce6198732a57f68dff,61036f04377eb09d6274ba59,2021-07-29_23h17.21.603,Simcolourproject_2stim_asymm_v5,2020.2.10,MacIntel,60,61025ae37ef11b136ea224fe,,,,,,,,,2678,20,-75,1,0,0,response3disk,,4,1,-10,1,0,0,rectangle,1,-10,1,0,0,1,-10,1,0,0,0,31,31,46,1,,,,,,,,
,,,,,,,,,,,,,FF,,,,,,,,1.3335,,,,,,,,,,,,,,,,,,,,,,61032bce6198732a57f68dff,61036f04377eb09d6274ba59,2021-07-29_23h17.21.603,Simcolourproject_2stim_asymm_v5,2020.2.10,MacIntel,60,61025ae37ef11b136ea224fe,,,,,,,,,2329,76,23,1,0,0,response1disk,,6,12,-8,1,0,0,rectangle,12,-8,1,0,0,12,-8,1,0,0,0,32,32,32,1,,,,,,,,
,,,,,,,,,,,,,FF,,,,,,,,2.8186,,,,,,,,,,,,,,,,,,,,,,61032bce6198732a57f68dff,61036f04377eb09d6274ba59,2021-07-29_23h17.21.603,Simcolourproject_2stim_asymm_v5,2020.2.10,MacIntel,60,61025ae37ef11b136ea224fe,,,,,,,,,1053,-109,-43,1,0,0,response5disk,,2,-4,7,1,0,0,rectangle,-4,7,1,0,0,-4,7,1,0,0,0,33,33,148,1,,,,,,,,
,,,,,,,,,,,,,FF,,,,,,,,2.9028,,,,,,,,,,,,,,,,,,,,,,61032bce6198732a57f68dff,61036f04377eb09d6274ba59,2021-07-29_23h17.21.603,Simcolourproject_2stim_asymm_v5,2020.2.10,MacIntel,60,61025ae37ef11b136ea224fe,,,,,,,,,251,-31,-77,1,0,0,response5disk,,3,5,4,1,0,0,rectangle,5,4,1,0,0,5,4,1,0,0,0,34,34,135,1,,,,,,,,
,,,,,,,,,,,,,FF,,,,,,,,1.5851,,,,,,,,,,,,,,,,,,,,,,61032bce6198732a57f68dff,61036f04377eb09d6274ba59,2021-07-29_23h17.21.603,Simcolourproject_2stim_asymm_v5,2020.2.10,MacIntel,60,61025ae37ef11b136ea224fe,,,,,,,,,3889,80,58,1,0,0,response1disk,,6,-1,-2,1,0,0,rectangle,-1,-2,1,0,0,-1,-2,1,0,0,0,35,35,29,1,,,,,,,,
,,,,,,,,,,,,,FF,,,,,,,,2.1673,,,,,,,,,,,,,,,,,,,,,,61032bce6198732a57f68dff,61036f04377eb09d6274ba59,2021-07-29_23h17.21.603,Simcolourproject_2stim_asymm_v5,2020.2.10,MacIntel,60,61025ae37ef11b136ea224fe,,,,,,,,,4289,74,-53,1,0,0,response3disk,,5,5,0,1,0,0,rectangle,5,0,1,0,0,5,0,1,0,0,0,36,36,12,1,,,,,,,,
,,,,,,,,,,,,,FF,,,,,,,,2.0501,,,,,,,,,,,,,,,,,,,,,,61032bce6198732a57f68dff,61036f04377eb09d6274ba59,2021-07-29_23h17.21.603,Simcolourproject_2stim_asymm_v5,2020.2.10,MacIntel,60,61025ae37ef11b136ea224fe,,,,,,,,,276,-30,89,1,0,0,response7disk,,0,-10,8,1,0,0,rectangle,-10,8,1,0,0,-10,8,1,0,0,0,37,37,27,1,,,,,,,,
,,,,,,,,,,,,,FF,,,,,,,,1.1344,,,,,,,,,,,,,,,,,,,,,,61032bce6198732a57f68dff,61036f04377eb09d6274ba59,2021-07-29_23h17.21.603,Simcolourproject_2stim_asymm_v5,2020.2.10,MacIntel,60,61025ae37ef11b136ea224fe,,,,,,,,,989,-65,-24,1,0,0,response5disk,,2,11,13,1,0,0,rectangle,11,13,1,0,0,11,13,1,0,0,0,38,38,82,1,,,,,,,,
,,,,,,,,,,,,,FF,,,,,,,,1.3341,,,,,,,,,,,,,,,,,,,,,,61032bce6198732a57f68dff,61036f04377eb09d6274ba59,2021-07-29_23h17.21.603,Simcolourproject_2stim_asymm_v5,2020.2.10,MacIntel,60,61025ae37ef11b136ea224fe,,,,,,,,,2788,32,-79,1,0,0,response3disk,,4,-4,-12,1,0,0,rectangle,-4,-12,1,0,0,-4,-12,1,0,0,0,39,39,45,1,,,,,,,,
,,,,,,,,,,,,,FF,,,,,,,,2.4189,,,,,,,,,,,,,,,,,,,,,,61032bce6198732a57f68dff,61036f04377eb09d6274ba59,2021-07-29_23h17.21.603,Simcolourproject_2stim_asymm_v5,2020.2.10,MacIntel,60,61025ae37ef11b136ea224fe,,,,,,,,,744,34,-83,1,0,0,response3disk,,4,1,-3,1,0,0,rectangle,1,-3,1,0,0,1,-3,1,0,0,0,40,40,145,1,,,,,,,,
,,,,,,,,,,,,,FF,,,,,,,,1.352,,,,,,,,,,,,,,,,,,,,,,61032bce6198732a57f68dff,61036f04377eb09d6274ba59,2021-07-29_23h17.21.603,Simcolourproject_2stim_asymm_v5,2020.2.10,MacIntel,60,61025ae37ef11b136ea224fe,,,,,,,,,3505,-34,-78,1,0,0,response5disk,,3,-11,-3,1,0,0,rectangle,-11,-3,1,0,0,-11,-3,1,0,0,0,41,41,71,1,,,,,,,,
,,,,,,,,,,,,,FF,,,,,,,,2.8539,,,,,,,,,,,,,,,,,,,,,,61032bce6198732a57f68dff,61036f04377eb09d6274ba59,2021-07-29_23h17.21.603,Simcolourproject_2stim_asymm_v5,2020.2.10,MacIntel,60,61025ae37ef11b136ea224fe,,,,,,,,,1829,32,-67,1,0,0,response3disk,,4,-11,-5,1,0,0,rectangle,-11,-5,1,0,0,-11,-5,1,0,0,0,42,42,42,1,,,,,,,,
,,,,,,,,,,,,,FF,,,,,,,,0.9517,,,,,,,,,,,,,,,,,,,,,,61032bce6198732a57f68dff,61036f04377eb09d6274ba59,2021-07-29_23h17.21.603,Simcolourproject_2stim_asymm_v5,2020.2.10,MacIntel,60,61025ae37ef11b136ea224fe,,,,,,,,,1239,34,-57,1,0,0,response3disk,,4,13,-5,1,0,0,rectangle,13,-5,1,0,0,13,-5,1,0,0,0,43,43,110,1,,,,,,,,
,,,,,,,,,,,,,FF,,,,,,,,1.1333,,,,,,,,,,,,,,,,,,,,,,61032bce6198732a57f68dff,61036f04377eb09d6274ba59,2021-07-29_23h17.21.603,Simcolourproject_2stim_asymm_v5,2020.2.10,MacIntel,60,61025ae37ef11b136ea224fe,,,,,,,,,3074,37,67,1,0,0,response1disk,,7,5,-4,1,0,0,rectangle,5,-4,1,0,0,5,-4,1,0,0,0,44,44,59,1,,,,,,,,
,,,,,,,,,,,,,FF,,,,,,,,1.5362,,,,,,,,,,,,,,,,,,,,,,61032bce6198732a57f68dff,61036f04377eb09d6274ba59,2021-07-29_23h17.21.603,Simcolourproject_2stim_asymm_v5,2020.2.10,MacIntel,60,61025ae37ef11b136ea224fe,,,,,,,,,515,27,-83,1,0,0,response3disk,,4,-8,-5,1,0,0,rectangle,-8,-5,1,0,0,-8,-5,1,0,0,0,45,45,15,1,,,,,,,,
,,,,,,,,,,,,,FF,,,,,,,,1.7662,,,,,,,,,,,,,,,,,,,,,,61032bce6198732a57f68dff,61036f04377eb09d6274ba59,2021-07-29_23h17.21.603,Simcolourproject_2stim_asymm_v5,2020.2.10,MacIntel,60,61025ae37ef11b136ea224fe,,,,,,,,,290,35,-62,1,0,0,response3disk,,4,-6,-5,1,0,0,rectangle,-6,-5,1,0,0,-6,-5,1,0,0,0,46,46,133,1,,,,,,,,
,,,,,,,,,,,,,FF,,,,,,,,2.2502,,,,,,,,,,,,,,,,,,,,,,61032bce6198732a57f68dff,61036f04377eb09d6274ba59,2021-07-29_23h17.21.603,Simcolourproject_2stim_asymm_v5,2020.2.10,MacIntel,60,61025ae37ef11b136ea224fe,,,,,,,,,428,61,-31,1,0,0,response3disk,,5,4,0,1,0,0,rectangle,4,0,1,0,0,4,0,1,0,0,0,47,47,8,1,,,,,,,,
,,,,,,,,,,,,,FF,,,,,,,,1.1516,,,,,,,,,,,,,,,,,,,,,,61032bce6198732a57f68dff,61036f04377eb09d6274ba59,2021-07-29_23h17.21.603,Simcolourproject_2stim_asymm_v5,2020.2.10,MacIntel,60,61025ae37ef11b136ea224fe,,,,,,,,,1975,31,-55,1,0,0,response3disk,,4,-9,4,1,0,0,rectangle,-9,4,1,0,0,-9,4,1,0,0,0,48,48,127,1,,,,,,,,
,,,,,,,,,,,,,FF,,,,,,,,1.1674,,,,,,,,,,,,,,,,,,,,,,61032bce6198732a57f68dff,61036f04377eb09d6274ba59,2021-07-29_23h17.21.603,Simcolourproject_2stim_asymm_v5,2020.2.10,MacIntel,60,61025ae37ef11b136ea224fe,,,,,,,,,2580,37,-87,1,0,0,response3disk,,4,-9,2,1,0,0,rectangle,-9,2,1,0,0,-9,2,1,0,0,0,49,49,63,1,,,,,,,,
,,,,,,,,,,,,,FF,,,,,,,,1.6181,,,,,,,,,,,,,,,,,,,,,,61032bce6198732a57f68dff,61036f04377eb09d6274ba59,2021-07-29_23h17.21.603,Simcolourproject_2stim_asymm_v5,2020.2.10,MacIntel,60,61025ae37ef11b136ea224fe,,,,,,,,,1179,76,46,1,0,0,response1disk,,6,4,-6,1,0,0,rectangle,4,-6,1,0,0,4,-6,1,0,0,0,50,50,84,1,,,,,,,,
,,,,,,,,,,,,,FF,,,,,,,,1.1208,,,,,,,,,,,,,,,,,,,,,,61032bce6198732a57f68dff,61036f04377eb09d6274ba59,2021-07-29_23h17.21.603,Simcolourproject_2stim_asymm_v5,2020.2.10,MacIntel,60,61025ae37ef11b136ea224fe,,,,,,,,,4146,-59,-36,1,0,0,response5disk,,2,-15,1,1,0,0,rectangle,-15,1,1,0,0,-15,1,1,0,0,0,51,51,152,1,,,,,,,,
,,,,,,,,,,,,,FF,,,,,,,,0.9019,,,,,,,,,,,,,,,,,,,,,,61032bce6198732a57f68dff,61036f04377eb09d6274ba59,2021-07-29_23h17.21.603,Simcolourproject_2stim_asymm_v5,2020.2.10,MacIntel,60,61025ae37ef11b136ea224fe,,,,,,,,,2179,36,-66,1,0,0,response3disk,,4,-3,2,1,0,0,rectangle,-3,2,1,0,0,-3,2,1,0,0,0,52,52,89,1,,,,,,,,
,,,,,,,,,,,,,FF,,,,,,,,1.1204,,,,,,,,,,,,,,,,,,,,,,61032bce6198732a57f68dff,61036f04377eb09d6274ba59,2021-07-29_23h17.21.603,Simcolourproject_2stim_asymm_v5,2020.2.10,MacIntel,60,61025ae37ef11b136ea224fe,,,,,,,,,4,-54,-66,1,0,0,response5disk,,3,-1,-3,1,0,0,rectangle,-1,-3,1,0,0,-1,-3,1,0,0,0,53,53,72,1,,,,,,,,
,,,,,,,,,,,,,FF,,,,,,,,1.4182,,,,,,,,,,,,,,,,,,,,,,61032bce6198732a57f68dff,61036f04377eb09d6274ba59,2021-07-29_23h17.21.603,Simcolourproject_2stim_asymm_v5,2020.2.10,MacIntel,60,61025ae37ef11b136ea224fe,,,,,,,,,4207,-86,-48,1,0,0,response5disk,,2,3,11,1,0,0,rectangle,3,11,1,0,0,3,11,1,0,0,0,54,54,100,1,,,,,,,,
,,,,,,,,,,,,,FF,,,,,,,,1.5843,,,,,,,,,,,,,,,,,,,,,,61032bce6198732a57f68dff,61036f04377eb09d6274ba59,2021-07-29_23h17.21.603,Simcolourproject_2stim_asymm_v5,2020.2.10,MacIntel,60,61025ae37ef11b136ea224fe,,,,,,,,,2753,70,-34,1,0,0,response3disk,,5,-2,-5,1,0,0,rectangle,67,50,1,0,0,13,2,1,0,0,0,55,55,78,1,,response1disk_3,TRUE,6,6,"[227,278,112,283,244,57,56,140,17,321,254,15,163,196,151,298,268,285,240,184]",2.052,rectangle
,,,,,,,,,,,,,FF,,,,,,,,1.3023,,,,,,,,,,,,,,,,,,,,,,61032bce6198732a57f68dff,61036f04377eb09d6274ba59,2021-07-29_23h17.21.603,Simcolourproject_2stim_asymm_v5,2020.2.10,MacIntel,60,61025ae37ef11b136ea224fe,,,,,,,,,2191,69,52,1,0,0,response1disk,,6,-1,-4,1,0,0,rectangle,36,-76,1,0,0,-8,-3,1,0,0,0,56,56,10,1,,response3disk_3,TRUE,4,4,"[227,278,112,283,244,57,56,140,17,321,254,15,163,196,151,298,268,285,240,184]",1.6535,rectangle
,,,,,,,,,,,,,FF,,,,,,,,5.4033,,,,,,,,,,,,,,,,,,,,,,61032bce6198732a57f68dff,61036f04377eb09d6274ba59,2021-07-29_23h17.21.603,Simcolourproject_2stim_asymm_v5,2020.2.10,MacIntel,60,61025ae37ef11b136ea224fe,,,,,,,,,787,64,-29,1,0,0,response3disk,,5,-8,6,1,0,0,rectangle,-8,6,1,0,0,-8,6,1,0,0,0,57,57,140,1,,,,,,,,
,,,,,,,,,,,,,FF,,,,,,,,1.1343,,,,,,,,,,,,,,,,,,,,,,61032bce6198732a57f68dff,61036f04377eb09d6274ba59,2021-07-29_23h17.21.603,Simcolourproject_2stim_asymm_v5,2020.2.10,MacIntel,60,61025ae37ef11b136ea224fe,,,,,,,,,2003,67,32,1,0,0,response1disk,,6,-4,1,1,0,0,rectangle,-4,1,1,0,0,-4,1,1,0,0,0,58,58,0,1,,,,,,,,
,,,,,,,,,,,,,FF,,,,,,,,1.2047,,,,,,,,,,,,,,,,,,,,,,61032bce6198732a57f68dff,61036f04377eb09d6274ba59,2021-07-29_23h17.21.603,Simcolourproject_2stim_asymm_v5,2020.2.10,MacIntel,60,61025ae37ef11b136ea224fe,,,,,,,,,49,68,-57,1,0,0,response3disk,,5,-9,-3,1,0,0,rectangle,-9,-3,1,0,0,-9,-3,1,0,0,0,59,59,28,1,,,,,,,,
,,,,,,,,,,,,,FF,,,,,,,,1.0514,,,,,,,,,,,,,,,,,,,,,,61032bce6198732a57f68dff,61036f04377eb09d6274ba59,2021-07-29_23h17.21.603,Simcolourproject_2stim_asymm_v5,2020.2.10,MacIntel,60,61025ae37ef11b136ea224fe,,,,,,,,,2991,49,55,1,0,0,response1disk,,7,-2,9,1,0,0,rectangle,-2,9,1,0,0,-2,9,1,0,0,0,60,60,26,1,,,,,,,,
,,,,,,,,,,,,,FF,,,,,,,,0.9999,,,,,,,,,,,,,,,,,,,,,,61032bce6198732a57f68dff,61036f04377eb09d6274ba59,2021-07-29_23h17.21.603,Simcolourproject_2stim_asymm_v5,2020.2.10,MacIntel,60,61025ae37ef11b136ea224fe,,,,,,,,,4029,30,-69,1,0,0,response3disk,,4,-15,-1,1,0,0,rectangle,-15,-1,1,0,0,-15,-1,1,0,0,0,61,61,81,1,,,,,,,,
,,,,,,,,,,,,,FF,,,,,,,,0.8826,,,,,,,,,,,,,,,,,,,,,,61032bce6198732a57f68dff,61036f04377eb09d6274ba59,2021-07-29_23h17.21.603,Simcolourproject_2stim_asymm_v5,2020.2.10,MacIntel,60,61025ae37ef11b136ea224fe,,,,,,,,,1859,57,51,1,0,0,response1disk,,6,8,6,1,0,0,rectangle,8,6,1,0,0,8,6,1,0,0,0,62,62,66,1,,,,,,,,
,,,,,,,,,,,,,FF,,,,,,,,1.835,,,,,,,,,,,,,,,,,,,,,,61032bce6198732a57f68dff,61036f04377eb09d6274ba59,2021-07-29_23h17.21.603,Simcolourproject_2stim_asymm_v5,2020.2.10,MacIntel,60,61025ae37ef11b136ea224fe,,,,,,,,,2070,15,-87,1,0,0,response3disk,,4,-12,1,1,0,0,rectangle,-12,1,1,0,0,-12,1,1,0,0,0,63,63,51,1,,,,,,,,
,,,,,,,,,,,,,FF,,,,,,,,0.9877,,,,,,,,,,,,,,,,,,,,,,61032bce6198732a57f68dff,61036f04377eb09d6274ba59,2021-07-29_23h17.21.603,Simcolourproject_2stim_asymm_v5,2020.2.10,MacIntel,60,61025ae37ef11b136ea224fe,,,,,,,,,2639,37,-60,1,0,0,response3disk,,4,-1,0,1,0,0,rectangle,-1,0,1,0,0,-1,0,1,0,0,0,64,64,1,1,,,,,,,,
,,,,,,,,,,,,,FF,,,,,,,,1.3835,,,,,,,,,,,,,,,,,,,,,,61032bce6198732a57f68dff,61036f04377eb09d6274ba59,2021-07-29_23h17.21.603,Simcolourproject_2stim_asymm_v5,2020.2.10,MacIntel,60,61025ae37ef11b136ea224fe,,,,,,,,,2040,-37,-67,1,0,0,response5disk,,3,-1,4,1,0,0,rectangle,-1,4,1,0,0,-1,4,1,0,0,0,65,65,103,1,,,,,,,,
,,,,,,,,,,,,,FF,,,,,,,,1.7177,,,,,,,,,,,,,,,,,,,,,,61032bce6198732a57f68dff,61036f04377eb09d6274ba59,2021-07-29_23h17.21.603,Simcolourproject_2stim_asymm_v5,2020.2.10,MacIntel,60,61025ae37ef11b136ea224fe,,,,,,,,,4020,-82,47,1,0,0,response7disk,,1,-11,7,1,0,0,rectangle,-11,7,1,0,0,-11,7,1,0,0,0,66,66,158,1,,,,,,,,
,,,,,,,,,,,,,FF,,,,,,,,1.0013,,,,,,,,,,,,,,,,,,,,,,61032bce6198732a57f68dff,61036f04377eb09d6274ba59,2021-07-29_23h17.21.603,Simcolourproject_2stim_asymm_v5,2020.2.10,MacIntel,60,61025ae37ef11b136ea224fe,,,,,,,,,883,49,90,1,0,0,response1disk,,7,8,-5,1,0,0,rectangle,8,-5,1,0,0,8,-5,1,0,0,0,67,67,85,1,,,,,,,,
,,,,,,,,,,,,,FF,,,,,,,,1.6232,,,,,,,,,,,,,,,,,,,,,,61032bce6198732a57f68dff,61036f04377eb09d6274ba59,2021-07-29_23h17.21.603,Simcolourproject_2stim_asymm_v5,2020.2.10,MacIntel,60,61025ae37ef11b136ea224fe,,,,,,,,,79,-80,-38,1,0,0,response5disk,,2,-6,3,1,0,0,rectangle,-6,3,1,0,0,-6,3,1,0,0,0,68,68,68,1,,,,,,,,
,,,,,,,,,,,,,FF,,,,,,,,0.9174,,,,,,,,,,,,,,,,,,,,,,61032bce6198732a57f68dff,61036f04377eb09d6274ba59,2021-07-29_23h17.21.603,Simcolourproject_2stim_asymm_v5,2020.2.10,MacIntel,60,61025ae37ef11b136ea224fe,,,,,,,,,2157,66,30,1,0,0,response1disk,,6,-9,-5,1,0,0,rectangle,-9,-5,1,0,0,-9,-5,1,0,0,0,69,69,125,1,,,,,,,,
,,,,,,,,,,,,,FF,,,,,,,,1.2839,,,,,,,,,,,,,,,,,,,,,,61032bce6198732a57f68dff,61036f04377eb09d6274ba59,2021-07-29_23h17.21.603,Simcolourproject_2stim_asymm_v5,2020.2.10,MacIntel,60,61025ae37ef11b136ea224fe,,,,,,,,,2695,82,-50,1,0,0,response3disk,,5,3,-10,1,0,0,rectangle,3,-10,1,0,0,3,-10,1,0,0,0,70,70,52,1,,,,,,,,
,,,,,,,,,,,,,FF,,,,,,,,2.2027,,,,,,,,,,,,,,,,,,,,,,61032bce6198732a57f68dff,61036f04377eb09d6274ba59,2021-07-29_23h17.21.603,Simcolourproject_2stim_asymm_v5,2020.2.10,MacIntel,60,61025ae37ef11b136ea224fe,,,,,,,,,3703,-26,-85,1,0,0,response5disk,,3,-8,-5,1,0,0,rectangle,-8,-5,1,0,0,-8,-5,1,0,0,0,71,71,131,1,,,,,,,,
,,,,,,,,,,,,,FF,,,,,,,,1.3363,,,,,,,,,,,,,,,,,,,,,,61032bce6198732a57f68dff,61036f04377eb09d6274ba59,2021-07-29_23h17.21.603,Simcolourproject_2stim_asymm_v5,2020.2.10,MacIntel,60,61025ae37ef11b136ea224fe,,,,,,,,,2935,-38,-67,1,0,0,response5disk,,3,-7,2,1,0,0,rectangle,-7,2,1,0,0,-7,2,1,0,0,0,72,72,94,1,,,,,,,,
,,,,,,,,,,,,,FF,,,,,,,,1.3378,,,,,,,,,,,,,,,,,,,,,,61032bce6198732a57f68dff,61036f04377eb09d6274ba59,2021-07-29_23h17.21.603,Simcolourproject_2stim_asymm_v5,2020.2.10,MacIntel,60,61025ae37ef11b136ea224fe,,,,,,,,,1594,39,67,1,0,0,response1disk,,7,8,4,1,0,0,rectangle,8,4,1,0,0,8,4,1,0,0,0,73,73,149,1,,,,,,,,
,,,,,,,,,,,,,FF,,,,,,,,1.5527,,,,,,,,,,,,,,,,,,,,,,61032bce6198732a57f68dff,61036f04377eb09d6274ba59,2021-07-29_23h17.21.603,Simcolourproject_2stim_asymm_v5,2020.2.10,MacIntel,60,61025ae37ef11b136ea224fe,,,,,,,,,462,-34,-60,1,0,0,response5disk,,3,-4,0,1,0,0,rectangle,-4,0,1,0,0,-4,0,1,0,0,0,74,74,155,1,,,,,,,,
,,,,,,,,,,,,,FF,,,,,,,,0.902,,,,,,,,,,,,,,,,,,,,,,61032bce6198732a57f68dff,61036f04377eb09d6274ba59,2021-07-29_23h17.21.603,Simcolourproject_2stim_asymm_v5,2020.2.10,MacIntel,60,61025ae37ef11b136ea224fe,,,,,,,,,2097,-34,-64,1,0,0,response5disk,,3,-5,-4,1,0,0,rectangle,-5,-4,1,0,0,-5,-4,1,0,0,0,75,75,18,1,,,,,,,,
,,,,,,,,,,,,,FF,,,,,,,,0.9016,,,,,,,,,,,,,,,,,,,,,,61032bce6198732a57f68dff,61036f04377eb09d6274ba59,2021-07-29_23h17.21.603,Simcolourproject_2stim_asymm_v5,2020.2.10,MacIntel,60,61025ae37ef11b136ea224fe,,,,,,,,,2137,33,77,1,0,0,response1disk,,7,-7,0,1,0,0,rectangle,-7,0,1,0,0,-7,0,1,0,0,0,76,76,38,1,,,,,,,,
,,,,,,,,,,,,,FF,,,,,,,,1.0512,,,,,,,,,,,,,,,,,,,,,,61032bce6198732a57f68dff,61036f04377eb09d6274ba59,2021-07-29_23h17.21.603,Simcolourproject_2stim_asymm_v5,2020.2.10,MacIntel,60,61025ae37ef11b136ea224fe,,,,,,,,,3736,-21,-68,1,0,0,response5disk,,3,-1,-5,1,0,0,rectangle,-1,-5,1,0,0,-1,-5,1,0,0,0,77,77,109,1,,,,,,,,
,,,,,,,,,,,,,FF,,,,,,,,1.0685,,,,,,,,,,,,,,,,,,,,,,61032bce6198732a57f68dff,61036f04377eb09d6274ba59,2021-07-29_23h17.21.603,Simcolourproject_2stim_asymm_v5,2020.2.10,MacIntel,60,61025ae37ef11b136ea224fe,,,,,,,,,2645,45,66,1,0,0,response1disk,,7,1,-4,1,0,0,rectangle,1,-4,1,0,0,1,-4,1,0,0,0,78,78,23,1,,,,,,,,
,,,,,,,,,,,,,FF,,,,,,,,0.8848,,,,,,,,,,,,,,,,,,,,,,61032bce6198732a57f68dff,61036f04377eb09d6274ba59,2021-07-29_23h17.21.603,Simcolourproject_2stim_asymm_v5,2020.2.10,MacIntel,60,61025ae37ef11b136ea224fe,,,,,,,,,399,57,-33,1,0,0,response3disk,,5,3,3,1,0,0,rectangle,3,3,1,0,0,3,3,1,0,0,0,79,79,150,1,,,,,,,,
,,,,,,,,,,,,,FF,,,,,,,,0.8841,,,,,,,,,,,,,,,,,,,,,,61032bce6198732a57f68dff,61036f04377eb09d6274ba59,2021-07-29_23h17.21.603,Simcolourproject_2stim_asymm_v5,2020.2.10,MacIntel,60,61025ae37ef11b136ea224fe,,,,,,,,,2797,32,-66,1,0,0,response3disk,,4,-15,8,1,0,0,rectangle,-15,8,1,0,0,-15,8,1,0,0,0,80,80,86,1,,,,,,,,
,,,,,,,,,,,,,FF,,,,,,,,2.5342,,,,,,,,,,,,,,,,,,,,,,61032bce6198732a57f68dff,61036f04377eb09d6274ba59,2021-07-29_23h17.21.603,Simcolourproject_2stim_asymm_v5,2020.2.10,MacIntel,60,61025ae37ef11b136ea224fe,,,,,,,,,994,38,-104,1,0,0,response3disk,,4,-6,3,1,0,0,rectangle,-6,3,1,0,0,-6,3,1,0,0,0,81,81,65,1,,,,,,,,
,,,,,,,,,,,,,FF,,,,,,,,1.5861,,,,,,,,,,,,,,,,,,,,,,61032bce6198732a57f68dff,61036f04377eb09d6274ba59,2021-07-29_23h17.21.603,Simcolourproject_2stim_asymm_v5,2020.2.10,MacIntel,60,61025ae37ef11b136ea224fe,,,,,,,,,2945,-44,-80,1,0,0,response5disk,,3,-8,6,1,0,0,rectangle,-8,6,1,0,0,-8,6,1,0,0,0,82,82,143,1,,,,,,,,
,,,,,,,,,,,,,FF,,,,,,,,0.8193,,,,,,,,,,,,,,,,,,,,,,61032bce6198732a57f68dff,61036f04377eb09d6274ba59,2021-07-29_23h17.21.603,Simcolourproject_2stim_asymm_v5,2020.2.10,MacIntel,60,61025ae37ef11b136ea224fe,,,,,,,,,2933,-40,-73,1,0,0,response5disk,,3,-2,-3,1,0,0,rectangle,-2,-3,1,0,0,-2,-3,1,0,0,0,83,83,6,1,,,,,,,,
,,,,,,,,,,,,,FF,,,,,,,,1.2698,,,,,,,,,,,,,,,,,,,,,,61032bce6198732a57f68dff,61036f04377eb09d6274ba59,2021-07-29_23h17.21.603,Simcolourproject_2stim_asymm_v5,2020.2.10,MacIntel,60,61025ae37ef11b136ea224fe,,,,,,,,,2666,-31,-58,1,0,0,response5disk,,3,-11,1,1,0,0,rectangle,-11,1,1,0,0,-11,1,1,0,0,0,84,84,117,1,,,,,,,,
,,,,,,,,,,,,,FF,,,,,,,,1.0493,,,,,,,,,,,,,,,,,,,,,,61032bce6198732a57f68dff,61036f04377eb09d6274ba59,2021-07-29_23h17.21.603,Simcolourproject_2stim_asymm_v5,2020.2.10,MacIntel,60,61025ae37ef11b136ea224fe,,,,,,,,,2401,58,28,1,0,0,response1disk,,6,14,8,1,0,0,rectangle,14,8,1,0,0,14,8,1,0,0,0,85,85,25,1,,,,,,,,
,,,,,,,,,,,,,FF,,,,,,,,1.1697,,,,,,,,,,,,,,,,,,,,,,61032bce6198732a57f68dff,61036f04377eb09d6274ba59,2021-07-29_23h17.21.603,Simcolourproject_2stim_asymm_v5,2020.2.10,MacIntel,60,61025ae37ef11b136ea224fe,,,,,,,,,3661,-85,-34,1,0,0,response5disk,,2,-12,4,1,0,0,rectangle,-12,4,1,0,0,-12,4,1,0,0,0,86,86,74,1,,,,,,,,
,,,,,,,,,,,,,FF,,,,,,,,0.884,,,,,,,,,,,,,,,,,,,,,,61032bce6198732a57f68dff,61036f04377eb09d6274ba59,2021-07-29_23h17.21.603,Simcolourproject_2stim_asymm_v5,2020.2.10,MacIntel,60,61025ae37ef11b136ea224fe,,,,,,,,,238,42,73,1,0,0,response1disk,,7,-2,13,1,0,0,rectangle,-2,13,1,0,0,-2,13,1,0,0,0,87,87,115,1,,,,,,,,
,,,,,,,,,,,,,FF,,,,,,,,1.2511,,,,,,,,,,,,,,,,,,,,,,61032bce6198732a57f68dff,61036f04377eb09d6274ba59,2021-07-29_23h17.21.603,Simcolourproject_2stim_asymm_v5,2020.2.10,MacIntel,60,61025ae37ef11b136ea224fe,,,,,,,,,1078,75,-43,1,0,0,response3disk,,5,1,-1,1,0,0,rectangle,1,-1,1,0,0,1,-1,1,0,0,0,88,88,22,1,,,,,,,,
,,,,,,,,,,,,,FF,,,,,,,,0.9675,,,,,,,,,,,,,,,,,,,,,,61032bce6198732a57f68dff,61036f04377eb09d6274ba59,2021-07-29_23h17.21.603,Simcolourproject_2stim_asymm_v5,2020.2.10,MacIntel,60,61025ae37ef11b136ea224fe,,,,,,,,,1733,56,-25,1,0,0,response3disk,,5,-12,-1,1,0,0,rectangle,-12,-1,1,0,0,-12,-1,1,0,0,0,89,89,24,1,,,,,,,,
,,,,,,,,,,,,,FF,,,,,,,,1.0503,,,,,,,,,,,,,,,,,,,,,,61032bce6198732a57f68dff,61036f04377eb09d6274ba59,2021-07-29_23h17.21.603,Simcolourproject_2stim_asymm_v5,2020.2.10,MacIntel,60,61025ae37ef11b136ea224fe,,,,,,,,,1830,31,-83,1,0,0,response3disk,,4,-6,0,1,0,0,rectangle,-6,0,1,0,0,-6,0,1,0,0,0,90,90,111,1,,,,,,,,
,,,,,,,,,,,,,FF,,,,,,,,1.9351,,,,,,,,,,,,,,,,,,,,,,61032bce6198732a57f68dff,61036f04377eb09d6274ba59,2021-07-29_23h17.21.603,Simcolourproject_2stim_asymm_v5,2020.2.10,MacIntel,60,61025ae37ef11b136ea224fe,,,,,,,,,1173,64,-30,1,0,0,response3disk,,5,2,11,1,0,0,rectangle,2,11,1,0,0,2,11,1,0,0,0,91,91,43,1,,,,,,,,
,,,,,,,,,,,,,FF,,,,,,,,0.955,,,,,,,,,,,,,,,,,,,,,,61032bce6198732a57f68dff,61036f04377eb09d6274ba59,2021-07-29_23h17.21.603,Simcolourproject_2stim_asymm_v5,2020.2.10,MacIntel,60,61025ae37ef11b136ea224fe,,,,,,,,,532,-79,-40,1,0,0,response5disk,,2,-8,5,1,0,0,rectangle,-8,5,1,0,0,-8,5,1,0,0,0,92,92,53,1,,,,,,,,
,,,,,,,,,,,,,FF,,,,,,,,0.853,,,,,,,,,,,,,,,,,,,,,,61032bce6198732a57f68dff,61036f04377eb09d6274ba59,2021-07-29_23h17.21.603,Simcolourproject_2stim_asymm_v5,2020.2.10,MacIntel,60,61025ae37ef11b136ea224fe,,,,,,,,,3569,37,59,1,0,0,response1disk,,7,5,-15,1,0,0,rectangle,5,-15,1,0,0,5,-15,1,0,0,0,93,93,62,1,,,,,,,,
,,,,,,,,,,,,,FF,,,,,,,,1.2524,,,,,,,,,,,,,,,,,,,,,,61032bce6198732a57f68dff,61036f04377eb09d6274ba59,2021-07-29_23h17.21.603,Simcolourproject_2stim_asymm_v5,2020.2.10,MacIntel,60,61025ae37ef11b136ea224fe,,,,,,,,,2742,57,-24,1,0,0,response3disk,,5,1,0,1,0,0,rectangle,1,0,1,0,0,1,0,1,0,0,0,94,94,33,1,,,,,,,,
,,,,,,,,,,,,,FF,,,,,,,,1.0327,,,,,,,,,,,,,,,,,,,,,,61032bce6198732a57f68dff,61036f04377eb09d6274ba59,2021-07-29_23h17.21.603,Simcolourproject_2stim_asymm_v5,2020.2.10,MacIntel,60,61025ae37ef11b136ea224fe,,,,,,,,,3929,45,86,1,0,0,response1disk,,7,-5,-1,1,0,0,rectangle,-5,-1,1,0,0,-5,-1,1,0,0,0,95,95,147,1,,,,,,,,
,,,,,,,,,,,,,FF,,,,,,,,1.0495,,,,,,,,,,,,,,,,,,,,,,61032bce6198732a57f68dff,61036f04377eb09d6274ba59,2021-07-29_23h17.21.603,Simcolourproject_2stim_asymm_v5,2020.2.10,MacIntel,60,61025ae37ef11b136ea224fe,,,,,,,,,2347,39,67,1,0,0,response1disk,,7,1,-6,1,0,0,rectangle,1,-6,1,0,0,1,-6,1,0,0,0,96,96,2,1,,,,,,,,
,,,,,,,,,,,,,FF,,,,,,,,1.2006,,,,,,,,,,,,,,,,,,,,,,61032bce6198732a57f68dff,61036f04377eb09d6274ba59,2021-07-29_23h17.21.603,Simcolourproject_2stim_asymm_v5,2020.2.10,MacIntel,60,61025ae37ef11b136ea224fe,,,,,,,,,3068,66,40,1,0,0,response1disk,,6,-2,-4,1,0,0,rectangle,-2,-4,1,0,0,-2,-4,1,0,0,0,97,97,118,1,,,,,,,,
,,,,,,,,,,,,,FF,,,,,,,,1.5003,,,,,,,,,,,,,,,,,,,,,,61032bce6198732a57f68dff,61036f04377eb09d6274ba59,2021-07-29_23h17.21.603,Simcolourproject_2stim_asymm_v5,2020.2.10,MacIntel,60,61025ae37ef11b136ea224fe,,,,,,,,,1289,28,57,1,0,0,response1disk,,7,6,-1,1,0,0,rectangle,6,-1,1,0,0,6,-1,1,0,0,0,98,98,41,1,,,,,,,,
,,,,,,,,,,,,,FF,,,,,,,,1.0836,,,,,,,,,,,,,,,,,,,,,,61032bce6198732a57f68dff,61036f04377eb09d6274ba59,2021-07-29_23h17.21.603,Simcolourproject_2stim_asymm_v5,2020.2.10,MacIntel,60,61025ae37ef11b136ea224fe,,,,,,,,,1866,44,50,1,0,0,response1disk,,7,9,3,1,0,0,rectangle,9,3,1,0,0,9,3,1,0,0,0,99,99,102,1,,,,,,,,
,,,,,,,,,,,,,FF,,,,,,,,2.1332,,,,,,,,,,,,,,,,,,,,,,61032bce6198732a57f68dff,61036f04377eb09d6274ba59,2021-07-29_23h17.21.603,Simcolourproject_2stim_asymm_v5,2020.2.10,MacIntel,60,61025ae37ef11b136ea224fe,,,,,,,,,3337,26,-79,1,0,0,response3disk,,4,-2,-6,1,0,0,rectangle,-2,-6,1,0,0,-2,-6,1,0,0,0,100,100,126,1,,,,,,,,
,,,,,,,,,,,,,FF,,,,,,,,3.3678,,,,,,,,,,,,,,,,,,,,,,61032bce6198732a57f68dff,61036f04377eb09d6274ba59,2021-07-29_23h17.21.603,Simcolourproject_2stim_asymm_v5,2020.2.10,MacIntel,60,61025ae37ef11b136ea224fe,,,,,,,,,2279,64,-36,1,0,0,response3disk,,5,-10,-10,1,0,0,rectangle,-10,-10,1,0,0,-10,-10,1,0,0,0,101,101,116,1,,,,,,,,
,,,,,,,,,,,,,FF,,,,,,,,0.9165,,,,,,,,,,,,,,,,,,,,,,61032bce6198732a57f68dff,61036f04377eb09d6274ba59,2021-07-29_23h17.21.603,Simcolourproject_2stim_asymm_v5,2020.2.10,MacIntel,60,61025ae37ef11b136ea224fe,,,,,,,,,1681,-36,-38,1,0,0,response5disk,,3,-10,10,1,0,0,rectangle,-10,10,1,0,0,-10,10,1,0,0,0,102,102,144,1,,,,,,,,
,,,,,,,,,,,,,FF,,,,,,,,1.451,,,,,,,,,,,,,,,,,,,,,,61032bce6198732a57f68dff,61036f04377eb09d6274ba59,2021-07-29_23h17.21.603,Simcolourproject_2stim_asymm_v5,2020.2.10,MacIntel,60,61025ae37ef11b136ea224fe,,,,,,,,,1882,25,66,1,0,0,response1disk,,7,-13,5,1,0,0,rectangle,-13,5,1,0,0,-13,5,1,0,0,0,103,103,92,1,,,,,,,,
,,,,,,,,,,,,,FF,,,,,,,,1.384,,,,,,,,,,,,,,,,,,,,,,61032bce6198732a57f68dff,61036f04377eb09d6274ba59,2021-07-29_23h17.21.603,Simcolourproject_2stim_asymm_v5,2020.2.10,MacIntel,60,61025ae37ef11b136ea224fe,,,,,,,,,4166,-75,-17,1,0,0,response5disk,,2,12,-7,1,0,0,rectangle,12,-7,1,0,0,12,-7,1,0,0,0,104,104,48,1,,,,,,,,
,,,,,,,,,,,,,FF,,,,,,,,1.8832,,,,,,,,,,,,,,,,,,,,,,61032bce6198732a57f68dff,61036f04377eb09d6274ba59,2021-07-29_23h17.21.603,Simcolourproject_2stim_asymm_v5,2020.2.10,MacIntel,60,61025ae37ef11b136ea224fe,,,,,,,,,527,-32,-71,1,0,0,response5disk,,3,-1,-3,1,0,0,rectangle,-1,-3,1,0,0,-1,-3,1,0,0,0,105,105,108,1,,,,,,,,
,,,,,,,,,,,,,FF,,,,,,,,0.9159,,,,,,,,,,,,,,,,,,,,,,61032bce6198732a57f68dff,61036f04377eb09d6274ba59,2021-07-29_23h17.21.603,Simcolourproject_2stim_asymm_v5,2020.2.10,MacIntel,60,61025ae37ef11b136ea224fe,,,,,,,,,4030,33,80,1,0,0,response1disk,,7,-3,-4,1,0,0,rectangle,-3,-4,1,0,0,-3,-4,1,0,0,0,106,106,44,1,,,,,,,,
,,,,,,,,,,,,,FF,,,,,,,,1.5005,,,,,,,,,,,,,,,,,,,,,,61032bce6198732a57f68dff,61036f04377eb09d6274ba59,2021-07-29_23h17.21.603,Simcolourproject_2stim_asymm_v5,2020.2.10,MacIntel,60,61025ae37ef11b136ea224fe,,,,,,,,,3925,44,77,1,0,0,response1disk,,7,10,6,1,0,0,rectangle,10,6,1,0,0,10,6,1,0,0,0,107,107,4,1,,,,,,,,
,,,,,,,,,,,,,FF,,,,,,,,0.9675,,,,,,,,,,,,,,,,,,,,,,61032bce6198732a57f68dff,61036f04377eb09d6274ba59,2021-07-29_23h17.21.603,Simcolourproject_2stim_asymm_v5,2020.2.10,MacIntel,60,61025ae37ef11b136ea224fe,,,,,,,,,2727,-42,-55,1,0,0,response5disk,,3,-13,-4,1,0,0,rectangle,-13,-4,1,0,0,-13,-4,1,0,0,0,108,108,88,1,,,,,,,,
,,,,,,,,,,,,,FF,,,,,,,,1.4502,,,,,,,,,,,,,,,,,,,,,,61032bce6198732a57f68dff,61036f04377eb09d6274ba59,2021-07-29_23h17.21.603,Simcolourproject_2stim_asymm_v5,2020.2.10,MacIntel,60,61025ae37ef11b136ea224fe,,,,,,,,,397,66,-27,1,0,0,response3disk,,5,3,4,1,0,0,rectangle,3,4,1,0,0,3,4,1,0,0,0,109,109,96,1,,,,,,,,
,,,,,,,,,,,,,FF,,,,,,,,1.0169,,,,,,,,,,,,,,,,,,,,,,61032bce6198732a57f68dff,61036f04377eb09d6274ba59,2021-07-29_23h17.21.603,Simcolourproject_2stim_asymm_v5,2020.2.10,MacIntel,60,61025ae37ef11b136ea224fe,,,,,,,,,3149,-47,-58,1,0,0,response5disk,,3,-16,-7,1,0,0,rectangle,-16,-7,1,0,0,-16,-7,1,0,0,0,110,110,107,1,,,,,,,,
,,,,,,,,,,,,,FF,,,,,,,,2.9357,,,,,,,,,,,,,,,,,,,,,,61032bce6198732a57f68dff,61036f04377eb09d6274ba59,2021-07-29_23h17.21.603,Simcolourproject_2stim_asymm_v5,2020.2.10,MacIntel,60,61025ae37ef11b136ea224fe,,,,,,,,,2073,76,41,1,0,0,response1disk,,6,-8,0,1,0,0,rectangle,70,37,1,0,0,-6,-10,1,0,0,0,111,111,80,1,,response1disk_3,TRUE,6,6,"[227,278,112,283,244,57,56,140,17,321,254,15,163,196,151,298,268,285,240,184]",1.6698,rectangle
,,,,,,,,,,,,,FF,,,,,,,,1.1831,,,,,,,,,,,,,,,,,,,,,,61032bce6198732a57f68dff,61036f04377eb09d6274ba59,2021-07-29_23h17.21.603,Simcolourproject_2stim_asymm_v5,2020.2.10,MacIntel,60,61025ae37ef11b136ea224fe,,,,,,,,,2617,47,103,1,0,0,response1disk,,7,0,2,1,0,0,rectangle,0,2,1,0,0,0,2,1,0,0,0,112,112,21,1,,,,,,,,
,,,,,,,,,,,,,FF,,,,,,,,2.5177,,,,,,,,,,,,,,,,,,,,,,61032bce6198732a57f68dff,61036f04377eb09d6274ba59,2021-07-29_23h17.21.603,Simcolourproject_2stim_asymm_v5,2020.2.10,MacIntel,60,61025ae37ef11b136ea224fe,,,,,,,,,1575,74,-41,1,0,0,response3disk,,5,-18,-10,1,0,0,rectangle,-18,-10,1,0,0,-18,-10,1,0,0,0,113,113,123,1,,,,,,,,
,,,,,,,,,,,,,FF,,,,,,,,1.9672,,,,,,,,,,,,,,,,,,,,,,61032bce6198732a57f68dff,61036f04377eb09d6274ba59,2021-07-29_23h17.21.603,Simcolourproject_2stim_asymm_v5,2020.2.10,MacIntel,60,61025ae37ef11b136ea224fe,,,,,,,,,3143,78,-36,1,0,0,response3disk,,5,-17,-3,1,0,0,rectangle,-17,-3,1,0,0,-17,-3,1,0,0,0,114,114,132,1,,,,,,,,
,,,,,,,,,,,,,FF,,,,,,,,0.8992,,,,,,,,,,,,,,,,,,,,,,61032bce6198732a57f68dff,61036f04377eb09d6274ba59,2021-07-29_23h17.21.603,Simcolourproject_2stim_asymm_v5,2020.2.10,MacIntel,60,61025ae37ef11b136ea224fe,,,,,,,,,665,21,-64,1,0,0,response3disk,,4,-13,-2,1,0,0,rectangle,-13,-2,1,0,0,-13,-2,1,0,0,0,115,115,128,1,,,,,,,,
,,,,,,,,,,,,,FF,,,,,,,,1.2345,,,,,,,,,,,,,,,,,,,,,,61032bce6198732a57f68dff,61036f04377eb09d6274ba59,2021-07-29_23h17.21.603,Simcolourproject_2stim_asymm_v5,2020.2.10,MacIntel,60,61025ae37ef11b136ea224fe,,,,,,,,,144,42,-72,1,0,0,response3disk,,4,15,4,1,0,0,rectangle,15,4,1,0,0,15,4,1,0,0,0,116,116,50,1,,,,,,,,
,,,,,,,,,,,,,FF,,,,,,,,1.8338,,,,,,,,,,,,,,,,,,,,,,61032bce6198732a57f68dff,61036f04377eb09d6274ba59,2021-07-29_23h17.21.603,Simcolourproject_2stim_asymm_v5,2020.2.10,MacIntel,60,61025ae37ef11b136ea224fe,,,,,,,,,764,60,38,1,0,0,response1disk,,6,-2,4,1,0,0,rectangle,-2,4,1,0,0,-2,4,1,0,0,0,117,117,157,1,,,,,,,,
,,,,,,,,,,,,,FF,,,,,,,,0.8677,,,,,,,,,,,,,,,,,,,,,,61032bce6198732a57f68dff,61036f04377eb09d6274ba59,2021-07-29_23h17.21.603,Simcolourproject_2stim_asymm_v5,2020.2.10,MacIntel,60,61025ae37ef11b136ea224fe,,,,,,,,,4093,24,78,1,0,0,response1disk,,7,2,-12,1,0,0,rectangle,2,-12,1,0,0,2,-12,1,0,0,0,118,118,56,1,,,,,,,,
,,,,,,,,,,,,,FF,,,,,,,,1.9839,,,,,,,,,,,,,,,,,,,,,,61032bce6198732a57f68dff,61036f04377eb09d6274ba59,2021-07-29_23h17.21.603,Simcolourproject_2stim_asymm_v5,2020.2.10,MacIntel,60,61025ae37ef11b136ea224fe,,,,,,,,,3423,44,-71,1,0,0,response3disk,,4,-8,-3,1,0,0,rectangle,-8,-3,1,0,0,-8,-3,1,0,0,0,119,119,114,1,,,,,,,,
,,,,,,,,,,,,,FF,,,,,,,,0.9888,,,,,,,,,,,,,,,,,,,,,,61032bce6198732a57f68dff,61036f04377eb09d6274ba59,2021-07-29_23h17.21.603,Simcolourproject_2stim_asymm_v5,2020.2.10,MacIntel,60,61025ae37ef11b136ea224fe,,,,,,,,,1219,-31,-67,1,0,0,response5disk,,3,-9,-4,1,0,0,rectangle,-9,-4,1,0,0,-9,-4,1,0,0,0,120,120,7,1,,,,,,,,
,,,,,,,,,,,,,FF,,,,,,,,0.8835,,,,,,,,,,,,,,,,,,,,,,61032bce6198732a57f68dff,61036f04377eb09d6274ba59,2021-07-29_23h17.21.603,Simcolourproject_2stim_asymm_v5,2020.2.10,MacIntel,60,61025ae37ef11b136ea224fe,,,,,,,,,2376,-27,-85,1,0,0,response5disk,,3,1,7,1,0,0,rectangle,1,7,1,0,0,1,7,1,0,0,0,121,121,11,1,,,,,,,,
,,,,,,,,,,,,,FF,,,,,,,,2.3344,,,,,,,,,,,,,,,,,,,,,,61032bce6198732a57f68dff,61036f04377eb09d6274ba59,2021-07-29_23h17.21.603,Simcolourproject_2stim_asymm_v5,2020.2.10,MacIntel,60,61025ae37ef11b136ea224fe,,,,,,,,,1071,-56,-66,1,0,0,response5disk,,3,9,9,1,0,0,rectangle,9,9,1,0,0,9,9,1,0,0,0,122,122,40,1,,,,,,,,
,,,,,,,,,,,,,FF,,,,,,,,1.1357,,,,,,,,,,,,,,,,,,,,,,61032bce6198732a57f68dff,61036f04377eb09d6274ba59,2021-07-29_23h17.21.603,Simcolourproject_2stim_asymm_v5,2020.2.10,MacIntel,60,61025ae37ef11b136ea224fe,,,,,,,,,2459,32,-84,1,0,0,response3disk,,4,-1,-3,1,0,0,rectangle,-1,-3,1,0,0,-1,-3,1,0,0,0,123,123,5,1,,,,,,,,
,,,,,,,,,,,,,FF,,,,,,,,5.5857,,,,,,,,,,,,,,,,,,,,,,61032bce6198732a57f68dff,61036f04377eb09d6274ba59,2021-07-29_23h17.21.603,Simcolourproject_2stim_asymm_v5,2020.2.10,MacIntel,60,61025ae37ef11b136ea224fe,,,,,,,,,1905,26,-64,1,0,0,response3disk,,4,1,7,1,0,0,rectangle,1,7,1,0,0,1,7,1,0,0,0,124,124,98,1,,,,,,,,
,,,,,,,,,,,,,FF,,,,,,,,1.219,,,,,,,,,,,,,,,,,,,,,,61032bce6198732a57f68dff,61036f04377eb09d6274ba59,2021-07-29_23h17.21.603,Simcolourproject_2stim_asymm_v5,2020.2.10,MacIntel,60,61025ae37ef11b136ea224fe,,,,,,,,,3453,16,-71,1,0,0,response3disk,,4,1,11,1,0,0,rectangle,1,11,1,0,0,1,11,1,0,0,0,125,125,93,1,,,,,,,,
,,,,,,,,,,,,,FF,,,,,,,,0.9842,,,,,,,,,,,,,,,,,,,,,,61032bce6198732a57f68dff,61036f04377eb09d6274ba59,2021-07-29_23h17.21.603,Simcolourproject_2stim_asymm_v5,2020.2.10,MacIntel,60,61025ae37ef11b136ea224fe,,,,,,,,,4167,-75,-42,1,0,0,response5disk,,2,-19,7,1,0,0,rectangle,-19,7,1,0,0,-19,7,1,0,0,0,126,126,137,1,,,,,,,,
,,,,,,,,,,,,,FF,,,,,,,,1.8498,,,,,,,,,,,,,,,,,,,,,,61032bce6198732a57f68dff,61036f04377eb09d6274ba59,2021-07-29_23h17.21.603,Simcolourproject_2stim_asymm_v5,2020.2.10,MacIntel,60,61025ae37ef11b136ea224fe,,,,,,,,,2984,69,-23,1,0,0,response3disk,,5,3,6,1,0,0,rectangle,3,6,1,0,0,3,6,1,0,0,0,127,127,61,1,,,,,,,,
,,,,,,,,,,,,,FF,,,,,,,,0.9665,,,,,,,,,,,,,,,,,,,,,,61032bce6198732a57f68dff,61036f04377eb09d6274ba59,2021-07-29_23h17.21.603,Simcolourproject_2stim_asymm_v5,2020.2.10,MacIntel,60,61025ae37ef11b136ea224fe,,,,,,,,,440,-62,-29,1,0,0,response5disk,,2,-12,0,1,0,0,rectangle,-12,0,1,0,0,-12,0,1,0,0,0,128,128,20,1,,,,,,,,
,,,,,,,,,,,,,FF,,,,,,,,2.7541,,,,,,,,,,,,,,,,,,,,,,61032bce6198732a57f68dff,61036f04377eb09d6274ba59,2021-07-29_23h17.21.603,Simcolourproject_2stim_asymm_v5,2020.2.10,MacIntel,60,61025ae37ef11b136ea224fe,,,,,,,,,4001,90,-52,1,0,0,response3disk,,5,5,11,1,0,0,rectangle,5,11,1,0,0,5,11,1,0,0,0,129,129,95,1,,,,,,,,
,,,,,,,,,,,,,FF,,,,,,,,1.4008,,,,,,,,,,,,,,,,,,,,,,61032bce6198732a57f68dff,61036f04377eb09d6274ba59,2021-07-29_23h17.21.603,Simcolourproject_2stim_asymm_v5,2020.2.10,MacIntel,60,61025ae37ef11b136ea224fe,,,,,,,,,4353,-42,-69,1,0,0,response5disk,,3,-7,0,1,0,0,rectangle,-7,0,1,0,0,-7,0,1,0,0,0,130,130,146,1,,,,,,,,
,,,,,,,,,,,,,FF,,,,,,,,1.8556,,,,,,,,,,,,,,,,,,,,,,61032bce6198732a57f68dff,61036f04377eb09d6274ba59,2021-07-29_23h17.21.603,Simcolourproject_2stim_asymm_v5,2020.2.10,MacIntel,60,61025ae37ef11b136ea224fe,,,,,,,,,1662,-26,-52,1,0,0,response5disk,,3,-5,7,1,0,0,rectangle,-5,7,1,0,0,-5,7,1,0,0,0,131,131,64,1,,,,,,,,
,,,,,,,,,,,,,FF,,,,,,,,7.2874,,,,,,,,,,,,,,,,,,,,,,61032bce6198732a57f68dff,61036f04377eb09d6274ba59,2021-07-29_23h17.21.603,Simcolourproject_2stim_asymm_v5,2020.2.10,MacIntel,60,61025ae37ef11b136ea224fe,,,,,,,,,1083,59,-33,1,0,0,response3disk,,5,-4,-8,1,0,0,rectangle,-4,-8,1,0,0,-4,-8,1,0,0,0,132,132,47,1,,,,,,,,
,,,,,,,,,,,,,FF,,,,,,,,0.9185,,,,,,,,,,,,,,,,,,,,,,61032bce6198732a57f68dff,61036f04377eb09d6274ba59,2021-07-29_23h17.21.603,Simcolourproject_2stim_asymm_v5,2020.2.10,MacIntel,60,61025ae37ef11b136ea224fe,,,,,,,,,1832,-32,-74,1,0,0,response5disk,,3,-7,9,1,0,0,rectangle,-7,9,1,0,0,-7,9,1,0,0,0,133,133,112,1,,,,,,,,
,,,,,,,,,,,,,FF,,,,,,,,2.2851,,,,,,,,,,,,,,,,,,,,,,61032bce6198732a57f68dff,61036f04377eb09d6274ba59,2021-07-29_23h17.21.603,Simcolourproject_2stim_asymm_v5,2020.2.10,MacIntel,60,61025ae37ef11b136ea224fe,,,,,,,,,3711,-56,-61,1,0,0,response5disk,,3,-18,-5,1,0,0,rectangle,-18,-5,1,0,0,-18,-5,1,0,0,0,134,134,113,1,,,,,,,,
,,,,,,,,,,,,,FF,,,,,,,,1.4345,,,,,,,,,,,,,,,,,,,,,,61032bce6198732a57f68dff,61036f04377eb09d6274ba59,2021-07-29_23h17.21.603,Simcolourproject_2stim_asymm_v5,2020.2.10,MacIntel,60,61025ae37ef11b136ea224fe,,,,,,,,,2900,-46,-98,1,0,0,response5disk,,3,-13,-14,1,0,0,rectangle,-13,-14,1,0,0,-13,-14,1,0,0,0,135,135,54,1,,,,,,,,
,,,,,,,,,,,,,FF,,,,,,,,1.5852,,,,,,,,,,,,,,,,,,,,,,61032bce6198732a57f68dff,61036f04377eb09d6274ba59,2021-07-29_23h17.21.603,Simcolourproject_2stim_asymm_v5,2020.2.10,MacIntel,60,61025ae37ef11b136ea224fe,,,,,,,,,3416,24,77,1,0,0,response1disk,,7,-6,1,1,0,0,rectangle,-6,1,1,0,0,-6,1,1,0,0,0,136,136,76,1,,,,,,,,
,,,,,,,,,,,,,FF,,,,,,,,1.551,,,,,,,,,,,,,,,,,,,,,,61032bce6198732a57f68dff,61036f04377eb09d6274ba59,2021-07-29_23h17.21.603,Simcolourproject_2stim_asymm_v5,2020.2.10,MacIntel,60,61025ae37ef11b136ea224fe,,,,,,,,,2141,54,96,1,0,0,response1disk,,7,0,0,1,0,0,rectangle,0,0,1,0,0,0,0,1,0,0,0,137,137,35,1,,,,,,,,
,,,,,,,,,,,,,FF,,,,,,,,0.9873,,,,,,,,,,,,,,,,,,,,,,61032bce6198732a57f68dff,61036f04377eb09d6274ba59,2021-07-29_23h17.21.603,Simcolourproject_2stim_asymm_v5,2020.2.10,MacIntel,60,61025ae37ef11b136ea224fe,,,,,,,,,193,-26,-64,1,0,0,response5disk,,3,4,5,1,0,0,rectangle,4,5,1,0,0,4,5,1,0,0,0,138,138,104,1,,,,,,,,
,,,,,,,,,,,,,FF,,,,,,,,1.2348,,,,,,,,,,,,,,,,,,,,,,61032bce6198732a57f68dff,61036f04377eb09d6274ba59,2021-07-29_23h17.21.603,Simcolourproject_2stim_asymm_v5,2020.2.10,MacIntel,60,61025ae37ef11b136ea224fe,,,,,,,,,475,-30,-78,1,0,0,response5disk,,3,-2,7,1,0,0,rectangle,-63,-66,1,0,0,-15,-4,1,0,0,0,139,139,156,1,,response5disk_3,TRUE,3,3,"[227,278,112,283,244,57,56,140,17,321,254,15,163,196,151,298,268,285,240,184]",2.0207,rectangle
,,,,,,,,,,,,,FF,,,,,,,,1.4354,,,,,,,,,,,,,,,,,,,,,,61032bce6198732a57f68dff,61036f04377eb09d6274ba59,2021-07-29_23h17.21.603,Simcolourproject_2stim_asymm_v5,2020.2.10,MacIntel,60,61025ae37ef11b136ea224fe,,,,,,,,,3966,-86,29,1,0,0,response7disk,,1,3,6,1,0,0,rectangle,3,6,1,0,0,3,6,1,0,0,0,140,140,3,1,,,,,,,,
,,,,,,,,,,,,,FF,,,,,,,,0.8841,,,,,,,,,,,,,,,,,,,,,,61032bce6198732a57f68dff,61036f04377eb09d6274ba59,2021-07-29_23h17.21.603,Simcolourproject_2stim_asymm_v5,2020.2.10,MacIntel,60,61025ae37ef11b136ea224fe,,,,,,,,,2517,44,82,1,0,0,response1disk,,7,1,-10,1,0,0,rectangle,1,-10,1,0,0,1,-10,1,0,0,0,141,141,151,1,,,,,,,,
,,,,,,,,,,,,,FF,,,,,,,,1.885,,,,,,,,,,,,,,,,,,,,,,61032bce6198732a57f68dff,61036f04377eb09d6274ba59,2021-07-29_23h17.21.603,Simcolourproject_2stim_asymm_v5,2020.2.10,MacIntel,60,61025ae37ef11b136ea224fe,,,,,,,,,149,64,-33,1,0,0,response3disk,,5,7,-9,1,0,0,rectangle,7,-9,1,0,0,7,-9,1,0,0,0,142,142,99,1,,,,,,,,
,,,,,,,,,,,,,FF,,,,,,,,2.8844,,,,,,,,,,,,,,,,,,,,,,61032bce6198732a57f68dff,61036f04377eb09d6274ba59,2021-07-29_23h17.21.603,Simcolourproject_2stim_asymm_v5,2020.2.10,MacIntel,60,61025ae37ef11b136ea224fe,,,,,,,,,2274,75,61,1,0,0,response1disk,,6,7,4,1,0,0,rectangle,7,4,1,0,0,7,4,1,0,0,0,143,143,31,1,,,,,,,,
,,,,,,,,,,,,,FF,,,,,,,,0.9334,,,,,,,,,,,,,,,,,,,,,,61032bce6198732a57f68dff,61036f04377eb09d6274ba59,2021-07-29_23h17.21.603,Simcolourproject_2stim_asymm_v5,2020.2.10,MacIntel,60,61025ae37ef11b136ea224fe,,,,,,,,,2516,34,80,1,0,0,response1disk,,7,6,1,1,0,0,rectangle,6,1,1,0,0,6,1,1,0,0,0,144,144,134,1,,,,,,,,
,,,,,,,,,,,,,FF,,,,,,,,1.2686,,,,,,,,,,,,,,,,,,,,,,61032bce6198732a57f68dff,61036f04377eb09d6274ba59,2021-07-29_23h17.21.603,Simcolourproject_2stim_asymm_v5,2020.2.10,MacIntel,60,61025ae37ef11b136ea224fe,,,,,,,,,3418,72,-45,1,0,0,response3disk,,5,-2,-6,1,0,0,rectangle,-2,-6,1,0,0,-2,-6,1,0,0,0,145,145,19,1,,,,,,,,
,,,,,,,,,,,,,FF,,,,,,,,1.2495,,,,,,,,,,,,,,,,,,,,,,61032bce6198732a57f68dff,61036f04377eb09d6274ba59,2021-07-29_23h17.21.603,Simcolourproject_2stim_asymm_v5,2020.2.10,MacIntel,60,61025ae37ef11b136ea224fe,,,,,,,,,1952,66,-29,1,0,0,response3disk,,5,-18,1,1,0,0,rectangle,-18,1,1,0,0,-18,1,1,0,0,0,146,146,55,1,,,,,,,,
,,,,,,,,,,,,,FF,,,,,,,,2.0167,,,,,,,,,,,,,,,,,,,,,,61032bce6198732a57f68dff,61036f04377eb09d6274ba59,2021-07-29_23h17.21.603,Simcolourproject_2stim_asymm_v5,2020.2.10,MacIntel,60,61025ae37ef11b136ea224fe,,,,,,,,,1557,62,25,1,0,0,response1disk,,6,-5,6,1,0,0,rectangle,-5,6,1,0,0,-5,6,1,0,0,0,147,147,106,1,,,,,,,,
,,,,,,,,,,,,,FF,,,,,,,,0.9417,,,,,,,,,,,,,,,,,,,,,,61032bce6198732a57f68dff,61036f04377eb09d6274ba59,2021-07-29_23h17.21.603,Simcolourproject_2stim_asymm_v5,2020.2.10,MacIntel,60,61025ae37ef11b136ea224fe,,,,,,,,,3584,-35,-65,1,0,0,response5disk,,3,-11,-8,1,0,0,rectangle,-11,-8,1,0,0,-11,-8,1,0,0,0,148,148,138,1,,,,,,,,
,,,,,,,,,,,,,FF,,,,,,,,2.0188,,,,,,,,,,,,,,,,,,,,,,61032bce6198732a57f68dff,61036f04377eb09d6274ba59,2021-07-29_23h17.21.603,Simcolourproject_2stim_asymm_v5,2020.2.10,MacIntel,60,61025ae37ef11b136ea224fe,,,,,,,,,2563,65,-17,1,0,0,response3disk,,5,4,3,1,0,0,rectangle,4,3,1,0,0,4,3,1,0,0,0,149,149,121,1,,,,,,,,
,,,,,,,,,,,,,FF,,,,,,,,1.1607,,,,,,,,,,,,,,,,,,,,,,61032bce6198732a57f68dff,61036f04377eb09d6274ba59,2021-07-29_23h17.21.603,Simcolourproject_2stim_asymm_v5,2020.2.10,MacIntel,60,61025ae37ef11b136ea224fe,,,,,,,,,310,34,-77,1,0,0,response3disk,,4,5,2,1,0,0,rectangle,-25,-79,1,0,0,-6,-2,1,0,0,0,150,150,13,1,,response5disk_3,TRUE,3,3,"[227,278,112,283,244,57,56,140,17,321,254,15,163,196,151,298,268,285,240,184]",2.0179,rectangle
,,,,,,,,,,,,,FF,,,,,,,,1.6017,,,,,,,,,,,,,,,,,,,,,,61032bce6198732a57f68dff,61036f04377eb09d6274ba59,2021-07-29_23h17.21.603,Simcolourproject_2stim_asymm_v5,2020.2.10,MacIntel,60,61025ae37ef11b136ea224fe,,,,,,,,,1770,72,23,1,0,0,response1disk,,6,6,6,1,0,0,rectangle,6,6,1,0,0,6,6,1,0,0,0,151,151,49,1,,,,,,,,
,,,,,,,,,,,,,FF,,,,,,,,1.1335,,,,,,,,,,,,,,,,,,,,,,61032bce6198732a57f68dff,61036f04377eb09d6274ba59,2021-07-29_23h17.21.603,Simcolourproject_2stim_asymm_v5,2020.2.10,MacIntel,60,61025ae37ef11b136ea224fe,,,,,,,,,4038,38,86,1,0,0,response1disk,,7,12,-2,1,0,0,rectangle,12,-2,1,0,0,12,-2,1,0,0,0,152,152,153,1,,,,,,,,
,,,,,,,,,,,,,FF,,,,,,,,1.6014,,,,,,,,,,,,,,,,,,,,,,61032bce6198732a57f68dff,61036f04377eb09d6274ba59,2021-07-29_23h17.21.603,Simcolourproject_2stim_asymm_v5,2020.2.10,MacIntel,60,61025ae37ef11b136ea224fe,,,,,,,,,900,32,-77,1,0,0,response3disk,,4,7,4,1,0,0,rectangle,7,4,1,0,0,7,4,1,0,0,0,153,153,154,1,,,,,,,,
,,,,,,,,,,,,,FF,,,,,,,,1.7386,,,,,,,,,,,,,,,,,,,,,,61032bce6198732a57f68dff,61036f04377eb09d6274ba59,2021-07-29_23h17.21.603,Simcolourproject_2stim_asymm_v5,2020.2.10,MacIntel,60,61025ae37ef11b136ea224fe,,,,,,,,,2917,82,15,1,0,0,response1disk,,6,11,-9,1,0,0,rectangle,11,-9,1,0,0,11,-9,1,0,0,0,154,154,141,1,,,,,,,,
,,,,,,,,,,,,,FF,,,,,,,,1.0517,,,,,,,,,,,,,,,,,,,,,,61032bce6198732a57f68dff,61036f04377eb09d6274ba59,2021-07-29_23h17.21.603,Simcolourproject_2stim_asymm_v5,2020.2.10,MacIntel,60,61025ae37ef11b136ea224fe,,,,,,,,,2575,31,90,1,0,0,response1disk,,7,-2,-3,1,0,0,rectangle,-2,-3,1,0,0,-2,-3,1,0,0,0,155,155,16,1,,,,,,,,
,,,,,,,,,,,,,FF,,,,,,,,2.0212,,,,,,,,,,,,,,,,,,,,,,61032bce6198732a57f68dff,61036f04377eb09d6274ba59,2021-07-29_23h17.21.603,Simcolourproject_2stim_asymm_v5,2020.2.10,MacIntel,60,61025ae37ef11b136ea224fe,,,,,,,,,832,70,-31,1,0,0,response3disk,,5,-11,1,1,0,0,rectangle,-11,1,1,0,0,-11,1,1,0,0,0,156,156,9,1,,,,,,,,
,,,,,,,,,,,,,FF,,,,,,,,1.2016,,,,,,,,,,,,,,,,,,,,,,61032bce6198732a57f68dff,61036f04377eb09d6274ba59,2021-07-29_23h17.21.603,Simcolourproject_2stim_asymm_v5,2020.2.10,MacIntel,60,61025ae37ef11b136ea224fe,,,,,,,,,1896,-50,-81,1,0,0,response5disk,,3,-5,9,1,0,0,rectangle,-5,9,1,0,0,-5,9,1,0,0,0,157,157,130,1,,,,,,,,
,,,,,,,,,,,,,FF,,,,,,,,1.1189,,,,,,,,,,,,,,,,,,,,,,61032bce6198732a57f68dff,61036f04377eb09d6274ba59,2021-07-29_23h17.21.603,Simcolourproject_2stim_asymm_v5,2020.2.10,MacIntel,60,61025ae37ef11b136ea224fe,,,,,,,,,651,-22,-74,1,0,0,response5disk,,3,-1,-6,1,0,0,rectangle,-1,-6,1,0,0,-1,-6,1,0,0,0,158,158,124,1,,,,,,,,
,,,,,,,,,,,,,FF,,,,,,,,0.9847,,,,,,,,,,,,,,,,,,,,,,61032bce6198732a57f68dff,61036f04377eb09d6274ba59,2021-07-29_23h17.21.603,Simcolourproject_2stim_asymm_v5,2020.2.10,MacIntel,60,61025ae37ef11b136ea224fe,,,,,,,,,3603,35,72,1,0,0,response1disk,,7,-3,-11,1,0,0,rectangle,-3,-11,1,0,0,-3,-11,1,0,0,0,159,159,14,1,,,,,,,,
,,,,,,,,,,,,,FF,,,,,,,,0.942,,,,,,,,,,,,,,,,,,,,,,61032bce6198732a57f68dff,61036f04377eb09d6274ba59,2021-07-29_23h17.21.603,Simcolourproject_2stim_asymm_v5,2020.2.10,MacIntel,60,61025ae37ef11b136ea224fe,,,,,,,,,2812,38,75,1,0,0,response1disk,,7,11,-7,1,0,0,rectangle,11,-7,1,0,0,11,-7,1,0,0,1,0,160,90,1,,,,,,,,
,,,,,,,,,,,,,FF,,,,,,,,1.9503,,,,,,,,,,,,,,,,,,,,,,61032bce6198732a57f68dff,61036f04377eb09d6274ba59,2021-07-29_23h17.21.603,Simcolourproject_2stim_asymm_v5,2020.2.10,MacIntel,60,61025ae37ef11b136ea224fe,,,,,,,,,4317,30,-69,1,0,0,response3disk,,4,5,-5,1,0,0,rectangle,5,-5,1,0,0,5,-5,1,0,0,1,1,161,113,1,,,,,,,,
,,,,,,,,,,,,,FF,,,,,,,,1.0016,,,,,,,,,,,,,,,,,,,,,,61032bce6198732a57f68dff,61036f04377eb09d6274ba59,2021-07-29_23h17.21.603,Simcolourproject_2stim_asymm_v5,2020.2.10,MacIntel,60,61025ae37ef11b136ea224fe,,,,,,,,,4178,38,89,1,0,0,response1disk,,7,2,0,1,0,0,rectangle,-56,-78,1,0,0,-4,9,1,0,0,1,2,162,27,1,,response5disk_3,TRUE,3,3,"[227,278,112,283,244,57,56,140,17,321,254,15,163,196,151,298,268,285,240,184]",1.9645,rectangle
,,,,,,,,,,,,,FF,,,,,,,,2.8515,,,,,,,,,,,,,,,,,,,,,,61032bce6198732a57f68dff,61036f04377eb09d6274ba59,2021-07-29_23h17.21.603,Simcolourproject_2stim_asymm_v5,2020.2.10,MacIntel,60,61025ae37ef11b136ea224fe,,,,,,,,,1672,-43,-77,1,0,0,response5disk,,3,0,8,1,0,0,rectangle,0,8,1,0,0,0,8,1,0,0,1,3,163,80,1,,,,,,,,
,,,,,,,,,,,,,FF,,,,,,,,1.0159,,,,,,,,,,,,,,,,,,,,,,61032bce6198732a57f68dff,61036f04377eb09d6274ba59,2021-07-29_23h17.21.603,Simcolourproject_2stim_asymm_v5,2020.2.10,MacIntel,60,61025ae37ef11b136ea224fe,,,,,,,,,2189,57,-32,1,0,0,response3disk,,5,12,5,1,0,0,rectangle,12,5,1,0,0,12,5,1,0,0,1,4,164,66,1,,,,,,,,
,,,,,,,,,,,,,FF,,,,,,,,1.1347,,,,,,,,,,,,,,,,,,,,,,61032bce6198732a57f68dff,61036f04377eb09d6274ba59,2021-07-29_23h17.21.603,Simcolourproject_2stim_asymm_v5,2020.2.10,MacIntel,60,61025ae37ef11b136ea224fe,,,,,,,,,2462,25,-87,1,0,0,response3disk,,4,-1,-2,1,0,0,rectangle,-1,-2,1,0,0,-1,-2,1,0,0,1,5,165,137,1,,,,,,,,
,,,,,,,,,,,,,FF,,,,,,,,0.9343,,,,,,,,,,,,,,,,,,,,,,61032bce6198732a57f68dff,61036f04377eb09d6274ba59,2021-07-29_23h17.21.603,Simcolourproject_2stim_asymm_v5,2020.2.10,MacIntel,60,61025ae37ef11b136ea224fe,,,,,,,,,3256,14,-70,1,0,0,response3disk,,4,0,3,1,0,0,rectangle,0,3,1,0,0,0,3,1,0,0,1,6,166,26,1,,,,,,,,
,,,,,,,,,,,,,FF,,,,,,,,1.5844,,,,,,,,,,,,,,,,,,,,,,61032bce6198732a57f68dff,61036f04377eb09d6274ba59,2021-07-29_23h17.21.603,Simcolourproject_2stim_asymm_v5,2020.2.10,MacIntel,60,61025ae37ef11b136ea224fe,,,,,,,,,940,32,95,1,0,0,response1disk,,7,-11,-11,1,0,0,rectangle,-11,-11,1,0,0,-11,-11,1,0,0,1,7,167,158,1,,,,,,,,
,,,,,,,,,,,,,FF,,,,,,,,2.4366,,,,,,,,,,,,,,,,,,,,,,61032bce6198732a57f68dff,61036f04377eb09d6274ba59,2021-07-29_23h17.21.603,Simcolourproject_2stim_asymm_v5,2020.2.10,MacIntel,60,61025ae37ef11b136ea224fe,,,,,,,,,1281,43,-70,1,0,0,response3disk,,4,5,-2,1,0,0,rectangle,5,-2,1,0,0,5,-2,1,0,0,1,8,168,14,1,,,,,,,,
,,,,,,,,,,,,,FF,,,,,,,,1.8523,,,,,,,,,,,,,,,,,,,,,,61032bce6198732a57f68dff,61036f04377eb09d6274ba59,2021-07-29_23h17.21.603,Simcolourproject_2stim_asymm_v5,2020.2.10,MacIntel,60,61025ae37ef11b136ea224fe,,,,,,,,,1888,-85,-25,1,0,0,response5disk,,2,-12,3,1,0,0,rectangle,-12,3,1,0,0,-12,3,1,0,0,1,9,169,65,1,,,,,,,,
,,,,,,,,,,,,,FF,,,,,,,,0.9348,,,,,,,,,,,,,,,,,,,,,,61032bce6198732a57f68dff,61036f04377eb09d6274ba59,2021-07-29_23h17.21.603,Simcolourproject_2stim_asymm_v5,2020.2.10,MacIntel,60,61025ae37ef11b136ea224fe,,,,,,,,,4110,32,61,1,0,0,response1disk,,7,-5,-8,1,0,0,rectangle,-5,-8,1,0,0,-5,-8,1,0,0,1,10,170,82,1,,,,,,,,
,,,,,,,,,,,,,FF,,,,,,,,1.25,,,,,,,,,,,,,,,,,,,,,,61032bce6198732a57f68dff,61036f04377eb09d6274ba59,2021-07-29_23h17.21.603,Simcolourproject_2stim_asymm_v5,2020.2.10,MacIntel,60,61025ae37ef11b136ea224fe,,,,,,,,,2595,18,-72,1,0,0,response3disk,,4,5,-5,1,0,0,rectangle,5,-5,1,0,0,5,-5,1,0,0,1,11,171,4,1,,,,,,,,
,,,,,,,,,,,,,FF,,,,,,,,1.4015,,,,,,,,,,,,,,,,,,,,,,61032bce6198732a57f68dff,61036f04377eb09d6274ba59,2021-07-29_23h17.21.603,Simcolourproject_2stim_asymm_v5,2020.2.10,MacIntel,60,61025ae37ef11b136ea224fe,,,,,,,,,1482,75,53,1,0,0,response1disk,,6,21,6,1,0,0,rectangle,21,6,1,0,0,21,6,1,0,0,1,12,172,155,1,,,,,,,,
,,,,,,,,,,,,,FF,,,,,,,,1.0683,,,,,,,,,,,,,,,,,,,,,,61032bce6198732a57f68dff,61036f04377eb09d6274ba59,2021-07-29_23h17.21.603,Simcolourproject_2stim_asymm_v5,2020.2.10,MacIntel,60,61025ae37ef11b136ea224fe,,,,,,,,,1785,24,89,1,0,0,response1disk,,7,7,6,1,0,0,rectangle,7,6,1,0,0,7,6,1,0,0,1,13,173,20,1,,,,,,,,
,,,,,,,,,,,,,FF,,,,,,,,2.2674,,,,,,,,,,,,,,,,,,,,,,61032bce6198732a57f68dff,61036f04377eb09d6274ba59,2021-07-29_23h17.21.603,Simcolourproject_2stim_asymm_v5,2020.2.10,MacIntel,60,61025ae37ef11b136ea224fe,,,,,,,,,1440,-30,-73,1,0,0,response5disk,,3,-12,3,1,0,0,rectangle,-12,3,1,0,0,-12,3,1,0,0,1,14,174,12,1,,,,,,,,
,,,,,,,,,,,,,FF,,,,,,,,1.2502,,,,,,,,,,,,,,,,,,,,,,61032bce6198732a57f68dff,61036f04377eb09d6274ba59,2021-07-29_23h17.21.603,Simcolourproject_2stim_asymm_v5,2020.2.10,MacIntel,60,61025ae37ef11b136ea224fe,,,,,,,,,2315,48,-49,1,0,0,response3disk,,4,-4,15,1,0,0,rectangle,-4,15,1,0,0,-4,15,1,0,0,1,15,175,94,1,,,,,,,,
,,,,,,,,,,,,,FF,,,,,,,,12.226,,,,,,,,,,,,,,,,,,,,,,61032bce6198732a57f68dff,61036f04377eb09d6274ba59,2021-07-29_23h17.21.603,Simcolourproject_2stim_asymm_v5,2020.2.10,MacIntel,60,61025ae37ef11b136ea224fe,,,,,,,,,3796,20,-96,1,0,0,response3disk,,4,-3,-8,1,0,0,rectangle,-3,-8,1,0,0,-3,-8,1,0,0,1,16,176,8,1,,,,,,,,
,,,,,,,,,,,,,FF,,,,,,,,0.9663,,,,,,,,,,,,,,,,,,,,,,61032bce6198732a57f68dff,61036f04377eb09d6274ba59,2021-07-29_23h17.21.603,Simcolourproject_2stim_asymm_v5,2020.2.10,MacIntel,60,61025ae37ef11b136ea224fe,,,,,,,,,2334,47,-53,1,0,0,response3disk,,4,-2,2,1,0,0,rectangle,-2,2,1,0,0,-2,2,1,0,0,1,17,177,87,1,,,,,,,,
,,,,,,,,,,,,,FF,,,,,,,,1.3847,,,,,,,,,,,,,,,,,,,,,,61032bce6198732a57f68dff,61036f04377eb09d6274ba59,2021-07-29_23h17.21.603,Simcolourproject_2stim_asymm_v5,2020.2.10,MacIntel,60,61025ae37ef11b136ea224fe,,,,,,,,,609,-32,-68,1,0,0,response5disk,,3,-9,-3,1,0,0,rectangle,-9,-3,1,0,0,-9,-3,1,0,0,1,18,178,25,1,,,,,,,,
,,,,,,,,,,,,,FF,,,,,,,,0.9529,,,,,,,,,,,,,,,,,,,,,,61032bce6198732a57f68dff,61036f04377eb09d6274ba59,2021-07-29_23h17.21.603,Simcolourproject_2stim_asymm_v5,2020.2.10,MacIntel,60,61025ae37ef11b136ea224fe,,,,,,,,,61,65,-29,1,0,0,response3disk,,5,3,9,1,0,0,rectangle,3,9,1,0,0,3,9,1,0,0,1,19,179,50,1,,,,,,,,
,,,,,,,,,,,,,FF,,,,,,,,0.8997,,,,,,,,,,,,,,,,,,,,,,61032bce6198732a57f68dff,61036f04377eb09d6274ba59,2021-07-29_23h17.21.603,Simcolourproject_2stim_asymm_v5,2020.2.10,MacIntel,60,61025ae37ef11b136ea224fe,,,,,,,,,2188,65,43,1,0,0,response1disk,,6,-29,5,1,0,0,rectangle,-29,5,1,0,0,-29,5,1,0,0,1,20,180,37,1,,,,,,,,
,,,,,,,,,,,,,FF,,,,,,,,1.1344,,,,,,,,,,,,,,,,,,,,,,61032bce6198732a57f68dff,61036f04377eb09d6274ba59,2021-07-29_23h17.21.603,Simcolourproject_2stim_asymm_v5,2020.2.10,MacIntel,60,61025ae37ef11b136ea224fe,,,,,,,,,3843,-63,46,1,0,0,response7disk,,1,-5,5,1,0,0,rectangle,-5,5,1,0,0,-5,5,1,0,0,1,21,181,135,1,,,,,,,,
,,,,,,,,,,,,,FF,,,,,,,,0.9855,,,,,,,,,,,,,,,,,,,,,,61032bce6198732a57f68dff,61036f04377eb09d6274ba59,2021-07-29_23h17.21.603,Simcolourproject_2stim_asymm_v5,2020.2.10,MacIntel,60,61025ae37ef11b136ea224fe,,,,,,,,,2015,66,-38,1,0,0,response3disk,,5,-6,-4,1,0,0,rectangle,-6,-4,1,0,0,-6,-4,1,0,0,1,22,182,150,1,,,,,,,,
,,,,,,,,,,,,,FF,,,,,,,,1.154,,,,,,,,,,,,,,,,,,,,,,61032bce6198732a57f68dff,61036f04377eb09d6274ba59,2021-07-29_23h17.21.603,Simcolourproject_2stim_asymm_v5,2020.2.10,MacIntel,60,61025ae37ef11b136ea224fe,,,,,,,,,247,27,-88,1,0,0,response3disk,,4,-1,2,1,0,0,rectangle,83,-36,1,0,0,9,0,1,0,0,1,23,183,138,1,,response3disk_3,TRUE,5,5,"[227,278,112,283,244,57,56,140,17,321,254,15,163,196,151,298,268,285,240,184]",2.602,rectangle
,,,,,,,,,,,,,FF,,,,,,,,1.1031,,,,,,,,,,,,,,,,,,,,,,61032bce6198732a57f68dff,61036f04377eb09d6274ba59,2021-07-29_23h17.21.603,Simcolourproject_2stim_asymm_v5,2020.2.10,MacIntel,60,61025ae37ef11b136ea224fe,,,,,,,,,3091,-56,-94,1,0,0,response5disk,,3,-4,-4,1,0,0,rectangle,-4,-4,1,0,0,-4,-4,1,0,0,1,24,184,47,1,,,,,,,,
,,,,,,,,,,,,,FF,,,,,,,,0.8848,,,,,,,,,,,,,,,,,,,,,,61032bce6198732a57f68dff,61036f04377eb09d6274ba59,2021-07-29_23h17.21.603,Simcolourproject_2stim_asymm_v5,2020.2.10,MacIntel,60,61025ae37ef11b136ea224fe,,,,,,,,,294,51,-27,1,0,0,response3disk,,5,2,0,1,0,0,rectangle,2,0,1,0,0,2,0,1,0,0,1,25,185,132,1,,,,,,,,
,,,,,,,,,,,,,FF,,,,,,,,1.0339,,,,,,,,,,,,,,,,,,,,,,61032bce6198732a57f68dff,61036f04377eb09d6274ba59,2021-07-29_23h17.21.603,Simcolourproject_2stim_asymm_v5,2020.2.10,MacIntel,60,61025ae37ef11b136ea224fe,,,,,,,,,3479,59,-40,1,0,0,response3disk,,5,11,-6,1,0,0,rectangle,11,-6,1,0,0,11,-6,1,0,0,1,26,186,23,1,,,,,,,,
,,,,,,,,,,,,,FF,,,,,,,,1.1198,,,,,,,,,,,,,,,,,,,,,,61032bce6198732a57f68dff,61036f04377eb09d6274ba59,2021-07-29_23h17.21.603,Simcolourproject_2stim_asymm_v5,2020.2.10,MacIntel,60,61025ae37ef11b136ea224fe,,,,,,,,,1387,26,-88,1,0,0,response3disk,,4,5,2,1,0,0,rectangle,5,2,1,0,0,5,2,1,0,0,1,27,187,54,1,,,,,,,,
,,,,,,,,,,,,,FF,,,,,,,,0.8186,,,,,,,,,,,,,,,,,,,,,,61032bce6198732a57f68dff,61036f04377eb09d6274ba59,2021-07-29_23h17.21.603,Simcolourproject_2stim_asymm_v5,2020.2.10,MacIntel,60,61025ae37ef11b136ea224fe,,,,,,,,,4063,36,79,1,0,0,response1disk,,7,5,7,1,0,0,rectangle,5,7,1,0,0,5,7,1,0,0,1,28,188,118,1,,,,,,,,
,,,,,,,,,,,,,FF,,,,,,,,1.4512,,,,,,,,,,,,,,,,,,,,,,61032bce6198732a57f68dff,61036f04377eb09d6274ba59,2021-07-29_23h17.21.603,Simcolourproject_2stim_asymm_v5,2020.2.10,MacIntel,60,61025ae37ef11b136ea224fe,,,,,,,,,3004,40,-84,1,0,0,response3disk,,4,8,4,1,0,0,rectangle,8,4,1,0,0,8,4,1,0,0,1,29,189,70,1,,,,,,,,
,,,,,,,,,,,,,FF,,,,,,,,1.6306,,,,,,,,,,,,,,,,,,,,,,61032bce6198732a57f68dff,61036f04377eb09d6274ba59,2021-07-29_23h17.21.603,Simcolourproject_2stim_asymm_v5,2020.2.10,MacIntel,60,61025ae37ef11b136ea224fe,,,,,,,,,897,42,-86,1,0,0,response3disk,,4,13,-5,1,0,0,rectangle,13,-5,1,0,0,13,-5,1,0,0,1,30,190,148,1,,,,,,,,
,,,,,,,,,,,,,FF,,,,,,,,1.1843,,,,,,,,,,,,,,,,,,,,,,61032bce6198732a57f68dff,61036f04377eb09d6274ba59,2021-07-29_23h17.21.603,Simcolourproject_2stim_asymm_v5,2020.2.10,MacIntel,60,61025ae37ef11b136ea224fe,,,,,,,,,2678,55,-39,1,0,0,response3disk,,5,1,-3,1,0,0,rectangle,1,-3,1,0,0,1,-3,1,0,0,1,31,191,115,1,,,,,,,,
,,,,,,,,,,,,,FF,,,,,,,,0.9017,,,,,,,,,,,,,,,,,,,,,,61032bce6198732a57f68dff,61036f04377eb09d6274ba59,2021-07-29_23h17.21.603,Simcolourproject_2stim_asymm_v5,2020.2.10,MacIntel,60,61025ae37ef11b136ea224fe,,,,,,,,,2329,57,23,1,0,0,response1disk,,6,2,0,1,0,0,rectangle,2,0,1,0,0,2,0,1,0,0,1,32,192,77,1,,,,,,,,
,,,,,,,,,,,,,FF,,,,,,,,0.9322,,,,,,,,,,,,,,,,,,,,,,61032bce6198732a57f68dff,61036f04377eb09d6274ba59,2021-07-29_23h17.21.603,Simcolourproject_2stim_asymm_v5,2020.2.10,MacIntel,60,61025ae37ef11b136ea224fe,,,,,,,,,1053,-43,-62,1,0,0,response5disk,,3,-11,1,1,0,0,rectangle,-11,1,1,0,0,-11,1,1,0,0,1,33,193,40,1,,,,,,,,
,,,,,,,,,,,,,FF,,,,,,,,2.201,,,,,,,,,,,,,,,,,,,,,,61032bce6198732a57f68dff,61036f04377eb09d6274ba59,2021-07-29_23h17.21.603,Simcolourproject_2stim_asymm_v5,2020.2.10,MacIntel,60,61025ae37ef11b136ea224fe,,,,,,,,,251,-34,-87,1,0,0,response5disk,,3,-4,1,1,0,0,rectangle,-4,1,1,0,0,-4,1,1,0,0,1,34,194,67,1,,,,,,,,
,,,,,,,,,,,,,FF,,,,,,,,1.2169,,,,,,,,,,,,,,,,,,,,,,61032bce6198732a57f68dff,61036f04377eb09d6274ba59,2021-07-29_23h17.21.603,Simcolourproject_2stim_asymm_v5,2020.2.10,MacIntel,60,61025ae37ef11b136ea224fe,,,,,,,,,3889,21,67,1,0,0,response1disk,,7,-9,-9,1,0,0,rectangle,-52,71,1,0,0,-9,-2,1,0,0,1,35,195,120,1,,response7disk_3,TRUE,0,0,"[227,278,112,283,244,57,56,140,17,321,254,15,163,196,151,298,268,285,240,184]",2.0185,rectangle
,,,,,,,,,,,,,FF,,,,,,,,1.7354,,,,,,,,,,,,,,,,,,,,,,61032bce6198732a57f68dff,61036f04377eb09d6274ba59,2021-07-29_23h17.21.603,Simcolourproject_2stim_asymm_v5,2020.2.10,MacIntel,60,61025ae37ef11b136ea224fe,,,,,,,,,4289,82,49,1,0,0,response1disk,,6,22,-4,1,0,0,rectangle,22,-4,1,0,0,22,-4,1,0,0,1,36,196,46,1,,,,,,,,
,,,,,,,,,,,,,FF,,,,,,,,1.2031,,,,,,,,,,,,,,,,,,,,,,61032bce6198732a57f68dff,61036f04377eb09d6274ba59,2021-07-29_23h17.21.603,Simcolourproject_2stim_asymm_v5,2020.2.10,MacIntel,60,61025ae37ef11b136ea224fe,,,,,,,,,276,-39,63,1,0,0,response7disk,,0,-8,8,1,0,0,rectangle,-8,8,1,0,0,-8,8,1,0,0,1,37,197,72,1,,,,,,,,
,,,,,,,,,,,,,FF,,,,,,,,1.7714,,,,,,,,,,,,,,,,,,,,,,61032bce6198732a57f68dff,61036f04377eb09d6274ba59,2021-07-29_23h17.21.603,Simcolourproject_2stim_asymm_v5,2020.2.10,MacIntel,60,61025ae37ef11b136ea224fe,,,,,,,,,989,-77,-36,1,0,0,response5disk,,2,-8,-3,1,0,0,rectangle,-8,-3,1,0,0,-8,-3,1,0,0,1,38,198,61,1,,,,,,,,
,,,,,,,,,,,,,FF,,,,,,,,1.0007,,,,,,,,,,,,,,,,,,,,,,61032bce6198732a57f68dff,61036f04377eb09d6274ba59,2021-07-29_23h17.21.603,Simcolourproject_2stim_asymm_v5,2020.2.10,MacIntel,60,61025ae37ef11b136ea224fe,,,,,,,,,2788,-52,-38,1,0,0,response5disk,,2,-1,5,1,0,0,rectangle,-1,5,1,0,0,-1,5,1,0,0,1,39,199,129,1,,,,,,,,
,,,,,,,,,,,,,FF,,,,,,,,1.5697,,,,,,,,,,,,,,,,,,,,,,61032bce6198732a57f68dff,61036f04377eb09d6274ba59,2021-07-29_23h17.21.603,Simcolourproject_2stim_asymm_v5,2020.2.10,MacIntel,60,61025ae37ef11b136ea224fe,,,,,,,,,744,84,-38,1,0,0,response3disk,,5,-4,4,1,0,0,rectangle,-4,4,1,0,0,-4,4,1,0,0,1,40,200,159,1,,,,,,,,
,,,,,,,,,,,,,FF,,,,,,,,1.1521,,,,,,,,,,,,,,,,,,,,,,61032bce6198732a57f68dff,61036f04377eb09d6274ba59,2021-07-29_23h17.21.603,Simcolourproject_2stim_asymm_v5,2020.2.10,MacIntel,60,61025ae37ef11b136ea224fe,,,,,,,,,3505,-66,-35,1,0,0,response5disk,,2,-9,-11,1,0,0,rectangle,-9,-11,1,0,0,-9,-11,1,0,0,1,41,201,95,1,,,,,,,,
,,,,,,,,,,,,,FF,,,,,,,,1.2355,,,,,,,,,,,,,,,,,,,,,,61032bce6198732a57f68dff,61036f04377eb09d6274ba59,2021-07-29_23h17.21.603,Simcolourproject_2stim_asymm_v5,2020.2.10,MacIntel,60,61025ae37ef11b136ea224fe,,,,,,,,,1829,46,-67,1,0,0,response3disk,,4,-10,-2,1,0,0,rectangle,-10,-2,1,0,0,-10,-2,1,0,0,1,42,202,154,1,,,,,,,,
,,,,,,,,,,,,,FF,,,,,,,,0.8163,,,,,,,,,,,,,,,,,,,,,,61032bce6198732a57f68dff,61036f04377eb09d6274ba59,2021-07-29_23h17.21.603,Simcolourproject_2stim_asymm_v5,2020.2.10,MacIntel,60,61025ae37ef11b136ea224fe,,,,,,,,,1239,71,-36,1,0,0,response3disk,,5,7,0,1,0,0,rectangle,7,0,1,0,0,7,0,1,0,0,1,43,203,60,1,,,,,,,,
,,,,,,,,,,,,,FF,,,,,,,,0.884,,,,,,,,,,,,,,,,,,,,,,61032bce6198732a57f68dff,61036f04377eb09d6274ba59,2021-07-29_23h17.21.603,Simcolourproject_2stim_asymm_v5,2020.2.10,MacIntel,60,61025ae37ef11b136ea224fe,,,,,,,,,3074,67,52,1,0,0,response1disk,,6,-16,1,1,0,0,rectangle,-16,1,1,0,0,-16,1,1,0,0,1,44,204,97,1,,,,,,,,
,,,,,,,,,,,,,FF,,,,,,,,1.9867,,,,,,,,,,,,,,,,,,,,,,61032bce6198732a57f68dff,61036f04377eb09d6274ba59,2021-07-29_23h17.21.603,Simcolourproject_2stim_asymm_v5,2020.2.10,MacIntel,60,61025ae37ef11b136ea224fe,,,,,,,,,515,80,-25,1,0,0,response3disk,,5,-4,-1,1,0,0,rectangle,-4,-1,1,0,0,-4,-1,1,0,0,1,45,205,11,1,,,,,,,,
,,,,,,,,,,,,,FF,,,,,,,,1.221,,,,,,,,,,,,,,,,,,,,,,61032bce6198732a57f68dff,61036f04377eb09d6274ba59,2021-07-29_23h17.21.603,Simcolourproject_2stim_asymm_v5,2020.2.10,MacIntel,60,61025ae37ef11b136ea224fe,,,,,,,,,290,50,-75,1,0,0,response3disk,,4,-12,-7,1,0,0,rectangle,-12,-7,1,0,0,-12,-7,1,0,0,1,46,206,107,1,,,,,,,,
,,,,,,,,,,,,,FF,,,,,,,,2.2168,,,,,,,,,,,,,,,,,,,,,,61032bce6198732a57f68dff,61036f04377eb09d6274ba59,2021-07-29_23h17.21.603,Simcolourproject_2stim_asymm_v5,2020.2.10,MacIntel,60,61025ae37ef11b136ea224fe,,,,,,,,,428,87,39,1,0,0,response1disk,,6,1,12,1,0,0,rectangle,1,12,1,0,0,1,12,1,0,0,1,47,207,75,1,,,,,,,,
,,,,,,,,,,,,,FF,,,,,,,,1.3011,,,,,,,,,,,,,,,,,,,,,,61032bce6198732a57f68dff,61036f04377eb09d6274ba59,2021-07-29_23h17.21.603,Simcolourproject_2stim_asymm_v5,2020.2.10,MacIntel,60,61025ae37ef11b136ea224fe,,,,,,,,,1975,66,50,1,0,0,response1disk,,6,-7,9,1,0,0,rectangle,-7,9,1,0,0,-7,9,1,0,0,1,48,208,156,1,,,,,,,,
,,,,,,,,,,,,,FF,,,,,,,,1.0663,,,,,,,,,,,,,,,,,,,,,,61032bce6198732a57f68dff,61036f04377eb09d6274ba59,2021-07-29_23h17.21.603,Simcolourproject_2stim_asymm_v5,2020.2.10,MacIntel,60,61025ae37ef11b136ea224fe,,,,,,,,,2580,77,45,1,0,0,response1disk,,6,2,-4,1,0,0,rectangle,2,-4,1,0,0,2,-4,1,0,0,1,49,209,5,1,,,,,,,,
,,,,,,,,,,,,,FF,,,,,,,,2.4182,,,,,,,,,,,,,,,,,,,,,,61032bce6198732a57f68dff,61036f04377eb09d6274ba59,2021-07-29_23h17.21.603,Simcolourproject_2stim_asymm_v5,2020.2.10,MacIntel,60,61025ae37ef11b136ea224fe,,,,,,,,,1179,92,38,1,0,0,response1disk,,6,-2,10,1,0,0,rectangle,-2,10,1,0,0,-2,10,1,0,0,1,50,210,106,1,,,,,,,,
,,,,,,,,,,,,,FF,,,,,,,,1.4873,,,,,,,,,,,,,,,,,,,,,,61032bce6198732a57f68dff,61036f04377eb09d6274ba59,2021-07-29_23h17.21.603,Simcolourproject_2stim_asymm_v5,2020.2.10,MacIntel,60,61025ae37ef11b136ea224fe,,,,,,,,,4146,-82,-60,1,0,0,response5disk,,2,-13,4,1,0,0,rectangle,-13,4,1,0,0,-13,4,1,0,0,1,51,211,81,1,,,,,,,,
,,,,,,,,,,,,,FF,,,,,,,,1.1525,,,,,,,,,,,,,,,,,,,,,,61032bce6198732a57f68dff,61036f04377eb09d6274ba59,2021-07-29_23h17.21.603,Simcolourproject_2stim_asymm_v5,2020.2.10,MacIntel,60,61025ae37ef11b136ea224fe,,,,,,,,,2179,82,-37,1,0,0,response3disk,,5,3,-5,1,0,0,rectangle,3,-5,1,0,0,3,-5,1,0,0,1,52,212,93,1,,,,,,,,
,,,,,,,,,,,,,FF,,,,,,,,1.8842,,,,,,,,,,,,,,,,,,,,,,61032bce6198732a57f68dff,61036f04377eb09d6274ba59,2021-07-29_23h17.21.603,Simcolourproject_2stim_asymm_v5,2020.2.10,MacIntel,60,61025ae37ef11b136ea224fe,,,,,,,,,4,-41,-81,1,0,0,response5disk,,3,-3,1,1,0,0,rectangle,-3,1,1,0,0,-3,1,1,0,0,1,53,213,116,1,,,,,,,,
,,,,,,,,,,,,,FF,,,,,,,,0.988,,,,,,,,,,,,,,,,,,,,,,61032bce6198732a57f68dff,61036f04377eb09d6274ba59,2021-07-29_23h17.21.603,Simcolourproject_2stim_asymm_v5,2020.2.10,MacIntel,60,61025ae37ef11b136ea224fe,,,,,,,,,4207,-75,30,1,0,0,response7disk,,1,-4,-2,1,0,0,rectangle,-4,-2,1,0,0,-4,-2,1,0,0,1,54,214,34,1,,,,,,,,
,,,,,,,,,,,,,FF,,,,,,,,1.034,,,,,,,,,,,,,,,,,,,,,,61032bce6198732a57f68dff,61036f04377eb09d6274ba59,2021-07-29_23h17.21.603,Simcolourproject_2stim_asymm_v5,2020.2.10,MacIntel,60,61025ae37ef11b136ea224fe,,,,,,,,,2753,49,66,1,0,0,response1disk,,7,18,-1,1,0,0,rectangle,18,-1,1,0,0,18,-1,1,0,0,1,55,215,71,1,,,,,,,,
,,,,,,,,,,,,,FF,,,,,,,,0.9669,,,,,,,,,,,,,,,,,,,,,,61032bce6198732a57f68dff,61036f04377eb09d6274ba59,2021-07-29_23h17.21.603,Simcolourproject_2stim_asymm_v5,2020.2.10,MacIntel,60,61025ae37ef11b136ea224fe,,,,,,,,,2191,33,88,1,0,0,response1disk,,7,5,3,1,0,0,rectangle,5,3,1,0,0,5,3,1,0,0,1,56,216,105,1,,,,,,,,
,,,,,,,,,,,,,FF,,,,,,,,1.5868,,,,,,,,,,,,,,,,,,,,,,61032bce6198732a57f68dff,61036f04377eb09d6274ba59,2021-07-29_23h17.21.603,Simcolourproject_2stim_asymm_v5,2020.2.10,MacIntel,60,61025ae37ef11b136ea224fe,,,,,,,,,787,80,-32,1,0,0,response3disk,,5,4,3,1,0,0,rectangle,4,3,1,0,0,4,3,1,0,0,1,57,217,122,1,,,,,,,,
,,,,,,,,,,,,,FF,,,,,,,,1.8525,,,,,,,,,,,,,,,,,,,,,,61032bce6198732a57f68dff,61036f04377eb09d6274ba59,2021-07-29_23h17.21.603,Simcolourproject_2stim_asymm_v5,2020.2.10,MacIntel,60,61025ae37ef11b136ea224fe,,,,,,,,,2003,84,-56,1,0,0,response3disk,,5,-2,-4,1,0,0,rectangle,-2,-4,1,0,0,-2,-4,1,0,0,1,58,218,99,1,,,,,,,,
,,,,,,,,,,,,,FF,,,,,,,,0.8835,,,,,,,,,,,,,,,,,,,,,,61032bce6198732a57f68dff,61036f04377eb09d6274ba59,2021-07-29_23h17.21.603,Simcolourproject_2stim_asymm_v5,2020.2.10,MacIntel,60,61025ae37ef11b136ea224fe,,,,,,,,,49,61,-22,1,0,0,response3disk,,5,0,10,1,0,0,rectangle,0,10,1,0,0,0,10,1,0,0,1,59,219,146,1,,,,,,,,
,,,,,,,,,,,,,FF,,,,,,,,1.2011,,,,,,,,,,,,,,,,,,,,,,61032bce6198732a57f68dff,61036f04377eb09d6274ba59,2021-07-29_23h17.21.603,Simcolourproject_2stim_asymm_v5,2020.2.10,MacIntel,60,61025ae37ef11b136ea224fe,,,,,,,,,2991,30,85,1,0,0,response1disk,,7,-1,-1,1,0,0,rectangle,-1,-1,1,0,0,-1,-1,1,0,0,1,60,220,96,1,,,,,,,,
,,,,,,,,,,,,,FF,,,,,,,,1.6821,,,,,,,,,,,,,,,,,,,,,,61032bce6198732a57f68dff,61036f04377eb09d6274ba59,2021-07-29_23h17.21.603,Simcolourproject_2stim_asymm_v5,2020.2.10,MacIntel,60,61025ae37ef11b136ea224fe,,,,,,,,,4029,80,-37,1,0,0,response3disk,,5,4,-3,1,0,0,rectangle,4,-3,1,0,0,4,-3,1,0,0,1,61,221,73,1,,,,,,,,
,,,,,,,,,,,,,FF,,,,,,,,1.1346,,,,,,,,,,,,,,,,,,,,,,61032bce6198732a57f68dff,61036f04377eb09d6274ba59,2021-07-29_23h17.21.603,Simcolourproject_2stim_asymm_v5,2020.2.10,MacIntel,60,61025ae37ef11b136ea224fe,,,,,,,,,1859,61,42,1,0,0,response1disk,,6,-8,2,1,0,0,rectangle,-8,2,1,0,0,-8,2,1,0,0,1,62,222,139,1,,,,,,,,
,,,,,,,,,,,,,FF,,,,,,,,0.9505,,,,,,,,,,,,,,,,,,,,,,61032bce6198732a57f68dff,61036f04377eb09d6274ba59,2021-07-29_23h17.21.603,Simcolourproject_2stim_asymm_v5,2020.2.10,MacIntel,60,61025ae37ef11b136ea224fe,,,,,,,,,2070,69,38,1,0,0,response1disk,,6,3,5,1,0,0,rectangle,3,5,1,0,0,3,5,1,0,0,1,63,223,55,1,,,,,,,,
,,,,,,,,,,,,,FF,,,,,,,,1.9876,,,,,,,,,,,,,,,,,,,,,,61032bce6198732a57f68dff,61036f04377eb09d6274ba59,2021-07-29_23h17.21.603,Simcolourproject_2stim_asymm_v5,2020.2.10,MacIntel,60,61025ae37ef11b136ea224fe,,,,,,,,,2639,75,38,1,0,0,response1disk,,6,6,3,1,0,0,rectangle,6,3,1,0,0,6,3,1,0,0,1,64,224,147,1,,,,,,,,
,,,,,,,,,,,,,FF,,,,,,,,3.8197,,,,,,,,,,,,,,,,,,,,,,61032bce6198732a57f68dff,61036f04377eb09d6274ba59,2021-07-29_23h17.21.603,Simcolourproject_2stim_asymm_v5,2020.2.10,MacIntel,60,61025ae37ef11b136ea224fe,,,,,,,,,2040,-46,-77,1,0,0,response5disk,,3,-5,-8,1,0,0,rectangle,-5,-8,1,0,0,-5,-8,1,0,0,1,65,225,153,1,,,,,,,,
,,,,,,,,,,,,,FF,,,,,,,,1.7508,,,,,,,,,,,,,,,,,,,,,,61032bce6198732a57f68dff,61036f04377eb09d6274ba59,2021-07-29_23h17.21.603,Simcolourproject_2stim_asymm_v5,2020.2.10,MacIntel,60,61025ae37ef11b136ea224fe,,,,,,,,,4020,-77,38,1,0,0,response7disk,,1,-8,5,1,0,0,rectangle,83,-46,1,0,0,-1,-4,1,0,0,1,66,226,119,1,,response3disk_3,TRUE,5,5,"[227,278,112,283,244,57,56,140,17,321,254,15,163,196,151,298,268,285,240,184]",1.436,rectangle
,,,,,,,,,,,,,FF,,,,,,,,1.7052,,,,,,,,,,,,,,,,,,,,,,61032bce6198732a57f68dff,61036f04377eb09d6274ba59,2021-07-29_23h17.21.603,Simcolourproject_2stim_asymm_v5,2020.2.10,MacIntel,60,61025ae37ef11b136ea224fe,,,,,,,,,883,44,96,1,0,0,response1disk,,7,11,1,1,0,0,rectangle,11,1,1,0,0,11,1,1,0,0,1,67,227,59,1,,,,,,,,
,,,,,,,,,,,,,FF,,,,,,,,1.0858,,,,,,,,,,,,,,,,,,,,,,61032bce6198732a57f68dff,61036f04377eb09d6274ba59,2021-07-29_23h17.21.603,Simcolourproject_2stim_asymm_v5,2020.2.10,MacIntel,60,61025ae37ef11b136ea224fe,,,,,,,,,79,-90,38,1,0,0,response7disk,,1,-12,-6,1,0,0,rectangle,-12,-6,1,0,0,-12,-6,1,0,0,1,68,228,111,1,,,,,,,,
,,,,,,,,,,,,,FF,,,,,,,,0.968,,,,,,,,,,,,,,,,,,,,,,61032bce6198732a57f68dff,61036f04377eb09d6274ba59,2021-07-29_23h17.21.603,Simcolourproject_2stim_asymm_v5,2020.2.10,MacIntel,60,61025ae37ef11b136ea224fe,,,,,,,,,2157,26,71,1,0,0,response1disk,,7,10,3,1,0,0,rectangle,10,3,1,0,0,10,3,1,0,0,1,69,229,3,1,,,,,,,,
,,,,,,,,,,,,,FF,,,,,,,,1.2407,,,,,,,,,,,,,,,,,,,,,,61032bce6198732a57f68dff,61036f04377eb09d6274ba59,2021-07-29_23h17.21.603,Simcolourproject_2stim_asymm_v5,2020.2.10,MacIntel,60,61025ae37ef11b136ea224fe,,,,,,,,,2695,69,36,1,0,0,response1disk,,6,-4,-9,1,0,0,rectangle,-4,-9,1,0,0,-4,-9,1,0,0,1,70,230,42,1,,,,,,,,
,,,,,,,,,,,,,FF,,,,,,,,1.2756,,,,,,,,,,,,,,,,,,,,,,61032bce6198732a57f68dff,61036f04377eb09d6274ba59,2021-07-29_23h17.21.603,Simcolourproject_2stim_asymm_v5,2020.2.10,MacIntel,60,61025ae37ef11b136ea224fe,,,,,,,,,3703,-78,-45,1,0,0,response5disk,,2,0,10,1,0,0,rectangle,0,10,1,0,0,0,10,1,0,0,1,71,231,45,1,,,,,,,,
,,,,,,,,,,,,,FF,,,,,,,,0.984,,,,,,,,,,,,,,,,,,,,,,61032bce6198732a57f68dff,61036f04377eb09d6274ba59,2021-07-29_23h17.21.603,Simcolourproject_2stim_asymm_v5,2020.2.10,MacIntel,60,61025ae37ef11b136ea224fe,,,,,,,,,2935,-75,-49,1,0,0,response5disk,,2,-12,-8,1,0,0,rectangle,-12,-8,1,0,0,-12,-8,1,0,0,1,72,232,30,1,,,,,,,,
,,,,,,,,,,,,,FF,,,,,,,,0.8523,,,,,,,,,,,,,,,,,,,,,,61032bce6198732a57f68dff,61036f04377eb09d6274ba59,2021-07-29_23h17.21.603,Simcolourproject_2stim_asymm_v5,2020.2.10,MacIntel,60,61025ae37ef11b136ea224fe,,,,,,,,,1594,48,61,1,0,0,response1disk,,7,30,4,1,0,0,rectangle,30,4,1,0,0,30,4,1,0,0,1,73,233,157,1,,,,,,,,
,,,,,,,,,,,,,FF,,,,,,,,1.8512,,,,,,,,,,,,,,,,,,,,,,61032bce6198732a57f68dff,61036f04377eb09d6274ba59,2021-07-29_23h17.21.603,Simcolourproject_2stim_asymm_v5,2020.2.10,MacIntel,60,61025ae37ef11b136ea224fe,,,,,,,,,462,-82,-18,1,0,0,response5disk,,2,-20,-9,1,0,0,rectangle,-20,-9,1,0,0,-20,-9,1,0,0,1,74,234,131,1,,,,,,,,
,,,,,,,,,,,,,FF,,,,,,,,1.0394,,,,,,,,,,,,,,,,,,,,,,61032bce6198732a57f68dff,61036f04377eb09d6274ba59,2021-07-29_23h17.21.603,Simcolourproject_2stim_asymm_v5,2020.2.10,MacIntel,60,61025ae37ef11b136ea224fe,,,,,,,,,2097,-57,-33,1,0,0,response5disk,,2,-15,-3,1,0,0,rectangle,-15,-3,1,0,0,-15,-3,1,0,0,1,75,235,151,1,,,,,,,,
,,,,,,,,,,,,,FF,,,,,,,,0.7668,,,,,,,,,,,,,,,,,,,,,,61032bce6198732a57f68dff,61036f04377eb09d6274ba59,2021-07-29_23h17.21.603,Simcolourproject_2stim_asymm_v5,2020.2.10,MacIntel,60,61025ae37ef11b136ea224fe,,,,,,,,,2137,43,78,1,0,0,response1disk,,7,9,2,1,0,0,rectangle,9,2,1,0,0,9,2,1,0,0,1,76,236,18,1,,,,,,,,
,,,,,,,,,,,,,FF,,,,,,,,2.2804,,,,,,,,,,,,,,,,,,,,,,61032bce6198732a57f68dff,61036f04377eb09d6274ba59,2021-07-29_23h17.21.603,Simcolourproject_2stim_asymm_v5,2020.2.10,MacIntel,60,61025ae37ef11b136ea224fe,,,,,,,,,3736,-90,-49,1,0,0,response5disk,,2,-10,3,1,0,0,rectangle,-10,3,1,0,0,-10,3,1,0,0,1,77,237,123,1,,,,,,,,
,,,,,,,,,,,,,FF,,,,,,,,1.6682,,,,,,,,,,,,,,,,,,,,,,61032bce6198732a57f68dff,61036f04377eb09d6274ba59,2021-07-29_23h17.21.603,Simcolourproject_2stim_asymm_v5,2020.2.10,MacIntel,60,61025ae37ef11b136ea224fe,,,,,,,,,2645,51,-25,1,0,0,response3disk,,5,-6,5,1,0,0,rectangle,-6,5,1,0,0,-6,5,1,0,0,1,78,238,79,1,,,,,,,,
,,,,,,,,,,,,,FF,,,,,,,,1.083,,,,,,,,,,,,,,,,,,,,,,61032bce6198732a57f68dff,61036f04377eb09d6274ba59,2021-07-29_23h17.21.603,Simcolourproject_2stim_asymm_v5,2020.2.10,MacIntel,60,61025ae37ef11b136ea224fe,,,,,,,,,399,65,57,1,0,0,response1disk,,6,14,7,1,0,0,rectangle,78,-50,1,0,0,-15,4,1,0,0,1,79,239,92,1,,response3disk_3,TRUE,5,5,"[227,278,112,283,244,57,56,140,17,321,254,15,163,196,151,298,268,285,240,184]",1.4181,rectangle
,,,,,,,,,,,,,FF,,,,,,,,1.4502,,,,,,,,,,,,,,,,,,,,,,61032bce6198732a57f68dff,61036f04377eb09d6274ba59,2021-07-29_23h17.21.603,Simcolourproject_2stim_asymm_v5,2020.2.10,MacIntel,60,61025ae37ef11b136ea224fe,,,,,,,,,2797,34,-80,1,0,0,response3disk,,4,4,-1,1,0,0,rectangle,4,-1,1,0,0,4,-1,1,0,0,1,80,240,128,1,,,,,,,,
,,,,,,,,,,,,,FF,,,,,,,,0.9505,,,,,,,,,,,,,,,,,,,,,,61032bce6198732a57f68dff,61036f04377eb09d6274ba59,2021-07-29_23h17.21.603,Simcolourproject_2stim_asymm_v5,2020.2.10,MacIntel,60,61025ae37ef11b136ea224fe,,,,,,,,,994,61,-41,1,0,0,response3disk,,5,1,3,1,0,0,rectangle,1,3,1,0,0,1,3,1,0,0,1,81,241,24,1,,,,,,,,
,,,,,,,,,,,,,FF,,,,,,,,1.7678,,,,,,,,,,,,,,,,,,,,,,61032bce6198732a57f68dff,61036f04377eb09d6274ba59,2021-07-29_23h17.21.603,Simcolourproject_2stim_asymm_v5,2020.2.10,MacIntel,60,61025ae37ef11b136ea224fe,,,,,,,,,2945,-74,-85,1,0,0,response5disk,,3,-3,-4,1,0,0,rectangle,-3,-4,1,0,0,-3,-4,1,0,0,1,82,242,91,1,,,,,,,,
,,,,,,,,,,,,,FF,,,,,,,,1.6174,,,,,,,,,,,,,,,,,,,,,,61032bce6198732a57f68dff,61036f04377eb09d6274ba59,2021-07-29_23h17.21.603,Simcolourproject_2stim_asymm_v5,2020.2.10,MacIntel,60,61025ae37ef11b136ea224fe,,,,,,,,,2933,25,-78,1,0,0,response3disk,,4,11,10,1,0,0,rectangle,-75,-42,1,0,0,-18,3,1,0,0,1,83,243,44,1,,response5disk_3,TRUE,2,2,"[227,278,112,283,244,57,56,140,17,321,254,15,163,196,151,298,268,285,240,184]",1.7182,rectangle
,,,,,,,,,,,,,FF,,,,,,,,1.2375,,,,,,,,,,,,,,,,,,,,,,61032bce6198732a57f68dff,61036f04377eb09d6274ba59,2021-07-29_23h17.21.603,Simcolourproject_2stim_asymm_v5,2020.2.10,MacIntel,60,61025ae37ef11b136ea224fe,,,,,,,,,2666,-66,-42,1,0,0,response5disk,,2,-28,-3,1,0,0,rectangle,-28,-3,1,0,0,-28,-3,1,0,0,1,84,244,100,1,,,,,,,,
,,,,,,,,,,,,,FF,,,,,,,,1.0013,,,,,,,,,,,,,,,,,,,,,,61032bce6198732a57f68dff,61036f04377eb09d6274ba59,2021-07-29_23h17.21.603,Simcolourproject_2stim_asymm_v5,2020.2.10,MacIntel,60,61025ae37ef11b136ea224fe,,,,,,,,,2401,81,27,1,0,0,response1disk,,6,-3,1,1,0,0,rectangle,-3,1,1,0,0,-3,1,1,0,0,1,85,245,17,1,,,,,,,,
,,,,,,,,,,,,,FF,,,,,,,,1.2698,,,,,,,,,,,,,,,,,,,,,,61032bce6198732a57f68dff,61036f04377eb09d6274ba59,2021-07-29_23h17.21.603,Simcolourproject_2stim_asymm_v5,2020.2.10,MacIntel,60,61025ae37ef11b136ea224fe,,,,,,,,,3661,-29,-68,1,0,0,response5disk,,3,-9,6,1,0,0,rectangle,-9,6,1,0,0,-9,6,1,0,0,1,86,246,86,1,,,,,,,,
,,,,,,,,,,,,,FF,,,,,,,,1.0338,,,,,,,,,,,,,,,,,,,,,,61032bce6198732a57f68dff,61036f04377eb09d6274ba59,2021-07-29_23h17.21.603,Simcolourproject_2stim_asymm_v5,2020.2.10,MacIntel,60,61025ae37ef11b136ea224fe,,,,,,,,,238,23,61,1,0,0,response1disk,,7,-2,-3,1,0,0,rectangle,-2,-3,1,0,0,-2,-3,1,0,0,1,87,247,39,1,,,,,,,,
,,,,,,,,,,,,,FF,,,,,,,,1.9078,,,,,,,,,,,,,,,,,,,,,,61032bce6198732a57f68dff,61036f04377eb09d6274ba59,2021-07-29_23h17.21.603,Simcolourproject_2stim_asymm_v5,2020.2.10,MacIntel,60,61025ae37ef11b136ea224fe,,,,,,,,,1078,25,-73,1,0,0,response3disk,,4,5,2,1,0,0,rectangle,5,2,1,0,0,5,2,1,0,0,1,88,248,142,1,,,,,,,,
,,,,,,,,,,,,,FF,,,,,,,,1.2004,,,,,,,,,,,,,,,,,,,,,,61032bce6198732a57f68dff,61036f04377eb09d6274ba59,2021-07-29_23h17.21.603,Simcolourproject_2stim_asymm_v5,2020.2.10,MacIntel,60,61025ae37ef11b136ea224fe,,,,,,,,,1733,58,37,1,0,0,response1disk,,6,-4,7,1,0,0,rectangle,-4,7,1,0,0,-4,7,1,0,0,1,89,249,52,1,,,,,,,,
,,,,,,,,,,,,,FF,,,,,,,,1.1012,,,,,,,,,,,,,,,,,,,,,,61032bce6198732a57f68dff,61036f04377eb09d6274ba59,2021-07-29_23h17.21.603,Simcolourproject_2stim_asymm_v5,2020.2.10,MacIntel,60,61025ae37ef11b136ea224fe,,,,,,,,,1830,37,-79,1,0,0,response3disk,,4,2,-5,1,0,0,rectangle,2,-5,1,0,0,2,-5,1,0,0,1,90,250,58,1,,,,,,,,
,,,,,,,,,,,,,FF,,,,,,,,1.4673,,,,,,,,,,,,,,,,,,,,,,61032bce6198732a57f68dff,61036f04377eb09d6274ba59,2021-07-29_23h17.21.603,Simcolourproject_2stim_asymm_v5,2020.2.10,MacIntel,60,61025ae37ef11b136ea224fe,,,,,,,,,1173,62,-31,1,0,0,response3disk,,5,12,-1,1,0,0,rectangle,12,-1,1,0,0,12,-1,1,0,0,1,91,251,64,1,,,,,,,,
,,,,,,,,,,,,,FF,,,,,,,,1.5684,,,,,,,,,,,,,,,,,,,,,,61032bce6198732a57f68dff,61036f04377eb09d6274ba59,2021-07-29_23h17.21.603,Simcolourproject_2stim_asymm_v5,2020.2.10,MacIntel,60,61025ae37ef11b136ea224fe,,,,,,,,,532,-77,-38,1,0,0,response5disk,,2,-3,10,1,0,0,rectangle,-3,10,1,0,0,-3,10,1,0,0,1,92,252,85,1,,,,,,,,
,,,,,,,,,,,,,FF,,,,,,,,1.6534,,,,,,,,,,,,,,,,,,,,,,61032bce6198732a57f68dff,61036f04377eb09d6274ba59,2021-07-29_23h17.21.603,Simcolourproject_2stim_asymm_v5,2020.2.10,MacIntel,60,61025ae37ef11b136ea224fe,,,,,,,,,3569,54,74,1,0,0,response1disk,,7,2,5,1,0,0,rectangle,-77,-37,1,0,0,-21,-5,1,0,0,1,93,253,84,1,,response5disk_3,TRUE,2,2,"[227,278,112,283,244,57,56,140,17,321,254,15,163,196,151,298,268,285,240,184]",1.8189,rectangle
,,,,,,,,,,,,,FF,,,,,,,,1.0532,,,,,,,,,,,,,,,,,,,,,,61032bce6198732a57f68dff,61036f04377eb09d6274ba59,2021-07-29_23h17.21.603,Simcolourproject_2stim_asymm_v5,2020.2.10,MacIntel,60,61025ae37ef11b136ea224fe,,,,,,,,,2742,28,-77,1,0,0,response3disk,,4,0,3,1,0,0,rectangle,0,3,1,0,0,0,3,1,0,0,1,94,254,35,1,,,,,,,,
,,,,,,,,,,,,,FF,,,,,,,,0.7994,,,,,,,,,,,,,,,,,,,,,,61032bce6198732a57f68dff,61036f04377eb09d6274ba59,2021-07-29_23h17.21.603,Simcolourproject_2stim_asymm_v5,2020.2.10,MacIntel,60,61025ae37ef11b136ea224fe,,,,,,,,,3929,28,36,1,0,0,response1disk,,7,-8,6,1,0,0,rectangle,-8,6,1,0,0,-8,6,1,0,0,1,95,255,98,1,,,,,,,,
,,,,,,,,,,,,,FF,,,,,,,,1.2682,,,,,,,,,,,,,,,,,,,,,,61032bce6198732a57f68dff,61036f04377eb09d6274ba59,2021-07-29_23h17.21.603,Simcolourproject_2stim_asymm_v5,2020.2.10,MacIntel,60,61025ae37ef11b136ea224fe,,,,,,,,,2347,61,39,1,0,0,response1disk,,6,-11,-5,1,0,0,rectangle,-11,-5,1,0,0,-11,-5,1,0,0,1,96,256,43,1,,,,,,,,
,,,,,,,,,,,,,FF,,,,,,,,1.0853,,,,,,,,,,,,,,,,,,,,,,61032bce6198732a57f68dff,61036f04377eb09d6274ba59,2021-07-29_23h17.21.603,Simcolourproject_2stim_asymm_v5,2020.2.10,MacIntel,60,61025ae37ef11b136ea224fe,,,,,,,,,3068,67,38,1,0,0,response1disk,,6,2,2,1,0,0,rectangle,2,2,1,0,0,2,2,1,0,0,1,97,257,88,1,,,,,,,,
,,,,,,,,,,,,,FF,,,,,,,,1.6668,,,,,,,,,,,,,,,,,,,,,,61032bce6198732a57f68dff,61036f04377eb09d6274ba59,2021-07-29_23h17.21.603,Simcolourproject_2stim_asymm_v5,2020.2.10,MacIntel,60,61025ae37ef11b136ea224fe,,,,,,,,,1289,84,30,1,0,0,response1disk,,6,5,-9,1,0,0,rectangle,5,-9,1,0,0,5,-9,1,0,0,1,98,258,110,1,,,,,,,,
,,,,,,,,,,,,,FF,,,,,,,,0.8496,,,,,,,,,,,,,,,,,,,,,,61032bce6198732a57f68dff,61036f04377eb09d6274ba59,2021-07-29_23h17.21.603,Simcolourproject_2stim_asymm_v5,2020.2.10,MacIntel,60,61025ae37ef11b136ea224fe,,,,,,,,,1866,61,29,1,0,0,response1disk,,6,9,5,1,0,0,rectangle,9,5,1,0,0,9,5,1,0,0,1,99,259,31,1,,,,,,,,
,,,,,,,,,,,,,FF,,,,,,,,1.3685,,,,,,,,,,,,,,,,,,,,,,61032bce6198732a57f68dff,61036f04377eb09d6274ba59,2021-07-29_23h17.21.603,Simcolourproject_2stim_asymm_v5,2020.2.10,MacIntel,60,61025ae37ef11b136ea224fe,,,,,,,,,3337,55,27,1,0,0,response1disk,,6,-3,5,1,0,0,rectangle,-3,5,1,0,0,-3,5,1,0,0,1,100,260,51,1,,,,,,,,
,,,,,,,,,,,,,FF,,,,,,,,1.1013,,,,,,,,,,,,,,,,,,,,,,61032bce6198732a57f68dff,61036f04377eb09d6274ba59,2021-07-29_23h17.21.603,Simcolourproject_2stim_asymm_v5,2020.2.10,MacIntel,60,61025ae37ef11b136ea224fe,,,,,,,,,2279,59,38,1,0,0,response1disk,,6,-5,1,1,0,0,rectangle,-5,1,1,0,0,-5,1,1,0,0,1,101,261,38,1,,,,,,,,
,,,,,,,,,,,,,FF,,,,,,,,2.5857,,,,,,,,,,,,,,,,,,,,,,61032bce6198732a57f68dff,61036f04377eb09d6274ba59,2021-07-29_23h17.21.603,Simcolourproject_2stim_asymm_v5,2020.2.10,MacIntel,60,61025ae37ef11b136ea224fe,,,,,,,,,1681,-45,-83,1,0,0,response5disk,,3,-9,-1,1,0,0,rectangle,-9,-1,1,0,0,-9,-1,1,0,0,1,102,262,102,1,,,,,,,,
,,,,,,,,,,,,,FF,,,,,,,,1.033,,,,,,,,,,,,,,,,,,,,,,61032bce6198732a57f68dff,61036f04377eb09d6274ba59,2021-07-29_23h17.21.603,Simcolourproject_2stim_asymm_v5,2020.2.10,MacIntel,60,61025ae37ef11b136ea224fe,,,,,,,,,1882,41,69,1,0,0,response1disk,,7,10,2,1,0,0,rectangle,10,2,1,0,0,10,2,1,0,0,1,103,263,16,1,,,,,,,,
,,,,,,,,,,,,,FF,,,,,,,,1.3503,,,,,,,,,,,,,,,,,,,,,,61032bce6198732a57f68dff,61036f04377eb09d6274ba59,2021-07-29_23h17.21.603,Simcolourproject_2stim_asymm_v5,2020.2.10,MacIntel,60,61025ae37ef11b136ea224fe,,,,,,,,,4166,-72,-26,1,0,0,response5disk,,2,-16,11,1,0,0,rectangle,-16,11,1,0,0,-16,11,1,0,0,1,104,264,49,1,,,,,,,,
,,,,,,,,,,,,,FF,,,,,,,,1.1341,,,,,,,,,,,,,,,,,,,,,,61032bce6198732a57f68dff,61036f04377eb09d6274ba59,2021-07-29_23h17.21.603,Simcolourproject_2stim_asymm_v5,2020.2.10,MacIntel,60,61025ae37ef11b136ea224fe,,,,,,,,,527,-61,-43,1,0,0,response5disk,,2,-2,-4,1,0,0,rectangle,-2,-4,1,0,0,-2,-4,1,0,0,1,105,265,57,1,,,,,,,,
,,,,,,,,,,,,,FF,,,,,,,,1.5013,,,,,,,,,,,,,,,,,,,,,,61032bce6198732a57f68dff,61036f04377eb09d6274ba59,2021-07-29_23h17.21.603,Simcolourproject_2stim_asymm_v5,2020.2.10,MacIntel,60,61025ae37ef11b136ea224fe,,,,,,,,,4030,34,-77,1,0,0,response3disk,,4,1,-5,1,0,0,rectangle,1,-5,1,0,0,1,-5,1,0,0,1,106,266,121,1,,,,,,,,
,,,,,,,,,,,,,FF,,,,,,,,0.8521,,,,,,,,,,,,,,,,,,,,,,61032bce6198732a57f68dff,61036f04377eb09d6274ba59,2021-07-29_23h17.21.603,Simcolourproject_2stim_asymm_v5,2020.2.10,MacIntel,60,61025ae37ef11b136ea224fe,,,,,,,,,3925,31,75,1,0,0,response1disk,,7,-3,-2,1,0,0,rectangle,77,-31,1,0,0,-3,-7,1,0,0,1,107,267,126,1,,response3disk_3,TRUE,5,5,"[227,278,112,283,244,57,56,140,17,321,254,15,163,196,151,298,268,285,240,184]",1.2679,rectangle
,,,,,,,,,,,,,FF,,,,,,,,1.0345,,,,,,,,,,,,,,,,,,,,,,61032bce6198732a57f68dff,61036f04377eb09d6274ba59,2021-07-29_23h17.21.603,Simcolourproject_2stim_asymm_v5,2020.2.10,MacIntel,60,61025ae37ef11b136ea224fe,,,,,,,,,2727,-39,-50,1,0,0,response5disk,,3,-4,2,1,0,0,rectangle,-4,2,1,0,0,-4,2,1,0,0,1,108,268,78,1,,,,,,,,
,,,,,,,,,,,,,FF,,,,,,,,1.3519,,,,,,,,,,,,,,,,,,,,,,61032bce6198732a57f68dff,61036f04377eb09d6274ba59,2021-07-29_23h17.21.603,Simcolourproject_2stim_asymm_v5,2020.2.10,MacIntel,60,61025ae37ef11b136ea224fe,,,,,,,,,397,69,-34,1,0,0,response3disk,,5,-4,8,1,0,0,rectangle,-4,8,1,0,0,-4,8,1,0,0,1,109,269,29,1,,,,,,,,
,,,,,,,,,,,,,FF,,,,,,,,1.052,,,,,,,,,,,,,,,,,,,,,,61032bce6198732a57f68dff,61036f04377eb09d6274ba59,2021-07-29_23h17.21.603,Simcolourproject_2stim_asymm_v5,2020.2.10,MacIntel,60,61025ae37ef11b136ea224fe,,,,,,,,,3149,-26,-91,1,0,0,response5disk,,3,-2,1,1,0,0,rectangle,-2,1,1,0,0,-2,1,1,0,0,1,110,270,53,1,,,,,,,,
,,,,,,,,,,,,,FF,,,,,,,,1.7163,,,,,,,,,,,,,,,,,,,,,,61032bce6198732a57f68dff,61036f04377eb09d6274ba59,2021-07-29_23h17.21.603,Simcolourproject_2stim_asymm_v5,2020.2.10,MacIntel,60,61025ae37ef11b136ea224fe,,,,,,,,,2073,50,81,1,0,0,response1disk,,7,2,7,1,0,0,rectangle,2,7,1,0,0,2,7,1,0,0,1,111,271,0,1,,,,,,,,
,,,,,,,,,,,,,FF,,,,,,,,1.1948,,,,,,,,,,,,,,,,,,,,,,61032bce6198732a57f68dff,61036f04377eb09d6274ba59,2021-07-29_23h17.21.603,Simcolourproject_2stim_asymm_v5,2020.2.10,MacIntel,60,61025ae37ef11b136ea224fe,,,,,,,,,2617,25,65,1,0,0,response1disk,,7,-9,-10,1,0,0,rectangle,-9,-10,1,0,0,-9,-10,1,0,0,1,112,272,48,1,,,,,,,,
,,,,,,,,,,,,,FF,,,,,,,,2.0866,,,,,,,,,,,,,,,,,,,,,,61032bce6198732a57f68dff,61036f04377eb09d6274ba59,2021-07-29_23h17.21.603,Simcolourproject_2stim_asymm_v5,2020.2.10,MacIntel,60,61025ae37ef11b136ea224fe,,,,,,,,,1575,76,-46,1,0,0,response3disk,,5,8,-2,1,0,0,rectangle,8,-2,1,0,0,8,-2,1,0,0,1,113,273,143,1,,,,,,,,
,,,,,,,,,,,,,FF,,,,,,,,2.9856,,,,,,,,,,,,,,,,,,,,,,61032bce6198732a57f68dff,61036f04377eb09d6274ba59,2021-07-29_23h17.21.603,Simcolourproject_2stim_asymm_v5,2020.2.10,MacIntel,60,61025ae37ef11b136ea224fe,,,,,,,,,3143,70,-39,1,0,0,response3disk,,5,8,6,1,0,0,rectangle,8,6,1,0,0,8,6,1,0,0,1,114,274,104,1,,,,,,,,
,,,,,,,,,,,,,FF,,,,,,,,2.569,,,,,,,,,,,,,,,,,,,,,,61032bce6198732a57f68dff,61036f04377eb09d6274ba59,2021-07-29_23h17.21.603,Simcolourproject_2stim_asymm_v5,2020.2.10,MacIntel,60,61025ae37ef11b136ea224fe,,,,,,,,,665,39,-77,1,0,0,response3disk,,4,-3,-4,1,0,0,rectangle,-3,-4,1,0,0,-3,-4,1,0,0,1,115,275,124,1,,,,,,,,
,,,,,,,,,,,,,FF,,,,,,,,1.5208,,,,,,,,,,,,,,,,,,,,,,61032bce6198732a57f68dff,61036f04377eb09d6274ba59,2021-07-29_23h17.21.603,Simcolourproject_2stim_asymm_v5,2020.2.10,MacIntel,60,61025ae37ef11b136ea224fe,,,,,,,,,144,73,-29,1,0,0,response3disk,,5,-9,10,1,0,0,rectangle,-9,10,1,0,0,-9,10,1,0,0,1,116,276,125,1,,,,,,,,
,,,,,,,,,,,,,FF,,,,,,,,0.9021,,,,,,,,,,,,,,,,,,,,,,61032bce6198732a57f68dff,61036f04377eb09d6274ba59,2021-07-29_23h17.21.603,Simcolourproject_2stim_asymm_v5,2020.2.10,MacIntel,60,61025ae37ef11b136ea224fe,,,,,,,,,764,56,76,1,0,0,response1disk,,7,10,5,1,0,0,rectangle,83,56,1,0,0,11,1,1,0,0,1,117,277,69,1,,response1disk_3,TRUE,6,6,"[227,278,112,283,244,57,56,140,17,321,254,15,163,196,151,298,268,285,240,184]",1.9521,rectangle
,,,,,,,,,,,,,FF,,,,,,,,2.4029,,,,,,,,,,,,,,,,,,,,,,61032bce6198732a57f68dff,61036f04377eb09d6274ba59,2021-07-29_23h17.21.603,Simcolourproject_2stim_asymm_v5,2020.2.10,MacIntel,60,61025ae37ef11b136ea224fe,,,,,,,,,4093,76,-43,1,0,0,response3disk,,5,-10,-3,1,0,0,rectangle,-10,-3,1,0,0,-10,-3,1,0,0,1,118,278,15,1,,,,,,,,
,,,,,,,,,,,,,FF,,,,,,,,1.5522,,,,,,,,,,,,,,,,,,,,,,61032bce6198732a57f68dff,61036f04377eb09d6274ba59,2021-07-29_23h17.21.603,Simcolourproject_2stim_asymm_v5,2020.2.10,MacIntel,60,61025ae37ef11b136ea224fe,,,,,,,,,3423,-69,-52,1,0,0,response5disk,,2,-10,-4,1,0,0,rectangle,-10,-4,1,0,0,-10,-4,1,0,0,1,119,279,13,1,,,,,,,,
,,,,,,,,,,,,,FF,,,,,,,,1.1412,,,,,,,,,,,,,,,,,,,,,,61032bce6198732a57f68dff,61036f04377eb09d6274ba59,2021-07-29_23h17.21.603,Simcolourproject_2stim_asymm_v5,2020.2.10,MacIntel,60,61025ae37ef11b136ea224fe,,,,,,,,,1219,-42,-78,1,0,0,response5disk,,3,6,-9,1,0,0,rectangle,6,-9,1,0,0,6,-9,1,0,0,1,120,280,141,1,,,,,,,,
,,,,,,,,,,,,,FF,,,,,,,,1.7186,,,,,,,,,,,,,,,,,,,,,,61032bce6198732a57f68dff,61036f04377eb09d6274ba59,2021-07-29_23h17.21.603,Simcolourproject_2stim_asymm_v5,2020.2.10,MacIntel,60,61025ae37ef11b136ea224fe,,,,,,,,,2376,79,-48,1,0,0,response3disk,,5,-5,-5,1,0,0,rectangle,-5,-5,1,0,0,-5,-5,1,0,0,1,121,281,140,1,,,,,,,,
,,,,,,,,,,,,,FF,,,,,,,,1.1704,,,,,,,,,,,,,,,,,,,,,,61032bce6198732a57f68dff,61036f04377eb09d6274ba59,2021-07-29_23h17.21.603,Simcolourproject_2stim_asymm_v5,2020.2.10,MacIntel,60,61025ae37ef11b136ea224fe,,,,,,,,,1071,27,-77,1,0,0,response3disk,,4,-8,-2,1,0,0,rectangle,30,103,1,0,0,5,2,1,0,0,1,122,282,41,1,,response1disk_3,TRUE,7,7,"[227,278,112,283,244,57,56,140,17,321,254,15,163,196,151,298,268,285,240,184]",2.1327,rectangle
,,,,,,,,,,,,,FF,,,,,,,,1.2352,,,,,,,,,,,,,,,,,,,,,,61032bce6198732a57f68dff,61036f04377eb09d6274ba59,2021-07-29_23h17.21.603,Simcolourproject_2stim_asymm_v5,2020.2.10,MacIntel,60,61025ae37ef11b136ea224fe,,,,,,,,,2459,71,-55,1,0,0,response3disk,,5,-2,1,1,0,0,rectangle,-2,1,1,0,0,-2,1,1,0,0,1,123,283,21,1,,,,,,,,
,,,,,,,,,,,,,FF,,,,,,,,0.9396,,,,,,,,,,,,,,,,,,,,,,61032bce6198732a57f68dff,61036f04377eb09d6274ba59,2021-07-29_23h17.21.603,Simcolourproject_2stim_asymm_v5,2020.2.10,MacIntel,60,61025ae37ef11b136ea224fe,,,,,,,,,1905,35,-68,1,0,0,response3disk,,4,-3,9,1,0,0,rectangle,-43,-75,1,0,0,-8,1,1,0,0,1,124,284,127,1,,response5disk_3,TRUE,3,3,"[227,278,112,283,244,57,56,140,17,321,254,15,163,196,151,298,268,285,240,184]",1.6027,rectangle
,,,,,,,,,,,,,FF,,,,,,,,1.6354,,,,,,,,,,,,,,,,,,,,,,61032bce6198732a57f68dff,61036f04377eb09d6274ba59,2021-07-29_23h17.21.603,Simcolourproject_2stim_asymm_v5,2020.2.10,MacIntel,60,61025ae37ef11b136ea224fe,,,,,,,,,3453,38,-72,1,0,0,response3disk,,4,-6,-9,1,0,0,rectangle,-6,-9,1,0,0,-6,-9,1,0,0,1,125,285,1,1,,,,,,,,
,,,,,,,,,,,,,FF,,,,,,,,2.4173,,,,,,,,,,,,,,,,,,,,,,61032bce6198732a57f68dff,61036f04377eb09d6274ba59,2021-07-29_23h17.21.603,Simcolourproject_2stim_asymm_v5,2020.2.10,MacIntel,60,61025ae37ef11b136ea224fe,,,,,,,,,4167,-54,-80,1,0,0,response5disk,,3,-3,6,1,0,0,rectangle,-3,6,1,0,0,-3,6,1,0,0,1,126,286,152,1,,,,,,,,
,,,,,,,,,,,,,FF,,,,,,,,2.3698,,,,,,,,,,,,,,,,,,,,,,61032bce6198732a57f68dff,61036f04377eb09d6274ba59,2021-07-29_23h17.21.603,Simcolourproject_2stim_asymm_v5,2020.2.10,MacIntel,60,61025ae37ef11b136ea224fe,,,,,,,,,2984,43,-74,1,0,0,response3disk,,4,-8,-5,1,0,0,rectangle,-8,-5,1,0,0,-8,-5,1,0,0,1,127,287,136,1,,,,,,,,
,,,,,,,,,,,,,FF,,,,,,,,1.0328,,,,,,,,,,,,,,,,,,,,,,61032bce6198732a57f68dff,61036f04377eb09d6274ba59,2021-07-29_23h17.21.603,Simcolourproject_2stim_asymm_v5,2020.2.10,MacIntel,60,61025ae37ef11b136ea224fe,,,,,,,,,440,-64,-35,1,0,0,response5disk,,2,-17,8,1,0,0,rectangle,-17,8,1,0,0,-17,8,1,0,0,1,128,288,32,1,,,,,,,,
,,,,,,,,,,,,,FF,,,,,,,,0.9668,,,,,,,,,,,,,,,,,,,,,,61032bce6198732a57f68dff,61036f04377eb09d6274ba59,2021-07-29_23h17.21.603,Simcolourproject_2stim_asymm_v5,2020.2.10,MacIntel,60,61025ae37ef11b136ea224fe,,,,,,,,,4001,-81,-26,1,0,0,response5disk,,2,-11,5,1,0,0,rectangle,-11,5,1,0,0,-11,5,1,0,0,1,129,289,68,1,,,,,,,,
,,,,,,,,,,,,,FF,,,,,,,,1.0352,,,,,,,,,,,,,,,,,,,,,,61032bce6198732a57f68dff,61036f04377eb09d6274ba59,2021-07-29_23h17.21.603,Simcolourproject_2stim_asymm_v5,2020.2.10,MacIntel,60,61025ae37ef11b136ea224fe,,,,,,,,,4353,-61,-31,1,0,0,response5disk,,2,-17,0,1,0,0,rectangle,-17,0,1,0,0,-17,0,1,0,0,1,130,290,114,1,,,,,,,,
,,,,,,,,,,,,,FF,,,,,,,,1.2353,,,,,,,,,,,,,,,,,,,,,,61032bce6198732a57f68dff,61036f04377eb09d6274ba59,2021-07-29_23h17.21.603,Simcolourproject_2stim_asymm_v5,2020.2.10,MacIntel,60,61025ae37ef11b136ea224fe,,,,,,,,,1662,40,-68,1,0,0,response3disk,,4,4,-4,1,0,0,rectangle,4,-4,1,0,0,4,-4,1,0,0,1,131,291,109,1,,,,,,,,
,,,,,,,,,,,,,FF,,,,,,,,1.1508,,,,,,,,,,,,,,,,,,,,,,61032bce6198732a57f68dff,61036f04377eb09d6274ba59,2021-07-29_23h17.21.603,Simcolourproject_2stim_asymm_v5,2020.2.10,MacIntel,60,61025ae37ef11b136ea224fe,,,,,,,,,1083,79,58,1,0,0,response1disk,,6,-8,-1,1,0,0,rectangle,-8,-1,1,0,0,-8,-1,1,0,0,1,132,292,83,1,,,,,,,,
,,,,,,,,,,,,,FF,,,,,,,,1.102,,,,,,,,,,,,,,,,,,,,,,61032bce6198732a57f68dff,61036f04377eb09d6274ba59,2021-07-29_23h17.21.603,Simcolourproject_2stim_asymm_v5,2020.2.10,MacIntel,60,61025ae37ef11b136ea224fe,,,,,,,,,1832,16,-66,1,0,0,response3disk,,4,-7,0,1,0,0,rectangle,-7,0,1,0,0,-7,0,1,0,0,1,133,293,9,1,,,,,,,,
,,,,,,,,,,,,,FF,,,,,,,,0.8844,,,,,,,,,,,,,,,,,,,,,,61032bce6198732a57f68dff,61036f04377eb09d6274ba59,2021-07-29_23h17.21.603,Simcolourproject_2stim_asymm_v5,2020.2.10,MacIntel,60,61025ae37ef11b136ea224fe,,,,,,,,,3711,-52,-56,1,0,0,response5disk,,3,5,-5,1,0,0,rectangle,5,-5,1,0,0,5,-5,1,0,0,1,134,294,2,1,,,,,,,,
,,,,,,,,,,,,,FF,,,,,,,,1.0151,,,,,,,,,,,,,,,,,,,,,,61032bce6198732a57f68dff,61036f04377eb09d6274ba59,2021-07-29_23h17.21.603,Simcolourproject_2stim_asymm_v5,2020.2.10,MacIntel,60,61025ae37ef11b136ea224fe,,,,,,,,,2900,-34,-63,1,0,0,response5disk,,3,-4,-3,1,0,0,rectangle,-4,-3,1,0,0,-4,-3,1,0,0,1,135,295,134,1,,,,,,,,
,,,,,,,,,,,,,FF,,,,,,,,1.0855,,,,,,,,,,,,,,,,,,,,,,61032bce6198732a57f68dff,61036f04377eb09d6274ba59,2021-07-29_23h17.21.603,Simcolourproject_2stim_asymm_v5,2020.2.10,MacIntel,60,61025ae37ef11b136ea224fe,,,,,,,,,3416,41,72,1,0,0,response1disk,,7,10,3,1,0,0,rectangle,10,3,1,0,0,10,3,1,0,0,1,136,296,133,1,,,,,,,,
,,,,,,,,,,,,,FF,,,,,,,,1.2508,,,,,,,,,,,,,,,,,,,,,,61032bce6198732a57f68dff,61036f04377eb09d6274ba59,2021-07-29_23h17.21.603,Simcolourproject_2stim_asymm_v5,2020.2.10,MacIntel,60,61025ae37ef11b136ea224fe,,,,,,,,,2141,29,85,1,0,0,response1disk,,7,-12,2,1,0,0,rectangle,91,-25,1,0,0,-7,-4,1,0,0,1,137,297,117,1,,response3disk_3,TRUE,5,5,"[227,278,112,283,244,57,56,140,17,321,254,15,163,196,151,298,268,285,240,184]",1.3,rectangle
,,,,,,,,,,,,,FF,,,,,,,,1.2352,,,,,,,,,,,,,,,,,,,,,,61032bce6198732a57f68dff,61036f04377eb09d6274ba59,2021-07-29_23h17.21.603,Simcolourproject_2stim_asymm_v5,2020.2.10,MacIntel,60,61025ae37ef11b136ea224fe,,,,,,,,,193,-35,-66,1,0,0,response5disk,,3,-15,1,1,0,0,rectangle,-15,1,1,0,0,-15,1,1,0,0,1,138,298,62,1,,,,,,,,
