key_resp.keys,key_resp.rt,key_resp_14.keys,key_resp_14.rt,key_resp_15.keys,key_resp_15.rt,key_resp_17.keys,key_resp_17.rt,key_resp_9.keys,key_resp_9.rt,key_resp_10.keys,key_resp_10.rt,practice_comparison,Ecc,mouse_5.x,mouse_5.y,mouse_5.leftButton,mouse_5.midButton,mouse_5.rightButton,mouse_5.clicked_name,pracsimilarity,response_time,mouse_10.x,mouse_10.y,mouse_10.leftButton,mouse_10.midButton,mouse_10.rightButton,mouse_10.clicked_name,mouse_7.x,mouse_7.y,mouse_7.leftButton,mouse_7.midButton,mouse_7.rightButton,mouse_6.x,mouse_6.y,mouse_6.leftButton,mouse_6.midButton,mouse_6.rightButton,duringprac.thisRepN,duringprac.thisTrialN,duringprac.thisN,duringprac.thisIndex,duringprac.ran,participant,session,date,expName,psychopyVersion,OS,frameRate,study_id,mouse_7.clicked_name,catchpracsimilarity,catch_response_time,catchnumberprac,catchtrialorderprac,mouse_6.clicked_name,key_resp_22.keys,key_resp_22.rt,realcomparison,mouse.x,mouse.y,mouse.leftButton,mouse.midButton,mouse.rightButton,mouse.clicked_name,Colour2,similarity,mouse_2.x,mouse_2.y,mouse_2.leftButton,mouse_2.midButton,mouse_2.rightButton,mouse_2.clicked_name,mouse_3.x,mouse_3.y,mouse_3.leftButton,mouse_3.midButton,mouse_3.rightButton,mouse_11.x,mouse_11.y,mouse_11.leftButton,mouse_11.midButton,mouse_11.rightButton,trials_2.thisRepN,trials_2.thisTrialN,trials_2.thisN,trials_2.thisIndex,trials_2.ran,Colour1,mouse_3.clicked_name,catchornah,catchsimilarity,catchnumber,catchtrialorder,catchRT,mouse_11.clicked_name
space,1.6753,space,5.6965,space,10.7802,space,2.5864,space,1.0543,space,4.3585,62,PF,-103,-66,1,0,0,response5disk_5,2,4.572,29,-2,1,0,0,rectangle_8,29,-2,1,0,0,29,-2,1,0,0,0,0,0,4,1,61035cde69aaa4298e4e3dd1,610367388d2d09ec85bb0ae4,2021-07-29_21h43.48.147,Simcolourproject_2stim_asymm_v5,2020.2.10,Win32,60,61025ae37ef11b136ea224fe,,,,,,,,,,,,,,,,,,,,,,,,,,,,,,,,,,,,,,,,,,,,,,
,,,,,,,,,,,,11,FF,-60,-145,1,0,0,response5disk_5,3,9.7254,11,-9,1,0,0,rectangle_8,-110,54,1,0,0,14,-6,1,0,0,0,1,1,3,1,61035cde69aaa4298e4e3dd1,610367388d2d09ec85bb0ae4,2021-07-29_21h43.48.147,Simcolourproject_2stim_asymm_v5,2020.2.10,Win32,60,61025ae37ef11b136ea224fe,response7disk_7,1,3.6546,1,"[2,5]",rectangle_4,,,,,,,,,,,,,,,,,,,,,,,,,,,,,,,,,,,,,,,,
,,,,,,,,,,,,32,FF,103,-52,1,0,0,response3disk_5,5,3.2199,9,-4,1,0,0,rectangle_8,9,-4,1,0,0,9,-4,1,0,0,0,2,2,5,1,61035cde69aaa4298e4e3dd1,610367388d2d09ec85bb0ae4,2021-07-29_21h43.48.147,Simcolourproject_2stim_asymm_v5,2020.2.10,Win32,60,61025ae37ef11b136ea224fe,,,,,,,,,,,,,,,,,,,,,,,,,,,,,,,,,,,,,,,,,,,,,,
,,,,,,,,,,,,3,PF,130,-84,1,0,0,response3disk_5,5,5.6845,7,13,1,0,0,rectangle_8,7,13,1,0,0,7,13,1,0,0,0,3,3,1,1,61035cde69aaa4298e4e3dd1,610367388d2d09ec85bb0ae4,2021-07-29_21h43.48.147,Simcolourproject_2stim_asymm_v5,2020.2.10,Win32,60,61025ae37ef11b136ea224fe,,,,,,,,,,,,,,,,,,,,,,,,,,,,,,,,,,,,,,,,,,,,,,
,,,,,,,,,,,,140,PF,128,43,1,0,0,response1disk_5,6,2.4074,5,-7,1,0,0,rectangle_8,-137,50,1,0,0,-3,-5,1,0,0,0,4,4,2,1,61035cde69aaa4298e4e3dd1,610367388d2d09ec85bb0ae4,2021-07-29_21h43.48.147,Simcolourproject_2stim_asymm_v5,2020.2.10,Win32,60,61025ae37ef11b136ea224fe,response7disk_7,1,1.8686,1,"[2,5]",rectangle_4,,,,,,,,,,,,,,,,,,,,,,,,,,,,,,,,,,,,,,,,
,,,,,,,,,,,,83,PF,-68,116,1,0,0,response7disk_5,0,3.4988,19,2,1,0,0,rectangle_8,19,2,1,0,0,19,2,1,0,0,0,5,5,6,1,61035cde69aaa4298e4e3dd1,610367388d2d09ec85bb0ae4,2021-07-29_21h43.48.147,Simcolourproject_2stim_asymm_v5,2020.2.10,Win32,60,61025ae37ef11b136ea224fe,,,,,,,,,,,,,,,,,,,,,,,,,,,,,,,,,,,,,,,,,,,,,,
,,,,,,,,,,,,17,FF,82,-106,1,0,0,response3disk_5,4,2.9533,-9,1,1,0,0,rectangle_8,-9,1,1,0,0,-9,1,1,0,0,0,6,6,0,1,61035cde69aaa4298e4e3dd1,610367388d2d09ec85bb0ae4,2021-07-29_21h43.48.147,Simcolourproject_2stim_asymm_v5,2020.2.10,Win32,60,61025ae37ef11b136ea224fe,,,,,,,,,,,,,,,,,,,,,,,,,,,,,,,,,,,,,,,,,,,,,,
,,,,,,,,,,,,,FF,,,,,,,,7.1915,,,,,,,,,,,,,,,,,,,,,,61035cde69aaa4298e4e3dd1,610367388d2d09ec85bb0ae4,2021-07-29_21h43.48.147,Simcolourproject_2stim_asymm_v5,2020.2.10,Win32,60,61025ae37ef11b136ea224fe,,,,,,,space,5.0872,3946,143,-52,1,0,0,response3disk,,5,10,-9,1,0,0,rectangle,10,-9,1,0,0,10,-9,1,0,0,0,0,0,151,1,,,,,,,,
,,,,,,,,,,,,,FF,,,,,,,,6.2396,,,,,,,,,,,,,,,,,,,,,,61035cde69aaa4298e4e3dd1,610367388d2d09ec85bb0ae4,2021-07-29_21h43.48.147,Simcolourproject_2stim_asymm_v5,2020.2.10,Win32,60,61025ae37ef11b136ea224fe,,,,,,,,,1135,123,62,1,0,0,response1disk,,6,5,-6,1,0,0,rectangle,5,-6,1,0,0,5,-6,1,0,0,0,1,1,84,1,,,,,,,,
,,,,,,,,,,,,,FF,,,,,,,,3.4706,,,,,,,,,,,,,,,,,,,,,,61035cde69aaa4298e4e3dd1,610367388d2d09ec85bb0ae4,2021-07-29_21h43.48.147,Simcolourproject_2stim_asymm_v5,2020.2.10,Win32,60,61025ae37ef11b136ea224fe,,,,,,,,,699,140,66,1,0,0,response1disk,,6,20,-11,1,0,0,rectangle,20,-11,1,0,0,20,-11,1,0,0,0,2,2,45,1,,,,,,,,
,,,,,,,,,,,,,FF,,,,,,,,3.237,,,,,,,,,,,,,,,,,,,,,,61035cde69aaa4298e4e3dd1,610367388d2d09ec85bb0ae4,2021-07-29_21h43.48.147,Simcolourproject_2stim_asymm_v5,2020.2.10,Win32,60,61025ae37ef11b136ea224fe,,,,,,,,,2086,114,48,1,0,0,response1disk,,6,-20,-2,1,0,0,rectangle,-20,-2,1,0,0,-20,-2,1,0,0,0,3,3,42,1,,,,,,,,
,,,,,,,,,,,,,FF,,,,,,,,3.5203,,,,,,,,,,,,,,,,,,,,,,61035cde69aaa4298e4e3dd1,610367388d2d09ec85bb0ae4,2021-07-29_21h43.48.147,Simcolourproject_2stim_asymm_v5,2020.2.10,Win32,60,61025ae37ef11b136ea224fe,,,,,,,,,3791,144,-58,1,0,0,response3disk,,5,16,-1,1,0,0,rectangle,16,-1,1,0,0,16,-1,1,0,0,0,4,4,70,1,,,,,,,,
,,,,,,,,,,,,,FF,,,,,,,,2.386,,,,,,,,,,,,,,,,,,,,,,61035cde69aaa4298e4e3dd1,610367388d2d09ec85bb0ae4,2021-07-29_21h43.48.147,Simcolourproject_2stim_asymm_v5,2020.2.10,Win32,60,61025ae37ef11b136ea224fe,,,,,,,,,1291,57,-139,1,0,0,response3disk,,4,6,6,1,0,0,rectangle,6,6,1,0,0,6,6,1,0,0,0,5,5,22,1,,,,,,,,
,,,,,,,,,,,,,FF,,,,,,,,2.0186,,,,,,,,,,,,,,,,,,,,,,61035cde69aaa4298e4e3dd1,610367388d2d09ec85bb0ae4,2021-07-29_21h43.48.147,Simcolourproject_2stim_asymm_v5,2020.2.10,Win32,60,61025ae37ef11b136ea224fe,,,,,,,,,2494,119,-38,1,0,0,response3disk,,5,15,-2,1,0,0,rectangle,15,-2,1,0,0,15,-2,1,0,0,0,6,6,52,1,,,,,,,,
,,,,,,,,,,,,,FF,,,,,,,,4.5049,,,,,,,,,,,,,,,,,,,,,,61035cde69aaa4298e4e3dd1,610367388d2d09ec85bb0ae4,2021-07-29_21h43.48.147,Simcolourproject_2stim_asymm_v5,2020.2.10,Win32,60,61025ae37ef11b136ea224fe,,,,,,,,,635,85,-141,1,0,0,response3disk,,4,-1,-5,1,0,0,rectangle,-1,-5,1,0,0,-1,-5,1,0,0,0,7,7,117,1,,,,,,,,
,,,,,,,,,,,,,FF,,,,,,,,1.9518,,,,,,,,,,,,,,,,,,,,,,61035cde69aaa4298e4e3dd1,610367388d2d09ec85bb0ae4,2021-07-29_21h43.48.147,Simcolourproject_2stim_asymm_v5,2020.2.10,Win32,60,61025ae37ef11b136ea224fe,,,,,,,,,769,127,43,1,0,0,response1disk,,6,-21,2,1,0,0,rectangle,-21,2,1,0,0,-21,2,1,0,0,0,8,8,134,1,,,,,,,,
,,,,,,,,,,,,,FF,,,,,,,,1.5017,,,,,,,,,,,,,,,,,,,,,,61035cde69aaa4298e4e3dd1,610367388d2d09ec85bb0ae4,2021-07-29_21h43.48.147,Simcolourproject_2stim_asymm_v5,2020.2.10,Win32,60,61025ae37ef11b136ea224fe,,,,,,,,,3644,-65,-134,1,0,0,response5disk,,3,2,0,1,0,0,rectangle,2,0,1,0,0,2,0,1,0,0,0,9,9,155,1,,,,,,,,
,,,,,,,,,,,,,FF,,,,,,,,1.0796,,,,,,,,,,,,,,,,,,,,,,61035cde69aaa4298e4e3dd1,610367388d2d09ec85bb0ae4,2021-07-29_21h43.48.147,Simcolourproject_2stim_asymm_v5,2020.2.10,Win32,60,61025ae37ef11b136ea224fe,,,,,,,,,975,73,-107,1,0,0,response3disk,,4,14,-7,1,0,0,rectangle,14,-7,1,0,0,14,-7,1,0,0,0,10,10,43,1,,,,,,,,
,,,,,,,,,,,,,FF,,,,,,,,1.0509,,,,,,,,,,,,,,,,,,,,,,61035cde69aaa4298e4e3dd1,610367388d2d09ec85bb0ae4,2021-07-29_21h43.48.147,Simcolourproject_2stim_asymm_v5,2020.2.10,Win32,60,61025ae37ef11b136ea224fe,,,,,,,,,2975,142,65,1,0,0,response1disk,,6,13,-18,1,0,0,rectangle,13,-18,1,0,0,13,-18,1,0,0,0,11,11,130,1,,,,,,,,
,,,,,,,,,,,,,FF,,,,,,,,1.8017,,,,,,,,,,,,,,,,,,,,,,61035cde69aaa4298e4e3dd1,610367388d2d09ec85bb0ae4,2021-07-29_21h43.48.147,Simcolourproject_2stim_asymm_v5,2020.2.10,Win32,60,61025ae37ef11b136ea224fe,,,,,,,,,1667,166,-48,1,0,0,response3disk,,5,2,4,1,0,0,rectangle,2,4,1,0,0,2,4,1,0,0,0,12,12,32,1,,,,,,,,
,,,,,,,,,,,,,FF,,,,,,,,1.5346,,,,,,,,,,,,,,,,,,,,,,61035cde69aaa4298e4e3dd1,610367388d2d09ec85bb0ae4,2021-07-29_21h43.48.147,Simcolourproject_2stim_asymm_v5,2020.2.10,Win32,60,61025ae37ef11b136ea224fe,,,,,,,,,4115,149,-68,1,0,0,response3disk,,5,14,-6,1,0,0,rectangle,14,-6,1,0,0,14,-6,1,0,0,0,13,13,102,1,,,,,,,,
,,,,,,,,,,,,,FF,,,,,,,,1.051,,,,,,,,,,,,,,,,,,,,,,61035cde69aaa4298e4e3dd1,610367388d2d09ec85bb0ae4,2021-07-29_21h43.48.147,Simcolourproject_2stim_asymm_v5,2020.2.10,Win32,60,61025ae37ef11b136ea224fe,,,,,,,,,1895,137,-42,1,0,0,response3disk,,5,4,-8,1,0,0,rectangle,4,-8,1,0,0,4,-8,1,0,0,0,14,14,85,1,,,,,,,,
,,,,,,,,,,,,,FF,,,,,,,,1.1013,,,,,,,,,,,,,,,,,,,,,,61035cde69aaa4298e4e3dd1,610367388d2d09ec85bb0ae4,2021-07-29_21h43.48.147,Simcolourproject_2stim_asymm_v5,2020.2.10,Win32,60,61025ae37ef11b136ea224fe,,,,,,,,,1349,128,47,1,0,0,response1disk,,6,-19,2,1,0,0,rectangle,-19,2,1,0,0,-19,2,1,0,0,0,15,15,75,1,,,,,,,,
,,,,,,,,,,,,,FF,,,,,,,,1.8483,,,,,,,,,,,,,,,,,,,,,,61035cde69aaa4298e4e3dd1,610367388d2d09ec85bb0ae4,2021-07-29_21h43.48.147,Simcolourproject_2stim_asymm_v5,2020.2.10,Win32,60,61025ae37ef11b136ea224fe,,,,,,,,,1155,145,-38,1,0,0,response3disk,,5,5,4,1,0,0,rectangle,5,4,1,0,0,5,4,1,0,0,0,16,16,5,1,,,,,,,,
,,,,,,,,,,,,,FF,,,,,,,,1.1183,,,,,,,,,,,,,,,,,,,,,,61035cde69aaa4298e4e3dd1,610367388d2d09ec85bb0ae4,2021-07-29_21h43.48.147,Simcolourproject_2stim_asymm_v5,2020.2.10,Win32,60,61025ae37ef11b136ea224fe,,,,,,,,,4096,98,-124,1,0,0,response3disk,,4,10,-5,1,0,0,rectangle,10,-5,1,0,0,10,-5,1,0,0,0,17,17,21,1,,,,,,,,
,,,,,,,,,,,,,FF,,,,,,,,0.9295,,,,,,,,,,,,,,,,,,,,,,61035cde69aaa4298e4e3dd1,610367388d2d09ec85bb0ae4,2021-07-29_21h43.48.147,Simcolourproject_2stim_asymm_v5,2020.2.10,Win32,60,61025ae37ef11b136ea224fe,,,,,,,,,2220,131,-66,1,0,0,response3disk,,5,15,-10,1,0,0,rectangle,15,-10,1,0,0,15,-10,1,0,0,0,18,18,113,1,,,,,,,,
,,,,,,,,,,,,,FF,,,,,,,,2.7695,,,,,,,,,,,,,,,,,,,,,,61035cde69aaa4298e4e3dd1,610367388d2d09ec85bb0ae4,2021-07-29_21h43.48.147,Simcolourproject_2stim_asymm_v5,2020.2.10,Win32,60,61025ae37ef11b136ea224fe,,,,,,,,,3294,155,-73,1,0,0,response3disk,,5,-18,2,1,0,0,rectangle,-18,2,1,0,0,-18,2,1,0,0,0,19,19,57,1,,,,,,,,
,,,,,,,,,,,,,FF,,,,,,,,1.3525,,,,,,,,,,,,,,,,,,,,,,61035cde69aaa4298e4e3dd1,610367388d2d09ec85bb0ae4,2021-07-29_21h43.48.147,Simcolourproject_2stim_asymm_v5,2020.2.10,Win32,60,61025ae37ef11b136ea224fe,,,,,,,,,3276,83,-113,1,0,0,response3disk,,4,2,10,1,0,0,rectangle,2,10,1,0,0,2,10,1,0,0,0,20,20,8,1,,,,,,,,
,,,,,,,,,,,,,FF,,,,,,,,1.8855,,,,,,,,,,,,,,,,,,,,,,61035cde69aaa4298e4e3dd1,610367388d2d09ec85bb0ae4,2021-07-29_21h43.48.147,Simcolourproject_2stim_asymm_v5,2020.2.10,Win32,60,61025ae37ef11b136ea224fe,,,,,,,,,2735,50,-125,1,0,0,response3disk,,4,-7,10,1,0,0,rectangle,-7,10,1,0,0,-7,10,1,0,0,0,21,21,9,1,,,,,,,,
,,,,,,,,,,,,,FF,,,,,,,,1.1349,,,,,,,,,,,,,,,,,,,,,,61035cde69aaa4298e4e3dd1,610367388d2d09ec85bb0ae4,2021-07-29_21h43.48.147,Simcolourproject_2stim_asymm_v5,2020.2.10,Win32,60,61025ae37ef11b136ea224fe,,,,,,,,,1064,133,-34,1,0,0,response3disk,,5,-6,-6,1,0,0,rectangle,-6,-6,1,0,0,-6,-6,1,0,0,0,22,22,67,1,,,,,,,,
,,,,,,,,,,,,,FF,,,,,,,,0.7464,,,,,,,,,,,,,,,,,,,,,,61035cde69aaa4298e4e3dd1,610367388d2d09ec85bb0ae4,2021-07-29_21h43.48.147,Simcolourproject_2stim_asymm_v5,2020.2.10,Win32,60,61025ae37ef11b136ea224fe,,,,,,,,,902,112,-38,1,0,0,response3disk,,5,31,0,1,0,0,rectangle,31,0,1,0,0,31,0,1,0,0,0,23,23,11,1,,,,,,,,
,,,,,,,,,,,,,FF,,,,,,,,2.1234,,,,,,,,,,,,,,,,,,,,,,61035cde69aaa4298e4e3dd1,610367388d2d09ec85bb0ae4,2021-07-29_21h43.48.147,Simcolourproject_2stim_asymm_v5,2020.2.10,Win32,60,61025ae37ef11b136ea224fe,,,,,,,,,3909,79,-123,1,0,0,response3disk,,4,9,12,1,0,0,rectangle,9,12,1,0,0,9,12,1,0,0,0,24,24,58,1,,,,,,,,
,,,,,,,,,,,,,FF,,,,,,,,1.0342,,,,,,,,,,,,,,,,,,,,,,61035cde69aaa4298e4e3dd1,610367388d2d09ec85bb0ae4,2021-07-29_21h43.48.147,Simcolourproject_2stim_asymm_v5,2020.2.10,Win32,60,61025ae37ef11b136ea224fe,,,,,,,,,3841,62,-124,1,0,0,response3disk,,4,6,7,1,0,0,rectangle,6,7,1,0,0,6,7,1,0,0,0,25,25,27,1,,,,,,,,
,,,,,,,,,,,,,FF,,,,,,,,1.2515,,,,,,,,,,,,,,,,,,,,,,61035cde69aaa4298e4e3dd1,610367388d2d09ec85bb0ae4,2021-07-29_21h43.48.147,Simcolourproject_2stim_asymm_v5,2020.2.10,Win32,60,61025ae37ef11b136ea224fe,,,,,,,,,1475,151,81,1,0,0,response1disk,,6,-15,0,1,0,0,rectangle,-15,0,1,0,0,-15,0,1,0,0,0,26,26,139,1,,,,,,,,
,,,,,,,,,,,,,FF,,,,,,,,1.3568,,,,,,,,,,,,,,,,,,,,,,61035cde69aaa4298e4e3dd1,610367388d2d09ec85bb0ae4,2021-07-29_21h43.48.147,Simcolourproject_2stim_asymm_v5,2020.2.10,Win32,60,61025ae37ef11b136ea224fe,,,,,,,,,1427,151,49,1,0,0,response1disk,,6,13,4,1,0,0,rectangle,13,4,1,0,0,13,4,1,0,0,0,27,27,78,1,,,,,,,,
,,,,,,,,,,,,,FF,,,,,,,,1.0676,,,,,,,,,,,,,,,,,,,,,,61035cde69aaa4298e4e3dd1,610367388d2d09ec85bb0ae4,2021-07-29_21h43.48.147,Simcolourproject_2stim_asymm_v5,2020.2.10,Win32,60,61025ae37ef11b136ea224fe,,,,,,,,,3340,157,58,1,0,0,response1disk,,6,-11,-9,1,0,0,rectangle,-11,-9,1,0,0,-11,-9,1,0,0,0,28,28,61,1,,,,,,,,
,,,,,,,,,,,,,FF,,,,,,,,6.2232,,,,,,,,,,,,,,,,,,,,,,61035cde69aaa4298e4e3dd1,610367388d2d09ec85bb0ae4,2021-07-29_21h43.48.147,Simcolourproject_2stim_asymm_v5,2020.2.10,Win32,60,61025ae37ef11b136ea224fe,,,,,,,,,3619,126,55,1,0,0,response1disk,,6,15,10,1,0,0,rectangle,15,10,1,0,0,15,10,1,0,0,0,29,29,146,1,,,,,,,,
,,,,,,,,,,,,,FF,,,,,,,,1.3684,,,,,,,,,,,,,,,,,,,,,,61035cde69aaa4298e4e3dd1,610367388d2d09ec85bb0ae4,2021-07-29_21h43.48.147,Simcolourproject_2stim_asymm_v5,2020.2.10,Win32,60,61025ae37ef11b136ea224fe,,,,,,,,,4296,132,76,1,0,0,response1disk,,6,6,1,1,0,0,rectangle,6,1,1,0,0,6,1,1,0,0,0,30,30,90,1,,,,,,,,
,,,,,,,,,,,,,FF,,,,,,,,0.8007,,,,,,,,,,,,,,,,,,,,,,61035cde69aaa4298e4e3dd1,610367388d2d09ec85bb0ae4,2021-07-29_21h43.48.147,Simcolourproject_2stim_asymm_v5,2020.2.10,Win32,60,61025ae37ef11b136ea224fe,,,,,,,,,3656,149,-45,1,0,0,response3disk,,5,9,-7,1,0,0,rectangle,9,-7,1,0,0,9,-7,1,0,0,0,31,31,106,1,,,,,,,,
,,,,,,,,,,,,,FF,,,,,,,,1.1344,,,,,,,,,,,,,,,,,,,,,,61035cde69aaa4298e4e3dd1,610367388d2d09ec85bb0ae4,2021-07-29_21h43.48.147,Simcolourproject_2stim_asymm_v5,2020.2.10,Win32,60,61025ae37ef11b136ea224fe,,,,,,,,,1299,163,-52,1,0,0,response3disk,,5,-3,-3,1,0,0,rectangle,-3,-3,1,0,0,-3,-3,1,0,0,0,32,32,114,1,,,,,,,,
,,,,,,,,,,,,,FF,,,,,,,,0.963,,,,,,,,,,,,,,,,,,,,,,61035cde69aaa4298e4e3dd1,610367388d2d09ec85bb0ae4,2021-07-29_21h43.48.147,Simcolourproject_2stim_asymm_v5,2020.2.10,Win32,60,61025ae37ef11b136ea224fe,,,,,,,,,1803,108,-124,1,0,0,response3disk,,4,30,-10,1,0,0,rectangle,30,-10,1,0,0,30,-10,1,0,0,0,33,33,100,1,,,,,,,,
,,,,,,,,,,,,,FF,,,,,,,,0.9896,,,,,,,,,,,,,,,,,,,,,,61035cde69aaa4298e4e3dd1,610367388d2d09ec85bb0ae4,2021-07-29_21h43.48.147,Simcolourproject_2stim_asymm_v5,2020.2.10,Win32,60,61025ae37ef11b136ea224fe,,,,,,,,,1246,120,-56,1,0,0,response3disk,,5,8,6,1,0,0,rectangle,8,6,1,0,0,8,6,1,0,0,0,34,34,59,1,,,,,,,,
,,,,,,,,,,,,,FF,,,,,,,,1.2684,,,,,,,,,,,,,,,,,,,,,,61035cde69aaa4298e4e3dd1,610367388d2d09ec85bb0ae4,2021-07-29_21h43.48.147,Simcolourproject_2stim_asymm_v5,2020.2.10,Win32,60,61025ae37ef11b136ea224fe,,,,,,,,,2571,152,51,1,0,0,response1disk,,6,20,9,1,0,0,rectangle,20,9,1,0,0,20,9,1,0,0,0,35,35,143,1,,,,,,,,
,,,,,,,,,,,,,FF,,,,,,,,0.7464,,,,,,,,,,,,,,,,,,,,,,61035cde69aaa4298e4e3dd1,610367388d2d09ec85bb0ae4,2021-07-29_21h43.48.147,Simcolourproject_2stim_asymm_v5,2020.2.10,Win32,60,61025ae37ef11b136ea224fe,,,,,,,,,2543,157,-71,1,0,0,response3disk,,5,-5,-7,1,0,0,rectangle,-5,-7,1,0,0,-5,-7,1,0,0,0,36,36,129,1,,,,,,,,
,,,,,,,,,,,,,FF,,,,,,,,2.553,,,,,,,,,,,,,,,,,,,,,,61035cde69aaa4298e4e3dd1,610367388d2d09ec85bb0ae4,2021-07-29_21h43.48.147,Simcolourproject_2stim_asymm_v5,2020.2.10,Win32,60,61025ae37ef11b136ea224fe,,,,,,,,,1603,-82,-57,1,0,0,response5disk,,2,27,-5,1,0,0,rectangle,27,-5,1,0,0,27,-5,1,0,0,0,37,37,34,1,,,,,,,,
,,,,,,,,,,,,,FF,,,,,,,,46.4965,,,,,,,,,,,,,,,,,,,,,,61035cde69aaa4298e4e3dd1,610367388d2d09ec85bb0ae4,2021-07-29_21h43.48.147,Simcolourproject_2stim_asymm_v5,2020.2.10,Win32,60,61025ae37ef11b136ea224fe,,,,,,,,,2107,72,-121,1,0,0,response3disk,,4,-6,5,1,0,0,rectangle,-6,5,1,0,0,-6,5,1,0,0,0,38,38,91,1,,,,,,,,
,,,,,,,,,,,,,FF,,,,,,,,2.3526,,,,,,,,,,,,,,,,,,,,,,61035cde69aaa4298e4e3dd1,610367388d2d09ec85bb0ae4,2021-07-29_21h43.48.147,Simcolourproject_2stim_asymm_v5,2020.2.10,Win32,60,61025ae37ef11b136ea224fe,,,,,,,,,3510,-112,-88,1,0,0,response5disk,,2,-3,15,1,0,0,rectangle,-3,15,1,0,0,-3,15,1,0,0,0,39,39,122,1,,,,,,,,
,,,,,,,,,,,,,FF,,,,,,,,0.834,,,,,,,,,,,,,,,,,,,,,,61035cde69aaa4298e4e3dd1,610367388d2d09ec85bb0ae4,2021-07-29_21h43.48.147,Simcolourproject_2stim_asymm_v5,2020.2.10,Win32,60,61025ae37ef11b136ea224fe,,,,,,,,,36,65,-145,1,0,0,response3disk,,4,-18,-16,1,0,0,rectangle,-18,-16,1,0,0,-18,-16,1,0,0,0,40,40,89,1,,,,,,,,
,,,,,,,,,,,,,FF,,,,,,,,1.1343,,,,,,,,,,,,,,,,,,,,,,61035cde69aaa4298e4e3dd1,610367388d2d09ec85bb0ae4,2021-07-29_21h43.48.147,Simcolourproject_2stim_asymm_v5,2020.2.10,Win32,60,61025ae37ef11b136ea224fe,,,,,,,,,2008,131,-62,1,0,0,response3disk,,5,-4,9,1,0,0,rectangle,-4,9,1,0,0,-4,9,1,0,0,0,41,41,49,1,,,,,,,,
,,,,,,,,,,,,,FF,,,,,,,,1.0847,,,,,,,,,,,,,,,,,,,,,,61035cde69aaa4298e4e3dd1,610367388d2d09ec85bb0ae4,2021-07-29_21h43.48.147,Simcolourproject_2stim_asymm_v5,2020.2.10,Win32,60,61025ae37ef11b136ea224fe,,,,,,,,,327,147,-81,1,0,0,response3disk,,5,12,-16,1,0,0,rectangle,12,-16,1,0,0,12,-16,1,0,0,0,42,42,141,1,,,,,,,,
,,,,,,,,,,,,,FF,,,,,,,,1.5517,,,,,,,,,,,,,,,,,,,,,,61035cde69aaa4298e4e3dd1,610367388d2d09ec85bb0ae4,2021-07-29_21h43.48.147,Simcolourproject_2stim_asymm_v5,2020.2.10,Win32,60,61025ae37ef11b136ea224fe,,,,,,,,,2763,129,-43,1,0,0,response3disk,,5,11,4,1,0,0,rectangle,11,4,1,0,0,11,4,1,0,0,0,43,43,68,1,,,,,,,,
,,,,,,,,,,,,,FF,,,,,,,,1.7851,,,,,,,,,,,,,,,,,,,,,,61035cde69aaa4298e4e3dd1,610367388d2d09ec85bb0ae4,2021-07-29_21h43.48.147,Simcolourproject_2stim_asymm_v5,2020.2.10,Win32,60,61025ae37ef11b136ea224fe,,,,,,,,,1290,-74,-30,1,0,0,response5disk,,2,4,1,1,0,0,rectangle,4,1,1,0,0,4,1,1,0,0,0,44,44,150,1,,,,,,,,
,,,,,,,,,,,,,FF,,,,,,,,0.8628,,,,,,,,,,,,,,,,,,,,,,61035cde69aaa4298e4e3dd1,610367388d2d09ec85bb0ae4,2021-07-29_21h43.48.147,Simcolourproject_2stim_asymm_v5,2020.2.10,Win32,60,61025ae37ef11b136ea224fe,,,,,,,,,372,58,-143,1,0,0,response3disk,,4,-23,-8,1,0,0,rectangle,-23,-8,1,0,0,-23,-8,1,0,0,0,45,45,25,1,,,,,,,,
,,,,,,,,,,,,,FF,,,,,,,,1.218,,,,,,,,,,,,,,,,,,,,,,61035cde69aaa4298e4e3dd1,610367388d2d09ec85bb0ae4,2021-07-29_21h43.48.147,Simcolourproject_2stim_asymm_v5,2020.2.10,Win32,60,61025ae37ef11b136ea224fe,,,,,,,,,180,162,-71,1,0,0,response3disk,,5,-1,-14,1,0,0,rectangle,-1,-14,1,0,0,-1,-14,1,0,0,0,46,46,153,1,,,,,,,,
,,,,,,,,,,,,,FF,,,,,,,,0.7011,,,,,,,,,,,,,,,,,,,,,,61035cde69aaa4298e4e3dd1,610367388d2d09ec85bb0ae4,2021-07-29_21h43.48.147,Simcolourproject_2stim_asymm_v5,2020.2.10,Win32,60,61025ae37ef11b136ea224fe,,,,,,,,,1346,132,29,1,0,0,response1disk,,6,-27,0,1,0,0,rectangle,-27,0,1,0,0,-27,0,1,0,0,0,47,47,55,1,,,,,,,,
,,,,,,,,,,,,,FF,,,,,,,,1.8183,,,,,,,,,,,,,,,,,,,,,,61035cde69aaa4298e4e3dd1,610367388d2d09ec85bb0ae4,2021-07-29_21h43.48.147,Simcolourproject_2stim_asymm_v5,2020.2.10,Win32,60,61025ae37ef11b136ea224fe,,,,,,,,,1888,-98,-128,1,0,0,response5disk,,3,4,-7,1,0,0,rectangle,137,-71,1,0,0,-4,-12,1,0,0,0,48,48,60,1,,response3disk_3,TRUE,5,5,"[190,282,211,269,237,289,152,137,83,320,175,94,141,179,110,141,49,68,196,205]",2.8531,rectangle
,,,,,,,,,,,,,FF,,,,,,,,2.3028,,,,,,,,,,,,,,,,,,,,,,61035cde69aaa4298e4e3dd1,610367388d2d09ec85bb0ae4,2021-07-29_21h43.48.147,Simcolourproject_2stim_asymm_v5,2020.2.10,Win32,60,61025ae37ef11b136ea224fe,,,,,,,,,4338,142,-75,1,0,0,response3disk,,5,10,-16,1,0,0,rectangle,10,-16,1,0,0,10,-16,1,0,0,0,49,49,99,1,,,,,,,,
,,,,,,,,,,,,,FF,,,,,,,,1.1676,,,,,,,,,,,,,,,,,,,,,,61035cde69aaa4298e4e3dd1,610367388d2d09ec85bb0ae4,2021-07-29_21h43.48.147,Simcolourproject_2stim_asymm_v5,2020.2.10,Win32,60,61025ae37ef11b136ea224fe,,,,,,,,,3175,131,31,1,0,0,response1disk,,6,-1,4,1,0,0,rectangle,-1,4,1,0,0,-1,4,1,0,0,0,50,50,3,1,,,,,,,,
,,,,,,,,,,,,,FF,,,,,,,,1.0633,,,,,,,,,,,,,,,,,,,,,,61035cde69aaa4298e4e3dd1,610367388d2d09ec85bb0ae4,2021-07-29_21h43.48.147,Simcolourproject_2stim_asymm_v5,2020.2.10,Win32,60,61025ae37ef11b136ea224fe,,,,,,,,,919,142,39,1,0,0,response1disk,,6,-2,20,1,0,0,rectangle,-2,20,1,0,0,-2,20,1,0,0,0,51,51,7,1,,,,,,,,
,,,,,,,,,,,,,FF,,,,,,,,1.2298,,,,,,,,,,,,,,,,,,,,,,61035cde69aaa4298e4e3dd1,610367388d2d09ec85bb0ae4,2021-07-29_21h43.48.147,Simcolourproject_2stim_asymm_v5,2020.2.10,Win32,60,61025ae37ef11b136ea224fe,,,,,,,,,432,152,-80,1,0,0,response3disk,,5,9,-14,1,0,0,rectangle,9,-14,1,0,0,9,-14,1,0,0,0,52,52,120,1,,,,,,,,
,,,,,,,,,,,,,FF,,,,,,,,1.0797,,,,,,,,,,,,,,,,,,,,,,61035cde69aaa4298e4e3dd1,610367388d2d09ec85bb0ae4,2021-07-29_21h43.48.147,Simcolourproject_2stim_asymm_v5,2020.2.10,Win32,60,61025ae37ef11b136ea224fe,,,,,,,,,129,88,-103,1,0,0,response3disk,,4,2,-14,1,0,0,rectangle,2,-14,1,0,0,2,-14,1,0,0,0,53,53,54,1,,,,,,,,
,,,,,,,,,,,,,FF,,,,,,,,0.7839,,,,,,,,,,,,,,,,,,,,,,61035cde69aaa4298e4e3dd1,610367388d2d09ec85bb0ae4,2021-07-29_21h43.48.147,Simcolourproject_2stim_asymm_v5,2020.2.10,Win32,60,61025ae37ef11b136ea224fe,,,,,,,,,900,114,-48,1,0,0,response3disk,,5,25,-5,1,0,0,rectangle,25,-5,1,0,0,25,-5,1,0,0,0,54,54,72,1,,,,,,,,
,,,,,,,,,,,,,FF,,,,,,,,1.0512,,,,,,,,,,,,,,,,,,,,,,61035cde69aaa4298e4e3dd1,610367388d2d09ec85bb0ae4,2021-07-29_21h43.48.147,Simcolourproject_2stim_asymm_v5,2020.2.10,Win32,60,61025ae37ef11b136ea224fe,,,,,,,,,3884,72,-148,1,0,0,response3disk,,4,-3,-2,1,0,0,rectangle,-3,-2,1,0,0,-3,-2,1,0,0,0,55,55,116,1,,,,,,,,
,,,,,,,,,,,,,FF,,,,,,,,1.7016,,,,,,,,,,,,,,,,,,,,,,61035cde69aaa4298e4e3dd1,610367388d2d09ec85bb0ae4,2021-07-29_21h43.48.147,Simcolourproject_2stim_asymm_v5,2020.2.10,Win32,60,61025ae37ef11b136ea224fe,,,,,,,,,2459,76,-114,1,0,0,response3disk,,4,-28,-7,1,0,0,rectangle,-28,-7,1,0,0,-28,-7,1,0,0,0,56,56,137,1,,,,,,,,
,,,,,,,,,,,,,FF,,,,,,,,1.2348,,,,,,,,,,,,,,,,,,,,,,61035cde69aaa4298e4e3dd1,610367388d2d09ec85bb0ae4,2021-07-29_21h43.48.147,Simcolourproject_2stim_asymm_v5,2020.2.10,Win32,60,61025ae37ef11b136ea224fe,,,,,,,,,4368,-26,88,1,0,0,response7disk,,0,-19,-5,1,0,0,rectangle,-19,-5,1,0,0,-19,-5,1,0,0,0,57,57,148,1,,,,,,,,
,,,,,,,,,,,,,FF,,,,,,,,1.3397,,,,,,,,,,,,,,,,,,,,,,61035cde69aaa4298e4e3dd1,610367388d2d09ec85bb0ae4,2021-07-29_21h43.48.147,Simcolourproject_2stim_asymm_v5,2020.2.10,Win32,60,61025ae37ef11b136ea224fe,,,,,,,,,2771,49,-124,1,0,0,response3disk,,4,-16,-15,1,0,0,rectangle,-16,-15,1,0,0,-16,-15,1,0,0,0,58,58,154,1,,,,,,,,
,,,,,,,,,,,,,FF,,,,,,,,3.3705,,,,,,,,,,,,,,,,,,,,,,61035cde69aaa4298e4e3dd1,610367388d2d09ec85bb0ae4,2021-07-29_21h43.48.147,Simcolourproject_2stim_asymm_v5,2020.2.10,Win32,60,61025ae37ef11b136ea224fe,,,,,,,,,529,47,-128,1,0,0,response3disk,,4,-26,16,1,0,0,rectangle,-26,16,1,0,0,-26,16,1,0,0,0,59,59,51,1,,,,,,,,
,,,,,,,,,,,,,FF,,,,,,,,2.5196,,,,,,,,,,,,,,,,,,,,,,61035cde69aaa4298e4e3dd1,610367388d2d09ec85bb0ae4,2021-07-29_21h43.48.147,Simcolourproject_2stim_asymm_v5,2020.2.10,Win32,60,61025ae37ef11b136ea224fe,,,,,,,,,2871,127,-73,1,0,0,response3disk,,5,-24,10,1,0,0,rectangle,-24,10,1,0,0,-24,10,1,0,0,0,60,60,128,1,,,,,,,,
,,,,,,,,,,,,,FF,,,,,,,,0.9675,,,,,,,,,,,,,,,,,,,,,,61035cde69aaa4298e4e3dd1,610367388d2d09ec85bb0ae4,2021-07-29_21h43.48.147,Simcolourproject_2stim_asymm_v5,2020.2.10,Win32,60,61025ae37ef11b136ea224fe,,,,,,,,,3232,130,72,1,0,0,response1disk,,6,-22,2,1,0,0,rectangle,-22,2,1,0,0,-22,2,1,0,0,0,61,61,6,1,,,,,,,,
,,,,,,,,,,,,,FF,,,,,,,,1.0345,,,,,,,,,,,,,,,,,,,,,,61035cde69aaa4298e4e3dd1,610367388d2d09ec85bb0ae4,2021-07-29_21h43.48.147,Simcolourproject_2stim_asymm_v5,2020.2.10,Win32,60,61025ae37ef11b136ea224fe,,,,,,,,,2913,132,28,1,0,0,response1disk,,6,13,-6,1,0,0,rectangle,13,-6,1,0,0,13,-6,1,0,0,0,62,62,104,1,,,,,,,,
,,,,,,,,,,,,,FF,,,,,,,,0.9679,,,,,,,,,,,,,,,,,,,,,,61035cde69aaa4298e4e3dd1,610367388d2d09ec85bb0ae4,2021-07-29_21h43.48.147,Simcolourproject_2stim_asymm_v5,2020.2.10,Win32,60,61025ae37ef11b136ea224fe,,,,,,,,,55,92,49,1,0,0,response1disk,,6,12,-5,1,0,0,rectangle,12,-5,1,0,0,12,-5,1,0,0,0,63,63,74,1,,,,,,,,
,,,,,,,,,,,,,FF,,,,,,,,0.701,,,,,,,,,,,,,,,,,,,,,,61035cde69aaa4298e4e3dd1,610367388d2d09ec85bb0ae4,2021-07-29_21h43.48.147,Simcolourproject_2stim_asymm_v5,2020.2.10,Win32,60,61025ae37ef11b136ea224fe,,,,,,,,,509,120,38,1,0,0,response1disk,,6,14,-9,1,0,0,rectangle,14,-9,1,0,0,14,-9,1,0,0,0,64,64,26,1,,,,,,,,
,,,,,,,,,,,,,FF,,,,,,,,2.0685,,,,,,,,,,,,,,,,,,,,,,61035cde69aaa4298e4e3dd1,610367388d2d09ec85bb0ae4,2021-07-29_21h43.48.147,Simcolourproject_2stim_asymm_v5,2020.2.10,Win32,60,61025ae37ef11b136ea224fe,,,,,,,,,2290,127,-93,1,0,0,response3disk,,5,-25,-11,1,0,0,rectangle,-25,-11,1,0,0,-25,-11,1,0,0,0,65,65,138,1,,,,,,,,
,,,,,,,,,,,,,FF,,,,,,,,1.4168,,,,,,,,,,,,,,,,,,,,,,61035cde69aaa4298e4e3dd1,610367388d2d09ec85bb0ae4,2021-07-29_21h43.48.147,Simcolourproject_2stim_asymm_v5,2020.2.10,Win32,60,61025ae37ef11b136ea224fe,,,,,,,,,593,130,72,1,0,0,response1disk,,6,22,-3,1,0,0,rectangle,22,-3,1,0,0,22,-3,1,0,0,0,66,66,33,1,,,,,,,,
,,,,,,,,,,,,,FF,,,,,,,,2.4243,,,,,,,,,,,,,,,,,,,,,,61035cde69aaa4298e4e3dd1,610367388d2d09ec85bb0ae4,2021-07-29_21h43.48.147,Simcolourproject_2stim_asymm_v5,2020.2.10,Win32,60,61025ae37ef11b136ea224fe,,,,,,,,,1890,136,-88,1,0,0,response3disk,,5,-30,-7,1,0,0,rectangle,-119,63,1,0,0,-10,-3,1,0,0,0,67,67,152,1,,response7disk_3,TRUE,1,1,"[190,282,211,269,237,289,152,137,83,320,175,94,141,179,110,141,49,68,196,205]",1.7353,rectangle
,,,,,,,,,,,,,FF,,,,,,,,1.1349,,,,,,,,,,,,,,,,,,,,,,61035cde69aaa4298e4e3dd1,610367388d2d09ec85bb0ae4,2021-07-29_21h43.48.147,Simcolourproject_2stim_asymm_v5,2020.2.10,Win32,60,61025ae37ef11b136ea224fe,,,,,,,,,1657,142,63,1,0,0,response1disk,,6,-10,-13,1,0,0,rectangle,-10,-13,1,0,0,-10,-13,1,0,0,0,68,68,14,1,,,,,,,,
,,,,,,,,,,,,,FF,,,,,,,,0.9345,,,,,,,,,,,,,,,,,,,,,,61035cde69aaa4298e4e3dd1,610367388d2d09ec85bb0ae4,2021-07-29_21h43.48.147,Simcolourproject_2stim_asymm_v5,2020.2.10,Win32,60,61025ae37ef11b136ea224fe,,,,,,,,,1044,137,-57,1,0,0,response3disk,,5,-24,-7,1,0,0,rectangle,-24,-7,1,0,0,-24,-7,1,0,0,0,69,69,19,1,,,,,,,,
,,,,,,,,,,,,,FF,,,,,,,,0.9507,,,,,,,,,,,,,,,,,,,,,,61035cde69aaa4298e4e3dd1,610367388d2d09ec85bb0ae4,2021-07-29_21h43.48.147,Simcolourproject_2stim_asymm_v5,2020.2.10,Win32,60,61025ae37ef11b136ea224fe,,,,,,,,,226,148,32,1,0,0,response1disk,,6,-19,0,1,0,0,rectangle,-19,0,1,0,0,-19,0,1,0,0,0,70,70,142,1,,,,,,,,
,,,,,,,,,,,,,FF,,,,,,,,1.6685,,,,,,,,,,,,,,,,,,,,,,61035cde69aaa4298e4e3dd1,610367388d2d09ec85bb0ae4,2021-07-29_21h43.48.147,Simcolourproject_2stim_asymm_v5,2020.2.10,Win32,60,61025ae37ef11b136ea224fe,,,,,,,,,4036,131,68,1,0,0,response1disk,,6,22,11,1,0,0,rectangle,22,11,1,0,0,22,11,1,0,0,0,71,71,77,1,,,,,,,,
,,,,,,,,,,,,,FF,,,,,,,,2.1183,,,,,,,,,,,,,,,,,,,,,,61035cde69aaa4298e4e3dd1,610367388d2d09ec85bb0ae4,2021-07-29_21h43.48.147,Simcolourproject_2stim_asymm_v5,2020.2.10,Win32,60,61025ae37ef11b136ea224fe,,,,,,,,,1941,120,-55,1,0,0,response3disk,,5,2,6,1,0,0,rectangle,2,6,1,0,0,2,6,1,0,0,0,72,72,82,1,,,,,,,,
,,,,,,,,,,,,,FF,,,,,,,,1.2016,,,,,,,,,,,,,,,,,,,,,,61035cde69aaa4298e4e3dd1,610367388d2d09ec85bb0ae4,2021-07-29_21h43.48.147,Simcolourproject_2stim_asymm_v5,2020.2.10,Win32,60,61025ae37ef11b136ea224fe,,,,,,,,,4325,155,41,1,0,0,response1disk,,6,-26,16,1,0,0,rectangle,-26,16,1,0,0,-26,16,1,0,0,0,73,73,118,1,,,,,,,,
,,,,,,,,,,,,,FF,,,,,,,,1.5181,,,,,,,,,,,,,,,,,,,,,,61035cde69aaa4298e4e3dd1,610367388d2d09ec85bb0ae4,2021-07-29_21h43.48.147,Simcolourproject_2stim_asymm_v5,2020.2.10,Win32,60,61025ae37ef11b136ea224fe,,,,,,,,,354,62,-126,1,0,0,response3disk,,4,-22,5,1,0,0,rectangle,-22,5,1,0,0,-22,5,1,0,0,0,74,74,135,1,,,,,,,,
,,,,,,,,,,,,,FF,,,,,,,,1.8135,,,,,,,,,,,,,,,,,,,,,,61035cde69aaa4298e4e3dd1,610367388d2d09ec85bb0ae4,2021-07-29_21h43.48.147,Simcolourproject_2stim_asymm_v5,2020.2.10,Win32,60,61025ae37ef11b136ea224fe,,,,,,,,,955,62,-147,1,0,0,response3disk,,4,6,-10,1,0,0,rectangle,6,-10,1,0,0,6,-10,1,0,0,0,75,75,69,1,,,,,,,,
,,,,,,,,,,,,,FF,,,,,,,,1.8021,,,,,,,,,,,,,,,,,,,,,,61035cde69aaa4298e4e3dd1,610367388d2d09ec85bb0ae4,2021-07-29_21h43.48.147,Simcolourproject_2stim_asymm_v5,2020.2.10,Win32,60,61025ae37ef11b136ea224fe,,,,,,,,,2470,84,-119,1,0,0,response3disk,,4,28,-20,1,0,0,rectangle,28,-20,1,0,0,28,-20,1,0,0,0,76,76,53,1,,,,,,,,
,,,,,,,,,,,,,FF,,,,,,,,0.8009,,,,,,,,,,,,,,,,,,,,,,61035cde69aaa4298e4e3dd1,610367388d2d09ec85bb0ae4,2021-07-29_21h43.48.147,Simcolourproject_2stim_asymm_v5,2020.2.10,Win32,60,61025ae37ef11b136ea224fe,,,,,,,,,825,120,-56,1,0,0,response3disk,,5,22,-5,1,0,0,rectangle,22,-5,1,0,0,22,-5,1,0,0,0,77,77,158,1,,,,,,,,
,,,,,,,,,,,,,FF,,,,,,,,4.1715,,,,,,,,,,,,,,,,,,,,,,61035cde69aaa4298e4e3dd1,610367388d2d09ec85bb0ae4,2021-07-29_21h43.48.147,Simcolourproject_2stim_asymm_v5,2020.2.10,Win32,60,61025ae37ef11b136ea224fe,,,,,,,,,1899,145,-48,1,0,0,response3disk,,5,-38,7,1,0,0,rectangle,-38,7,1,0,0,-38,7,1,0,0,0,78,78,93,1,,,,,,,,
,,,,,,,,,,,,,FF,,,,,,,,1.0463,,,,,,,,,,,,,,,,,,,,,,61035cde69aaa4298e4e3dd1,610367388d2d09ec85bb0ae4,2021-07-29_21h43.48.147,Simcolourproject_2stim_asymm_v5,2020.2.10,Win32,60,61025ae37ef11b136ea224fe,,,,,,,,,1771,146,-52,1,0,0,response3disk,,5,7,4,1,0,0,rectangle,7,4,1,0,0,7,4,1,0,0,0,79,79,86,1,,,,,,,,
,,,,,,,,,,,,,FF,,,,,,,,1.8519,,,,,,,,,,,,,,,,,,,,,,61035cde69aaa4298e4e3dd1,610367388d2d09ec85bb0ae4,2021-07-29_21h43.48.147,Simcolourproject_2stim_asymm_v5,2020.2.10,Win32,60,61025ae37ef11b136ea224fe,,,,,,,,,4339,118,-52,1,0,0,response3disk,,5,23,8,1,0,0,rectangle,23,8,1,0,0,23,8,1,0,0,0,80,80,50,1,,,,,,,,
,,,,,,,,,,,,,FF,,,,,,,,1.1131,,,,,,,,,,,,,,,,,,,,,,61035cde69aaa4298e4e3dd1,610367388d2d09ec85bb0ae4,2021-07-29_21h43.48.147,Simcolourproject_2stim_asymm_v5,2020.2.10,Win32,60,61025ae37ef11b136ea224fe,,,,,,,,,717,-55,91,1,0,0,response7disk,,0,-8,-6,1,0,0,rectangle,-8,-6,1,0,0,-8,-6,1,0,0,0,81,81,112,1,,,,,,,,
,,,,,,,,,,,,,FF,,,,,,,,1.585,,,,,,,,,,,,,,,,,,,,,,61035cde69aaa4298e4e3dd1,610367388d2d09ec85bb0ae4,2021-07-29_21h43.48.147,Simcolourproject_2stim_asymm_v5,2020.2.10,Win32,60,61025ae37ef11b136ea224fe,,,,,,,,,1633,124,-46,1,0,0,response3disk,,5,23,-11,1,0,0,rectangle,-102,48,1,0,0,28,-9,1,0,0,0,82,82,149,1,,response7disk_3,TRUE,1,1,"[190,282,211,269,237,289,152,137,83,320,175,94,141,179,110,141,49,68,196,205]",1.5684,rectangle
,,,,,,,,,,,,,FF,,,,,,,,0.7562,,,,,,,,,,,,,,,,,,,,,,61035cde69aaa4298e4e3dd1,610367388d2d09ec85bb0ae4,2021-07-29_21h43.48.147,Simcolourproject_2stim_asymm_v5,2020.2.10,Win32,60,61025ae37ef11b136ea224fe,,,,,,,,,3336,-57,87,1,0,0,response7disk,,0,-25,6,1,0,0,rectangle,-25,6,1,0,0,-25,6,1,0,0,0,83,83,125,1,,,,,,,,
,,,,,,,,,,,,,FF,,,,,,,,1.4182,,,,,,,,,,,,,,,,,,,,,,61035cde69aaa4298e4e3dd1,610367388d2d09ec85bb0ae4,2021-07-29_21h43.48.147,Simcolourproject_2stim_asymm_v5,2020.2.10,Win32,60,61025ae37ef11b136ea224fe,,,,,,,,,1187,-45,-131,1,0,0,response5disk,,3,-18,-4,1,0,0,rectangle,-18,-4,1,0,0,-18,-4,1,0,0,0,84,84,4,1,,,,,,,,
,,,,,,,,,,,,,FF,,,,,,,,1.7804,,,,,,,,,,,,,,,,,,,,,,61035cde69aaa4298e4e3dd1,610367388d2d09ec85bb0ae4,2021-07-29_21h43.48.147,Simcolourproject_2stim_asymm_v5,2020.2.10,Win32,60,61025ae37ef11b136ea224fe,,,,,,,,,3144,114,-59,1,0,0,response3disk,,5,-6,-6,1,0,0,rectangle,-6,-6,1,0,0,-6,-6,1,0,0,0,85,85,147,1,,,,,,,,
,,,,,,,,,,,,,FF,,,,,,,,0.7172,,,,,,,,,,,,,,,,,,,,,,61035cde69aaa4298e4e3dd1,610367388d2d09ec85bb0ae4,2021-07-29_21h43.48.147,Simcolourproject_2stim_asymm_v5,2020.2.10,Win32,60,61025ae37ef11b136ea224fe,,,,,,,,,968,-54,110,1,0,0,response7disk,,0,3,-3,1,0,0,rectangle,3,-3,1,0,0,3,-3,1,0,0,0,86,86,123,1,,,,,,,,
,,,,,,,,,,,,,FF,,,,,,,,1.2684,,,,,,,,,,,,,,,,,,,,,,61035cde69aaa4298e4e3dd1,610367388d2d09ec85bb0ae4,2021-07-29_21h43.48.147,Simcolourproject_2stim_asymm_v5,2020.2.10,Win32,60,61025ae37ef11b136ea224fe,,,,,,,,,4264,92,-128,1,0,0,response3disk,,4,-16,2,1,0,0,rectangle,-16,2,1,0,0,-16,2,1,0,0,0,87,87,2,1,,,,,,,,
,,,,,,,,,,,,,FF,,,,,,,,1.4348,,,,,,,,,,,,,,,,,,,,,,61035cde69aaa4298e4e3dd1,610367388d2d09ec85bb0ae4,2021-07-29_21h43.48.147,Simcolourproject_2stim_asymm_v5,2020.2.10,Win32,60,61025ae37ef11b136ea224fe,,,,,,,,,3539,119,52,1,0,0,response1disk,,6,12,1,1,0,0,rectangle,12,1,1,0,0,12,1,1,0,0,0,88,88,159,1,,,,,,,,
,,,,,,,,,,,,,FF,,,,,,,,1.3683,,,,,,,,,,,,,,,,,,,,,,61035cde69aaa4298e4e3dd1,610367388d2d09ec85bb0ae4,2021-07-29_21h43.48.147,Simcolourproject_2stim_asymm_v5,2020.2.10,Win32,60,61025ae37ef11b136ea224fe,,,,,,,,,644,-106,-50,1,0,0,response5disk,,2,-2,7,1,0,0,rectangle,-2,7,1,0,0,-2,7,1,0,0,0,89,89,124,1,,,,,,,,
,,,,,,,,,,,,,FF,,,,,,,,1.619,,,,,,,,,,,,,,,,,,,,,,61035cde69aaa4298e4e3dd1,610367388d2d09ec85bb0ae4,2021-07-29_21h43.48.147,Simcolourproject_2stim_asymm_v5,2020.2.10,Win32,60,61025ae37ef11b136ea224fe,,,,,,,,,169,-54,-125,1,0,0,response5disk,,3,12,-19,1,0,0,rectangle,12,-19,1,0,0,12,-19,1,0,0,0,90,90,38,1,,,,,,,,
,,,,,,,,,,,,,FF,,,,,,,,0.6842,,,,,,,,,,,,,,,,,,,,,,61035cde69aaa4298e4e3dd1,610367388d2d09ec85bb0ae4,2021-07-29_21h43.48.147,Simcolourproject_2stim_asymm_v5,2020.2.10,Win32,60,61025ae37ef11b136ea224fe,,,,,,,,,737,102,-60,1,0,0,response3disk,,5,15,0,1,0,0,rectangle,15,0,1,0,0,15,0,1,0,0,0,91,91,144,1,,,,,,,,
,,,,,,,,,,,,,FF,,,,,,,,1.1511,,,,,,,,,,,,,,,,,,,,,,61035cde69aaa4298e4e3dd1,610367388d2d09ec85bb0ae4,2021-07-29_21h43.48.147,Simcolourproject_2stim_asymm_v5,2020.2.10,Win32,60,61025ae37ef11b136ea224fe,,,,,,,,,4052,58,-146,1,0,0,response3disk,,4,-30,-15,1,0,0,rectangle,-30,-15,1,0,0,-30,-15,1,0,0,0,92,92,88,1,,,,,,,,
,,,,,,,,,,,,,FF,,,,,,,,0.7345,,,,,,,,,,,,,,,,,,,,,,61035cde69aaa4298e4e3dd1,610367388d2d09ec85bb0ae4,2021-07-29_21h43.48.147,Simcolourproject_2stim_asymm_v5,2020.2.10,Win32,60,61025ae37ef11b136ea224fe,,,,,,,,,4305,-47,88,1,0,0,response7disk,,0,-10,9,1,0,0,rectangle,-44,-132,1,0,0,8,2,1,0,0,0,93,93,157,1,,response5disk_3,TRUE,3,3,"[190,282,211,269,237,289,152,137,83,320,175,94,141,179,110,141,49,68,196,205]",2.3019,rectangle
,,,,,,,,,,,,,FF,,,,,,,,1.0891,,,,,,,,,,,,,,,,,,,,,,61035cde69aaa4298e4e3dd1,610367388d2d09ec85bb0ae4,2021-07-29_21h43.48.147,Simcolourproject_2stim_asymm_v5,2020.2.10,Win32,60,61025ae37ef11b136ea224fe,,,,,,,,,706,95,-121,1,0,0,response3disk,,4,-29,-15,1,0,0,rectangle,-29,-15,1,0,0,-29,-15,1,0,0,0,94,94,107,1,,,,,,,,
,,,,,,,,,,,,,FF,,,,,,,,1.151,,,,,,,,,,,,,,,,,,,,,,61035cde69aaa4298e4e3dd1,610367388d2d09ec85bb0ae4,2021-07-29_21h43.48.147,Simcolourproject_2stim_asymm_v5,2020.2.10,Win32,60,61025ae37ef11b136ea224fe,,,,,,,,,3605,-61,-117,1,0,0,response5disk,,3,-17,-2,1,0,0,rectangle,-17,-2,1,0,0,-17,-2,1,0,0,0,95,95,36,1,,,,,,,,
,,,,,,,,,,,,,FF,,,,,,,,1.585,,,,,,,,,,,,,,,,,,,,,,61035cde69aaa4298e4e3dd1,610367388d2d09ec85bb0ae4,2021-07-29_21h43.48.147,Simcolourproject_2stim_asymm_v5,2020.2.10,Win32,60,61025ae37ef11b136ea224fe,,,,,,,,,588,93,-122,1,0,0,response3disk,,4,34,4,1,0,0,rectangle,34,4,1,0,0,34,4,1,0,0,0,96,96,73,1,,,,,,,,
,,,,,,,,,,,,,FF,,,,,,,,1.0184,,,,,,,,,,,,,,,,,,,,,,61035cde69aaa4298e4e3dd1,610367388d2d09ec85bb0ae4,2021-07-29_21h43.48.147,Simcolourproject_2stim_asymm_v5,2020.2.10,Win32,60,61025ae37ef11b136ea224fe,,,,,,,,,2280,112,38,1,0,0,response1disk,,6,13,14,1,0,0,rectangle,13,14,1,0,0,13,14,1,0,0,0,97,97,24,1,,,,,,,,
,,,,,,,,,,,,,FF,,,,,,,,1.5682,,,,,,,,,,,,,,,,,,,,,,61035cde69aaa4298e4e3dd1,610367388d2d09ec85bb0ae4,2021-07-29_21h43.48.147,Simcolourproject_2stim_asymm_v5,2020.2.10,Win32,60,61025ae37ef11b136ea224fe,,,,,,,,,3111,-66,-109,1,0,0,response5disk,,3,-13,-7,1,0,0,rectangle,-13,-7,1,0,0,-13,-7,1,0,0,0,98,98,95,1,,,,,,,,
,,,,,,,,,,,,,FF,,,,,,,,1.5679,,,,,,,,,,,,,,,,,,,,,,61035cde69aaa4298e4e3dd1,610367388d2d09ec85bb0ae4,2021-07-29_21h43.48.147,Simcolourproject_2stim_asymm_v5,2020.2.10,Win32,60,61025ae37ef11b136ea224fe,,,,,,,,,1672,64,-109,1,0,0,response3disk,,4,-8,-9,1,0,0,rectangle,-8,-9,1,0,0,-8,-9,1,0,0,0,99,99,23,1,,,,,,,,
,,,,,,,,,,,,,FF,,,,,,,,1.0061,,,,,,,,,,,,,,,,,,,,,,61035cde69aaa4298e4e3dd1,610367388d2d09ec85bb0ae4,2021-07-29_21h43.48.147,Simcolourproject_2stim_asymm_v5,2020.2.10,Win32,60,61025ae37ef11b136ea224fe,,,,,,,,,2706,122,-85,1,0,0,response3disk,,5,-13,-8,1,0,0,rectangle,-13,-8,1,0,0,-13,-8,1,0,0,0,100,100,108,1,,,,,,,,
,,,,,,,,,,,,,FF,,,,,,,,1.1509,,,,,,,,,,,,,,,,,,,,,,61035cde69aaa4298e4e3dd1,610367388d2d09ec85bb0ae4,2021-07-29_21h43.48.147,Simcolourproject_2stim_asymm_v5,2020.2.10,Win32,60,61025ae37ef11b136ea224fe,,,,,,,,,2013,140,-61,1,0,0,response3disk,,5,44,13,1,0,0,rectangle,44,13,1,0,0,44,13,1,0,0,0,101,101,80,1,,,,,,,,
,,,,,,,,,,,,,FF,,,,,,,,1.4848,,,,,,,,,,,,,,,,,,,,,,61035cde69aaa4298e4e3dd1,610367388d2d09ec85bb0ae4,2021-07-29_21h43.48.147,Simcolourproject_2stim_asymm_v5,2020.2.10,Win32,60,61025ae37ef11b136ea224fe,,,,,,,,,570,100,-147,1,0,0,response3disk,,4,-25,-19,1,0,0,rectangle,-25,-19,1,0,0,-25,-19,1,0,0,0,102,102,64,1,,,,,,,,
,,,,,,,,,,,,,FF,,,,,,,,0.8008,,,,,,,,,,,,,,,,,,,,,,61035cde69aaa4298e4e3dd1,610367388d2d09ec85bb0ae4,2021-07-29_21h43.48.147,Simcolourproject_2stim_asymm_v5,2020.2.10,Win32,60,61025ae37ef11b136ea224fe,,,,,,,,,3450,109,62,1,0,0,response1disk,,6,-1,5,1,0,0,rectangle,-1,5,1,0,0,-1,5,1,0,0,0,103,103,66,1,,,,,,,,
,,,,,,,,,,,,,FF,,,,,,,,1.0012,,,,,,,,,,,,,,,,,,,,,,61035cde69aaa4298e4e3dd1,610367388d2d09ec85bb0ae4,2021-07-29_21h43.48.147,Simcolourproject_2stim_asymm_v5,2020.2.10,Win32,60,61025ae37ef11b136ea224fe,,,,,,,,,2908,144,-81,1,0,0,response3disk,,5,-29,9,1,0,0,rectangle,-29,9,1,0,0,-29,9,1,0,0,0,104,104,65,1,,,,,,,,
,,,,,,,,,,,,,FF,,,,,,,,1.1509,,,,,,,,,,,,,,,,,,,,,,61035cde69aaa4298e4e3dd1,610367388d2d09ec85bb0ae4,2021-07-29_21h43.48.147,Simcolourproject_2stim_asymm_v5,2020.2.10,Win32,60,61025ae37ef11b136ea224fe,,,,,,,,,2460,167,41,1,0,0,response1disk,,6,5,-2,1,0,0,rectangle,5,-2,1,0,0,5,-2,1,0,0,0,105,105,96,1,,,,,,,,
,,,,,,,,,,,,,FF,,,,,,,,0.8559,,,,,,,,,,,,,,,,,,,,,,61035cde69aaa4298e4e3dd1,610367388d2d09ec85bb0ae4,2021-07-29_21h43.48.147,Simcolourproject_2stim_asymm_v5,2020.2.10,Win32,60,61025ae37ef11b136ea224fe,,,,,,,,,396,116,-62,1,0,0,response3disk,,5,5,-14,1,0,0,rectangle,5,-14,1,0,0,5,-14,1,0,0,0,106,106,47,1,,,,,,,,
,,,,,,,,,,,,,FF,,,,,,,,1.4515,,,,,,,,,,,,,,,,,,,,,,61035cde69aaa4298e4e3dd1,610367388d2d09ec85bb0ae4,2021-07-29_21h43.48.147,Simcolourproject_2stim_asymm_v5,2020.2.10,Win32,60,61025ae37ef11b136ea224fe,,,,,,,,,521,136,51,1,0,0,response1disk,,6,10,8,1,0,0,rectangle,10,8,1,0,0,10,8,1,0,0,0,107,107,13,1,,,,,,,,
,,,,,,,,,,,,,FF,,,,,,,,1.0682,,,,,,,,,,,,,,,,,,,,,,61035cde69aaa4298e4e3dd1,610367388d2d09ec85bb0ae4,2021-07-29_21h43.48.147,Simcolourproject_2stim_asymm_v5,2020.2.10,Win32,60,61025ae37ef11b136ea224fe,,,,,,,,,3772,143,24,1,0,0,response1disk,,6,33,16,1,0,0,rectangle,33,16,1,0,0,33,16,1,0,0,0,108,108,17,1,,,,,,,,
,,,,,,,,,,,,,FF,,,,,,,,3.8035,,,,,,,,,,,,,,,,,,,,,,61035cde69aaa4298e4e3dd1,610367388d2d09ec85bb0ae4,2021-07-29_21h43.48.147,Simcolourproject_2stim_asymm_v5,2020.2.10,Win32,60,61025ae37ef11b136ea224fe,,,,,,,,,3774,117,-59,1,0,0,response3disk,,5,0,-10,1,0,0,rectangle,-109,44,1,0,0,1,13,1,0,0,0,109,109,41,1,,response7disk_3,TRUE,1,1,"[190,282,211,269,237,289,152,137,83,320,175,94,141,179,110,141,49,68,196,205]",1.6178,rectangle
,,,,,,,,,,,,,FF,,,,,,,,1.1843,,,,,,,,,,,,,,,,,,,,,,61035cde69aaa4298e4e3dd1,610367388d2d09ec85bb0ae4,2021-07-29_21h43.48.147,Simcolourproject_2stim_asymm_v5,2020.2.10,Win32,60,61025ae37ef11b136ea224fe,,,,,,,,,182,-59,-94,1,0,0,response5disk,,3,-13,12,1,0,0,rectangle,-13,12,1,0,0,-13,12,1,0,0,0,110,110,48,1,,,,,,,,
,,,,,,,,,,,,,FF,,,,,,,,1.1795,,,,,,,,,,,,,,,,,,,,,,61035cde69aaa4298e4e3dd1,610367388d2d09ec85bb0ae4,2021-07-29_21h43.48.147,Simcolourproject_2stim_asymm_v5,2020.2.10,Win32,60,61025ae37ef11b136ea224fe,,,,,,,,,3745,-55,-133,1,0,0,response5disk,,3,31,-7,1,0,0,rectangle,31,-7,1,0,0,31,-7,1,0,0,0,111,111,145,1,,,,,,,,
,,,,,,,,,,,,,FF,,,,,,,,0.9631,,,,,,,,,,,,,,,,,,,,,,61035cde69aaa4298e4e3dd1,610367388d2d09ec85bb0ae4,2021-07-29_21h43.48.147,Simcolourproject_2stim_asymm_v5,2020.2.10,Win32,60,61025ae37ef11b136ea224fe,,,,,,,,,954,51,-130,1,0,0,response3disk,,4,39,-12,1,0,0,rectangle,39,-12,1,0,0,39,-12,1,0,0,0,112,112,111,1,,,,,,,,
,,,,,,,,,,,,,FF,,,,,,,,1.0958,,,,,,,,,,,,,,,,,,,,,,61035cde69aaa4298e4e3dd1,610367388d2d09ec85bb0ae4,2021-07-29_21h43.48.147,Simcolourproject_2stim_asymm_v5,2020.2.10,Win32,60,61025ae37ef11b136ea224fe,,,,,,,,,434,63,-140,1,0,0,response3disk,,4,0,8,1,0,0,rectangle,0,8,1,0,0,0,8,1,0,0,0,113,113,109,1,,,,,,,,
,,,,,,,,,,,,,FF,,,,,,,,0.8627,,,,,,,,,,,,,,,,,,,,,,61035cde69aaa4298e4e3dd1,610367388d2d09ec85bb0ae4,2021-07-29_21h43.48.147,Simcolourproject_2stim_asymm_v5,2020.2.10,Win32,60,61025ae37ef11b136ea224fe,,,,,,,,,1402,141,-64,1,0,0,response3disk,,5,5,10,1,0,0,rectangle,5,10,1,0,0,5,10,1,0,0,0,114,114,97,1,,,,,,,,
,,,,,,,,,,,,,FF,,,,,,,,0.8291,,,,,,,,,,,,,,,,,,,,,,61035cde69aaa4298e4e3dd1,610367388d2d09ec85bb0ae4,2021-07-29_21h43.48.147,Simcolourproject_2stim_asymm_v5,2020.2.10,Win32,60,61025ae37ef11b136ea224fe,,,,,,,,,1041,151,60,1,0,0,response1disk,,6,-12,8,1,0,0,rectangle,-12,8,1,0,0,-12,8,1,0,0,0,115,115,71,1,,,,,,,,
,,,,,,,,,,,,,FF,,,,,,,,0.7626,,,,,,,,,,,,,,,,,,,,,,61035cde69aaa4298e4e3dd1,610367388d2d09ec85bb0ae4,2021-07-29_21h43.48.147,Simcolourproject_2stim_asymm_v5,2020.2.10,Win32,60,61025ae37ef11b136ea224fe,,,,,,,,,587,161,36,1,0,0,response1disk,,6,-8,-15,1,0,0,rectangle,-8,-15,1,0,0,-8,-15,1,0,0,0,116,116,40,1,,,,,,,,
,,,,,,,,,,,,,FF,,,,,,,,1.0013,,,,,,,,,,,,,,,,,,,,,,61035cde69aaa4298e4e3dd1,610367388d2d09ec85bb0ae4,2021-07-29_21h43.48.147,Simcolourproject_2stim_asymm_v5,2020.2.10,Win32,60,61025ae37ef11b136ea224fe,,,,,,,,,4238,106,53,1,0,0,response1disk,,6,2,10,1,0,0,rectangle,2,10,1,0,0,2,10,1,0,0,0,117,117,30,1,,,,,,,,
,,,,,,,,,,,,,FF,,,,,,,,1.4899,,,,,,,,,,,,,,,,,,,,,,61035cde69aaa4298e4e3dd1,610367388d2d09ec85bb0ae4,2021-07-29_21h43.48.147,Simcolourproject_2stim_asymm_v5,2020.2.10,Win32,60,61025ae37ef11b136ea224fe,,,,,,,,,3735,93,62,1,0,0,response1disk,,6,-19,-18,1,0,0,rectangle,-19,-18,1,0,0,-19,-18,1,0,0,0,118,118,46,1,,,,,,,,
,,,,,,,,,,,,,FF,,,,,,,,1.8686,,,,,,,,,,,,,,,,,,,,,,61035cde69aaa4298e4e3dd1,610367388d2d09ec85bb0ae4,2021-07-29_21h43.48.147,Simcolourproject_2stim_asymm_v5,2020.2.10,Win32,60,61025ae37ef11b136ea224fe,,,,,,,,,1165,139,62,1,0,0,response1disk,,6,19,1,1,0,0,rectangle,19,1,1,0,0,19,1,1,0,0,0,119,119,44,1,,,,,,,,
,,,,,,,,,,,,,FF,,,,,,,,1.051,,,,,,,,,,,,,,,,,,,,,,61035cde69aaa4298e4e3dd1,610367388d2d09ec85bb0ae4,2021-07-29_21h43.48.147,Simcolourproject_2stim_asymm_v5,2020.2.10,Win32,60,61025ae37ef11b136ea224fe,,,,,,,,,3079,133,29,1,0,0,response1disk,,6,-4,6,1,0,0,rectangle,-4,6,1,0,0,-4,6,1,0,0,0,120,120,16,1,,,,,,,,
,,,,,,,,,,,,,FF,,,,,,,,1.0843,,,,,,,,,,,,,,,,,,,,,,61035cde69aaa4298e4e3dd1,610367388d2d09ec85bb0ae4,2021-07-29_21h43.48.147,Simcolourproject_2stim_asymm_v5,2020.2.10,Win32,60,61025ae37ef11b136ea224fe,,,,,,,,,4011,130,60,1,0,0,response1disk,,6,27,2,1,0,0,rectangle,27,2,1,0,0,27,2,1,0,0,0,121,121,18,1,,,,,,,,
,,,,,,,,,,,,,FF,,,,,,,,2.141,,,,,,,,,,,,,,,,,,,,,,61035cde69aaa4298e4e3dd1,610367388d2d09ec85bb0ae4,2021-07-29_21h43.48.147,Simcolourproject_2stim_asymm_v5,2020.2.10,Win32,60,61025ae37ef11b136ea224fe,,,,,,,,,2605,-27,-144,1,0,0,response5disk,,3,-1,1,1,0,0,rectangle,-1,1,1,0,0,-1,1,1,0,0,0,122,122,1,1,,,,,,,,
,,,,,,,,,,,,,FF,,,,,,,,0.9008,,,,,,,,,,,,,,,,,,,,,,61035cde69aaa4298e4e3dd1,610367388d2d09ec85bb0ae4,2021-07-29_21h43.48.147,Simcolourproject_2stim_asymm_v5,2020.2.10,Win32,60,61025ae37ef11b136ea224fe,,,,,,,,,435,70,-109,1,0,0,response3disk,,4,22,3,1,0,0,rectangle,22,3,1,0,0,22,3,1,0,0,0,123,123,83,1,,,,,,,,
,,,,,,,,,,,,,FF,,,,,,,,1.1682,,,,,,,,,,,,,,,,,,,,,,61035cde69aaa4298e4e3dd1,610367388d2d09ec85bb0ae4,2021-07-29_21h43.48.147,Simcolourproject_2stim_asymm_v5,2020.2.10,Win32,60,61025ae37ef11b136ea224fe,,,,,,,,,3685,63,-105,1,0,0,response3disk,,4,27,-16,1,0,0,rectangle,27,-16,1,0,0,27,-16,1,0,0,0,124,124,63,1,,,,,,,,
,,,,,,,,,,,,,FF,,,,,,,,0.7965,,,,,,,,,,,,,,,,,,,,,,61035cde69aaa4298e4e3dd1,610367388d2d09ec85bb0ae4,2021-07-29_21h43.48.147,Simcolourproject_2stim_asymm_v5,2020.2.10,Win32,60,61025ae37ef11b136ea224fe,,,,,,,,,155,48,-82,1,0,0,response3disk,,4,-12,-1,1,0,0,rectangle,-12,-1,1,0,0,-12,-1,1,0,0,0,125,125,56,1,,,,,,,,
,,,,,,,,,,,,,FF,,,,,,,,0.9015,,,,,,,,,,,,,,,,,,,,,,61035cde69aaa4298e4e3dd1,610367388d2d09ec85bb0ae4,2021-07-29_21h43.48.147,Simcolourproject_2stim_asymm_v5,2020.2.10,Win32,60,61025ae37ef11b136ea224fe,,,,,,,,,74,114,42,1,0,0,response1disk,,6,-2,0,1,0,0,rectangle,-2,0,1,0,0,-2,0,1,0,0,0,126,126,101,1,,,,,,,,
,,,,,,,,,,,,,FF,,,,,,,,1.2347,,,,,,,,,,,,,,,,,,,,,,61035cde69aaa4298e4e3dd1,610367388d2d09ec85bb0ae4,2021-07-29_21h43.48.147,Simcolourproject_2stim_asymm_v5,2020.2.10,Win32,60,61025ae37ef11b136ea224fe,,,,,,,,,3373,-134,-84,1,0,0,response5disk,,2,-2,-9,1,0,0,rectangle,-2,-9,1,0,0,-2,-9,1,0,0,0,127,127,76,1,,,,,,,,
,,,,,,,,,,,,,FF,,,,,,,,2.2691,,,,,,,,,,,,,,,,,,,,,,61035cde69aaa4298e4e3dd1,610367388d2d09ec85bb0ae4,2021-07-29_21h43.48.147,Simcolourproject_2stim_asymm_v5,2020.2.10,Win32,60,61025ae37ef11b136ea224fe,,,,,,,,,21,143,-72,1,0,0,response3disk,,5,-4,-1,1,0,0,rectangle,-4,-1,1,0,0,-4,-1,1,0,0,0,128,128,127,1,,,,,,,,
,,,,,,,,,,,,,FF,,,,,,,,1.0846,,,,,,,,,,,,,,,,,,,,,,61035cde69aaa4298e4e3dd1,610367388d2d09ec85bb0ae4,2021-07-29_21h43.48.147,Simcolourproject_2stim_asymm_v5,2020.2.10,Win32,60,61025ae37ef11b136ea224fe,,,,,,,,,3985,50,-113,1,0,0,response3disk,,4,-27,0,1,0,0,rectangle,-27,0,1,0,0,-27,0,1,0,0,0,129,129,37,1,,,,,,,,
,,,,,,,,,,,,,FF,,,,,,,,1.2688,,,,,,,,,,,,,,,,,,,,,,61035cde69aaa4298e4e3dd1,610367388d2d09ec85bb0ae4,2021-07-29_21h43.48.147,Simcolourproject_2stim_asymm_v5,2020.2.10,Win32,60,61025ae37ef11b136ea224fe,,,,,,,,,3528,148,35,1,0,0,response1disk,,6,-26,-5,1,0,0,rectangle,-26,-5,1,0,0,-26,-5,1,0,0,0,130,130,35,1,,,,,,,,
,,,,,,,,,,,,,FF,,,,,,,,0.9346,,,,,,,,,,,,,,,,,,,,,,61035cde69aaa4298e4e3dd1,610367388d2d09ec85bb0ae4,2021-07-29_21h43.48.147,Simcolourproject_2stim_asymm_v5,2020.2.10,Win32,60,61025ae37ef11b136ea224fe,,,,,,,,,2181,-52,-120,1,0,0,response5disk,,3,-15,-17,1,0,0,rectangle,-15,-17,1,0,0,-15,-17,1,0,0,0,131,131,79,1,,,,,,,,
,,,,,,,,,,,,,FF,,,,,,,,1.0346,,,,,,,,,,,,,,,,,,,,,,61035cde69aaa4298e4e3dd1,610367388d2d09ec85bb0ae4,2021-07-29_21h43.48.147,Simcolourproject_2stim_asymm_v5,2020.2.10,Win32,60,61025ae37ef11b136ea224fe,,,,,,,,,1482,55,-121,1,0,0,response3disk,,4,32,-12,1,0,0,rectangle,32,-12,1,0,0,32,-12,1,0,0,0,132,132,136,1,,,,,,,,
,,,,,,,,,,,,,FF,,,,,,,,1.168,,,,,,,,,,,,,,,,,,,,,,61035cde69aaa4298e4e3dd1,610367388d2d09ec85bb0ae4,2021-07-29_21h43.48.147,Simcolourproject_2stim_asymm_v5,2020.2.10,Win32,60,61025ae37ef11b136ea224fe,,,,,,,,,1647,80,-77,1,0,0,response3disk,,5,1,-2,1,0,0,rectangle,1,-2,1,0,0,1,-2,1,0,0,0,133,133,110,1,,,,,,,,
,,,,,,,,,,,,,FF,,,,,,,,1.2517,,,,,,,,,,,,,,,,,,,,,,61035cde69aaa4298e4e3dd1,610367388d2d09ec85bb0ae4,2021-07-29_21h43.48.147,Simcolourproject_2stim_asymm_v5,2020.2.10,Win32,60,61025ae37ef11b136ea224fe,,,,,,,,,2050,80,-113,1,0,0,response3disk,,4,11,-8,1,0,0,rectangle,11,-8,1,0,0,11,-8,1,0,0,0,134,134,119,1,,,,,,,,
,,,,,,,,,,,,,FF,,,,,,,,0.9626,,,,,,,,,,,,,,,,,,,,,,61035cde69aaa4298e4e3dd1,610367388d2d09ec85bb0ae4,2021-07-29_21h43.48.147,Simcolourproject_2stim_asymm_v5,2020.2.10,Win32,60,61025ae37ef11b136ea224fe,,,,,,,,,1232,-92,-71,1,0,0,response5disk,,2,-15,-3,1,0,0,rectangle,-15,-3,1,0,0,-15,-3,1,0,0,0,135,135,20,1,,,,,,,,
,,,,,,,,,,,,,FF,,,,,,,,0.7461,,,,,,,,,,,,,,,,,,,,,,61035cde69aaa4298e4e3dd1,610367388d2d09ec85bb0ae4,2021-07-29_21h43.48.147,Simcolourproject_2stim_asymm_v5,2020.2.10,Win32,60,61025ae37ef11b136ea224fe,,,,,,,,,868,166,70,1,0,0,response1disk,,6,14,19,1,0,0,rectangle,139,62,1,0,0,-9,-10,1,0,0,0,136,136,94,1,,response1disk_3,TRUE,6,6,"[190,282,211,269,237,289,152,137,83,320,175,94,141,179,110,141,49,68,196,205]",1.9352,rectangle
,,,,,,,,,,,,,FF,,,,,,,,2.631,,,,,,,,,,,,,,,,,,,,,,61035cde69aaa4298e4e3dd1,610367388d2d09ec85bb0ae4,2021-07-29_21h43.48.147,Simcolourproject_2stim_asymm_v5,2020.2.10,Win32,60,61025ae37ef11b136ea224fe,,,,,,,,,3916,79,-118,1,0,0,response3disk,,4,-32,2,1,0,0,rectangle,-32,2,1,0,0,-32,2,1,0,0,0,137,137,92,1,,,,,,,,
,,,,,,,,,,,,,FF,,,,,,,,1.2846,,,,,,,,,,,,,,,,,,,,,,61035cde69aaa4298e4e3dd1,610367388d2d09ec85bb0ae4,2021-07-29_21h43.48.147,Simcolourproject_2stim_asymm_v5,2020.2.10,Win32,60,61025ae37ef11b136ea224fe,,,,,,,,,941,120,27,1,0,0,response1disk,,6,-3,14,1,0,0,rectangle,-3,14,1,0,0,-3,14,1,0,0,0,138,138,87,1,,,,,,,,
,,,,,,,,,,,,,FF,,,,,,,,0.8839,,,,,,,,,,,,,,,,,,,,,,61035cde69aaa4298e4e3dd1,610367388d2d09ec85bb0ae4,2021-07-29_21h43.48.147,Simcolourproject_2stim_asymm_v5,2020.2.10,Win32,60,61025ae37ef11b136ea224fe,,,,,,,,,936,152,61,1,0,0,response1disk,,6,-20,12,1,0,0,rectangle,-20,12,1,0,0,-20,12,1,0,0,0,139,139,132,1,,,,,,,,
,,,,,,,,,,,,,FF,,,,,,,,1.3184,,,,,,,,,,,,,,,,,,,,,,61035cde69aaa4298e4e3dd1,610367388d2d09ec85bb0ae4,2021-07-29_21h43.48.147,Simcolourproject_2stim_asymm_v5,2020.2.10,Win32,60,61025ae37ef11b136ea224fe,,,,,,,,,2707,119,64,1,0,0,response1disk,,6,7,-1,1,0,0,rectangle,48,116,1,0,0,-12,-6,1,0,0,0,140,140,126,1,,response1disk_3,TRUE,7,7,"[190,282,211,269,237,289,152,137,83,320,175,94,141,179,110,141,49,68,196,205]",1.6517,rectangle
,,,,,,,,,,,,,FF,,,,,,,,1.6017,,,,,,,,,,,,,,,,,,,,,,61035cde69aaa4298e4e3dd1,610367388d2d09ec85bb0ae4,2021-07-29_21h43.48.147,Simcolourproject_2stim_asymm_v5,2020.2.10,Win32,60,61025ae37ef11b136ea224fe,,,,,,,,,4165,152,-53,1,0,0,response3disk,,5,-19,-1,1,0,0,rectangle,-19,-1,1,0,0,-19,-1,1,0,0,0,141,141,105,1,,,,,,,,
,,,,,,,,,,,,,FF,,,,,,,,1.7636,,,,,,,,,,,,,,,,,,,,,,61035cde69aaa4298e4e3dd1,610367388d2d09ec85bb0ae4,2021-07-29_21h43.48.147,Simcolourproject_2stim_asymm_v5,2020.2.10,Win32,60,61025ae37ef11b136ea224fe,,,,,,,,,2205,69,-39,1,0,0,response3disk,,5,11,6,1,0,0,rectangle,11,6,1,0,0,11,6,1,0,0,0,142,142,140,1,,,,,,,,
,,,,,,,,,,,,,FF,,,,,,,,7.758,,,,,,,,,,,,,,,,,,,,,,61035cde69aaa4298e4e3dd1,610367388d2d09ec85bb0ae4,2021-07-29_21h43.48.147,Simcolourproject_2stim_asymm_v5,2020.2.10,Win32,60,61025ae37ef11b136ea224fe,,,,,,,,,3648,131,-64,1,0,0,response3disk,,5,0,-16,1,0,0,rectangle,0,-16,1,0,0,0,-16,1,0,0,0,143,143,31,1,,,,,,,,
,,,,,,,,,,,,,FF,,,,,,,,1.1178,,,,,,,,,,,,,,,,,,,,,,61035cde69aaa4298e4e3dd1,610367388d2d09ec85bb0ae4,2021-07-29_21h43.48.147,Simcolourproject_2stim_asymm_v5,2020.2.10,Win32,60,61025ae37ef11b136ea224fe,,,,,,,,,3784,78,-135,1,0,0,response3disk,,4,-14,-10,1,0,0,rectangle,-14,-10,1,0,0,-14,-10,1,0,0,0,144,144,121,1,,,,,,,,
,,,,,,,,,,,,,FF,,,,,,,,1.1563,,,,,,,,,,,,,,,,,,,,,,61035cde69aaa4298e4e3dd1,610367388d2d09ec85bb0ae4,2021-07-29_21h43.48.147,Simcolourproject_2stim_asymm_v5,2020.2.10,Win32,60,61025ae37ef11b136ea224fe,,,,,,,,,3769,62,-113,1,0,0,response3disk,,4,-13,20,1,0,0,rectangle,-13,20,1,0,0,-13,20,1,0,0,0,145,145,131,1,,,,,,,,
,,,,,,,,,,,,,FF,,,,,,,,1.0228,,,,,,,,,,,,,,,,,,,,,,61035cde69aaa4298e4e3dd1,610367388d2d09ec85bb0ae4,2021-07-29_21h43.48.147,Simcolourproject_2stim_asymm_v5,2020.2.10,Win32,60,61025ae37ef11b136ea224fe,,,,,,,,,523,70,-103,1,0,0,response3disk,,4,-23,-11,1,0,0,rectangle,-23,-11,1,0,0,-23,-11,1,0,0,0,146,146,15,1,,,,,,,,
,,,,,,,,,,,,,FF,,,,,,,,1.4679,,,,,,,,,,,,,,,,,,,,,,61035cde69aaa4298e4e3dd1,610367388d2d09ec85bb0ae4,2021-07-29_21h43.48.147,Simcolourproject_2stim_asymm_v5,2020.2.10,Win32,60,61025ae37ef11b136ea224fe,,,,,,,,,2530,147,-77,1,0,0,response3disk,,5,33,-21,1,0,0,rectangle,33,-21,1,0,0,33,-21,1,0,0,0,147,147,156,1,,,,,,,,
,,,,,,,,,,,,,FF,,,,,,,,1.5635,,,,,,,,,,,,,,,,,,,,,,61035cde69aaa4298e4e3dd1,610367388d2d09ec85bb0ae4,2021-07-29_21h43.48.147,Simcolourproject_2stim_asymm_v5,2020.2.10,Win32,60,61025ae37ef11b136ea224fe,,,,,,,,,464,129,-66,1,0,0,response3disk,,5,10,0,1,0,0,rectangle,10,0,1,0,0,10,0,1,0,0,0,148,148,103,1,,,,,,,,
,,,,,,,,,,,,,FF,,,,,,,,2.0238,,,,,,,,,,,,,,,,,,,,,,61035cde69aaa4298e4e3dd1,610367388d2d09ec85bb0ae4,2021-07-29_21h43.48.147,Simcolourproject_2stim_asymm_v5,2020.2.10,Win32,60,61025ae37ef11b136ea224fe,,,,,,,,,1335,116,-152,1,0,0,response3disk,,4,-22,-8,1,0,0,rectangle,-22,-8,1,0,0,-22,-8,1,0,0,0,149,149,62,1,,,,,,,,
,,,,,,,,,,,,,FF,,,,,,,,1.4856,,,,,,,,,,,,,,,,,,,,,,61035cde69aaa4298e4e3dd1,610367388d2d09ec85bb0ae4,2021-07-29_21h43.48.147,Simcolourproject_2stim_asymm_v5,2020.2.10,Win32,60,61025ae37ef11b136ea224fe,,,,,,,,,3716,148,41,1,0,0,response1disk,,6,-17,4,1,0,0,rectangle,-17,4,1,0,0,-17,4,1,0,0,0,150,150,12,1,,,,,,,,
,,,,,,,,,,,,,FF,,,,,,,,0.8339,,,,,,,,,,,,,,,,,,,,,,61035cde69aaa4298e4e3dd1,610367388d2d09ec85bb0ae4,2021-07-29_21h43.48.147,Simcolourproject_2stim_asymm_v5,2020.2.10,Win32,60,61025ae37ef11b136ea224fe,,,,,,,,,681,72,-113,1,0,0,response3disk,,4,3,15,1,0,0,rectangle,114,-52,1,0,0,-12,-6,1,0,0,0,151,151,28,1,,response3disk_3,TRUE,5,5,"[190,282,211,269,237,289,152,137,83,320,175,94,141,179,110,141,49,68,196,205]",1.6178,rectangle
,,,,,,,,,,,,,FF,,,,,,,,1.0512,,,,,,,,,,,,,,,,,,,,,,61035cde69aaa4298e4e3dd1,610367388d2d09ec85bb0ae4,2021-07-29_21h43.48.147,Simcolourproject_2stim_asymm_v5,2020.2.10,Win32,60,61025ae37ef11b136ea224fe,,,,,,,,,1173,87,-104,1,0,0,response3disk,,4,27,7,1,0,0,rectangle,27,7,1,0,0,27,7,1,0,0,0,152,152,133,1,,,,,,,,
,,,,,,,,,,,,,FF,,,,,,,,1.9859,,,,,,,,,,,,,,,,,,,,,,61035cde69aaa4298e4e3dd1,610367388d2d09ec85bb0ae4,2021-07-29_21h43.48.147,Simcolourproject_2stim_asymm_v5,2020.2.10,Win32,60,61025ae37ef11b136ea224fe,,,,,,,,,358,118,-72,1,0,0,response3disk,,5,-13,-16,1,0,0,rectangle,-13,-16,1,0,0,-13,-16,1,0,0,0,153,153,81,1,,,,,,,,
,,,,,,,,,,,,,FF,,,,,,,,0.8292,,,,,,,,,,,,,,,,,,,,,,61035cde69aaa4298e4e3dd1,610367388d2d09ec85bb0ae4,2021-07-29_21h43.48.147,Simcolourproject_2stim_asymm_v5,2020.2.10,Win32,60,61025ae37ef11b136ea224fe,,,,,,,,,3614,81,-130,1,0,0,response3disk,,4,-11,-5,1,0,0,rectangle,-11,-5,1,0,0,-11,-5,1,0,0,0,154,154,39,1,,,,,,,,
,,,,,,,,,,,,,FF,,,,,,,,2.0565,,,,,,,,,,,,,,,,,,,,,,61035cde69aaa4298e4e3dd1,610367388d2d09ec85bb0ae4,2021-07-29_21h43.48.147,Simcolourproject_2stim_asymm_v5,2020.2.10,Win32,60,61025ae37ef11b136ea224fe,,,,,,,,,2894,-108,-42,1,0,0,response5disk,,2,-27,20,1,0,0,rectangle,-27,20,1,0,0,-27,20,1,0,0,0,155,155,29,1,,,,,,,,
,,,,,,,,,,,,,FF,,,,,,,,1.168,,,,,,,,,,,,,,,,,,,,,,61035cde69aaa4298e4e3dd1,610367388d2d09ec85bb0ae4,2021-07-29_21h43.48.147,Simcolourproject_2stim_asymm_v5,2020.2.10,Win32,60,61025ae37ef11b136ea224fe,,,,,,,,,1915,55,-133,1,0,0,response3disk,,4,-17,-10,1,0,0,rectangle,-17,-10,1,0,0,-17,-10,1,0,0,0,156,156,10,1,,,,,,,,
,,,,,,,,,,,,,FF,,,,,,,,1.4854,,,,,,,,,,,,,,,,,,,,,,61035cde69aaa4298e4e3dd1,610367388d2d09ec85bb0ae4,2021-07-29_21h43.48.147,Simcolourproject_2stim_asymm_v5,2020.2.10,Win32,60,61025ae37ef11b136ea224fe,,,,,,,,,2918,159,-49,1,0,0,response3disk,,5,32,4,1,0,0,rectangle,32,4,1,0,0,32,4,1,0,0,0,157,157,115,1,,,,,,,,
,,,,,,,,,,,,,FF,,,,,,,,2.3691,,,,,,,,,,,,,,,,,,,,,,61035cde69aaa4298e4e3dd1,610367388d2d09ec85bb0ae4,2021-07-29_21h43.48.147,Simcolourproject_2stim_asymm_v5,2020.2.10,Win32,60,61025ae37ef11b136ea224fe,,,,,,,,,3481,128,-73,1,0,0,response3disk,,5,-2,2,1,0,0,rectangle,-2,2,1,0,0,-2,2,1,0,0,0,158,158,0,1,,,,,,,,
,,,,,,,,,,,,,FF,,,,,,,,0.9677,,,,,,,,,,,,,,,,,,,,,,61035cde69aaa4298e4e3dd1,610367388d2d09ec85bb0ae4,2021-07-29_21h43.48.147,Simcolourproject_2stim_asymm_v5,2020.2.10,Win32,60,61025ae37ef11b136ea224fe,,,,,,,,,552,148,-54,1,0,0,response3disk,,5,-17,3,1,0,0,rectangle,-17,3,1,0,0,-17,3,1,0,0,0,159,159,98,1,,,,,,,,
,,,,,,,,,,,,,FF,,,,,,,,1.1009,,,,,,,,,,,,,,,,,,,,,,61035cde69aaa4298e4e3dd1,610367388d2d09ec85bb0ae4,2021-07-29_21h43.48.147,Simcolourproject_2stim_asymm_v5,2020.2.10,Win32,60,61025ae37ef11b136ea224fe,,,,,,,,,3946,154,-31,1,0,0,response3disk,,5,-41,-6,1,0,0,rectangle,-41,-6,1,0,0,-41,-6,1,0,0,1,0,160,41,1,,,,,,,,
,,,,,,,,,,,,,FF,,,,,,,,1.1014,,,,,,,,,,,,,,,,,,,,,,61035cde69aaa4298e4e3dd1,610367388d2d09ec85bb0ae4,2021-07-29_21h43.48.147,Simcolourproject_2stim_asymm_v5,2020.2.10,Win32,60,61025ae37ef11b136ea224fe,,,,,,,,,1135,139,-54,1,0,0,response3disk,,5,36,4,1,0,0,rectangle,36,4,1,0,0,36,4,1,0,0,1,1,161,107,1,,,,,,,,
,,,,,,,,,,,,,FF,,,,,,,,0.984,,,,,,,,,,,,,,,,,,,,,,61035cde69aaa4298e4e3dd1,610367388d2d09ec85bb0ae4,2021-07-29_21h43.48.147,Simcolourproject_2stim_asymm_v5,2020.2.10,Win32,60,61025ae37ef11b136ea224fe,,,,,,,,,699,123,54,1,0,0,response1disk,,6,-2,15,1,0,0,rectangle,-2,15,1,0,0,-2,15,1,0,0,1,2,162,65,1,,,,,,,,
,,,,,,,,,,,,,FF,,,,,,,,0.8347,,,,,,,,,,,,,,,,,,,,,,61035cde69aaa4298e4e3dd1,610367388d2d09ec85bb0ae4,2021-07-29_21h43.48.147,Simcolourproject_2stim_asymm_v5,2020.2.10,Win32,60,61025ae37ef11b136ea224fe,,,,,,,,,2086,130,-63,1,0,0,response3disk,,5,-15,2,1,0,0,rectangle,-15,2,1,0,0,-15,2,1,0,0,1,3,163,52,1,,,,,,,,
,,,,,,,,,,,,,FF,,,,,,,,0.8841,,,,,,,,,,,,,,,,,,,,,,61035cde69aaa4298e4e3dd1,610367388d2d09ec85bb0ae4,2021-07-29_21h43.48.147,Simcolourproject_2stim_asymm_v5,2020.2.10,Win32,60,61025ae37ef11b136ea224fe,,,,,,,,,3791,137,24,1,0,0,response1disk,,6,25,8,1,0,0,rectangle,25,8,1,0,0,25,8,1,0,0,1,4,164,51,1,,,,,,,,
,,,,,,,,,,,,,FF,,,,,,,,1.3851,,,,,,,,,,,,,,,,,,,,,,61035cde69aaa4298e4e3dd1,610367388d2d09ec85bb0ae4,2021-07-29_21h43.48.147,Simcolourproject_2stim_asymm_v5,2020.2.10,Win32,60,61025ae37ef11b136ea224fe,,,,,,,,,1291,-35,-122,1,0,0,response5disk,,3,2,11,1,0,0,rectangle,2,11,1,0,0,2,11,1,0,0,1,5,165,152,1,,,,,,,,
,,,,,,,,,,,,,FF,,,,,,,,0.9013,,,,,,,,,,,,,,,,,,,,,,61035cde69aaa4298e4e3dd1,610367388d2d09ec85bb0ae4,2021-07-29_21h43.48.147,Simcolourproject_2stim_asymm_v5,2020.2.10,Win32,60,61025ae37ef11b136ea224fe,,,,,,,,,2494,142,-32,1,0,0,response3disk,,5,23,14,1,0,0,rectangle,23,14,1,0,0,23,14,1,0,0,1,6,166,44,1,,,,,,,,
,,,,,,,,,,,,,FF,,,,,,,,0.9179,,,,,,,,,,,,,,,,,,,,,,61035cde69aaa4298e4e3dd1,610367388d2d09ec85bb0ae4,2021-07-29_21h43.48.147,Simcolourproject_2stim_asymm_v5,2020.2.10,Win32,60,61025ae37ef11b136ea224fe,,,,,,,,,635,145,-69,1,0,0,response3disk,,5,-11,14,1,0,0,rectangle,-11,14,1,0,0,-11,14,1,0,0,1,7,167,9,1,,,,,,,,
,,,,,,,,,,,,,FF,,,,,,,,1.6351,,,,,,,,,,,,,,,,,,,,,,61035cde69aaa4298e4e3dd1,610367388d2d09ec85bb0ae4,2021-07-29_21h43.48.147,Simcolourproject_2stim_asymm_v5,2020.2.10,Win32,60,61025ae37ef11b136ea224fe,,,,,,,,,769,110,-53,1,0,0,response3disk,,5,-34,6,1,0,0,rectangle,-34,6,1,0,0,-34,6,1,0,0,1,8,168,143,1,,,,,,,,
,,,,,,,,,,,,,FF,,,,,,,,1.2509,,,,,,,,,,,,,,,,,,,,,,61035cde69aaa4298e4e3dd1,610367388d2d09ec85bb0ae4,2021-07-29_21h43.48.147,Simcolourproject_2stim_asymm_v5,2020.2.10,Win32,60,61025ae37ef11b136ea224fe,,,,,,,,,3644,-116,-80,1,0,0,response5disk,,2,21,-5,1,0,0,rectangle,21,-5,1,0,0,21,-5,1,0,0,1,9,169,123,1,,,,,,,,
,,,,,,,,,,,,,FF,,,,,,,,0.9798,,,,,,,,,,,,,,,,,,,,,,61035cde69aaa4298e4e3dd1,610367388d2d09ec85bb0ae4,2021-07-29_21h43.48.147,Simcolourproject_2stim_asymm_v5,2020.2.10,Win32,60,61025ae37ef11b136ea224fe,,,,,,,,,975,-129,-57,1,0,0,response5disk,,2,-4,-11,1,0,0,rectangle,-4,-11,1,0,0,-4,-11,1,0,0,1,10,170,71,1,,,,,,,,
,,,,,,,,,,,,,FF,,,,,,,,1.3297,,,,,,,,,,,,,,,,,,,,,,61035cde69aaa4298e4e3dd1,610367388d2d09ec85bb0ae4,2021-07-29_21h43.48.147,Simcolourproject_2stim_asymm_v5,2020.2.10,Win32,60,61025ae37ef11b136ea224fe,,,,,,,,,2975,109,-63,1,0,0,response3disk,,5,-23,-10,1,0,0,rectangle,-23,-10,1,0,0,-23,-10,1,0,0,1,11,171,101,1,,,,,,,,
,,,,,,,,,,,,,FF,,,,,,,,1.3184,,,,,,,,,,,,,,,,,,,,,,61035cde69aaa4298e4e3dd1,610367388d2d09ec85bb0ae4,2021-07-29_21h43.48.147,Simcolourproject_2stim_asymm_v5,2020.2.10,Win32,60,61025ae37ef11b136ea224fe,,,,,,,,,1667,141,-81,1,0,0,response3disk,,5,-35,-1,1,0,0,rectangle,-35,-1,1,0,0,-35,-1,1,0,0,1,12,172,124,1,,,,,,,,
,,,,,,,,,,,,,FF,,,,,,,,1.2687,,,,,,,,,,,,,,,,,,,,,,61035cde69aaa4298e4e3dd1,610367388d2d09ec85bb0ae4,2021-07-29_21h43.48.147,Simcolourproject_2stim_asymm_v5,2020.2.10,Win32,60,61025ae37ef11b136ea224fe,,,,,,,,,4115,-90,-73,1,0,0,response5disk,,2,-15,-10,1,0,0,rectangle,-15,-10,1,0,0,-15,-10,1,0,0,1,13,173,42,1,,,,,,,,
,,,,,,,,,,,,,FF,,,,,,,,0.863,,,,,,,,,,,,,,,,,,,,,,61035cde69aaa4298e4e3dd1,610367388d2d09ec85bb0ae4,2021-07-29_21h43.48.147,Simcolourproject_2stim_asymm_v5,2020.2.10,Win32,60,61025ae37ef11b136ea224fe,,,,,,,,,1895,-55,-134,1,0,0,response5disk,,3,5,-9,1,0,0,rectangle,-119,47,1,0,0,-4,3,1,0,0,1,14,174,158,1,,response7disk_3,TRUE,1,1,"[190,282,211,269,237,289,152,137,83,320,175,94,141,179,110,141,49,68,196,205]",2.0069,rectangle
,,,,,,,,,,,,,FF,,,,,,,,1.2064,,,,,,,,,,,,,,,,,,,,,,61035cde69aaa4298e4e3dd1,610367388d2d09ec85bb0ae4,2021-07-29_21h43.48.147,Simcolourproject_2stim_asymm_v5,2020.2.10,Win32,60,61025ae37ef11b136ea224fe,,,,,,,,,1349,104,-53,1,0,0,response3disk,,5,-1,-1,1,0,0,rectangle,-1,-1,1,0,0,-1,-1,1,0,0,1,15,175,60,1,,,,,,,,
,,,,,,,,,,,,,FF,,,,,,,,1.7852,,,,,,,,,,,,,,,,,,,,,,61035cde69aaa4298e4e3dd1,610367388d2d09ec85bb0ae4,2021-07-29_21h43.48.147,Simcolourproject_2stim_asymm_v5,2020.2.10,Win32,60,61025ae37ef11b136ea224fe,,,,,,,,,1155,156,45,1,0,0,response1disk,,6,38,19,1,0,0,rectangle,38,19,1,0,0,38,19,1,0,0,1,16,176,22,1,,,,,,,,
,,,,,,,,,,,,,FF,,,,,,,,0.901,,,,,,,,,,,,,,,,,,,,,,61035cde69aaa4298e4e3dd1,610367388d2d09ec85bb0ae4,2021-07-29_21h43.48.147,Simcolourproject_2stim_asymm_v5,2020.2.10,Win32,60,61025ae37ef11b136ea224fe,,,,,,,,,4096,136,-82,1,0,0,response3disk,,5,-7,-3,1,0,0,rectangle,-7,-3,1,0,0,-7,-3,1,0,0,1,17,177,36,1,,,,,,,,
,,,,,,,,,,,,,FF,,,,,,,,1.1462,,,,,,,,,,,,,,,,,,,,,,61035cde69aaa4298e4e3dd1,610367388d2d09ec85bb0ae4,2021-07-29_21h43.48.147,Simcolourproject_2stim_asymm_v5,2020.2.10,Win32,60,61025ae37ef11b136ea224fe,,,,,,,,,2220,52,-149,1,0,0,response3disk,,4,-15,-11,1,0,0,rectangle,-62,-131,1,0,0,-7,14,1,0,0,1,18,178,58,1,,response5disk_3,TRUE,3,3,"[190,282,211,269,237,289,152,137,83,320,175,94,141,179,110,141,49,68,196,205]",1.7849,rectangle
,,,,,,,,,,,,,FF,,,,,,,,1.2798,,,,,,,,,,,,,,,,,,,,,,61035cde69aaa4298e4e3dd1,610367388d2d09ec85bb0ae4,2021-07-29_21h43.48.147,Simcolourproject_2stim_asymm_v5,2020.2.10,Win32,60,61025ae37ef11b136ea224fe,,,,,,,,,3294,42,-105,1,0,0,response3disk,,4,7,-6,1,0,0,rectangle,7,-6,1,0,0,7,-6,1,0,0,1,19,179,61,1,,,,,,,,
,,,,,,,,,,,,,FF,,,,,,,,1.2017,,,,,,,,,,,,,,,,,,,,,,61035cde69aaa4298e4e3dd1,610367388d2d09ec85bb0ae4,2021-07-29_21h43.48.147,Simcolourproject_2stim_asymm_v5,2020.2.10,Win32,60,61025ae37ef11b136ea224fe,,,,,,,,,3276,61,-132,1,0,0,response3disk,,4,-4,-1,1,0,0,rectangle,-4,-1,1,0,0,-4,-1,1,0,0,1,20,180,28,1,,,,,,,,
,,,,,,,,,,,,,FF,,,,,,,,1.0345,,,,,,,,,,,,,,,,,,,,,,61035cde69aaa4298e4e3dd1,610367388d2d09ec85bb0ae4,2021-07-29_21h43.48.147,Simcolourproject_2stim_asymm_v5,2020.2.10,Win32,60,61025ae37ef11b136ea224fe,,,,,,,,,2735,64,-137,1,0,0,response3disk,,4,47,-16,1,0,0,rectangle,47,-16,1,0,0,47,-16,1,0,0,1,21,181,40,1,,,,,,,,
,,,,,,,,,,,,,FF,,,,,,,,0.7504,,,,,,,,,,,,,,,,,,,,,,61035cde69aaa4298e4e3dd1,610367388d2d09ec85bb0ae4,2021-07-29_21h43.48.147,Simcolourproject_2stim_asymm_v5,2020.2.10,Win32,60,61025ae37ef11b136ea224fe,,,,,,,,,1064,120,-41,1,0,0,response3disk,,5,-31,3,1,0,0,rectangle,-31,3,1,0,0,-31,3,1,0,0,1,22,182,25,1,,,,,,,,
,,,,,,,,,,,,,FF,,,,,,,,0.6507,,,,,,,,,,,,,,,,,,,,,,61035cde69aaa4298e4e3dd1,610367388d2d09ec85bb0ae4,2021-07-29_21h43.48.147,Simcolourproject_2stim_asymm_v5,2020.2.10,Win32,60,61025ae37ef11b136ea224fe,,,,,,,,,902,120,-45,1,0,0,response3disk,,5,-16,-20,1,0,0,rectangle,-16,-20,1,0,0,-16,-20,1,0,0,1,23,183,54,1,,,,,,,,
,,,,,,,,,,,,,FF,,,,,,,,5.4342,,,,,,,,,,,,,,,,,,,,,,61035cde69aaa4298e4e3dd1,610367388d2d09ec85bb0ae4,2021-07-29_21h43.48.147,Simcolourproject_2stim_asymm_v5,2020.2.10,Win32,60,61025ae37ef11b136ea224fe,,,,,,,,,3909,98,-110,1,0,0,response3disk,,4,-4,6,1,0,0,rectangle,-4,6,1,0,0,-4,6,1,0,0,1,24,184,115,1,,,,,,,,
,,,,,,,,,,,,,FF,,,,,,,,1.1176,,,,,,,,,,,,,,,,,,,,,,61035cde69aaa4298e4e3dd1,610367388d2d09ec85bb0ae4,2021-07-29_21h43.48.147,Simcolourproject_2stim_asymm_v5,2020.2.10,Win32,60,61025ae37ef11b136ea224fe,,,,,,,,,3841,-80,-126,1,0,0,response5disk,,3,-46,9,1,0,0,rectangle,-46,9,1,0,0,-46,9,1,0,0,1,25,185,34,1,,,,,,,,
,,,,,,,,,,,,,FF,,,,,,,,1.3515,,,,,,,,,,,,,,,,,,,,,,61035cde69aaa4298e4e3dd1,610367388d2d09ec85bb0ae4,2021-07-29_21h43.48.147,Simcolourproject_2stim_asymm_v5,2020.2.10,Win32,60,61025ae37ef11b136ea224fe,,,,,,,,,1475,122,46,1,0,0,response1disk,,6,-9,-3,1,0,0,rectangle,-9,-3,1,0,0,-9,-3,1,0,0,1,26,186,19,1,,,,,,,,
,,,,,,,,,,,,,FF,,,,,,,,1.0008,,,,,,,,,,,,,,,,,,,,,,61035cde69aaa4298e4e3dd1,610367388d2d09ec85bb0ae4,2021-07-29_21h43.48.147,Simcolourproject_2stim_asymm_v5,2020.2.10,Win32,60,61025ae37ef11b136ea224fe,,,,,,,,,1427,147,75,1,0,0,response1disk,,6,-41,0,1,0,0,rectangle,-41,0,1,0,0,-41,0,1,0,0,1,27,187,154,1,,,,,,,,
,,,,,,,,,,,,,FF,,,,,,,,3.8822,,,,,,,,,,,,,,,,,,,,,,61035cde69aaa4298e4e3dd1,610367388d2d09ec85bb0ae4,2021-07-29_21h43.48.147,Simcolourproject_2stim_asymm_v5,2020.2.10,Win32,60,61025ae37ef11b136ea224fe,,,,,,,,,3340,110,-50,1,0,0,response3disk,,5,-1,12,1,0,0,rectangle,-1,12,1,0,0,-1,12,1,0,0,1,28,188,7,1,,,,,,,,
,,,,,,,,,,,,,FF,,,,,,,,1.3683,,,,,,,,,,,,,,,,,,,,,,61035cde69aaa4298e4e3dd1,610367388d2d09ec85bb0ae4,2021-07-29_21h43.48.147,Simcolourproject_2stim_asymm_v5,2020.2.10,Win32,60,61025ae37ef11b136ea224fe,,,,,,,,,3619,118,38,1,0,0,response1disk,,6,-5,3,1,0,0,rectangle,126,47,1,0,0,14,-6,1,0,0,1,29,189,111,1,,response1disk_3,TRUE,6,6,"[190,282,211,269,237,289,152,137,83,320,175,94,141,179,110,141,49,68,196,205]",1.8017,rectangle
,,,,,,,,,,,,,FF,,,,,,,,1.6354,,,,,,,,,,,,,,,,,,,,,,61035cde69aaa4298e4e3dd1,610367388d2d09ec85bb0ae4,2021-07-29_21h43.48.147,Simcolourproject_2stim_asymm_v5,2020.2.10,Win32,60,61025ae37ef11b136ea224fe,,,,,,,,,4296,107,60,1,0,0,response1disk,,6,-37,10,1,0,0,rectangle,-37,10,1,0,0,-37,10,1,0,0,1,30,190,6,1,,,,,,,,
,,,,,,,,,,,,,FF,,,,,,,,1.1799,,,,,,,,,,,,,,,,,,,,,,61035cde69aaa4298e4e3dd1,610367388d2d09ec85bb0ae4,2021-07-29_21h43.48.147,Simcolourproject_2stim_asymm_v5,2020.2.10,Win32,60,61025ae37ef11b136ea224fe,,,,,,,,,3656,124,-42,1,0,0,response3disk,,5,42,-6,1,0,0,rectangle,42,-6,1,0,0,42,-6,1,0,0,1,31,191,62,1,,,,,,,,
,,,,,,,,,,,,,FF,,,,,,,,0.8345,,,,,,,,,,,,,,,,,,,,,,61035cde69aaa4298e4e3dd1,610367388d2d09ec85bb0ae4,2021-07-29_21h43.48.147,Simcolourproject_2stim_asymm_v5,2020.2.10,Win32,60,61025ae37ef11b136ea224fe,,,,,,,,,1299,110,-68,1,0,0,response3disk,,5,-7,-7,1,0,0,rectangle,-7,-7,1,0,0,-7,-7,1,0,0,1,32,192,87,1,,,,,,,,
,,,,,,,,,,,,,FF,,,,,,,,0.9344,,,,,,,,,,,,,,,,,,,,,,61035cde69aaa4298e4e3dd1,610367388d2d09ec85bb0ae4,2021-07-29_21h43.48.147,Simcolourproject_2stim_asymm_v5,2020.2.10,Win32,60,61025ae37ef11b136ea224fe,,,,,,,,,1803,61,-116,1,0,0,response3disk,,4,-17,-16,1,0,0,rectangle,-17,-16,1,0,0,-17,-16,1,0,0,1,33,193,141,1,,,,,,,,
,,,,,,,,,,,,,FF,,,,,,,,0.8961,,,,,,,,,,,,,,,,,,,,,,61035cde69aaa4298e4e3dd1,610367388d2d09ec85bb0ae4,2021-07-29_21h43.48.147,Simcolourproject_2stim_asymm_v5,2020.2.10,Win32,60,61025ae37ef11b136ea224fe,,,,,,,,,1246,54,-122,1,0,0,response3disk,,4,13,1,1,0,0,rectangle,13,1,1,0,0,13,1,1,0,0,1,34,194,96,1,,,,,,,,
,,,,,,,,,,,,,FF,,,,,,,,1.2518,,,,,,,,,,,,,,,,,,,,,,61035cde69aaa4298e4e3dd1,610367388d2d09ec85bb0ae4,2021-07-29_21h43.48.147,Simcolourproject_2stim_asymm_v5,2020.2.10,Win32,60,61025ae37ef11b136ea224fe,,,,,,,,,2571,159,-65,1,0,0,response3disk,,5,-14,-7,1,0,0,rectangle,143,41,1,0,0,-16,-4,1,0,0,1,35,195,112,1,,response1disk_3,TRUE,6,6,"[190,282,211,269,237,289,152,137,83,320,175,94,141,179,110,141,49,68,196,205]",1.6397,rectangle
,,,,,,,,,,,,,FF,,,,,,,,1.2349,,,,,,,,,,,,,,,,,,,,,,61035cde69aaa4298e4e3dd1,610367388d2d09ec85bb0ae4,2021-07-29_21h43.48.147,Simcolourproject_2stim_asymm_v5,2020.2.10,Win32,60,61025ae37ef11b136ea224fe,,,,,,,,,2543,140,57,1,0,0,response1disk,,6,-48,12,1,0,0,rectangle,-48,12,1,0,0,-48,12,1,0,0,1,36,196,1,1,,,,,,,,
,,,,,,,,,,,,,FF,,,,,,,,1.0844,,,,,,,,,,,,,,,,,,,,,,61035cde69aaa4298e4e3dd1,610367388d2d09ec85bb0ae4,2021-07-29_21h43.48.147,Simcolourproject_2stim_asymm_v5,2020.2.10,Win32,60,61025ae37ef11b136ea224fe,,,,,,,,,1603,-44,109,1,0,0,response7disk,,0,39,3,1,0,0,rectangle,39,3,1,0,0,39,3,1,0,0,1,37,197,15,1,,,,,,,,
,,,,,,,,,,,,,FF,,,,,,,,1.7021,,,,,,,,,,,,,,,,,,,,,,61035cde69aaa4298e4e3dd1,610367388d2d09ec85bb0ae4,2021-07-29_21h43.48.147,Simcolourproject_2stim_asymm_v5,2020.2.10,Win32,60,61025ae37ef11b136ea224fe,,,,,,,,,2107,66,-113,1,0,0,response3disk,,4,-29,-10,1,0,0,rectangle,-29,-10,1,0,0,-29,-10,1,0,0,1,38,198,134,1,,,,,,,,
,,,,,,,,,,,,,FF,,,,,,,,0.6841,,,,,,,,,,,,,,,,,,,,,,61035cde69aaa4298e4e3dd1,610367388d2d09ec85bb0ae4,2021-07-29_21h43.48.147,Simcolourproject_2stim_asymm_v5,2020.2.10,Win32,60,61025ae37ef11b136ea224fe,,,,,,,,,3510,-37,86,1,0,0,response7disk,,0,-15,-5,1,0,0,rectangle,-15,-5,1,0,0,-15,-5,1,0,0,1,39,199,77,1,,,,,,,,
,,,,,,,,,,,,,FF,,,,,,,,1.1899,,,,,,,,,,,,,,,,,,,,,,61035cde69aaa4298e4e3dd1,610367388d2d09ec85bb0ae4,2021-07-29_21h43.48.147,Simcolourproject_2stim_asymm_v5,2020.2.10,Win32,60,61025ae37ef11b136ea224fe,,,,,,,,,36,80,-108,1,0,0,response3disk,,4,18,-5,1,0,0,rectangle,18,-5,1,0,0,18,-5,1,0,0,1,40,200,29,1,,,,,,,,
,,,,,,,,,,,,,FF,,,,,,,,0.7893,,,,,,,,,,,,,,,,,,,,,,61035cde69aaa4298e4e3dd1,610367388d2d09ec85bb0ae4,2021-07-29_21h43.48.147,Simcolourproject_2stim_asymm_v5,2020.2.10,Win32,60,61025ae37ef11b136ea224fe,,,,,,,,,2008,155,44,1,0,0,response1disk,,6,-6,1,1,0,0,rectangle,-6,1,1,0,0,-6,1,1,0,0,1,41,201,5,1,,,,,,,,
,,,,,,,,,,,,,FF,,,,,,,,0.6677,,,,,,,,,,,,,,,,,,,,,,61035cde69aaa4298e4e3dd1,610367388d2d09ec85bb0ae4,2021-07-29_21h43.48.147,Simcolourproject_2stim_asymm_v5,2020.2.10,Win32,60,61025ae37ef11b136ea224fe,,,,,,,,,327,125,41,1,0,0,response1disk,,6,8,8,1,0,0,rectangle,8,8,1,0,0,8,8,1,0,0,1,42,202,24,1,,,,,,,,
,,,,,,,,,,,,,FF,,,,,,,,0.7389,,,,,,,,,,,,,,,,,,,,,,61035cde69aaa4298e4e3dd1,610367388d2d09ec85bb0ae4,2021-07-29_21h43.48.147,Simcolourproject_2stim_asymm_v5,2020.2.10,Win32,60,61025ae37ef11b136ea224fe,,,,,,,,,2763,113,-59,1,0,0,response3disk,,5,-25,9,1,0,0,rectangle,-25,9,1,0,0,-25,9,1,0,0,1,43,203,140,1,,,,,,,,
,,,,,,,,,,,,,FF,,,,,,,,0.7006,,,,,,,,,,,,,,,,,,,,,,61035cde69aaa4298e4e3dd1,610367388d2d09ec85bb0ae4,2021-07-29_21h43.48.147,Simcolourproject_2stim_asymm_v5,2020.2.10,Win32,60,61025ae37ef11b136ea224fe,,,,,,,,,1290,-54,89,1,0,0,response7disk,,0,-4,8,1,0,0,rectangle,125,50,1,0,0,5,-4,1,0,0,1,44,204,66,1,,response1disk_3,TRUE,6,6,"[190,282,211,269,237,289,152,137,83,320,175,94,141,179,110,141,49,68,196,205]",1.5232,rectangle
,,,,,,,,,,,,,FF,,,,,,,,1.4299,,,,,,,,,,,,,,,,,,,,,,61035cde69aaa4298e4e3dd1,610367388d2d09ec85bb0ae4,2021-07-29_21h43.48.147,Simcolourproject_2stim_asymm_v5,2020.2.10,Win32,60,61025ae37ef11b136ea224fe,,,,,,,,,372,-29,-118,1,0,0,response5disk,,3,14,12,1,0,0,rectangle,14,12,1,0,0,14,12,1,0,0,1,45,205,59,1,,,,,,,,
,,,,,,,,,,,,,FF,,,,,,,,0.7796,,,,,,,,,,,,,,,,,,,,,,61035cde69aaa4298e4e3dd1,610367388d2d09ec85bb0ae4,2021-07-29_21h43.48.147,Simcolourproject_2stim_asymm_v5,2020.2.10,Win32,60,61025ae37ef11b136ea224fe,,,,,,,,,180,92,-121,1,0,0,response3disk,,4,-9,10,1,0,0,rectangle,-9,10,1,0,0,-9,10,1,0,0,1,46,206,93,1,,,,,,,,
,,,,,,,,,,,,,FF,,,,,,,,1.0846,,,,,,,,,,,,,,,,,,,,,,61035cde69aaa4298e4e3dd1,610367388d2d09ec85bb0ae4,2021-07-29_21h43.48.147,Simcolourproject_2stim_asymm_v5,2020.2.10,Win32,60,61025ae37ef11b136ea224fe,,,,,,,,,1346,114,-60,1,0,0,response3disk,,5,24,3,1,0,0,rectangle,24,3,1,0,0,24,3,1,0,0,1,47,207,147,1,,,,,,,,
,,,,,,,,,,,,,FF,,,,,,,,0.9843,,,,,,,,,,,,,,,,,,,,,,61035cde69aaa4298e4e3dd1,610367388d2d09ec85bb0ae4,2021-07-29_21h43.48.147,Simcolourproject_2stim_asymm_v5,2020.2.10,Win32,60,61025ae37ef11b136ea224fe,,,,,,,,,1888,-87,48,1,0,0,response7disk,,1,-29,11,1,0,0,rectangle,-29,11,1,0,0,-29,11,1,0,0,1,48,208,136,1,,,,,,,,
,,,,,,,,,,,,,FF,,,,,,,,1.2009,,,,,,,,,,,,,,,,,,,,,,61035cde69aaa4298e4e3dd1,610367388d2d09ec85bb0ae4,2021-07-29_21h43.48.147,Simcolourproject_2stim_asymm_v5,2020.2.10,Win32,60,61025ae37ef11b136ea224fe,,,,,,,,,4338,-56,-92,1,0,0,response5disk,,3,-48,-4,1,0,0,rectangle,-48,-4,1,0,0,-48,-4,1,0,0,1,49,209,12,1,,,,,,,,
,,,,,,,,,,,,,FF,,,,,,,,1.1723,,,,,,,,,,,,,,,,,,,,,,61035cde69aaa4298e4e3dd1,610367388d2d09ec85bb0ae4,2021-07-29_21h43.48.147,Simcolourproject_2stim_asymm_v5,2020.2.10,Win32,60,61025ae37ef11b136ea224fe,,,,,,,,,3175,116,-52,1,0,0,response3disk,,5,-11,-10,1,0,0,rectangle,-126,43,1,0,0,-7,-3,1,0,0,1,50,210,121,1,,response7disk_3,TRUE,1,1,"[190,282,211,269,237,289,152,137,83,320,175,94,141,179,110,141,49,68,196,205]",1.7347,rectangle
,,,,,,,,,,,,,FF,,,,,,,,2.5689,,,,,,,,,,,,,,,,,,,,,,61035cde69aaa4298e4e3dd1,610367388d2d09ec85bb0ae4,2021-07-29_21h43.48.147,Simcolourproject_2stim_asymm_v5,2020.2.10,Win32,60,61025ae37ef11b136ea224fe,,,,,,,,,919,92,-43,1,0,0,response3disk,,5,5,-6,1,0,0,rectangle,5,-6,1,0,0,5,-6,1,0,0,1,51,211,138,1,,,,,,,,
,,,,,,,,,,,,,FF,,,,,,,,1.2516,,,,,,,,,,,,,,,,,,,,,,61035cde69aaa4298e4e3dd1,610367388d2d09ec85bb0ae4,2021-07-29_21h43.48.147,Simcolourproject_2stim_asymm_v5,2020.2.10,Win32,60,61025ae37ef11b136ea224fe,,,,,,,,,432,97,-101,1,0,0,response3disk,,4,18,-8,1,0,0,rectangle,18,-8,1,0,0,18,-8,1,0,0,1,52,212,133,1,,,,,,,,
,,,,,,,,,,,,,FF,,,,,,,,0.7507,,,,,,,,,,,,,,,,,,,,,,61035cde69aaa4298e4e3dd1,610367388d2d09ec85bb0ae4,2021-07-29_21h43.48.147,Simcolourproject_2stim_asymm_v5,2020.2.10,Win32,60,61025ae37ef11b136ea224fe,,,,,,,,,129,93,-149,1,0,0,response3disk,,4,6,-10,1,0,0,rectangle,6,-10,1,0,0,6,-10,1,0,0,1,53,213,53,1,,,,,,,,
,,,,,,,,,,,,,FF,,,,,,,,0.7225,,,,,,,,,,,,,,,,,,,,,,61035cde69aaa4298e4e3dd1,610367388d2d09ec85bb0ae4,2021-07-29_21h43.48.147,Simcolourproject_2stim_asymm_v5,2020.2.10,Win32,60,61025ae37ef11b136ea224fe,,,,,,,,,900,108,-40,1,0,0,response3disk,,5,11,10,1,0,0,rectangle,11,10,1,0,0,11,10,1,0,0,1,54,214,17,1,,,,,,,,
,,,,,,,,,,,,,FF,,,,,,,,1.8356,,,,,,,,,,,,,,,,,,,,,,61035cde69aaa4298e4e3dd1,610367388d2d09ec85bb0ae4,2021-07-29_21h43.48.147,Simcolourproject_2stim_asymm_v5,2020.2.10,Win32,60,61025ae37ef11b136ea224fe,,,,,,,,,3884,144,-68,1,0,0,response3disk,,5,4,-2,1,0,0,rectangle,4,-2,1,0,0,4,-2,1,0,0,1,55,215,56,1,,,,,,,,
,,,,,,,,,,,,,FF,,,,,,,,0.8673,,,,,,,,,,,,,,,,,,,,,,61035cde69aaa4298e4e3dd1,610367388d2d09ec85bb0ae4,2021-07-29_21h43.48.147,Simcolourproject_2stim_asymm_v5,2020.2.10,Win32,60,61025ae37ef11b136ea224fe,,,,,,,,,2459,139,56,1,0,0,response1disk,,6,31,20,1,0,0,rectangle,31,20,1,0,0,31,20,1,0,0,1,56,216,153,1,,,,,,,,
,,,,,,,,,,,,,FF,,,,,,,,0.7006,,,,,,,,,,,,,,,,,,,,,,61035cde69aaa4298e4e3dd1,610367388d2d09ec85bb0ae4,2021-07-29_21h43.48.147,Simcolourproject_2stim_asymm_v5,2020.2.10,Win32,60,61025ae37ef11b136ea224fe,,,,,,,,,4368,-25,88,1,0,0,response7disk,,0,-18,8,1,0,0,rectangle,-18,8,1,0,0,-18,8,1,0,0,1,57,217,114,1,,,,,,,,
,,,,,,,,,,,,,FF,,,,,,,,1.1175,,,,,,,,,,,,,,,,,,,,,,61035cde69aaa4298e4e3dd1,610367388d2d09ec85bb0ae4,2021-07-29_21h43.48.147,Simcolourproject_2stim_asymm_v5,2020.2.10,Win32,60,61025ae37ef11b136ea224fe,,,,,,,,,2771,-91,-55,1,0,0,response5disk,,2,-33,17,1,0,0,rectangle,-33,17,1,0,0,-33,17,1,0,0,1,58,218,72,1,,,,,,,,
,,,,,,,,,,,,,FF,,,,,,,,0.8844,,,,,,,,,,,,,,,,,,,,,,61035cde69aaa4298e4e3dd1,610367388d2d09ec85bb0ae4,2021-07-29_21h43.48.147,Simcolourproject_2stim_asymm_v5,2020.2.10,Win32,60,61025ae37ef11b136ea224fe,,,,,,,,,529,70,-145,1,0,0,response3disk,,4,-20,-9,1,0,0,rectangle,-20,-9,1,0,0,-20,-9,1,0,0,1,59,219,64,1,,,,,,,,
,,,,,,,,,,,,,FF,,,,,,,,1.2681,,,,,,,,,,,,,,,,,,,,,,61035cde69aaa4298e4e3dd1,610367388d2d09ec85bb0ae4,2021-07-29_21h43.48.147,Simcolourproject_2stim_asymm_v5,2020.2.10,Win32,60,61025ae37ef11b136ea224fe,,,,,,,,,2871,150,-84,1,0,0,response3disk,,5,15,-1,1,0,0,rectangle,15,-1,1,0,0,15,-1,1,0,0,1,60,220,76,1,,,,,,,,
,,,,,,,,,,,,,FF,,,,,,,,1.1846,,,,,,,,,,,,,,,,,,,,,,61035cde69aaa4298e4e3dd1,610367388d2d09ec85bb0ae4,2021-07-29_21h43.48.147,Simcolourproject_2stim_asymm_v5,2020.2.10,Win32,60,61025ae37ef11b136ea224fe,,,,,,,,,3232,114,32,1,0,0,response1disk,,6,-15,11,1,0,0,rectangle,-15,11,1,0,0,-15,11,1,0,0,1,61,221,84,1,,,,,,,,
,,,,,,,,,,,,,FF,,,,,,,,0.722,,,,,,,,,,,,,,,,,,,,,,61035cde69aaa4298e4e3dd1,610367388d2d09ec85bb0ae4,2021-07-29_21h43.48.147,Simcolourproject_2stim_asymm_v5,2020.2.10,Win32,60,61025ae37ef11b136ea224fe,,,,,,,,,2913,130,38,1,0,0,response1disk,,6,-37,-13,1,0,0,rectangle,-37,-13,1,0,0,-37,-13,1,0,0,1,62,222,130,1,,,,,,,,
,,,,,,,,,,,,,FF,,,,,,,,1.402,,,,,,,,,,,,,,,,,,,,,,61035cde69aaa4298e4e3dd1,610367388d2d09ec85bb0ae4,2021-07-29_21h43.48.147,Simcolourproject_2stim_asymm_v5,2020.2.10,Win32,60,61025ae37ef11b136ea224fe,,,,,,,,,55,92,72,1,0,0,response1disk,,6,0,21,1,0,0,rectangle,0,21,1,0,0,0,21,1,0,0,1,63,223,117,1,,,,,,,,
,,,,,,,,,,,,,FF,,,,,,,,0.839,,,,,,,,,,,,,,,,,,,,,,61035cde69aaa4298e4e3dd1,610367388d2d09ec85bb0ae4,2021-07-29_21h43.48.147,Simcolourproject_2stim_asymm_v5,2020.2.10,Win32,60,61025ae37ef11b136ea224fe,,,,,,,,,509,135,52,1,0,0,response1disk,,6,19,-7,1,0,0,rectangle,19,-7,1,0,0,19,-7,1,0,0,1,64,224,75,1,,,,,,,,
,,,,,,,,,,,,,FF,,,,,,,,1.8187,,,,,,,,,,,,,,,,,,,,,,61035cde69aaa4298e4e3dd1,610367388d2d09ec85bb0ae4,2021-07-29_21h43.48.147,Simcolourproject_2stim_asymm_v5,2020.2.10,Win32,60,61025ae37ef11b136ea224fe,,,,,,,,,2290,-47,-143,1,0,0,response5disk,,3,-21,-17,1,0,0,rectangle,-21,-17,1,0,0,-21,-17,1,0,0,1,65,225,26,1,,,,,,,,
,,,,,,,,,,,,,FF,,,,,,,,0.7846,,,,,,,,,,,,,,,,,,,,,,61035cde69aaa4298e4e3dd1,610367388d2d09ec85bb0ae4,2021-07-29_21h43.48.147,Simcolourproject_2stim_asymm_v5,2020.2.10,Win32,60,61025ae37ef11b136ea224fe,,,,,,,,,593,111,68,1,0,0,response1disk,,6,28,-2,1,0,0,rectangle,28,-2,1,0,0,28,-2,1,0,0,1,66,226,11,1,,,,,,,,
,,,,,,,,,,,,,FF,,,,,,,,3.7372,,,,,,,,,,,,,,,,,,,,,,61035cde69aaa4298e4e3dd1,610367388d2d09ec85bb0ae4,2021-07-29_21h43.48.147,Simcolourproject_2stim_asymm_v5,2020.2.10,Win32,60,61025ae37ef11b136ea224fe,,,,,,,,,1890,85,-126,1,0,0,response3disk,,4,-33,11,1,0,0,rectangle,-33,11,1,0,0,-33,11,1,0,0,1,67,227,155,1,,,,,,,,
,,,,,,,,,,,,,FF,,,,,,,,0.7678,,,,,,,,,,,,,,,,,,,,,,61035cde69aaa4298e4e3dd1,610367388d2d09ec85bb0ae4,2021-07-29_21h43.48.147,Simcolourproject_2stim_asymm_v5,2020.2.10,Win32,60,61025ae37ef11b136ea224fe,,,,,,,,,1657,123,39,1,0,0,response1disk,,6,6,-12,1,0,0,rectangle,6,-12,1,0,0,6,-12,1,0,0,1,68,228,98,1,,,,,,,,
,,,,,,,,,,,,,FF,,,,,,,,1.0847,,,,,,,,,,,,,,,,,,,,,,61035cde69aaa4298e4e3dd1,610367388d2d09ec85bb0ae4,2021-07-29_21h43.48.147,Simcolourproject_2stim_asymm_v5,2020.2.10,Win32,60,61025ae37ef11b136ea224fe,,,,,,,,,1044,124,29,1,0,0,response1disk,,6,14,-7,1,0,0,rectangle,14,-7,1,0,0,14,-7,1,0,0,1,69,229,94,1,,,,,,,,
,,,,,,,,,,,,,FF,,,,,,,,0.7841,,,,,,,,,,,,,,,,,,,,,,61035cde69aaa4298e4e3dd1,610367388d2d09ec85bb0ae4,2021-07-29_21h43.48.147,Simcolourproject_2stim_asymm_v5,2020.2.10,Win32,60,61025ae37ef11b136ea224fe,,,,,,,,,226,114,59,1,0,0,response1disk,,6,26,6,1,0,0,rectangle,26,6,1,0,0,26,6,1,0,0,1,70,230,4,1,,,,,,,,
,,,,,,,,,,,,,FF,,,,,,,,1.1676,,,,,,,,,,,,,,,,,,,,,,61035cde69aaa4298e4e3dd1,610367388d2d09ec85bb0ae4,2021-07-29_21h43.48.147,Simcolourproject_2stim_asymm_v5,2020.2.10,Win32,60,61025ae37ef11b136ea224fe,,,,,,,,,4036,136,21,1,0,0,response1disk,,6,12,10,1,0,0,rectangle,12,10,1,0,0,12,10,1,0,0,1,71,231,135,1,,,,,,,,
,,,,,,,,,,,,,FF,,,,,,,,1.8474,,,,,,,,,,,,,,,,,,,,,,61035cde69aaa4298e4e3dd1,610367388d2d09ec85bb0ae4,2021-07-29_21h43.48.147,Simcolourproject_2stim_asymm_v5,2020.2.10,Win32,60,61025ae37ef11b136ea224fe,,,,,,,,,1941,83,-34,1,0,0,response3disk,,5,1,-13,1,0,0,rectangle,1,-13,1,0,0,1,-13,1,0,0,1,72,232,32,1,,,,,,,,
,,,,,,,,,,,,,FF,,,,,,,,0.7339,,,,,,,,,,,,,,,,,,,,,,61035cde69aaa4298e4e3dd1,610367388d2d09ec85bb0ae4,2021-07-29_21h43.48.147,Simcolourproject_2stim_asymm_v5,2020.2.10,Win32,60,61025ae37ef11b136ea224fe,,,,,,,,,4325,141,35,1,0,0,response1disk,,6,-17,1,1,0,0,rectangle,-17,1,1,0,0,-17,1,1,0,0,1,73,233,57,1,,,,,,,,
,,,,,,,,,,,,,FF,,,,,,,,0.968,,,,,,,,,,,,,,,,,,,,,,61035cde69aaa4298e4e3dd1,610367388d2d09ec85bb0ae4,2021-07-29_21h43.48.147,Simcolourproject_2stim_asymm_v5,2020.2.10,Win32,60,61025ae37ef11b136ea224fe,,,,,,,,,354,138,50,1,0,0,response1disk,,6,-10,-2,1,0,0,rectangle,-10,-2,1,0,0,-10,-2,1,0,0,1,74,234,139,1,,,,,,,,
,,,,,,,,,,,,,FF,,,,,,,,0.7174,,,,,,,,,,,,,,,,,,,,,,61035cde69aaa4298e4e3dd1,610367388d2d09ec85bb0ae4,2021-07-29_21h43.48.147,Simcolourproject_2stim_asymm_v5,2020.2.10,Win32,60,61025ae37ef11b136ea224fe,,,,,,,,,955,130,67,1,0,0,response1disk,,6,41,8,1,0,0,rectangle,41,8,1,0,0,41,8,1,0,0,1,75,235,37,1,,,,,,,,
,,,,,,,,,,,,,FF,,,,,,,,0.517,,,,,,,,,,,,,,,,,,,,,,61035cde69aaa4298e4e3dd1,610367388d2d09ec85bb0ae4,2021-07-29_21h43.48.147,Simcolourproject_2stim_asymm_v5,2020.2.10,Win32,60,61025ae37ef11b136ea224fe,,,,,,,,,2470,129,35,1,0,0,response1disk,,6,-9,9,1,0,0,rectangle,85,-129,1,0,0,4,-17,1,0,0,1,76,236,156,1,,response3disk_3,TRUE,4,4,"[190,282,211,269,237,289,152,137,83,320,175,94,141,179,110,141,49,68,196,205]",1.5902,rectangle
,,,,,,,,,,,,,FF,,,,,,,,0.9126,,,,,,,,,,,,,,,,,,,,,,61035cde69aaa4298e4e3dd1,610367388d2d09ec85bb0ae4,2021-07-29_21h43.48.147,Simcolourproject_2stim_asymm_v5,2020.2.10,Win32,60,61025ae37ef11b136ea224fe,,,,,,,,,825,117,-52,1,0,0,response3disk,,5,-1,-7,1,0,0,rectangle,-1,-7,1,0,0,-1,-7,1,0,0,1,77,237,159,1,,,,,,,,
,,,,,,,,,,,,,FF,,,,,,,,1.1408,,,,,,,,,,,,,,,,,,,,,,61035cde69aaa4298e4e3dd1,610367388d2d09ec85bb0ae4,2021-07-29_21h43.48.147,Simcolourproject_2stim_asymm_v5,2020.2.10,Win32,60,61025ae37ef11b136ea224fe,,,,,,,,,1899,-47,-119,1,0,0,response5disk,,3,-26,-3,1,0,0,rectangle,-26,-3,1,0,0,-26,-3,1,0,0,1,78,238,125,1,,,,,,,,
,,,,,,,,,,,,,FF,,,,,,,,2.1305,,,,,,,,,,,,,,,,,,,,,,61035cde69aaa4298e4e3dd1,610367388d2d09ec85bb0ae4,2021-07-29_21h43.48.147,Simcolourproject_2stim_asymm_v5,2020.2.10,Win32,60,61025ae37ef11b136ea224fe,,,,,,,,,1771,55,-116,1,0,0,response3disk,,4,10,-16,1,0,0,rectangle,10,-16,1,0,0,10,-16,1,0,0,1,79,239,3,1,,,,,,,,
,,,,,,,,,,,,,FF,,,,,,,,1.385,,,,,,,,,,,,,,,,,,,,,,61035cde69aaa4298e4e3dd1,610367388d2d09ec85bb0ae4,2021-07-29_21h43.48.147,Simcolourproject_2stim_asymm_v5,2020.2.10,Win32,60,61025ae37ef11b136ea224fe,,,,,,,,,4339,143,48,1,0,0,response1disk,,6,-17,10,1,0,0,rectangle,-17,10,1,0,0,-17,10,1,0,0,1,80,240,83,1,,,,,,,,
,,,,,,,,,,,,,FF,,,,,,,,0.6956,,,,,,,,,,,,,,,,,,,,,,61035cde69aaa4298e4e3dd1,610367388d2d09ec85bb0ae4,2021-07-29_21h43.48.147,Simcolourproject_2stim_asymm_v5,2020.2.10,Win32,60,61025ae37ef11b136ea224fe,,,,,,,,,717,-54,105,1,0,0,response7disk,,0,4,-16,1,0,0,rectangle,4,-16,1,0,0,4,-16,1,0,0,1,81,241,47,1,,,,,,,,
,,,,,,,,,,,,,FF,,,,,,,,1.001,,,,,,,,,,,,,,,,,,,,,,61035cde69aaa4298e4e3dd1,610367388d2d09ec85bb0ae4,2021-07-29_21h43.48.147,Simcolourproject_2stim_asymm_v5,2020.2.10,Win32,60,61025ae37ef11b136ea224fe,,,,,,,,,1633,129,74,1,0,0,response1disk,,6,-11,7,1,0,0,rectangle,-11,7,1,0,0,-11,7,1,0,0,1,82,242,103,1,,,,,,,,
,,,,,,,,,,,,,FF,,,,,,,,0.7462,,,,,,,,,,,,,,,,,,,,,,61035cde69aaa4298e4e3dd1,610367388d2d09ec85bb0ae4,2021-07-29_21h43.48.147,Simcolourproject_2stim_asymm_v5,2020.2.10,Win32,60,61025ae37ef11b136ea224fe,,,,,,,,,3336,-53,109,1,0,0,response7disk,,0,1,7,1,0,0,rectangle,1,7,1,0,0,1,7,1,0,0,1,83,243,0,1,,,,,,,,
,,,,,,,,,,,,,FF,,,,,,,,1.2298,,,,,,,,,,,,,,,,,,,,,,61035cde69aaa4298e4e3dd1,610367388d2d09ec85bb0ae4,2021-07-29_21h43.48.147,Simcolourproject_2stim_asymm_v5,2020.2.10,Win32,60,61025ae37ef11b136ea224fe,,,,,,,,,1187,115,-42,1,0,0,response3disk,,5,37,-4,1,0,0,rectangle,37,-4,1,0,0,37,-4,1,0,0,1,84,244,55,1,,,,,,,,
,,,,,,,,,,,,,FF,,,,,,,,0.9344,,,,,,,,,,,,,,,,,,,,,,61035cde69aaa4298e4e3dd1,610367388d2d09ec85bb0ae4,2021-07-29_21h43.48.147,Simcolourproject_2stim_asymm_v5,2020.2.10,Win32,60,61025ae37ef11b136ea224fe,,,,,,,,,3144,140,-65,1,0,0,response3disk,,5,28,-7,1,0,0,rectangle,28,-7,1,0,0,28,-7,1,0,0,1,85,245,142,1,,,,,,,,
,,,,,,,,,,,,,FF,,,,,,,,0.6504,,,,,,,,,,,,,,,,,,,,,,61035cde69aaa4298e4e3dd1,610367388d2d09ec85bb0ae4,2021-07-29_21h43.48.147,Simcolourproject_2stim_asymm_v5,2020.2.10,Win32,60,61025ae37ef11b136ea224fe,,,,,,,,,968,-41,78,1,0,0,response7disk,,0,11,16,1,0,0,rectangle,11,16,1,0,0,11,16,1,0,0,1,86,246,63,1,,,,,,,,
,,,,,,,,,,,,,FF,,,,,,,,1.1179,,,,,,,,,,,,,,,,,,,,,,61035cde69aaa4298e4e3dd1,610367388d2d09ec85bb0ae4,2021-07-29_21h43.48.147,Simcolourproject_2stim_asymm_v5,2020.2.10,Win32,60,61025ae37ef11b136ea224fe,,,,,,,,,4264,81,-125,1,0,0,response3disk,,4,1,9,1,0,0,rectangle,1,9,1,0,0,1,9,1,0,0,1,87,247,23,1,,,,,,,,
,,,,,,,,,,,,,FF,,,,,,,,0.7843,,,,,,,,,,,,,,,,,,,,,,61035cde69aaa4298e4e3dd1,610367388d2d09ec85bb0ae4,2021-07-29_21h43.48.147,Simcolourproject_2stim_asymm_v5,2020.2.10,Win32,60,61025ae37ef11b136ea224fe,,,,,,,,,3539,140,-75,1,0,0,response3disk,,5,2,-7,1,0,0,rectangle,2,-7,1,0,0,2,-7,1,0,0,1,88,248,126,1,,,,,,,,
,,,,,,,,,,,,,FF,,,,,,,,0.8679,,,,,,,,,,,,,,,,,,,,,,61035cde69aaa4298e4e3dd1,610367388d2d09ec85bb0ae4,2021-07-29_21h43.48.147,Simcolourproject_2stim_asymm_v5,2020.2.10,Win32,60,61025ae37ef11b136ea224fe,,,,,,,,,644,-87,-60,1,0,0,response5disk,,2,-19,11,1,0,0,rectangle,-19,11,1,0,0,-19,11,1,0,0,1,89,249,21,1,,,,,,,,
,,,,,,,,,,,,,FF,,,,,,,,1.4846,,,,,,,,,,,,,,,,,,,,,,61035cde69aaa4298e4e3dd1,610367388d2d09ec85bb0ae4,2021-07-29_21h43.48.147,Simcolourproject_2stim_asymm_v5,2020.2.10,Win32,60,61025ae37ef11b136ea224fe,,,,,,,,,169,76,-99,1,0,0,response3disk,,4,-5,-9,1,0,0,rectangle,-5,-9,1,0,0,-5,-9,1,0,0,1,90,250,89,1,,,,,,,,
,,,,,,,,,,,,,FF,,,,,,,,0.9844,,,,,,,,,,,,,,,,,,,,,,61035cde69aaa4298e4e3dd1,610367388d2d09ec85bb0ae4,2021-07-29_21h43.48.147,Simcolourproject_2stim_asymm_v5,2020.2.10,Win32,60,61025ae37ef11b136ea224fe,,,,,,,,,737,150,-58,1,0,0,response3disk,,5,17,11,1,0,0,rectangle,17,11,1,0,0,17,11,1,0,0,1,91,251,137,1,,,,,,,,
,,,,,,,,,,,,,FF,,,,,,,,1.2513,,,,,,,,,,,,,,,,,,,,,,61035cde69aaa4298e4e3dd1,610367388d2d09ec85bb0ae4,2021-07-29_21h43.48.147,Simcolourproject_2stim_asymm_v5,2020.2.10,Win32,60,61025ae37ef11b136ea224fe,,,,,,,,,4052,-101,40,1,0,0,response7disk,,1,6,-5,1,0,0,rectangle,6,-5,1,0,0,6,-5,1,0,0,1,92,252,70,1,,,,,,,,
,,,,,,,,,,,,,FF,,,,,,,,0.7679,,,,,,,,,,,,,,,,,,,,,,61035cde69aaa4298e4e3dd1,610367388d2d09ec85bb0ae4,2021-07-29_21h43.48.147,Simcolourproject_2stim_asymm_v5,2020.2.10,Win32,60,61025ae37ef11b136ea224fe,,,,,,,,,4305,-49,109,1,0,0,response7disk,,0,17,4,1,0,0,rectangle,17,4,1,0,0,17,4,1,0,0,1,93,253,45,1,,,,,,,,
,,,,,,,,,,,,,FF,,,,,,,,0.8558,,,,,,,,,,,,,,,,,,,,,,61035cde69aaa4298e4e3dd1,610367388d2d09ec85bb0ae4,2021-07-29_21h43.48.147,Simcolourproject_2stim_asymm_v5,2020.2.10,Win32,60,61025ae37ef11b136ea224fe,,,,,,,,,706,122,27,1,0,0,response1disk,,6,19,4,1,0,0,rectangle,19,4,1,0,0,19,4,1,0,0,1,94,254,2,1,,,,,,,,
,,,,,,,,,,,,,FF,,,,,,,,0.8962,,,,,,,,,,,,,,,,,,,,,,61035cde69aaa4298e4e3dd1,610367388d2d09ec85bb0ae4,2021-07-29_21h43.48.147,Simcolourproject_2stim_asymm_v5,2020.2.10,Win32,60,61025ae37ef11b136ea224fe,,,,,,,,,3605,125,-65,1,0,0,response3disk,,5,10,-10,1,0,0,rectangle,10,-10,1,0,0,10,-10,1,0,0,1,95,255,68,1,,,,,,,,
,,,,,,,,,,,,,FF,,,,,,,,1.0175,,,,,,,,,,,,,,,,,,,,,,61035cde69aaa4298e4e3dd1,610367388d2d09ec85bb0ae4,2021-07-29_21h43.48.147,Simcolourproject_2stim_asymm_v5,2020.2.10,Win32,60,61025ae37ef11b136ea224fe,,,,,,,,,588,117,-49,1,0,0,response3disk,,5,0,-3,1,0,0,rectangle,0,-3,1,0,0,0,-3,1,0,0,1,96,256,149,1,,,,,,,,
,,,,,,,,,,,,,FF,,,,,,,,0.7676,,,,,,,,,,,,,,,,,,,,,,61035cde69aaa4298e4e3dd1,610367388d2d09ec85bb0ae4,2021-07-29_21h43.48.147,Simcolourproject_2stim_asymm_v5,2020.2.10,Win32,60,61025ae37ef11b136ea224fe,,,,,,,,,2280,142,-74,1,0,0,response3disk,,5,-32,-2,1,0,0,rectangle,-32,-2,1,0,0,-32,-2,1,0,0,1,97,257,86,1,,,,,,,,
,,,,,,,,,,,,,FF,,,,,,,,1.5513,,,,,,,,,,,,,,,,,,,,,,61035cde69aaa4298e4e3dd1,610367388d2d09ec85bb0ae4,2021-07-29_21h43.48.147,Simcolourproject_2stim_asymm_v5,2020.2.10,Win32,60,61025ae37ef11b136ea224fe,,,,,,,,,3111,-43,-142,1,0,0,response5disk,,3,1,7,1,0,0,rectangle,1,7,1,0,0,1,7,1,0,0,1,98,258,73,1,,,,,,,,
,,,,,,,,,,,,,FF,,,,,,,,0.8014,,,,,,,,,,,,,,,,,,,,,,61035cde69aaa4298e4e3dd1,610367388d2d09ec85bb0ae4,2021-07-29_21h43.48.147,Simcolourproject_2stim_asymm_v5,2020.2.10,Win32,60,61025ae37ef11b136ea224fe,,,,,,,,,1672,122,-57,1,0,0,response3disk,,5,26,-10,1,0,0,rectangle,26,-10,1,0,0,26,-10,1,0,0,1,99,259,81,1,,,,,,,,
,,,,,,,,,,,,,FF,,,,,,,,1.2349,,,,,,,,,,,,,,,,,,,,,,61035cde69aaa4298e4e3dd1,610367388d2d09ec85bb0ae4,2021-07-29_21h43.48.147,Simcolourproject_2stim_asymm_v5,2020.2.10,Win32,60,61025ae37ef11b136ea224fe,,,,,,,,,2706,102,37,1,0,0,response1disk,,6,22,3,1,0,0,rectangle,22,3,1,0,0,22,3,1,0,0,1,100,260,31,1,,,,,,,,
,,,,,,,,,,,,,FF,,,,,,,,0.5841,,,,,,,,,,,,,,,,,,,,,,61035cde69aaa4298e4e3dd1,610367388d2d09ec85bb0ae4,2021-07-29_21h43.48.147,Simcolourproject_2stim_asymm_v5,2020.2.10,Win32,60,61025ae37ef11b136ea224fe,,,,,,,,,2013,135,34,1,0,0,response1disk,,6,18,6,1,0,0,rectangle,18,6,1,0,0,18,6,1,0,0,1,101,261,106,1,,,,,,,,
,,,,,,,,,,,,,FF,,,,,,,,0.8339,,,,,,,,,,,,,,,,,,,,,,61035cde69aaa4298e4e3dd1,610367388d2d09ec85bb0ae4,2021-07-29_21h43.48.147,Simcolourproject_2stim_asymm_v5,2020.2.10,Win32,60,61025ae37ef11b136ea224fe,,,,,,,,,570,115,-70,1,0,0,response3disk,,5,-23,-12,1,0,0,rectangle,-23,-12,1,0,0,-23,-12,1,0,0,1,102,262,69,1,,,,,,,,
,,,,,,,,,,,,,FF,,,,,,,,1.3348,,,,,,,,,,,,,,,,,,,,,,61035cde69aaa4298e4e3dd1,610367388d2d09ec85bb0ae4,2021-07-29_21h43.48.147,Simcolourproject_2stim_asymm_v5,2020.2.10,Win32,60,61025ae37ef11b136ea224fe,,,,,,,,,3450,82,58,1,0,0,response1disk,,6,4,-1,1,0,0,rectangle,4,-1,1,0,0,4,-1,1,0,0,1,103,263,108,1,,,,,,,,
,,,,,,,,,,,,,FF,,,,,,,,0.8012,,,,,,,,,,,,,,,,,,,,,,61035cde69aaa4298e4e3dd1,610367388d2d09ec85bb0ae4,2021-07-29_21h43.48.147,Simcolourproject_2stim_asymm_v5,2020.2.10,Win32,60,61025ae37ef11b136ea224fe,,,,,,,,,2908,135,-73,1,0,0,response3disk,,5,-17,11,1,0,0,rectangle,-17,11,1,0,0,-17,11,1,0,0,1,104,264,33,1,,,,,,,,
,,,,,,,,,,,,,FF,,,,,,,,0.7791,,,,,,,,,,,,,,,,,,,,,,61035cde69aaa4298e4e3dd1,610367388d2d09ec85bb0ae4,2021-07-29_21h43.48.147,Simcolourproject_2stim_asymm_v5,2020.2.10,Win32,60,61025ae37ef11b136ea224fe,,,,,,,,,2460,127,91,1,0,0,response1disk,,6,8,11,1,0,0,rectangle,8,11,1,0,0,8,11,1,0,0,1,105,265,88,1,,,,,,,,
,,,,,,,,,,,,,FF,,,,,,,,0.9631,,,,,,,,,,,,,,,,,,,,,,61035cde69aaa4298e4e3dd1,610367388d2d09ec85bb0ae4,2021-07-29_21h43.48.147,Simcolourproject_2stim_asymm_v5,2020.2.10,Win32,60,61025ae37ef11b136ea224fe,,,,,,,,,396,66,-122,1,0,0,response3disk,,4,3,-4,1,0,0,rectangle,3,-4,1,0,0,3,-4,1,0,0,1,106,266,90,1,,,,,,,,
,,,,,,,,,,,,,FF,,,,,,,,0.6339,,,,,,,,,,,,,,,,,,,,,,61035cde69aaa4298e4e3dd1,610367388d2d09ec85bb0ae4,2021-07-29_21h43.48.147,Simcolourproject_2stim_asymm_v5,2020.2.10,Win32,60,61025ae37ef11b136ea224fe,,,,,,,,,521,122,-51,1,0,0,response3disk,,5,2,1,1,0,0,rectangle,2,1,1,0,0,2,1,1,0,0,1,107,267,46,1,,,,,,,,
,,,,,,,,,,,,,FF,,,,,,,,1.6182,,,,,,,,,,,,,,,,,,,,,,61035cde69aaa4298e4e3dd1,610367388d2d09ec85bb0ae4,2021-07-29_21h43.48.147,Simcolourproject_2stim_asymm_v5,2020.2.10,Win32,60,61025ae37ef11b136ea224fe,,,,,,,,,3772,151,61,1,0,0,response1disk,,6,42,2,1,0,0,rectangle,-133,57,1,0,0,-3,-5,1,0,0,1,108,268,95,1,,response7disk_3,TRUE,1,1,"[190,282,211,269,237,289,152,137,83,320,175,94,141,179,110,141,49,68,196,205]",2.6311,rectangle
,,,,,,,,,,,,,FF,,,,,,,,91.9299,,,,,,,,,,,,,,,,,,,,,,61035cde69aaa4298e4e3dd1,610367388d2d09ec85bb0ae4,2021-07-29_21h43.48.147,Simcolourproject_2stim_asymm_v5,2020.2.10,Win32,60,61025ae37ef11b136ea224fe,,,,,,,,,3774,61,-130,1,0,0,response3disk,,4,-19,8,1,0,0,rectangle,-19,8,1,0,0,-19,8,1,0,0,1,109,269,151,1,,,,,,,,
,,,,,,,,,,,,,FF,,,,,,,,0.9177,,,,,,,,,,,,,,,,,,,,,,61035cde69aaa4298e4e3dd1,610367388d2d09ec85bb0ae4,2021-07-29_21h43.48.147,Simcolourproject_2stim_asymm_v5,2020.2.10,Win32,60,61025ae37ef11b136ea224fe,,,,,,,,,182,-108,-50,1,0,0,response5disk,,2,-11,15,1,0,0,rectangle,-11,15,1,0,0,-11,15,1,0,0,1,110,270,80,1,,,,,,,,
,,,,,,,,,,,,,FF,,,,,,,,1.2134,,,,,,,,,,,,,,,,,,,,,,61035cde69aaa4298e4e3dd1,610367388d2d09ec85bb0ae4,2021-07-29_21h43.48.147,Simcolourproject_2stim_asymm_v5,2020.2.10,Win32,60,61025ae37ef11b136ea224fe,,,,,,,,,3745,-58,-127,1,0,0,response5disk,,3,-19,-6,1,0,0,rectangle,-19,-6,1,0,0,-19,-6,1,0,0,1,111,271,49,1,,,,,,,,
,,,,,,,,,,,,,FF,,,,,,,,0.6174,,,,,,,,,,,,,,,,,,,,,,61035cde69aaa4298e4e3dd1,610367388d2d09ec85bb0ae4,2021-07-29_21h43.48.147,Simcolourproject_2stim_asymm_v5,2020.2.10,Win32,60,61025ae37ef11b136ea224fe,,,,,,,,,954,89,-53,1,0,0,response3disk,,5,-3,21,1,0,0,rectangle,-3,21,1,0,0,-3,21,1,0,0,1,112,272,120,1,,,,,,,,
,,,,,,,,,,,,,FF,,,,,,,,0.9801,,,,,,,,,,,,,,,,,,,,,,61035cde69aaa4298e4e3dd1,610367388d2d09ec85bb0ae4,2021-07-29_21h43.48.147,Simcolourproject_2stim_asymm_v5,2020.2.10,Win32,60,61025ae37ef11b136ea224fe,,,,,,,,,434,123,64,1,0,0,response1disk,,6,9,2,1,0,0,rectangle,9,2,1,0,0,9,2,1,0,0,1,113,273,30,1,,,,,,,,
,,,,,,,,,,,,,FF,,,,,,,,0.6127,,,,,,,,,,,,,,,,,,,,,,61035cde69aaa4298e4e3dd1,610367388d2d09ec85bb0ae4,2021-07-29_21h43.48.147,Simcolourproject_2stim_asymm_v5,2020.2.10,Win32,60,61025ae37ef11b136ea224fe,,,,,,,,,1402,127,-78,1,0,0,response3disk,,5,14,-3,1,0,0,rectangle,14,-3,1,0,0,14,-3,1,0,0,1,114,274,116,1,,,,,,,,
,,,,,,,,,,,,,FF,,,,,,,,0.6673,,,,,,,,,,,,,,,,,,,,,,61035cde69aaa4298e4e3dd1,610367388d2d09ec85bb0ae4,2021-07-29_21h43.48.147,Simcolourproject_2stim_asymm_v5,2020.2.10,Win32,60,61025ae37ef11b136ea224fe,,,,,,,,,1041,139,36,1,0,0,response1disk,,6,8,11,1,0,0,rectangle,8,11,1,0,0,8,11,1,0,0,1,115,275,105,1,,,,,,,,
,,,,,,,,,,,,,FF,,,,,,,,0.8794,,,,,,,,,,,,,,,,,,,,,,61035cde69aaa4298e4e3dd1,610367388d2d09ec85bb0ae4,2021-07-29_21h43.48.147,Simcolourproject_2stim_asymm_v5,2020.2.10,Win32,60,61025ae37ef11b136ea224fe,,,,,,,,,587,99,70,1,0,0,response1disk,,6,3,7,1,0,0,rectangle,3,7,1,0,0,3,7,1,0,0,1,116,276,110,1,,,,,,,,
,,,,,,,,,,,,,FF,,,,,,,,0.8006,,,,,,,,,,,,,,,,,,,,,,61035cde69aaa4298e4e3dd1,610367388d2d09ec85bb0ae4,2021-07-29_21h43.48.147,Simcolourproject_2stim_asymm_v5,2020.2.10,Win32,60,61025ae37ef11b136ea224fe,,,,,,,,,4238,130,-96,1,0,0,response3disk,,5,-17,2,1,0,0,rectangle,-17,2,1,0,0,-17,2,1,0,0,1,117,277,127,1,,,,,,,,
,,,,,,,,,,,,,FF,,,,,,,,0.5342,,,,,,,,,,,,,,,,,,,,,,61035cde69aaa4298e4e3dd1,610367388d2d09ec85bb0ae4,2021-07-29_21h43.48.147,Simcolourproject_2stim_asymm_v5,2020.2.10,Win32,60,61025ae37ef11b136ea224fe,,,,,,,,,3735,113,-49,1,0,0,response3disk,,5,34,1,1,0,0,rectangle,34,1,1,0,0,34,1,1,0,0,1,118,278,119,1,,,,,,,,
,,,,,,,,,,,,,FF,,,,,,,,0.6344,,,,,,,,,,,,,,,,,,,,,,61035cde69aaa4298e4e3dd1,610367388d2d09ec85bb0ae4,2021-07-29_21h43.48.147,Simcolourproject_2stim_asymm_v5,2020.2.10,Win32,60,61025ae37ef11b136ea224fe,,,,,,,,,1165,136,45,1,0,0,response1disk,,6,12,-1,1,0,0,rectangle,12,-1,1,0,0,12,-1,1,0,0,1,119,279,118,1,,,,,,,,
,,,,,,,,,,,,,FF,,,,,,,,0.8011,,,,,,,,,,,,,,,,,,,,,,61035cde69aaa4298e4e3dd1,610367388d2d09ec85bb0ae4,2021-07-29_21h43.48.147,Simcolourproject_2stim_asymm_v5,2020.2.10,Win32,60,61025ae37ef11b136ea224fe,,,,,,,,,3079,130,59,1,0,0,response1disk,,6,-24,-5,1,0,0,rectangle,-24,-5,1,0,0,-24,-5,1,0,0,1,120,280,10,1,,,,,,,,
,,,,,,,,,,,,,FF,,,,,,,,1.7185,,,,,,,,,,,,,,,,,,,,,,61035cde69aaa4298e4e3dd1,610367388d2d09ec85bb0ae4,2021-07-29_21h43.48.147,Simcolourproject_2stim_asymm_v5,2020.2.10,Win32,60,61025ae37ef11b136ea224fe,,,,,,,,,4011,109,59,1,0,0,response1disk,,6,-9,14,1,0,0,rectangle,-126,58,1,0,0,-8,-2,1,0,0,1,121,281,157,1,,response7disk_3,TRUE,1,1,"[190,282,211,269,237,289,152,137,83,320,175,94,141,179,110,141,49,68,196,205]",1.6395,rectangle
,,,,,,,,,,,,,FF,,,,,,,,0.9678,,,,,,,,,,,,,,,,,,,,,,61035cde69aaa4298e4e3dd1,610367388d2d09ec85bb0ae4,2021-07-29_21h43.48.147,Simcolourproject_2stim_asymm_v5,2020.2.10,Win32,60,61025ae37ef11b136ea224fe,,,,,,,,,2605,-60,-118,1,0,0,response5disk,,3,-4,6,1,0,0,rectangle,-4,6,1,0,0,-4,6,1,0,0,1,122,282,150,1,,,,,,,,
,,,,,,,,,,,,,FF,,,,,,,,0.663,,,,,,,,,,,,,,,,,,,,,,61035cde69aaa4298e4e3dd1,610367388d2d09ec85bb0ae4,2021-07-29_21h43.48.147,Simcolourproject_2stim_asymm_v5,2020.2.10,Win32,60,61025ae37ef11b136ea224fe,,,,,,,,,435,112,-45,1,0,0,response3disk,,5,19,16,1,0,0,rectangle,19,16,1,0,0,19,16,1,0,0,1,123,283,38,1,,,,,,,,
,,,,,,,,,,,,,FF,,,,,,,,0.946,,,,,,,,,,,,,,,,,,,,,,61035cde69aaa4298e4e3dd1,610367388d2d09ec85bb0ae4,2021-07-29_21h43.48.147,Simcolourproject_2stim_asymm_v5,2020.2.10,Win32,60,61025ae37ef11b136ea224fe,,,,,,,,,3685,126,-51,1,0,0,response3disk,,5,6,-5,1,0,0,rectangle,6,-5,1,0,0,6,-5,1,0,0,1,124,284,35,1,,,,,,,,
,,,,,,,,,,,,,FF,,,,,,,,5.9561,,,,,,,,,,,,,,,,,,,,,,61035cde69aaa4298e4e3dd1,610367388d2d09ec85bb0ae4,2021-07-29_21h43.48.147,Simcolourproject_2stim_asymm_v5,2020.2.10,Win32,60,61025ae37ef11b136ea224fe,,,,,,,,,155,77,-125,1,0,0,response3disk,,4,-16,-7,1,0,0,rectangle,-16,-7,1,0,0,-16,-7,1,0,0,1,125,285,27,1,,,,,,,,
,,,,,,,,,,,,,FF,,,,,,,,0.8063,,,,,,,,,,,,,,,,,,,,,,61035cde69aaa4298e4e3dd1,610367388d2d09ec85bb0ae4,2021-07-29_21h43.48.147,Simcolourproject_2stim_asymm_v5,2020.2.10,Win32,60,61025ae37ef11b136ea224fe,,,,,,,,,74,-47,-96,1,0,0,response5disk,,3,-34,-9,1,0,0,rectangle,-34,-9,1,0,0,-34,-9,1,0,0,1,126,286,13,1,,,,,,,,
,,,,,,,,,,,,,FF,,,,,,,,0.8224,,,,,,,,,,,,,,,,,,,,,,61035cde69aaa4298e4e3dd1,610367388d2d09ec85bb0ae4,2021-07-29_21h43.48.147,Simcolourproject_2stim_asymm_v5,2020.2.10,Win32,60,61025ae37ef11b136ea224fe,,,,,,,,,3373,-33,-89,1,0,0,response5disk,,3,-9,-12,1,0,0,rectangle,-9,-12,1,0,0,-9,-12,1,0,0,1,127,287,8,1,,,,,,,,
,,,,,,,,,,,,,FF,,,,,,,,0.8892,,,,,,,,,,,,,,,,,,,,,,61035cde69aaa4298e4e3dd1,610367388d2d09ec85bb0ae4,2021-07-29_21h43.48.147,Simcolourproject_2stim_asymm_v5,2020.2.10,Win32,60,61025ae37ef11b136ea224fe,,,,,,,,,21,-39,-110,1,0,0,response5disk,,3,43,-6,1,0,0,rectangle,120,25,1,0,0,-25,-1,1,0,0,1,128,288,145,1,,response1disk_3,TRUE,6,6,"[190,282,211,269,237,289,152,137,83,320,175,94,141,179,110,141,49,68,196,205]",1.5062,rectangle
,,,,,,,,,,,,,FF,,,,,,,,0.9627,,,,,,,,,,,,,,,,,,,,,,61035cde69aaa4298e4e3dd1,610367388d2d09ec85bb0ae4,2021-07-29_21h43.48.147,Simcolourproject_2stim_asymm_v5,2020.2.10,Win32,60,61025ae37ef11b136ea224fe,,,,,,,,,3985,63,-135,1,0,0,response3disk,,4,46,13,1,0,0,rectangle,46,13,1,0,0,46,13,1,0,0,1,129,289,16,1,,,,,,,,
,,,,,,,,,,,,,FF,,,,,,,,0.6958,,,,,,,,,,,,,,,,,,,,,,61035cde69aaa4298e4e3dd1,610367388d2d09ec85bb0ae4,2021-07-29_21h43.48.147,Simcolourproject_2stim_asymm_v5,2020.2.10,Win32,60,61025ae37ef11b136ea224fe,,,,,,,,,3528,129,-64,1,0,0,response3disk,,5,2,-4,1,0,0,rectangle,2,-4,1,0,0,2,-4,1,0,0,1,130,290,78,1,,,,,,,,
,,,,,,,,,,,,,FF,,,,,,,,1.0849,,,,,,,,,,,,,,,,,,,,,,61035cde69aaa4298e4e3dd1,610367388d2d09ec85bb0ae4,2021-07-29_21h43.48.147,Simcolourproject_2stim_asymm_v5,2020.2.10,Win32,60,61025ae37ef11b136ea224fe,,,,,,,,,2181,-90,-65,1,0,0,response5disk,,2,-28,-12,1,0,0,rectangle,-28,-12,1,0,0,-28,-12,1,0,0,1,131,291,109,1,,,,,,,,
,,,,,,,,,,,,,FF,,,,,,,,0.5839,,,,,,,,,,,,,,,,,,,,,,61035cde69aaa4298e4e3dd1,610367388d2d09ec85bb0ae4,2021-07-29_21h43.48.147,Simcolourproject_2stim_asymm_v5,2020.2.10,Win32,60,61025ae37ef11b136ea224fe,,,,,,,,,1482,81,-117,1,0,0,response3disk,,4,25,-15,1,0,0,rectangle,25,-15,1,0,0,25,-15,1,0,0,1,132,292,99,1,,,,,,,,
,,,,,,,,,,,,,FF,,,,,,,,0.434,,,,,,,,,,,,,,,,,,,,,,61035cde69aaa4298e4e3dd1,610367388d2d09ec85bb0ae4,2021-07-29_21h43.48.147,Simcolourproject_2stim_asymm_v5,2020.2.10,Win32,60,61025ae37ef11b136ea224fe,,,,,,,,,1647,107,-42,1,0,0,response3disk,,5,-13,4,1,0,0,rectangle,-13,4,1,0,0,-13,4,1,0,0,1,133,293,50,1,,,,,,,,
,,,,,,,,,,,,,FF,,,,,,,,0.5174,,,,,,,,,,,,,,,,,,,,,,61035cde69aaa4298e4e3dd1,610367388d2d09ec85bb0ae4,2021-07-29_21h43.48.147,Simcolourproject_2stim_asymm_v5,2020.2.10,Win32,60,61025ae37ef11b136ea224fe,,,,,,,,,2050,163,-65,1,0,0,response3disk,,5,18,-11,1,0,0,rectangle,18,-11,1,0,0,18,-11,1,0,0,1,134,294,131,1,,,,,,,,
,,,,,,,,,,,,,FF,,,,,,,,0.9896,,,,,,,,,,,,,,,,,,,,,,61035cde69aaa4298e4e3dd1,610367388d2d09ec85bb0ae4,2021-07-29_21h43.48.147,Simcolourproject_2stim_asymm_v5,2020.2.10,Win32,60,61025ae37ef11b136ea224fe,,,,,,,,,1232,-67,-102,1,0,0,response5disk,,3,2,-9,1,0,0,rectangle,2,-9,1,0,0,2,-9,1,0,0,1,135,295,85,1,,,,,,,,
,,,,,,,,,,,,,FF,,,,,,,,0.8794,,,,,,,,,,,,,,,,,,,,,,61035cde69aaa4298e4e3dd1,610367388d2d09ec85bb0ae4,2021-07-29_21h43.48.147,Simcolourproject_2stim_asymm_v5,2020.2.10,Win32,60,61025ae37ef11b136ea224fe,,,,,,,,,868,111,-118,1,0,0,response3disk,,4,19,-3,1,0,0,rectangle,19,-3,1,0,0,19,-3,1,0,0,1,136,296,144,1,,,,,,,,
,,,,,,,,,,,,,FF,,,,,,,,0.6722,,,,,,,,,,,,,,,,,,,,,,61035cde69aaa4298e4e3dd1,610367388d2d09ec85bb0ae4,2021-07-29_21h43.48.147,Simcolourproject_2stim_asymm_v5,2020.2.10,Win32,60,61025ae37ef11b136ea224fe,,,,,,,,,3916,126,-70,1,0,0,response3disk,,5,25,-8,1,0,0,rectangle,25,-8,1,0,0,25,-8,1,0,0,1,137,297,146,1,,,,,,,,
,,,,,,,,,,,,,FF,,,,,,,,1.4179,,,,,,,,,,,,,,,,,,,,,,61035cde69aaa4298e4e3dd1,610367388d2d09ec85bb0ae4,2021-07-29_21h43.48.147,Simcolourproject_2stim_asymm_v5,2020.2.10,Win32,60,61025ae37ef11b136ea224fe,,,,,,,,,941,119,58,1,0,0,response1disk,,6,6,-3,1,0,0,rectangle,6,-3,1,0,0,6,-3,1,0,0,1,138,298,20,1,,,,,,,,
,,,,,,,,,,,,,FF,,,,,,,,0.6007,,,,,,,,,,,,,,,,,,,,,,61035cde69aaa4298e4e3dd1,610367388d2d09ec85bb0ae4,2021-07-29_21h43.48.147,Simcolourproject_2stim_asymm_v5,2020.2.10,Win32,60,61025ae37ef11b136ea224fe,,,,,,,,,936,127,38,1,0,0,response1disk,,6,-5,10,1,0,0,rectangle,-5,10,1,0,0,-5,10,1,0,0,1,139,299,39,1,,,,,,,,
