key_resp.keys,key_resp.rt,key_resp_14.keys,key_resp_14.rt,key_resp_15.keys,key_resp_15.rt,key_resp_17.keys,key_resp_17.rt,key_resp_9.keys,key_resp_9.rt,key_resp_10.keys,key_resp_10.rt,practice_comparison,Ecc,mouse_5.x,mouse_5.y,mouse_5.leftButton,mouse_5.midButton,mouse_5.rightButton,mouse_5.clicked_name,pracsimilarity,response_time,mouse_10.x,mouse_10.y,mouse_10.leftButton,mouse_10.midButton,mouse_10.rightButton,mouse_10.clicked_name,mouse_7.x,mouse_7.y,mouse_7.leftButton,mouse_7.midButton,mouse_7.rightButton,mouse_6.x,mouse_6.y,mouse_6.leftButton,mouse_6.midButton,mouse_6.rightButton,duringprac.thisRepN,duringprac.thisTrialN,duringprac.thisN,duringprac.thisIndex,duringprac.ran,participant,session,date,expName,psychopyVersion,OS,frameRate,study_id,mouse_7.clicked_name,catchpracsimilarity,catch_response_time,catchnumberprac,catchtrialorderprac,mouse_6.clicked_name,key_resp_22.keys,key_resp_22.rt,realcomparison,mouse.x,mouse.y,mouse.leftButton,mouse.midButton,mouse.rightButton,mouse.clicked_name,Colour2,similarity,mouse_2.x,mouse_2.y,mouse_2.leftButton,mouse_2.midButton,mouse_2.rightButton,mouse_2.clicked_name,mouse_3.x,mouse_3.y,mouse_3.leftButton,mouse_3.midButton,mouse_3.rightButton,mouse_11.x,mouse_11.y,mouse_11.leftButton,mouse_11.midButton,mouse_11.rightButton,trials_2.thisRepN,trials_2.thisTrialN,trials_2.thisN,trials_2.thisIndex,trials_2.ran,Colour1,mouse_3.clicked_name,catchornah,catchsimilarity,catchnumber,catchtrialorder,catchRT,mouse_11.clicked_name
space,1.604,space,6.051,space,19.927,space,11.628,space,9.587,space,8.687,32,FF,-34,64,1,0,0,response7disk_5,0,10.079,1,-9,1,0,0,rectangle_8,1,-9,1,0,0,1,-9,1,0,0,0,0,0,0,1,6103633108de7b1f37485955,61036d6636f49f6fa4568585,2021-07-29_23h16.03.011,Simcolourproject_2stim_asymm_v5,2020.2.10,MacIntel,60,61025ae37ef11b136ea224fe,,,,,,,,,,,,,,,,,,,,,,,,,,,,,,,,,,,,,,,,,,,,,,
,,,,,,,,,,,,73,PF,89,35,1,0,0,response1disk_5,6,6.919,1,-11,1,0,0,rectangle_8,47,-103,1,0,0,16,3,1,0,0,0,1,1,4,1,6103633108de7b1f37485955,61036d6636f49f6fa4568585,2021-07-29_23h16.03.011,Simcolourproject_2stim_asymm_v5,2020.2.10,MacIntel,60,61025ae37ef11b136ea224fe,response3disk_7,4,4.428,4,"[2,5]",rectangle_4,,,,,,,,,,,,,,,,,,,,,,,,,,,,,,,,,,,,,,,,
,,,,,,,,,,,,31,PF,66,98,1,0,0,response1disk_5,7,3.957,-4,-15,1,0,0,rectangle_8,-4,-15,1,0,0,-4,-15,1,0,0,0,2,2,2,1,6103633108de7b1f37485955,61036d6636f49f6fa4568585,2021-07-29_23h16.03.011,Simcolourproject_2stim_asymm_v5,2020.2.10,MacIntel,60,61025ae37ef11b136ea224fe,,,,,,,,,,,,,,,,,,,,,,,,,,,,,,,,,,,,,,,,,,,,,,
,,,,,,,,,,,,89,PF,48,88,1,0,0,response1disk_5,7,2.11,-1,-18,1,0,0,rectangle_8,-1,-18,1,0,0,-1,-18,1,0,0,0,3,3,1,1,6103633108de7b1f37485955,61036d6636f49f6fa4568585,2021-07-29_23h16.03.011,Simcolourproject_2stim_asymm_v5,2020.2.10,MacIntel,60,61025ae37ef11b136ea224fe,,,,,,,,,,,,,,,,,,,,,,,,,,,,,,,,,,,,,,,,,,,,,,
,,,,,,,,,,,,118,FF,87,-72,1,0,0,response3disk_5,5,2.225,13,1,1,0,0,rectangle_8,46,-87,1,0,0,3,5,1,0,0,0,4,4,5,1,6103633108de7b1f37485955,61036d6636f49f6fa4568585,2021-07-29_23h16.03.011,Simcolourproject_2stim_asymm_v5,2020.2.10,MacIntel,60,61025ae37ef11b136ea224fe,response3disk_7,4,3.962,4,"[2,5]",rectangle_4,,,,,,,,,,,,,,,,,,,,,,,,,,,,,,,,,,,,,,,,
,,,,,,,,,,,,155,PF,81,-103,1,0,0,response3disk_5,4,3.627,13,-4,1,0,0,rectangle_8,13,-4,1,0,0,13,-4,1,0,0,0,5,5,6,1,6103633108de7b1f37485955,61036d6636f49f6fa4568585,2021-07-29_23h16.03.011,Simcolourproject_2stim_asymm_v5,2020.2.10,MacIntel,60,61025ae37ef11b136ea224fe,,,,,,,,,,,,,,,,,,,,,,,,,,,,,,,,,,,,,,,,,,,,,,
,,,,,,,,,,,,51,FF,99,26,1,0,0,response1disk_5,6,2.169,17,-4,1,0,0,rectangle_8,17,-4,1,0,0,17,-4,1,0,0,0,6,6,3,1,6103633108de7b1f37485955,61036d6636f49f6fa4568585,2021-07-29_23h16.03.011,Simcolourproject_2stim_asymm_v5,2020.2.10,MacIntel,60,61025ae37ef11b136ea224fe,,,,,,,,,,,,,,,,,,,,,,,,,,,,,,,,,,,,,,,,,,,,,,
,,,,,,,,,,,,,FF,,,,,,,,4.673,,,,,,,,,,,,,,,,,,,,,,6103633108de7b1f37485955,61036d6636f49f6fa4568585,2021-07-29_23h16.03.011,Simcolourproject_2stim_asymm_v5,2020.2.10,MacIntel,60,61025ae37ef11b136ea224fe,,,,,,,space,3.568,2681,49,-91,1,0,0,response3disk,,4,13,0,1,0,0,rectangle,13,0,1,0,0,13,0,1,0,0,0,0,0,61,1,,,,,,,,
,,,,,,,,,,,,,FF,,,,,,,,1.537,,,,,,,,,,,,,,,,,,,,,,6103633108de7b1f37485955,61036d6636f49f6fa4568585,2021-07-29_23h16.03.011,Simcolourproject_2stim_asymm_v5,2020.2.10,MacIntel,60,61025ae37ef11b136ea224fe,,,,,,,,,2937,46,75,1,0,0,response1disk,,7,-2,-11,1,0,0,rectangle,-2,-11,1,0,0,-2,-11,1,0,0,0,1,1,142,1,,,,,,,,
,,,,,,,,,,,,,FF,,,,,,,,1.605,,,,,,,,,,,,,,,,,,,,,,6103633108de7b1f37485955,61036d6636f49f6fa4568585,2021-07-29_23h16.03.011,Simcolourproject_2stim_asymm_v5,2020.2.10,MacIntel,60,61025ae37ef11b136ea224fe,,,,,,,,,4339,54,83,1,0,0,response1disk,,7,5,4,1,0,0,rectangle,5,4,1,0,0,5,4,1,0,0,0,2,2,119,1,,,,,,,,
,,,,,,,,,,,,,FF,,,,,,,,1.349,,,,,,,,,,,,,,,,,,,,,,6103633108de7b1f37485955,61036d6636f49f6fa4568585,2021-07-29_23h16.03.011,Simcolourproject_2stim_asymm_v5,2020.2.10,MacIntel,60,61025ae37ef11b136ea224fe,,,,,,,,,50,36,72,1,0,0,response1disk,,7,5,-3,1,0,0,rectangle,5,-3,1,0,0,5,-3,1,0,0,0,3,3,106,1,,,,,,,,
,,,,,,,,,,,,,FF,,,,,,,,1.623,,,,,,,,,,,,,,,,,,,,,,6103633108de7b1f37485955,61036d6636f49f6fa4568585,2021-07-29_23h16.03.011,Simcolourproject_2stim_asymm_v5,2020.2.10,MacIntel,60,61025ae37ef11b136ea224fe,,,,,,,,,1071,94,-44,1,0,0,response3disk,,5,13,2,1,0,0,rectangle,13,2,1,0,0,13,2,1,0,0,0,4,4,27,1,,,,,,,,
,,,,,,,,,,,,,FF,,,,,,,,1.072,,,,,,,,,,,,,,,,,,,,,,6103633108de7b1f37485955,61036d6636f49f6fa4568585,2021-07-29_23h16.03.011,Simcolourproject_2stim_asymm_v5,2020.2.10,MacIntel,60,61025ae37ef11b136ea224fe,,,,,,,,,4322,41,72,1,0,0,response1disk,,7,5,10,1,0,0,rectangle,5,10,1,0,0,5,10,1,0,0,0,5,5,15,1,,,,,,,,
,,,,,,,,,,,,,FF,,,,,,,,1.089,,,,,,,,,,,,,,,,,,,,,,6103633108de7b1f37485955,61036d6636f49f6fa4568585,2021-07-29_23h16.03.011,Simcolourproject_2stim_asymm_v5,2020.2.10,MacIntel,60,61025ae37ef11b136ea224fe,,,,,,,,,200,36,80,1,0,0,response1disk,,7,-5,1,1,0,0,rectangle,-5,1,1,0,0,-5,1,1,0,0,0,6,6,21,1,,,,,,,,
,,,,,,,,,,,,,FF,,,,,,,,1.006,,,,,,,,,,,,,,,,,,,,,,6103633108de7b1f37485955,61036d6636f49f6fa4568585,2021-07-29_23h16.03.011,Simcolourproject_2stim_asymm_v5,2020.2.10,MacIntel,60,61025ae37ef11b136ea224fe,,,,,,,,,396,38,63,1,0,0,response1disk,,7,7,-2,1,0,0,rectangle,7,-2,1,0,0,7,-2,1,0,0,0,7,7,53,1,,,,,,,,
,,,,,,,,,,,,,FF,,,,,,,,1.618,,,,,,,,,,,,,,,,,,,,,,6103633108de7b1f37485955,61036d6636f49f6fa4568585,2021-07-29_23h16.03.011,Simcolourproject_2stim_asymm_v5,2020.2.10,MacIntel,60,61025ae37ef11b136ea224fe,,,,,,,,,3734,86,32,1,0,0,response1disk,,6,22,4,1,0,0,rectangle,22,4,1,0,0,22,4,1,0,0,0,8,8,81,1,,,,,,,,
,,,,,,,,,,,,,FF,,,,,,,,0.935,,,,,,,,,,,,,,,,,,,,,,6103633108de7b1f37485955,61036d6636f49f6fa4568585,2021-07-29_23h16.03.011,Simcolourproject_2stim_asymm_v5,2020.2.10,MacIntel,60,61025ae37ef11b136ea224fe,,,,,,,,,448,45,106,1,0,0,response1disk,,7,-10,-8,1,0,0,rectangle,-10,-8,1,0,0,-10,-8,1,0,0,0,9,9,34,1,,,,,,,,
,,,,,,,,,,,,,FF,,,,,,,,2.208,,,,,,,,,,,,,,,,,,,,,,6103633108de7b1f37485955,61036d6636f49f6fa4568585,2021-07-29_23h16.03.011,Simcolourproject_2stim_asymm_v5,2020.2.10,MacIntel,60,61025ae37ef11b136ea224fe,,,,,,,,,1065,96,23,1,0,0,response1disk,,6,12,-8,1,0,0,rectangle,12,-8,1,0,0,12,-8,1,0,0,0,10,10,83,1,,,,,,,,
,,,,,,,,,,,,,FF,,,,,,,,1.453,,,,,,,,,,,,,,,,,,,,,,6103633108de7b1f37485955,61036d6636f49f6fa4568585,2021-07-29_23h16.03.011,Simcolourproject_2stim_asymm_v5,2020.2.10,MacIntel,60,61025ae37ef11b136ea224fe,,,,,,,,,248,78,-53,1,0,0,response3disk,,5,2,10,1,0,0,rectangle,2,10,1,0,0,2,10,1,0,0,0,11,11,2,1,,,,,,,,
,,,,,,,,,,,,,FF,,,,,,,,1.919,,,,,,,,,,,,,,,,,,,,,,6103633108de7b1f37485955,61036d6636f49f6fa4568585,2021-07-29_23h16.03.011,Simcolourproject_2stim_asymm_v5,2020.2.10,MacIntel,60,61025ae37ef11b136ea224fe,,,,,,,,,3514,-36,-77,1,0,0,response5disk,,3,10,-3,1,0,0,rectangle,10,-3,1,0,0,10,-3,1,0,0,0,12,12,88,1,,,,,,,,
,,,,,,,,,,,,,FF,,,,,,,,1.004,,,,,,,,,,,,,,,,,,,,,,6103633108de7b1f37485955,61036d6636f49f6fa4568585,2021-07-29_23h16.03.011,Simcolourproject_2stim_asymm_v5,2020.2.10,MacIntel,60,61025ae37ef11b136ea224fe,,,,,,,,,3138,35,-79,1,0,0,response3disk,,4,16,-6,1,0,0,rectangle,16,-6,1,0,0,16,-6,1,0,0,0,13,13,16,1,,,,,,,,
,,,,,,,,,,,,,FF,,,,,,,,1.25,,,,,,,,,,,,,,,,,,,,,,6103633108de7b1f37485955,61036d6636f49f6fa4568585,2021-07-29_23h16.03.011,Simcolourproject_2stim_asymm_v5,2020.2.10,MacIntel,60,61025ae37ef11b136ea224fe,,,,,,,,,3694,42,-66,1,0,0,response3disk,,4,17,-3,1,0,0,rectangle,17,-3,1,0,0,17,-3,1,0,0,0,14,14,28,1,,,,,,,,
,,,,,,,,,,,,,FF,,,,,,,,4.743,,,,,,,,,,,,,,,,,,,,,,6103633108de7b1f37485955,61036d6636f49f6fa4568585,2021-07-29_23h16.03.011,Simcolourproject_2stim_asymm_v5,2020.2.10,MacIntel,60,61025ae37ef11b136ea224fe,,,,,,,,,4213,44,73,1,0,0,response1disk,,7,11,5,1,0,0,rectangle,11,5,1,0,0,11,5,1,0,0,0,15,15,87,1,,,,,,,,
,,,,,,,,,,,,,FF,,,,,,,,1.005,,,,,,,,,,,,,,,,,,,,,,6103633108de7b1f37485955,61036d6636f49f6fa4568585,2021-07-29_23h16.03.011,Simcolourproject_2stim_asymm_v5,2020.2.10,MacIntel,60,61025ae37ef11b136ea224fe,,,,,,,,,363,26,60,1,0,0,response1disk,,7,3,-10,1,0,0,rectangle,3,-10,1,0,0,3,-10,1,0,0,0,16,16,151,1,,,,,,,,
,,,,,,,,,,,,,FF,,,,,,,,1.138,,,,,,,,,,,,,,,,,,,,,,6103633108de7b1f37485955,61036d6636f49f6fa4568585,2021-07-29_23h16.03.011,Simcolourproject_2stim_asymm_v5,2020.2.10,MacIntel,60,61025ae37ef11b136ea224fe,,,,,,,,,39,38,64,1,0,0,response1disk,,7,8,15,1,0,0,rectangle,8,15,1,0,0,8,15,1,0,0,0,17,17,110,1,,,,,,,,
,,,,,,,,,,,,,FF,,,,,,,,0.962,,,,,,,,,,,,,,,,,,,,,,6103633108de7b1f37485955,61036d6636f49f6fa4568585,2021-07-29_23h16.03.011,Simcolourproject_2stim_asymm_v5,2020.2.10,MacIntel,60,61025ae37ef11b136ea224fe,,,,,,,,,4013,36,74,1,0,0,response1disk,,7,-4,9,1,0,0,rectangle,-4,9,1,0,0,-4,9,1,0,0,0,18,18,90,1,,,,,,,,
,,,,,,,,,,,,,FF,,,,,,,,1.042,,,,,,,,,,,,,,,,,,,,,,6103633108de7b1f37485955,61036d6636f49f6fa4568585,2021-07-29_23h16.03.011,Simcolourproject_2stim_asymm_v5,2020.2.10,MacIntel,60,61025ae37ef11b136ea224fe,,,,,,,,,2413,27,55,1,0,0,response1disk,,7,4,4,1,0,0,rectangle,4,4,1,0,0,4,4,1,0,0,0,19,19,105,1,,,,,,,,
,,,,,,,,,,,,,FF,,,,,,,,1.203,,,,,,,,,,,,,,,,,,,,,,6103633108de7b1f37485955,61036d6636f49f6fa4568585,2021-07-29_23h16.03.011,Simcolourproject_2stim_asymm_v5,2020.2.10,MacIntel,60,61025ae37ef11b136ea224fe,,,,,,,,,519,85,20,1,0,0,response1disk,,6,27,1,1,0,0,rectangle,27,1,1,0,0,27,1,1,0,0,0,20,20,125,1,,,,,,,,
,,,,,,,,,,,,,FF,,,,,,,,1.066,,,,,,,,,,,,,,,,,,,,,,6103633108de7b1f37485955,61036d6636f49f6fa4568585,2021-07-29_23h16.03.011,Simcolourproject_2stim_asymm_v5,2020.2.10,MacIntel,60,61025ae37ef11b136ea224fe,,,,,,,,,1360,45,65,1,0,0,response1disk,,7,11,10,1,0,0,rectangle,11,10,1,0,0,11,10,1,0,0,0,21,21,108,1,,,,,,,,
,,,,,,,,,,,,,FF,,,,,,,,1.758,,,,,,,,,,,,,,,,,,,,,,6103633108de7b1f37485955,61036d6636f49f6fa4568585,2021-07-29_23h16.03.011,Simcolourproject_2stim_asymm_v5,2020.2.10,MacIntel,60,61025ae37ef11b136ea224fe,,,,,,,,,556,96,31,1,0,0,response1disk,,6,27,-7,1,0,0,rectangle,27,-7,1,0,0,27,-7,1,0,0,0,22,22,107,1,,,,,,,,
,,,,,,,,,,,,,FF,,,,,,,,1.133,,,,,,,,,,,,,,,,,,,,,,6103633108de7b1f37485955,61036d6636f49f6fa4568585,2021-07-29_23h16.03.011,Simcolourproject_2stim_asymm_v5,2020.2.10,MacIntel,60,61025ae37ef11b136ea224fe,,,,,,,,,5,25,-107,1,0,0,response3disk,,4,13,-2,1,0,0,rectangle,-80,-54,1,0,0,5,-5,1,0,0,0,23,23,62,1,,response5disk_3,TRUE,2,2,"[276,292,196,242,27,106,267,57,36,59,167,112,57,24,152,261,98,94,237,302]",3.12,rectangle
,,,,,,,,,,,,,FF,,,,,,,,0.935,,,,,,,,,,,,,,,,,,,,,,6103633108de7b1f37485955,61036d6636f49f6fa4568585,2021-07-29_23h16.03.011,Simcolourproject_2stim_asymm_v5,2020.2.10,MacIntel,60,61025ae37ef11b136ea224fe,,,,,,,,,480,41,68,1,0,0,response1disk,,7,-7,-1,1,0,0,rectangle,-7,-1,1,0,0,-7,-1,1,0,0,0,24,24,129,1,,,,,,,,
,,,,,,,,,,,,,FF,,,,,,,,1.671,,,,,,,,,,,,,,,,,,,,,,6103633108de7b1f37485955,61036d6636f49f6fa4568585,2021-07-29_23h16.03.011,Simcolourproject_2stim_asymm_v5,2020.2.10,MacIntel,60,61025ae37ef11b136ea224fe,,,,,,,,,1841,55,78,1,0,0,response1disk,,7,8,5,1,0,0,rectangle,8,5,1,0,0,8,5,1,0,0,0,25,25,31,1,,,,,,,,
,,,,,,,,,,,,,FF,,,,,,,,2.607,,,,,,,,,,,,,,,,,,,,,,6103633108de7b1f37485955,61036d6636f49f6fa4568585,2021-07-29_23h16.03.011,Simcolourproject_2stim_asymm_v5,2020.2.10,MacIntel,60,61025ae37ef11b136ea224fe,,,,,,,,,2361,-93,-68,1,0,0,response5disk,,2,16,-5,1,0,0,rectangle,46,89,1,0,0,9,6,1,0,0,0,26,26,124,1,,response1disk_3,TRUE,7,7,"[276,292,196,242,27,106,267,57,36,59,167,112,57,24,152,261,98,94,237,302]",2.656,rectangle
,,,,,,,,,,,,,FF,,,,,,,,1.092,,,,,,,,,,,,,,,,,,,,,,6103633108de7b1f37485955,61036d6636f49f6fa4568585,2021-07-29_23h16.03.011,Simcolourproject_2stim_asymm_v5,2020.2.10,MacIntel,60,61025ae37ef11b136ea224fe,,,,,,,,,2325,33,62,1,0,0,response1disk,,7,2,9,1,0,0,rectangle,2,9,1,0,0,2,9,1,0,0,0,27,27,8,1,,,,,,,,
,,,,,,,,,,,,,FF,,,,,,,,0.971,,,,,,,,,,,,,,,,,,,,,,6103633108de7b1f37485955,61036d6636f49f6fa4568585,2021-07-29_23h16.03.011,Simcolourproject_2stim_asymm_v5,2020.2.10,MacIntel,60,61025ae37ef11b136ea224fe,,,,,,,,,4172,39,61,1,0,0,response1disk,,7,1,7,1,0,0,rectangle,1,7,1,0,0,1,7,1,0,0,0,28,28,60,1,,,,,,,,
,,,,,,,,,,,,,FF,,,,,,,,1.421,,,,,,,,,,,,,,,,,,,,,,6103633108de7b1f37485955,61036d6636f49f6fa4568585,2021-07-29_23h16.03.011,Simcolourproject_2stim_asymm_v5,2020.2.10,MacIntel,60,61025ae37ef11b136ea224fe,,,,,,,,,1977,77,-69,1,0,0,response3disk,,5,2,-11,1,0,0,rectangle,2,-11,1,0,0,2,-11,1,0,0,0,29,29,32,1,,,,,,,,
,,,,,,,,,,,,,FF,,,,,,,,1.778,,,,,,,,,,,,,,,,,,,,,,6103633108de7b1f37485955,61036d6636f49f6fa4568585,2021-07-29_23h16.03.011,Simcolourproject_2stim_asymm_v5,2020.2.10,MacIntel,60,61025ae37ef11b136ea224fe,,,,,,,,,4124,79,-42,1,0,0,response3disk,,5,12,-8,1,0,0,rectangle,12,-8,1,0,0,12,-8,1,0,0,0,30,30,126,1,,,,,,,,
,,,,,,,,,,,,,FF,,,,,,,,1.452,,,,,,,,,,,,,,,,,,,,,,6103633108de7b1f37485955,61036d6636f49f6fa4568585,2021-07-29_23h16.03.011,Simcolourproject_2stim_asymm_v5,2020.2.10,MacIntel,60,61025ae37ef11b136ea224fe,,,,,,,,,3424,45,57,1,0,0,response1disk,,7,13,8,1,0,0,rectangle,13,8,1,0,0,13,8,1,0,0,0,31,31,75,1,,,,,,,,
,,,,,,,,,,,,,FF,,,,,,,,1.01,,,,,,,,,,,,,,,,,,,,,,6103633108de7b1f37485955,61036d6636f49f6fa4568585,2021-07-29_23h16.03.011,Simcolourproject_2stim_asymm_v5,2020.2.10,MacIntel,60,61025ae37ef11b136ea224fe,,,,,,,,,4202,34,-55,1,0,0,response3disk,,4,10,-8,1,0,0,rectangle,10,-8,1,0,0,10,-8,1,0,0,0,32,32,133,1,,,,,,,,
,,,,,,,,,,,,,FF,,,,,,,,0.915,,,,,,,,,,,,,,,,,,,,,,6103633108de7b1f37485955,61036d6636f49f6fa4568585,2021-07-29_23h16.03.011,Simcolourproject_2stim_asymm_v5,2020.2.10,MacIntel,60,61025ae37ef11b136ea224fe,,,,,,,,,1024,40,53,1,0,0,response1disk,,7,-6,2,1,0,0,rectangle,-6,2,1,0,0,-6,2,1,0,0,0,33,33,52,1,,,,,,,,
,,,,,,,,,,,,,FF,,,,,,,,1.407,,,,,,,,,,,,,,,,,,,,,,6103633108de7b1f37485955,61036d6636f49f6fa4568585,2021-07-29_23h16.03.011,Simcolourproject_2stim_asymm_v5,2020.2.10,MacIntel,60,61025ae37ef11b136ea224fe,,,,,,,,,3759,41,51,1,0,0,response1disk,,7,10,15,1,0,0,rectangle,10,15,1,0,0,10,15,1,0,0,0,34,34,18,1,,,,,,,,
,,,,,,,,,,,,,FF,,,,,,,,1.939,,,,,,,,,,,,,,,,,,,,,,6103633108de7b1f37485955,61036d6636f49f6fa4568585,2021-07-29_23h16.03.011,Simcolourproject_2stim_asymm_v5,2020.2.10,MacIntel,60,61025ae37ef11b136ea224fe,,,,,,,,,1267,105,-62,1,0,0,response3disk,,5,11,-2,1,0,0,rectangle,54,86,1,0,0,7,-6,1,0,0,0,35,35,41,1,,response1disk_3,TRUE,7,7,"[276,292,196,242,27,106,267,57,36,59,167,112,57,24,152,261,98,94,237,302]",2.293,rectangle
,,,,,,,,,,,,,FF,,,,,,,,0.89,,,,,,,,,,,,,,,,,,,,,,6103633108de7b1f37485955,61036d6636f49f6fa4568585,2021-07-29_23h16.03.011,Simcolourproject_2stim_asymm_v5,2020.2.10,MacIntel,60,61025ae37ef11b136ea224fe,,,,,,,,,2984,39,95,1,0,0,response1disk,,7,5,4,1,0,0,rectangle,5,4,1,0,0,5,4,1,0,0,0,36,36,132,1,,,,,,,,
,,,,,,,,,,,,,FF,,,,,,,,0.8,,,,,,,,,,,,,,,,,,,,,,6103633108de7b1f37485955,61036d6636f49f6fa4568585,2021-07-29_23h16.03.011,Simcolourproject_2stim_asymm_v5,2020.2.10,MacIntel,60,61025ae37ef11b136ea224fe,,,,,,,,,1492,29,63,1,0,0,response1disk,,7,2,0,1,0,0,rectangle,2,0,1,0,0,2,0,1,0,0,0,37,37,139,1,,,,,,,,
,,,,,,,,,,,,,FF,,,,,,,,0.912,,,,,,,,,,,,,,,,,,,,,,6103633108de7b1f37485955,61036d6636f49f6fa4568585,2021-07-29_23h16.03.011,Simcolourproject_2stim_asymm_v5,2020.2.10,MacIntel,60,61025ae37ef11b136ea224fe,,,,,,,,,2495,22,50,1,0,0,response1disk,,7,-1,6,1,0,0,rectangle,-1,6,1,0,0,-1,6,1,0,0,0,38,38,66,1,,,,,,,,
,,,,,,,,,,,,,FF,,,,,,,,0.802,,,,,,,,,,,,,,,,,,,,,,6103633108de7b1f37485955,61036d6636f49f6fa4568585,2021-07-29_23h16.03.011,Simcolourproject_2stim_asymm_v5,2020.2.10,MacIntel,60,61025ae37ef11b136ea224fe,,,,,,,,,2210,33,53,1,0,0,response1disk,,7,5,3,1,0,0,rectangle,5,3,1,0,0,5,3,1,0,0,0,39,39,5,1,,,,,,,,
,,,,,,,,,,,,,FF,,,,,,,,1.05,,,,,,,,,,,,,,,,,,,,,,6103633108de7b1f37485955,61036d6636f49f6fa4568585,2021-07-29_23h16.03.011,Simcolourproject_2stim_asymm_v5,2020.2.10,MacIntel,60,61025ae37ef11b136ea224fe,,,,,,,,,1201,84,30,1,0,0,response1disk,,6,16,-4,1,0,0,rectangle,16,-4,1,0,0,16,-4,1,0,0,0,40,40,152,1,,,,,,,,
,,,,,,,,,,,,,FF,,,,,,,,0.852,,,,,,,,,,,,,,,,,,,,,,6103633108de7b1f37485955,61036d6636f49f6fa4568585,2021-07-29_23h16.03.011,Simcolourproject_2stim_asymm_v5,2020.2.10,MacIntel,60,61025ae37ef11b136ea224fe,,,,,,,,,2897,37,72,1,0,0,response1disk,,7,4,14,1,0,0,rectangle,4,14,1,0,0,4,14,1,0,0,0,41,41,135,1,,,,,,,,
,,,,,,,,,,,,,FF,,,,,,,,0.82,,,,,,,,,,,,,,,,,,,,,,6103633108de7b1f37485955,61036d6636f49f6fa4568585,2021-07-29_23h16.03.011,Simcolourproject_2stim_asymm_v5,2020.2.10,MacIntel,60,61025ae37ef11b136ea224fe,,,,,,,,,145,39,64,1,0,0,response1disk,,7,0,-7,1,0,0,rectangle,0,-7,1,0,0,0,-7,1,0,0,0,42,42,74,1,,,,,,,,
,,,,,,,,,,,,,FF,,,,,,,,0.957,,,,,,,,,,,,,,,,,,,,,,6103633108de7b1f37485955,61036d6636f49f6fa4568585,2021-07-29_23h16.03.011,Simcolourproject_2stim_asymm_v5,2020.2.10,MacIntel,60,61025ae37ef11b136ea224fe,,,,,,,,,1508,25,60,1,0,0,response1disk,,7,5,1,1,0,0,rectangle,5,1,1,0,0,5,1,1,0,0,0,43,43,143,1,,,,,,,,
,,,,,,,,,,,,,FF,,,,,,,,0.916,,,,,,,,,,,,,,,,,,,,,,6103633108de7b1f37485955,61036d6636f49f6fa4568585,2021-07-29_23h16.03.011,Simcolourproject_2stim_asymm_v5,2020.2.10,MacIntel,60,61025ae37ef11b136ea224fe,,,,,,,,,33,26,39,1,0,0,response1disk,,7,3,-4,1,0,0,rectangle,3,-4,1,0,0,3,-4,1,0,0,0,44,44,49,1,,,,,,,,
,,,,,,,,,,,,,FF,,,,,,,,0.788,,,,,,,,,,,,,,,,,,,,,,6103633108de7b1f37485955,61036d6636f49f6fa4568585,2021-07-29_23h16.03.011,Simcolourproject_2stim_asymm_v5,2020.2.10,MacIntel,60,61025ae37ef11b136ea224fe,,,,,,,,,2199,28,45,1,0,0,response1disk,,7,1,2,1,0,0,rectangle,1,2,1,0,0,1,2,1,0,0,0,45,45,45,1,,,,,,,,
,,,,,,,,,,,,,FF,,,,,,,,1.651,,,,,,,,,,,,,,,,,,,,,,6103633108de7b1f37485955,61036d6636f49f6fa4568585,2021-07-29_23h16.03.011,Simcolourproject_2stim_asymm_v5,2020.2.10,MacIntel,60,61025ae37ef11b136ea224fe,,,,,,,,,719,-41,-76,1,0,0,response5disk,,3,1,-5,1,0,0,rectangle,1,-5,1,0,0,1,-5,1,0,0,0,46,46,159,1,,,,,,,,
,,,,,,,,,,,,,FF,,,,,,,,0.938,,,,,,,,,,,,,,,,,,,,,,6103633108de7b1f37485955,61036d6636f49f6fa4568585,2021-07-29_23h16.03.011,Simcolourproject_2stim_asymm_v5,2020.2.10,MacIntel,60,61025ae37ef11b136ea224fe,,,,,,,,,2932,-31,-58,1,0,0,response5disk,,3,-5,-4,1,0,0,rectangle,-5,-4,1,0,0,-5,-4,1,0,0,0,47,47,40,1,,,,,,,,
,,,,,,,,,,,,,FF,,,,,,,,0.908,,,,,,,,,,,,,,,,,,,,,,6103633108de7b1f37485955,61036d6636f49f6fa4568585,2021-07-29_23h16.03.011,Simcolourproject_2stim_asymm_v5,2020.2.10,MacIntel,60,61025ae37ef11b136ea224fe,,,,,,,,,2884,25,68,1,0,0,response1disk,,7,-1,7,1,0,0,rectangle,-1,7,1,0,0,-1,7,1,0,0,0,48,48,100,1,,,,,,,,
,,,,,,,,,,,,,FF,,,,,,,,0.917,,,,,,,,,,,,,,,,,,,,,,6103633108de7b1f37485955,61036d6636f49f6fa4568585,2021-07-29_23h16.03.011,Simcolourproject_2stim_asymm_v5,2020.2.10,MacIntel,60,61025ae37ef11b136ea224fe,,,,,,,,,3465,29,63,1,0,0,response1disk,,7,5,6,1,0,0,rectangle,5,6,1,0,0,5,6,1,0,0,0,49,49,130,1,,,,,,,,
,,,,,,,,,,,,,FF,,,,,,,,1.07,,,,,,,,,,,,,,,,,,,,,,6103633108de7b1f37485955,61036d6636f49f6fa4568585,2021-07-29_23h16.03.011,Simcolourproject_2stim_asymm_v5,2020.2.10,MacIntel,60,61025ae37ef11b136ea224fe,,,,,,,,,217,32,58,1,0,0,response1disk,,7,3,9,1,0,0,rectangle,3,9,1,0,0,3,9,1,0,0,0,50,50,70,1,,,,,,,,
,,,,,,,,,,,,,FF,,,,,,,,1.005,,,,,,,,,,,,,,,,,,,,,,6103633108de7b1f37485955,61036d6636f49f6fa4568585,2021-07-29_23h16.03.011,Simcolourproject_2stim_asymm_v5,2020.2.10,MacIntel,60,61025ae37ef11b136ea224fe,,,,,,,,,1200,49,25,1,0,0,response1disk,,6,8,-16,1,0,0,rectangle,8,-16,1,0,0,8,-16,1,0,0,0,51,51,86,1,,,,,,,,
,,,,,,,,,,,,,FF,,,,,,,,0.774,,,,,,,,,,,,,,,,,,,,,,6103633108de7b1f37485955,61036d6636f49f6fa4568585,2021-07-29_23h16.03.011,Simcolourproject_2stim_asymm_v5,2020.2.10,MacIntel,60,61025ae37ef11b136ea224fe,,,,,,,,,2958,40,53,1,0,0,response1disk,,7,6,7,1,0,0,rectangle,6,7,1,0,0,6,7,1,0,0,0,52,52,84,1,,,,,,,,
,,,,,,,,,,,,,FF,,,,,,,,0.624,,,,,,,,,,,,,,,,,,,,,,6103633108de7b1f37485955,61036d6636f49f6fa4568585,2021-07-29_23h16.03.011,Simcolourproject_2stim_asymm_v5,2020.2.10,MacIntel,60,61025ae37ef11b136ea224fe,,,,,,,,,2501,36,49,1,0,0,response1disk,,7,8,5,1,0,0,rectangle,8,5,1,0,0,8,5,1,0,0,0,53,53,131,1,,,,,,,,
,,,,,,,,,,,,,FF,,,,,,,,1.43,,,,,,,,,,,,,,,,,,,,,,6103633108de7b1f37485955,61036d6636f49f6fa4568585,2021-07-29_23h16.03.011,Simcolourproject_2stim_asymm_v5,2020.2.10,MacIntel,60,61025ae37ef11b136ea224fe,,,,,,,,,1247,39,66,1,0,0,response1disk,,7,5,4,1,0,0,rectangle,5,4,1,0,0,5,4,1,0,0,0,54,54,46,1,,,,,,,,
,,,,,,,,,,,,,FF,,,,,,,,1.664,,,,,,,,,,,,,,,,,,,,,,6103633108de7b1f37485955,61036d6636f49f6fa4568585,2021-07-29_23h16.03.011,Simcolourproject_2stim_asymm_v5,2020.2.10,MacIntel,60,61025ae37ef11b136ea224fe,,,,,,,,,1536,81,30,1,0,0,response1disk,,6,27,2,1,0,0,rectangle,27,2,1,0,0,27,2,1,0,0,0,55,55,98,1,,,,,,,,
,,,,,,,,,,,,,FF,,,,,,,,0.802,,,,,,,,,,,,,,,,,,,,,,6103633108de7b1f37485955,61036d6636f49f6fa4568585,2021-07-29_23h16.03.011,Simcolourproject_2stim_asymm_v5,2020.2.10,MacIntel,60,61025ae37ef11b136ea224fe,,,,,,,,,2595,35,52,1,0,0,response1disk,,7,7,-2,1,0,0,rectangle,-67,-36,1,0,0,-17,-14,1,0,0,0,56,56,149,1,,response5disk_3,TRUE,2,2,"[276,292,196,242,27,106,267,57,36,59,167,112,57,24,152,261,98,94,237,302]",2.157,rectangle
,,,,,,,,,,,,,FF,,,,,,,,0.944,,,,,,,,,,,,,,,,,,,,,,6103633108de7b1f37485955,61036d6636f49f6fa4568585,2021-07-29_23h16.03.011,Simcolourproject_2stim_asymm_v5,2020.2.10,MacIntel,60,61025ae37ef11b136ea224fe,,,,,,,,,3216,26,66,1,0,0,response1disk,,7,3,11,1,0,0,rectangle,3,11,1,0,0,3,11,1,0,0,0,57,57,63,1,,,,,,,,
,,,,,,,,,,,,,FF,,,,,,,,0.827,,,,,,,,,,,,,,,,,,,,,,6103633108de7b1f37485955,61036d6636f49f6fa4568585,2021-07-29_23h16.03.011,Simcolourproject_2stim_asymm_v5,2020.2.10,MacIntel,60,61025ae37ef11b136ea224fe,,,,,,,,,1846,30,48,1,0,0,response1disk,,7,9,-5,1,0,0,rectangle,71,-44,1,0,0,-9,15,1,0,0,0,58,58,96,1,,response3disk_3,TRUE,5,5,"[276,292,196,242,27,106,267,57,36,59,167,112,57,24,152,261,98,94,237,302]",1.751,rectangle
,,,,,,,,,,,,,FF,,,,,,,,1.654,,,,,,,,,,,,,,,,,,,,,,6103633108de7b1f37485955,61036d6636f49f6fa4568585,2021-07-29_23h16.03.011,Simcolourproject_2stim_asymm_v5,2020.2.10,MacIntel,60,61025ae37ef11b136ea224fe,,,,,,,,,2055,31,55,1,0,0,response1disk,,7,7,6,1,0,0,rectangle,7,6,1,0,0,7,6,1,0,0,0,59,59,22,1,,,,,,,,
,,,,,,,,,,,,,FF,,,,,,,,0.93,,,,,,,,,,,,,,,,,,,,,,6103633108de7b1f37485955,61036d6636f49f6fa4568585,2021-07-29_23h16.03.011,Simcolourproject_2stim_asymm_v5,2020.2.10,MacIntel,60,61025ae37ef11b136ea224fe,,,,,,,,,3696,22,41,1,0,0,response1disk,,7,3,10,1,0,0,rectangle,3,10,1,0,0,3,10,1,0,0,0,60,60,140,1,,,,,,,,
,,,,,,,,,,,,,FF,,,,,,,,1.36,,,,,,,,,,,,,,,,,,,,,,6103633108de7b1f37485955,61036d6636f49f6fa4568585,2021-07-29_23h16.03.011,Simcolourproject_2stim_asymm_v5,2020.2.10,MacIntel,60,61025ae37ef11b136ea224fe,,,,,,,,,3932,-49,-58,1,0,0,response5disk,,3,-8,-5,1,0,0,rectangle,-8,-5,1,0,0,-8,-5,1,0,0,0,61,61,92,1,,,,,,,,
,,,,,,,,,,,,,FF,,,,,,,,0.784,,,,,,,,,,,,,,,,,,,,,,6103633108de7b1f37485955,61036d6636f49f6fa4568585,2021-07-29_23h16.03.011,Simcolourproject_2stim_asymm_v5,2020.2.10,MacIntel,60,61025ae37ef11b136ea224fe,,,,,,,,,2472,35,46,1,0,0,response1disk,,7,11,-4,1,0,0,rectangle,11,-4,1,0,0,11,-4,1,0,0,0,62,62,68,1,,,,,,,,
,,,,,,,,,,,,,FF,,,,,,,,0.839,,,,,,,,,,,,,,,,,,,,,,6103633108de7b1f37485955,61036d6636f49f6fa4568585,2021-07-29_23h16.03.011,Simcolourproject_2stim_asymm_v5,2020.2.10,MacIntel,60,61025ae37ef11b136ea224fe,,,,,,,,,1722,18,45,1,0,0,response1disk,,7,5,8,1,0,0,rectangle,5,8,1,0,0,5,8,1,0,0,0,63,63,36,1,,,,,,,,
,,,,,,,,,,,,,FF,,,,,,,,1.021,,,,,,,,,,,,,,,,,,,,,,6103633108de7b1f37485955,61036d6636f49f6fa4568585,2021-07-29_23h16.03.011,Simcolourproject_2stim_asymm_v5,2020.2.10,MacIntel,60,61025ae37ef11b136ea224fe,,,,,,,,,335,46,74,1,0,0,response1disk,,7,9,4,1,0,0,rectangle,9,4,1,0,0,9,4,1,0,0,0,64,64,14,1,,,,,,,,
,,,,,,,,,,,,,FF,,,,,,,,0.827,,,,,,,,,,,,,,,,,,,,,,6103633108de7b1f37485955,61036d6636f49f6fa4568585,2021-07-29_23h16.03.011,Simcolourproject_2stim_asymm_v5,2020.2.10,MacIntel,60,61025ae37ef11b136ea224fe,,,,,,,,,2599,25,45,1,0,0,response1disk,,7,9,6,1,0,0,rectangle,9,6,1,0,0,9,6,1,0,0,0,65,65,115,1,,,,,,,,
,,,,,,,,,,,,,FF,,,,,,,,1.089,,,,,,,,,,,,,,,,,,,,,,6103633108de7b1f37485955,61036d6636f49f6fa4568585,2021-07-29_23h16.03.011,Simcolourproject_2stim_asymm_v5,2020.2.10,MacIntel,60,61025ae37ef11b136ea224fe,,,,,,,,,4366,-18,98,1,0,0,response7disk,,0,6,1,1,0,0,rectangle,6,1,1,0,0,6,1,1,0,0,0,66,66,25,1,,,,,,,,
,,,,,,,,,,,,,FF,,,,,,,,1.739,,,,,,,,,,,,,,,,,,,,,,6103633108de7b1f37485955,61036d6636f49f6fa4568585,2021-07-29_23h16.03.011,Simcolourproject_2stim_asymm_v5,2020.2.10,MacIntel,60,61025ae37ef11b136ea224fe,,,,,,,,,375,76,-35,1,0,0,response3disk,,5,22,3,1,0,0,rectangle,22,3,1,0,0,22,3,1,0,0,0,67,67,71,1,,,,,,,,
,,,,,,,,,,,,,FF,,,,,,,,0.933,,,,,,,,,,,,,,,,,,,,,,6103633108de7b1f37485955,61036d6636f49f6fa4568585,2021-07-29_23h16.03.011,Simcolourproject_2stim_asymm_v5,2020.2.10,MacIntel,60,61025ae37ef11b136ea224fe,,,,,,,,,1922,30,34,1,0,0,response1disk,,7,1,-7,1,0,0,rectangle,1,-7,1,0,0,1,-7,1,0,0,0,68,68,154,1,,,,,,,,
,,,,,,,,,,,,,FF,,,,,,,,1.585,,,,,,,,,,,,,,,,,,,,,,6103633108de7b1f37485955,61036d6636f49f6fa4568585,2021-07-29_23h16.03.011,Simcolourproject_2stim_asymm_v5,2020.2.10,MacIntel,60,61025ae37ef11b136ea224fe,,,,,,,,,3588,41,-72,1,0,0,response3disk,,4,17,-4,1,0,0,rectangle,17,-4,1,0,0,17,-4,1,0,0,0,69,69,37,1,,,,,,,,
,,,,,,,,,,,,,FF,,,,,,,,1.782,,,,,,,,,,,,,,,,,,,,,,6103633108de7b1f37485955,61036d6636f49f6fa4568585,2021-07-29_23h16.03.011,Simcolourproject_2stim_asymm_v5,2020.2.10,MacIntel,60,61025ae37ef11b136ea224fe,,,,,,,,,3566,27,-69,1,0,0,response3disk,,4,14,-9,1,0,0,rectangle,14,-9,1,0,0,14,-9,1,0,0,0,70,70,44,1,,,,,,,,
,,,,,,,,,,,,,FF,,,,,,,,1.472,,,,,,,,,,,,,,,,,,,,,,6103633108de7b1f37485955,61036d6636f49f6fa4568585,2021-07-29_23h16.03.011,Simcolourproject_2stim_asymm_v5,2020.2.10,MacIntel,60,61025ae37ef11b136ea224fe,,,,,,,,,3073,45,67,1,0,0,response1disk,,7,16,13,1,0,0,rectangle,16,13,1,0,0,16,13,1,0,0,0,71,71,30,1,,,,,,,,
,,,,,,,,,,,,,FF,,,,,,,,1.162,,,,,,,,,,,,,,,,,,,,,,6103633108de7b1f37485955,61036d6636f49f6fa4568585,2021-07-29_23h16.03.011,Simcolourproject_2stim_asymm_v5,2020.2.10,MacIntel,60,61025ae37ef11b136ea224fe,,,,,,,,,2556,55,36,1,0,0,response1disk,,6,-5,3,1,0,0,rectangle,-5,3,1,0,0,-5,3,1,0,0,0,72,72,51,1,,,,,,,,
,,,,,,,,,,,,,FF,,,,,,,,0.786,,,,,,,,,,,,,,,,,,,,,,6103633108de7b1f37485955,61036d6636f49f6fa4568585,2021-07-29_23h16.03.011,Simcolourproject_2stim_asymm_v5,2020.2.10,MacIntel,60,61025ae37ef11b136ea224fe,,,,,,,,,2277,26,48,1,0,0,response1disk,,7,3,-5,1,0,0,rectangle,3,-5,1,0,0,3,-5,1,0,0,0,73,73,89,1,,,,,,,,
,,,,,,,,,,,,,FF,,,,,,,,0.807,,,,,,,,,,,,,,,,,,,,,,6103633108de7b1f37485955,61036d6636f49f6fa4568585,2021-07-29_23h16.03.011,Simcolourproject_2stim_asymm_v5,2020.2.10,MacIntel,60,61025ae37ef11b136ea224fe,,,,,,,,,4287,18,44,1,0,0,response1disk,,7,5,-2,1,0,0,rectangle,5,-2,1,0,0,5,-2,1,0,0,0,74,74,6,1,,,,,,,,
,,,,,,,,,,,,,FF,,,,,,,,0.791,,,,,,,,,,,,,,,,,,,,,,6103633108de7b1f37485955,61036d6636f49f6fa4568585,2021-07-29_23h16.03.011,Simcolourproject_2stim_asymm_v5,2020.2.10,MacIntel,60,61025ae37ef11b136ea224fe,,,,,,,,,2256,28,38,1,0,0,response1disk,,7,14,10,1,0,0,rectangle,14,10,1,0,0,14,10,1,0,0,0,75,75,10,1,,,,,,,,
,,,,,,,,,,,,,FF,,,,,,,,1.13,,,,,,,,,,,,,,,,,,,,,,6103633108de7b1f37485955,61036d6636f49f6fa4568585,2021-07-29_23h16.03.011,Simcolourproject_2stim_asymm_v5,2020.2.10,MacIntel,60,61025ae37ef11b136ea224fe,,,,,,,,,3878,45,-20,1,0,0,response3disk,,5,16,-3,1,0,0,rectangle,16,-3,1,0,0,16,-3,1,0,0,0,76,76,147,1,,,,,,,,
,,,,,,,,,,,,,FF,,,,,,,,0.795,,,,,,,,,,,,,,,,,,,,,,6103633108de7b1f37485955,61036d6636f49f6fa4568585,2021-07-29_23h16.03.011,Simcolourproject_2stim_asymm_v5,2020.2.10,MacIntel,60,61025ae37ef11b136ea224fe,,,,,,,,,2000,30,61,1,0,0,response1disk,,7,9,7,1,0,0,rectangle,9,7,1,0,0,9,7,1,0,0,0,77,77,39,1,,,,,,,,
,,,,,,,,,,,,,FF,,,,,,,,0.876,,,,,,,,,,,,,,,,,,,,,,6103633108de7b1f37485955,61036d6636f49f6fa4568585,2021-07-29_23h16.03.011,Simcolourproject_2stim_asymm_v5,2020.2.10,MacIntel,60,61025ae37ef11b136ea224fe,,,,,,,,,3809,25,39,1,0,0,response1disk,,7,8,11,1,0,0,rectangle,8,11,1,0,0,8,11,1,0,0,0,78,78,114,1,,,,,,,,
,,,,,,,,,,,,,FF,,,,,,,,0.778,,,,,,,,,,,,,,,,,,,,,,6103633108de7b1f37485955,61036d6636f49f6fa4568585,2021-07-29_23h16.03.011,Simcolourproject_2stim_asymm_v5,2020.2.10,MacIntel,60,61025ae37ef11b136ea224fe,,,,,,,,,2060,30,43,1,0,0,response1disk,,7,13,1,1,0,0,rectangle,13,1,1,0,0,13,1,1,0,0,0,79,79,128,1,,,,,,,,
,,,,,,,,,,,,,FF,,,,,,,,0.666,,,,,,,,,,,,,,,,,,,,,,6103633108de7b1f37485955,61036d6636f49f6fa4568585,2021-07-29_23h16.03.011,Simcolourproject_2stim_asymm_v5,2020.2.10,MacIntel,60,61025ae37ef11b136ea224fe,,,,,,,,,2977,27,44,1,0,0,response1disk,,7,13,12,1,0,0,rectangle,13,12,1,0,0,13,12,1,0,0,0,80,80,97,1,,,,,,,,
,,,,,,,,,,,,,FF,,,,,,,,0.593,,,,,,,,,,,,,,,,,,,,,,6103633108de7b1f37485955,61036d6636f49f6fa4568585,2021-07-29_23h16.03.011,Simcolourproject_2stim_asymm_v5,2020.2.10,MacIntel,60,61025ae37ef11b136ea224fe,,,,,,,,,3649,29,45,1,0,0,response1disk,,7,3,8,1,0,0,rectangle,3,8,1,0,0,3,8,1,0,0,0,81,81,23,1,,,,,,,,
,,,,,,,,,,,,,FF,,,,,,,,0.729,,,,,,,,,,,,,,,,,,,,,,6103633108de7b1f37485955,61036d6636f49f6fa4568585,2021-07-29_23h16.03.011,Simcolourproject_2stim_asymm_v5,2020.2.10,MacIntel,60,61025ae37ef11b136ea224fe,,,,,,,,,947,37,47,1,0,0,response1disk,,7,11,15,1,0,0,rectangle,11,15,1,0,0,11,15,1,0,0,0,82,82,145,1,,,,,,,,
,,,,,,,,,,,,,FF,,,,,,,,0.779,,,,,,,,,,,,,,,,,,,,,,6103633108de7b1f37485955,61036d6636f49f6fa4568585,2021-07-29_23h16.03.011,Simcolourproject_2stim_asymm_v5,2020.2.10,MacIntel,60,61025ae37ef11b136ea224fe,,,,,,,,,161,23,52,1,0,0,response1disk,,7,5,12,1,0,0,rectangle,5,12,1,0,0,5,12,1,0,0,0,83,83,157,1,,,,,,,,
,,,,,,,,,,,,,FF,,,,,,,,1.415,,,,,,,,,,,,,,,,,,,,,,6103633108de7b1f37485955,61036d6636f49f6fa4568585,2021-07-29_23h16.03.011,Simcolourproject_2stim_asymm_v5,2020.2.10,MacIntel,60,61025ae37ef11b136ea224fe,,,,,,,,,3441,51,-31,1,0,0,response3disk,,5,16,-8,1,0,0,rectangle,16,-8,1,0,0,16,-8,1,0,0,0,84,84,3,1,,,,,,,,
,,,,,,,,,,,,,FF,,,,,,,,0.715,,,,,,,,,,,,,,,,,,,,,,6103633108de7b1f37485955,61036d6636f49f6fa4568585,2021-07-29_23h16.03.011,Simcolourproject_2stim_asymm_v5,2020.2.10,MacIntel,60,61025ae37ef11b136ea224fe,,,,,,,,,763,27,35,1,0,0,response1disk,,7,1,-15,1,0,0,rectangle,1,-15,1,0,0,1,-15,1,0,0,0,85,85,17,1,,,,,,,,
,,,,,,,,,,,,,FF,,,,,,,,1.386,,,,,,,,,,,,,,,,,,,,,,6103633108de7b1f37485955,61036d6636f49f6fa4568585,2021-07-29_23h16.03.011,Simcolourproject_2stim_asymm_v5,2020.2.10,MacIntel,60,61025ae37ef11b136ea224fe,,,,,,,,,1613,-36,-49,1,0,0,response5disk,,3,-7,-1,1,0,0,rectangle,-7,-1,1,0,0,-7,-1,1,0,0,0,86,86,82,1,,,,,,,,
,,,,,,,,,,,,,FF,,,,,,,,0.693,,,,,,,,,,,,,,,,,,,,,,6103633108de7b1f37485955,61036d6636f49f6fa4568585,2021-07-29_23h16.03.011,Simcolourproject_2stim_asymm_v5,2020.2.10,MacIntel,60,61025ae37ef11b136ea224fe,,,,,,,,,3260,15,47,1,0,0,response1disk,,7,10,10,1,0,0,rectangle,10,10,1,0,0,10,10,1,0,0,0,87,87,72,1,,,,,,,,
,,,,,,,,,,,,,FF,,,,,,,,0.848,,,,,,,,,,,,,,,,,,,,,,6103633108de7b1f37485955,61036d6636f49f6fa4568585,2021-07-29_23h16.03.011,Simcolourproject_2stim_asymm_v5,2020.2.10,MacIntel,60,61025ae37ef11b136ea224fe,,,,,,,,,3387,31,42,1,0,0,response1disk,,7,17,12,1,0,0,rectangle,17,12,1,0,0,17,12,1,0,0,0,88,88,20,1,,,,,,,,
,,,,,,,,,,,,,FF,,,,,,,,0.921,,,,,,,,,,,,,,,,,,,,,,6103633108de7b1f37485955,61036d6636f49f6fa4568585,2021-07-29_23h16.03.011,Simcolourproject_2stim_asymm_v5,2020.2.10,MacIntel,60,61025ae37ef11b136ea224fe,,,,,,,,,2828,22,61,1,0,0,response1disk,,7,7,15,1,0,0,rectangle,7,15,1,0,0,7,15,1,0,0,0,89,89,76,1,,,,,,,,
,,,,,,,,,,,,,FF,,,,,,,,1.062,,,,,,,,,,,,,,,,,,,,,,6103633108de7b1f37485955,61036d6636f49f6fa4568585,2021-07-29_23h16.03.011,Simcolourproject_2stim_asymm_v5,2020.2.10,MacIntel,60,61025ae37ef11b136ea224fe,,,,,,,,,3801,28,46,1,0,0,response1disk,,7,10,8,1,0,0,rectangle,10,8,1,0,0,10,8,1,0,0,0,90,90,13,1,,,,,,,,
,,,,,,,,,,,,,FF,,,,,,,,0.576,,,,,,,,,,,,,,,,,,,,,,6103633108de7b1f37485955,61036d6636f49f6fa4568585,2021-07-29_23h16.03.011,Simcolourproject_2stim_asymm_v5,2020.2.10,MacIntel,60,61025ae37ef11b136ea224fe,,,,,,,,,2465,34,44,1,0,0,response1disk,,7,16,10,1,0,0,rectangle,16,10,1,0,0,16,10,1,0,0,0,91,91,146,1,,,,,,,,
,,,,,,,,,,,,,FF,,,,,,,,0.713,,,,,,,,,,,,,,,,,,,,,,6103633108de7b1f37485955,61036d6636f49f6fa4568585,2021-07-29_23h16.03.011,Simcolourproject_2stim_asymm_v5,2020.2.10,MacIntel,60,61025ae37ef11b136ea224fe,,,,,,,,,42,34,40,1,0,0,response1disk,,7,13,11,1,0,0,rectangle,13,11,1,0,0,13,11,1,0,0,0,92,92,38,1,,,,,,,,
,,,,,,,,,,,,,FF,,,,,,,,2.203,,,,,,,,,,,,,,,,,,,,,,6103633108de7b1f37485955,61036d6636f49f6fa4568585,2021-07-29_23h16.03.011,Simcolourproject_2stim_asymm_v5,2020.2.10,MacIntel,60,61025ae37ef11b136ea224fe,,,,,,,,,888,-30,-53,1,0,0,response5disk,,3,7,2,1,0,0,rectangle,-24,52,1,0,0,-11,-12,1,0,0,0,93,93,94,1,,response7disk_3,TRUE,0,0,"[276,292,196,242,27,106,267,57,36,59,167,112,57,24,152,261,98,94,237,302]",1.824,rectangle
,,,,,,,,,,,,,FF,,,,,,,,0.735,,,,,,,,,,,,,,,,,,,,,,6103633108de7b1f37485955,61036d6636f49f6fa4568585,2021-07-29_23h16.03.011,Simcolourproject_2stim_asymm_v5,2020.2.10,MacIntel,60,61025ae37ef11b136ea224fe,,,,,,,,,2387,32,64,1,0,0,response1disk,,7,15,14,1,0,0,rectangle,15,14,1,0,0,15,14,1,0,0,0,94,94,156,1,,,,,,,,
,,,,,,,,,,,,,FF,,,,,,,,0.915,,,,,,,,,,,,,,,,,,,,,,6103633108de7b1f37485955,61036d6636f49f6fa4568585,2021-07-29_23h16.03.011,Simcolourproject_2stim_asymm_v5,2020.2.10,MacIntel,60,61025ae37ef11b136ea224fe,,,,,,,,,409,24,54,1,0,0,response1disk,,7,3,11,1,0,0,rectangle,3,11,1,0,0,3,11,1,0,0,0,95,95,122,1,,,,,,,,
,,,,,,,,,,,,,FF,,,,,,,,2.049,,,,,,,,,,,,,,,,,,,,,,6103633108de7b1f37485955,61036d6636f49f6fa4568585,2021-07-29_23h16.03.011,Simcolourproject_2stim_asymm_v5,2020.2.10,MacIntel,60,61025ae37ef11b136ea224fe,,,,,,,,,1441,46,57,1,0,0,response1disk,,7,23,15,1,0,0,rectangle,23,15,1,0,0,23,15,1,0,0,0,96,96,19,1,,,,,,,,
,,,,,,,,,,,,,FF,,,,,,,,1.292,,,,,,,,,,,,,,,,,,,,,,6103633108de7b1f37485955,61036d6636f49f6fa4568585,2021-07-29_23h16.03.011,Simcolourproject_2stim_asymm_v5,2020.2.10,MacIntel,60,61025ae37ef11b136ea224fe,,,,,,,,,4080,46,16,1,0,0,response1disk,,6,23,2,1,0,0,rectangle,35,42,1,0,0,19,3,1,0,0,0,97,97,50,1,,response1disk_3,TRUE,7,1,"[276,292,196,242,27,106,267,57,36,59,167,112,57,24,152,261,98,94,237,302]",4.52,rectangle
,,,,,,,,,,,,,FF,,,,,,,,1.054,,,,,,,,,,,,,,,,,,,,,,6103633108de7b1f37485955,61036d6636f49f6fa4568585,2021-07-29_23h16.03.011,Simcolourproject_2stim_asymm_v5,2020.2.10,MacIntel,60,61025ae37ef11b136ea224fe,,,,,,,,,3841,26,40,1,0,0,response1disk,,7,5,-1,1,0,0,rectangle,5,-1,1,0,0,5,-1,1,0,0,0,98,98,134,1,,,,,,,,
,,,,,,,,,,,,,FF,,,,,,,,1.007,,,,,,,,,,,,,,,,,,,,,,6103633108de7b1f37485955,61036d6636f49f6fa4568585,2021-07-29_23h16.03.011,Simcolourproject_2stim_asymm_v5,2020.2.10,MacIntel,60,61025ae37ef11b136ea224fe,,,,,,,,,3377,23,33,1,0,0,response1disk,,7,4,5,1,0,0,rectangle,4,5,1,0,0,4,5,1,0,0,0,99,99,91,1,,,,,,,,
,,,,,,,,,,,,,FF,,,,,,,,0.623,,,,,,,,,,,,,,,,,,,,,,6103633108de7b1f37485955,61036d6636f49f6fa4568585,2021-07-29_23h16.03.011,Simcolourproject_2stim_asymm_v5,2020.2.10,MacIntel,60,61025ae37ef11b136ea224fe,,,,,,,,,1577,34,46,1,0,0,response1disk,,7,16,14,1,0,0,rectangle,16,14,1,0,0,16,14,1,0,0,0,100,100,35,1,,,,,,,,
,,,,,,,,,,,,,FF,,,,,,,,0.549,,,,,,,,,,,,,,,,,,,,,,6103633108de7b1f37485955,61036d6636f49f6fa4568585,2021-07-29_23h16.03.011,Simcolourproject_2stim_asymm_v5,2020.2.10,MacIntel,60,61025ae37ef11b136ea224fe,,,,,,,,,3407,33,45,1,0,0,response1disk,,7,12,9,1,0,0,rectangle,12,9,1,0,0,12,9,1,0,0,0,101,101,29,1,,,,,,,,
,,,,,,,,,,,,,FF,,,,,,,,0.576,,,,,,,,,,,,,,,,,,,,,,6103633108de7b1f37485955,61036d6636f49f6fa4568585,2021-07-29_23h16.03.011,Simcolourproject_2stim_asymm_v5,2020.2.10,MacIntel,60,61025ae37ef11b136ea224fe,,,,,,,,,414,27,39,1,0,0,response1disk,,7,13,10,1,0,0,rectangle,13,10,1,0,0,13,10,1,0,0,0,102,102,148,1,,,,,,,,
,,,,,,,,,,,,,FF,,,,,,,,0.47,,,,,,,,,,,,,,,,,,,,,,6103633108de7b1f37485955,61036d6636f49f6fa4568585,2021-07-29_23h16.03.011,Simcolourproject_2stim_asymm_v5,2020.2.10,MacIntel,60,61025ae37ef11b136ea224fe,,,,,,,,,511,30,36,1,0,0,response1disk,,7,11,10,1,0,0,rectangle,11,10,1,0,0,11,10,1,0,0,0,103,103,11,1,,,,,,,,
,,,,,,,,,,,,,FF,,,,,,,,0.595,,,,,,,,,,,,,,,,,,,,,,6103633108de7b1f37485955,61036d6636f49f6fa4568585,2021-07-29_23h16.03.011,Simcolourproject_2stim_asymm_v5,2020.2.10,MacIntel,60,61025ae37ef11b136ea224fe,,,,,,,,,1578,37,52,1,0,0,response1disk,,7,11,0,1,0,0,rectangle,11,0,1,0,0,11,0,1,0,0,0,104,104,141,1,,,,,,,,
,,,,,,,,,,,,,FF,,,,,,,,0.529,,,,,,,,,,,,,,,,,,,,,,6103633108de7b1f37485955,61036d6636f49f6fa4568585,2021-07-29_23h16.03.011,Simcolourproject_2stim_asymm_v5,2020.2.10,MacIntel,60,61025ae37ef11b136ea224fe,,,,,,,,,122,43,55,1,0,0,response1disk,,7,19,2,1,0,0,rectangle,47,75,1,0,0,13,5,1,0,0,0,105,105,85,1,,response1disk_3,TRUE,7,7,"[276,292,196,242,27,106,267,57,36,59,167,112,57,24,152,261,98,94,237,302]",2.226,rectangle
,,,,,,,,,,,,,FF,,,,,,,,1.575,,,,,,,,,,,,,,,,,,,,,,6103633108de7b1f37485955,61036d6636f49f6fa4568585,2021-07-29_23h16.03.011,Simcolourproject_2stim_asymm_v5,2020.2.10,MacIntel,60,61025ae37ef11b136ea224fe,,,,,,,,,3987,68,37,0,0,1,response1disk,,6,10,-3,1,0,1,rectangle,10,-3,1,0,1,10,-3,1,0,1,0,106,106,117,1,,,,,,,,
,,,,,,,,,,,,,FF,,,,,,,,1.666,,,,,,,,,,,,,,,,,,,,,,6103633108de7b1f37485955,61036d6636f49f6fa4568585,2021-07-29_23h16.03.011,Simcolourproject_2stim_asymm_v5,2020.2.10,MacIntel,60,61025ae37ef11b136ea224fe,,,,,,,,,3781,34,-67,1,0,1,response3disk,,4,14,-1,1,0,1,rectangle,14,-1,1,0,1,14,-1,1,0,1,0,107,107,56,1,,,,,,,,
,,,,,,,,,,,,,FF,,,,,,,,1.271,,,,,,,,,,,,,,,,,,,,,,6103633108de7b1f37485955,61036d6636f49f6fa4568585,2021-07-29_23h16.03.011,Simcolourproject_2stim_asymm_v5,2020.2.10,MacIntel,60,61025ae37ef11b136ea224fe,,,,,,,,,1767,27,-33,1,0,1,response3disk,,4,15,14,1,0,1,rectangle,15,14,1,0,1,15,14,1,0,1,0,108,108,79,1,,,,,,,,
,,,,,,,,,,,,,FF,,,,,,,,0.819,,,,,,,,,,,,,,,,,,,,,,6103633108de7b1f37485955,61036d6636f49f6fa4568585,2021-07-29_23h16.03.011,Simcolourproject_2stim_asymm_v5,2020.2.10,MacIntel,60,61025ae37ef11b136ea224fe,,,,,,,,,3964,24,40,1,0,1,response1disk,,7,0,-11,1,0,1,rectangle,0,-11,1,0,1,0,-11,1,0,1,0,109,109,137,1,,,,,,,,
,,,,,,,,,,,,,FF,,,,,,,,0.774,,,,,,,,,,,,,,,,,,,,,,6103633108de7b1f37485955,61036d6636f49f6fa4568585,2021-07-29_23h16.03.011,Simcolourproject_2stim_asymm_v5,2020.2.10,MacIntel,60,61025ae37ef11b136ea224fe,,,,,,,,,3633,35,60,1,0,1,response1disk,,7,7,-8,1,0,1,rectangle,7,-8,1,0,1,7,-8,1,0,1,0,110,110,59,1,,,,,,,,
,,,,,,,,,,,,,FF,,,,,,,,0.978,,,,,,,,,,,,,,,,,,,,,,6103633108de7b1f37485955,61036d6636f49f6fa4568585,2021-07-29_23h16.03.011,Simcolourproject_2stim_asymm_v5,2020.2.10,MacIntel,60,61025ae37ef11b136ea224fe,,,,,,,,,4252,-39,-34,1,0,1,response5disk,,2,-2,-1,1,0,1,rectangle,-61,-39,1,0,1,-3,0,1,0,1,0,111,111,64,1,,response5disk_3,TRUE,2,2,"[276,292,196,242,27,106,267,57,36,59,167,112,57,24,152,261,98,94,237,302]",2.001,rectangle
,,,,,,,,,,,,,FF,,,,,,,,0.851,,,,,,,,,,,,,,,,,,,,,,6103633108de7b1f37485955,61036d6636f49f6fa4568585,2021-07-29_23h16.03.011,Simcolourproject_2stim_asymm_v5,2020.2.10,MacIntel,60,61025ae37ef11b136ea224fe,,,,,,,,,2374,21,52,1,0,1,response1disk,,7,-1,2,1,0,1,rectangle,-1,2,1,0,1,-1,2,1,0,1,0,112,112,93,1,,,,,,,,
,,,,,,,,,,,,,FF,,,,,,,,0.823,,,,,,,,,,,,,,,,,,,,,,6103633108de7b1f37485955,61036d6636f49f6fa4568585,2021-07-29_23h16.03.011,Simcolourproject_2stim_asymm_v5,2020.2.10,MacIntel,60,61025ae37ef11b136ea224fe,,,,,,,,,3704,32,46,1,0,1,response1disk,,7,4,-7,1,0,1,rectangle,4,-7,1,0,1,4,-7,1,0,1,0,113,113,109,1,,,,,,,,
,,,,,,,,,,,,,FF,,,,,,,,0.757,,,,,,,,,,,,,,,,,,,,,,6103633108de7b1f37485955,61036d6636f49f6fa4568585,2021-07-29_23h16.03.011,Simcolourproject_2stim_asymm_v5,2020.2.10,MacIntel,60,61025ae37ef11b136ea224fe,,,,,,,,,838,31,42,1,0,1,response1disk,,7,18,14,1,0,1,rectangle,18,14,1,0,1,18,14,1,0,1,0,114,114,150,1,,,,,,,,
,,,,,,,,,,,,,FF,,,,,,,,5.589,,,,,,,,,,,,,,,,,,,,,,6103633108de7b1f37485955,61036d6636f49f6fa4568585,2021-07-29_23h16.03.011,Simcolourproject_2stim_asymm_v5,2020.2.10,MacIntel,60,61025ae37ef11b136ea224fe,,,,,,,,,3386,68,-48,1,0,1,response3disk,,5,15,6,1,0,1,rectangle,15,6,1,0,1,15,6,1,0,1,0,115,115,95,1,,,,,,,,
,,,,,,,,,,,,,FF,,,,,,,,0.851,,,,,,,,,,,,,,,,,,,,,,6103633108de7b1f37485955,61036d6636f49f6fa4568585,2021-07-29_23h16.03.011,Simcolourproject_2stim_asymm_v5,2020.2.10,MacIntel,60,61025ae37ef11b136ea224fe,,,,,,,,,1443,29,63,1,0,1,response1disk,,7,0,-1,1,0,1,rectangle,0,-1,1,0,1,0,-1,1,0,1,0,116,116,42,1,,,,,,,,
,,,,,,,,,,,,,FF,,,,,,,,1.289,,,,,,,,,,,,,,,,,,,,,,6103633108de7b1f37485955,61036d6636f49f6fa4568585,2021-07-29_23h16.03.011,Simcolourproject_2stim_asymm_v5,2020.2.10,MacIntel,60,61025ae37ef11b136ea224fe,,,,,,,,,76,32,-59,1,0,1,response3disk,,4,6,11,1,0,1,rectangle,6,11,1,0,1,6,11,1,0,1,0,117,117,155,1,,,,,,,,
,,,,,,,,,,,,,FF,,,,,,,,0.732,,,,,,,,,,,,,,,,,,,,,,6103633108de7b1f37485955,61036d6636f49f6fa4568585,2021-07-29_23h16.03.011,Simcolourproject_2stim_asymm_v5,2020.2.10,MacIntel,60,61025ae37ef11b136ea224fe,,,,,,,,,3451,45,58,1,0,1,response1disk,,7,9,-13,1,0,1,rectangle,9,-13,1,0,1,9,-13,1,0,1,0,118,118,48,1,,,,,,,,
,,,,,,,,,,,,,FF,,,,,,,,0.802,,,,,,,,,,,,,,,,,,,,,,6103633108de7b1f37485955,61036d6636f49f6fa4568585,2021-07-29_23h16.03.011,Simcolourproject_2stim_asymm_v5,2020.2.10,MacIntel,60,61025ae37ef11b136ea224fe,,,,,,,,,3738,32,59,1,0,1,response1disk,,7,5,1,1,0,1,rectangle,5,1,1,0,1,5,1,1,0,1,0,119,119,153,1,,,,,,,,
,,,,,,,,,,,,,FF,,,,,,,,0.93,,,,,,,,,,,,,,,,,,,,,,6103633108de7b1f37485955,61036d6636f49f6fa4568585,2021-07-29_23h16.03.011,Simcolourproject_2stim_asymm_v5,2020.2.10,MacIntel,60,61025ae37ef11b136ea224fe,,,,,,,,,3822,45,76,1,0,1,response1disk,,7,12,-11,1,0,1,rectangle,12,-11,1,0,1,12,-11,1,0,1,0,120,120,123,1,,,,,,,,
,,,,,,,,,,,,,FF,,,,,,,,0.848,,,,,,,,,,,,,,,,,,,,,,6103633108de7b1f37485955,61036d6636f49f6fa4568585,2021-07-29_23h16.03.011,Simcolourproject_2stim_asymm_v5,2020.2.10,MacIntel,60,61025ae37ef11b136ea224fe,,,,,,,,,3213,36,54,1,0,1,response1disk,,7,9,-9,1,0,1,rectangle,9,-9,1,0,1,9,-9,1,0,1,0,121,121,77,1,,,,,,,,
,,,,,,,,,,,,,FF,,,,,,,,0.695,,,,,,,,,,,,,,,,,,,,,,6103633108de7b1f37485955,61036d6636f49f6fa4568585,2021-07-29_23h16.03.011,Simcolourproject_2stim_asymm_v5,2020.2.10,MacIntel,60,61025ae37ef11b136ea224fe,,,,,,,,,608,46,61,1,0,1,response1disk,,7,12,0,1,0,1,rectangle,12,0,1,0,1,12,0,1,0,1,0,122,122,103,1,,,,,,,,
,,,,,,,,,,,,,FF,,,,,,,,1.179,,,,,,,,,,,,,,,,,,,,,,6103633108de7b1f37485955,61036d6636f49f6fa4568585,2021-07-29_23h16.03.011,Simcolourproject_2stim_asymm_v5,2020.2.10,MacIntel,60,61025ae37ef11b136ea224fe,,,,,,,,,3472,43,-31,1,0,1,response3disk,,5,9,-11,1,0,1,rectangle,9,-11,1,0,1,9,-11,1,0,1,0,123,123,58,1,,,,,,,,
,,,,,,,,,,,,,FF,,,,,,,,1.262,,,,,,,,,,,,,,,,,,,,,,6103633108de7b1f37485955,61036d6636f49f6fa4568585,2021-07-29_23h16.03.011,Simcolourproject_2stim_asymm_v5,2020.2.10,MacIntel,60,61025ae37ef11b136ea224fe,,,,,,,,,1661,59,29,1,0,1,response1disk,,6,10,5,1,0,1,rectangle,10,5,1,0,1,10,5,1,0,1,0,124,124,102,1,,,,,,,,
,,,,,,,,,,,,,FF,,,,,,,,1.202,,,,,,,,,,,,,,,,,,,,,,6103633108de7b1f37485955,61036d6636f49f6fa4568585,2021-07-29_23h16.03.011,Simcolourproject_2stim_asymm_v5,2020.2.10,MacIntel,60,61025ae37ef11b136ea224fe,,,,,,,,,2236,-23,-56,1,0,1,response5disk,,3,-2,-3,1,0,1,rectangle,-2,-3,1,0,1,-2,-3,1,0,1,0,125,125,55,1,,,,,,,,
,,,,,,,,,,,,,FF,,,,,,,,0.755,,,,,,,,,,,,,,,,,,,,,,6103633108de7b1f37485955,61036d6636f49f6fa4568585,2021-07-29_23h16.03.011,Simcolourproject_2stim_asymm_v5,2020.2.10,MacIntel,60,61025ae37ef11b136ea224fe,,,,,,,,,234,39,68,1,0,1,response1disk,,7,6,-6,1,0,1,rectangle,6,-6,1,0,1,6,-6,1,0,1,0,126,126,99,1,,,,,,,,
,,,,,,,,,,,,,FF,,,,,,,,0.962,,,,,,,,,,,,,,,,,,,,,,6103633108de7b1f37485955,61036d6636f49f6fa4568585,2021-07-29_23h16.03.011,Simcolourproject_2stim_asymm_v5,2020.2.10,MacIntel,60,61025ae37ef11b136ea224fe,,,,,,,,,1896,-32,-55,1,0,1,response5disk,,3,1,5,1,0,1,rectangle,1,5,1,0,1,1,5,1,0,1,0,127,127,101,1,,,,,,,,
,,,,,,,,,,,,,FF,,,,,,,,0.62,,,,,,,,,,,,,,,,,,,,,,6103633108de7b1f37485955,61036d6636f49f6fa4568585,2021-07-29_23h16.03.011,Simcolourproject_2stim_asymm_v5,2020.2.10,MacIntel,60,61025ae37ef11b136ea224fe,,,,,,,,,2071,39,66,1,0,1,response1disk,,7,10,3,1,0,1,rectangle,10,3,1,0,1,10,3,1,0,1,0,128,128,12,1,,,,,,,,
,,,,,,,,,,,,,FF,,,,,,,,1.261,,,,,,,,,,,,,,,,,,,,,,6103633108de7b1f37485955,61036d6636f49f6fa4568585,2021-07-29_23h16.03.011,Simcolourproject_2stim_asymm_v5,2020.2.10,MacIntel,60,61025ae37ef11b136ea224fe,,,,,,,,,3340,-25,-45,1,0,1,response5disk,,3,-3,-7,1,0,1,rectangle,-3,-7,1,0,1,-3,-7,1,0,1,0,129,129,9,1,,,,,,,,
,,,,,,,,,,,,,FF,,,,,,,,0.583,,,,,,,,,,,,,,,,,,,,,,6103633108de7b1f37485955,61036d6636f49f6fa4568585,2021-07-29_23h16.03.011,Simcolourproject_2stim_asymm_v5,2020.2.10,MacIntel,60,61025ae37ef11b136ea224fe,,,,,,,,,2214,39,67,1,0,1,response1disk,,7,3,-13,1,0,1,rectangle,3,-13,1,0,1,3,-13,1,0,1,0,130,130,158,1,,,,,,,,
,,,,,,,,,,,,,FF,,,,,,,,0.695,,,,,,,,,,,,,,,,,,,,,,6103633108de7b1f37485955,61036d6636f49f6fa4568585,2021-07-29_23h16.03.011,Simcolourproject_2stim_asymm_v5,2020.2.10,MacIntel,60,61025ae37ef11b136ea224fe,,,,,,,,,2198,38,59,1,0,1,response1disk,,7,16,1,1,0,1,rectangle,16,1,1,0,1,16,1,1,0,1,0,131,131,78,1,,,,,,,,
,,,,,,,,,,,,,FF,,,,,,,,0.759,,,,,,,,,,,,,,,,,,,,,,6103633108de7b1f37485955,61036d6636f49f6fa4568585,2021-07-29_23h16.03.011,Simcolourproject_2stim_asymm_v5,2020.2.10,MacIntel,60,61025ae37ef11b136ea224fe,,,,,,,,,2137,36,65,1,0,1,response1disk,,7,7,7,1,0,1,rectangle,7,7,1,0,1,7,7,1,0,1,0,132,132,112,1,,,,,,,,
,,,,,,,,,,,,,FF,,,,,,,,1.357,,,,,,,,,,,,,,,,,,,,,,6103633108de7b1f37485955,61036d6636f49f6fa4568585,2021-07-29_23h16.03.011,Simcolourproject_2stim_asymm_v5,2020.2.10,MacIntel,60,61025ae37ef11b136ea224fe,,,,,,,,,531,-31,-64,1,0,1,response5disk,,3,-8,3,1,0,1,rectangle,-8,3,1,0,1,-8,3,1,0,1,0,133,133,4,1,,,,,,,,
,,,,,,,,,,,,,FF,,,,,,,,0.978,,,,,,,,,,,,,,,,,,,,,,6103633108de7b1f37485955,61036d6636f49f6fa4568585,2021-07-29_23h16.03.011,Simcolourproject_2stim_asymm_v5,2020.2.10,MacIntel,60,61025ae37ef11b136ea224fe,,,,,,,,,3513,-35,-69,1,0,1,response5disk,,3,0,2,1,0,1,rectangle,0,2,1,0,1,0,2,1,0,1,0,134,134,65,1,,,,,,,,
,,,,,,,,,,,,,FF,,,,,,,,3.982,,,,,,,,,,,,,,,,,,,,,,6103633108de7b1f37485955,61036d6636f49f6fa4568585,2021-07-29_23h16.03.011,Simcolourproject_2stim_asymm_v5,2020.2.10,MacIntel,60,61025ae37ef11b136ea224fe,,,,,,,,,4005,69,-37,1,0,1,response3disk,,5,11,3,1,0,1,rectangle,11,3,1,0,1,11,3,1,0,1,0,135,135,144,1,,,,,,,,
,,,,,,,,,,,,,FF,,,,,,,,0.85,,,,,,,,,,,,,,,,,,,,,,6103633108de7b1f37485955,61036d6636f49f6fa4568585,2021-07-29_23h16.03.011,Simcolourproject_2stim_asymm_v5,2020.2.10,MacIntel,60,61025ae37ef11b136ea224fe,,,,,,,,,3764,29,47,1,0,1,response1disk,,7,3,-14,1,0,1,rectangle,3,-14,1,0,1,3,-14,1,0,1,0,136,136,73,1,,,,,,,,
,,,,,,,,,,,,,FF,,,,,,,,0.649,,,,,,,,,,,,,,,,,,,,,,6103633108de7b1f37485955,61036d6636f49f6fa4568585,2021-07-29_23h16.03.011,Simcolourproject_2stim_asymm_v5,2020.2.10,MacIntel,60,61025ae37ef11b136ea224fe,,,,,,,,,2565,44,56,1,0,1,response1disk,,7,21,-4,1,0,1,rectangle,21,-4,1,0,1,21,-4,1,0,1,0,137,137,24,1,,,,,,,,
,,,,,,,,,,,,,FF,,,,,,,,0.893,,,,,,,,,,,,,,,,,,,,,,6103633108de7b1f37485955,61036d6636f49f6fa4568585,2021-07-29_23h16.03.011,Simcolourproject_2stim_asymm_v5,2020.2.10,MacIntel,60,61025ae37ef11b136ea224fe,,,,,,,,,1431,36,59,1,0,1,response1disk,,7,7,-2,1,0,1,rectangle,7,-2,1,0,1,7,-2,1,0,1,0,138,138,111,1,,,,,,,,
,,,,,,,,,,,,,FF,,,,,,,,0.757,,,,,,,,,,,,,,,,,,,,,,6103633108de7b1f37485955,61036d6636f49f6fa4568585,2021-07-29_23h16.03.011,Simcolourproject_2stim_asymm_v5,2020.2.10,MacIntel,60,61025ae37ef11b136ea224fe,,,,,,,,,4198,25,47,1,0,1,response1disk,,7,6,-4,1,0,1,rectangle,6,-4,1,0,1,6,-4,1,0,1,0,139,139,1,1,,,,,,,,
,,,,,,,,,,,,,FF,,,,,,,,0.668,,,,,,,,,,,,,,,,,,,,,,6103633108de7b1f37485955,61036d6636f49f6fa4568585,2021-07-29_23h16.03.011,Simcolourproject_2stim_asymm_v5,2020.2.10,MacIntel,60,61025ae37ef11b136ea224fe,,,,,,,,,473,46,74,1,0,1,response1disk,,7,12,1,1,0,1,rectangle,12,1,1,0,1,12,1,1,0,1,0,140,140,7,1,,,,,,,,
,,,,,,,,,,,,,FF,,,,,,,,0.706,,,,,,,,,,,,,,,,,,,,,,6103633108de7b1f37485955,61036d6636f49f6fa4568585,2021-07-29_23h16.03.011,Simcolourproject_2stim_asymm_v5,2020.2.10,MacIntel,60,61025ae37ef11b136ea224fe,,,,,,,,,1092,23,83,1,0,1,response1disk,,7,2,-14,1,0,1,rectangle,2,-14,1,0,1,2,-14,1,0,1,0,141,141,120,1,,,,,,,,
,,,,,,,,,,,,,FF,,,,,,,,0.756,,,,,,,,,,,,,,,,,,,,,,6103633108de7b1f37485955,61036d6636f49f6fa4568585,2021-07-29_23h16.03.011,Simcolourproject_2stim_asymm_v5,2020.2.10,MacIntel,60,61025ae37ef11b136ea224fe,,,,,,,,,1161,50,67,1,0,1,response1disk,,7,19,0,1,0,1,rectangle,19,0,1,0,1,19,0,1,0,1,0,142,142,0,1,,,,,,,,
,,,,,,,,,,,,,FF,,,,,,,,0.803,,,,,,,,,,,,,,,,,,,,,,6103633108de7b1f37485955,61036d6636f49f6fa4568585,2021-07-29_23h16.03.011,Simcolourproject_2stim_asymm_v5,2020.2.10,MacIntel,60,61025ae37ef11b136ea224fe,,,,,,,,,2804,39,73,1,0,1,response1disk,,7,6,-4,1,0,1,rectangle,6,-4,1,0,1,6,-4,1,0,1,0,143,143,121,1,,,,,,,,
,,,,,,,,,,,,,FF,,,,,,,,1.085,,,,,,,,,,,,,,,,,,,,,,6103633108de7b1f37485955,61036d6636f49f6fa4568585,2021-07-29_23h16.03.011,Simcolourproject_2stim_asymm_v5,2020.2.10,MacIntel,60,61025ae37ef11b136ea224fe,,,,,,,,,78,-35,-68,1,0,1,response5disk,,3,-3,-7,1,0,1,rectangle,-3,-7,1,0,1,-3,-7,1,0,1,0,144,144,67,1,,,,,,,,
,,,,,,,,,,,,,FF,,,,,,,,0.602,,,,,,,,,,,,,,,,,,,,,,6103633108de7b1f37485955,61036d6636f49f6fa4568585,2021-07-29_23h16.03.011,Simcolourproject_2stim_asymm_v5,2020.2.10,MacIntel,60,61025ae37ef11b136ea224fe,,,,,,,,,1642,51,60,1,0,1,response1disk,,7,24,-11,1,0,1,rectangle,24,-11,1,0,1,24,-11,1,0,1,0,145,145,47,1,,,,,,,,
,,,,,,,,,,,,,FF,,,,,,,,0.669,,,,,,,,,,,,,,,,,,,,,,6103633108de7b1f37485955,61036d6636f49f6fa4568585,2021-07-29_23h16.03.011,Simcolourproject_2stim_asymm_v5,2020.2.10,MacIntel,60,61025ae37ef11b136ea224fe,,,,,,,,,2003,29,66,1,0,1,response1disk,,7,12,13,1,0,1,rectangle,12,13,1,0,1,12,13,1,0,1,0,146,146,116,1,,,,,,,,
,,,,,,,,,,,,,FF,,,,,,,,0.574,,,,,,,,,,,,,,,,,,,,,,6103633108de7b1f37485955,61036d6636f49f6fa4568585,2021-07-29_23h16.03.011,Simcolourproject_2stim_asymm_v5,2020.2.10,MacIntel,60,61025ae37ef11b136ea224fe,,,,,,,,,149,43,80,1,0,1,response1disk,,7,3,0,1,0,1,rectangle,3,0,1,0,1,3,0,1,0,1,0,147,147,57,1,,,,,,,,
,,,,,,,,,,,,,FF,,,,,,,,1.53,,,,,,,,,,,,,,,,,,,,,,6103633108de7b1f37485955,61036d6636f49f6fa4568585,2021-07-29_23h16.03.011,Simcolourproject_2stim_asymm_v5,2020.2.10,MacIntel,60,61025ae37ef11b136ea224fe,,,,,,,,,3998,-42,-73,1,0,1,response5disk,,3,-7,-8,1,0,1,rectangle,-7,-8,1,0,1,-7,-8,1,0,1,0,148,148,69,1,,,,,,,,
,,,,,,,,,,,,,FF,,,,,,,,3.094,,,,,,,,,,,,,,,,,,,,,,6103633108de7b1f37485955,61036d6636f49f6fa4568585,2021-07-29_23h16.03.011,Simcolourproject_2stim_asymm_v5,2020.2.10,MacIntel,60,61025ae37ef11b136ea224fe,,,,,,,,,2486,78,-31,1,0,1,response3disk,,5,32,-9,1,0,1,rectangle,32,-9,1,0,1,32,-9,1,0,1,0,149,149,104,1,,,,,,,,
,,,,,,,,,,,,,FF,,,,,,,,0.709,,,,,,,,,,,,,,,,,,,,,,6103633108de7b1f37485955,61036d6636f49f6fa4568585,2021-07-29_23h16.03.011,Simcolourproject_2stim_asymm_v5,2020.2.10,MacIntel,60,61025ae37ef11b136ea224fe,,,,,,,,,686,35,73,1,0,1,response1disk,,7,10,-5,1,0,1,rectangle,10,-5,1,0,1,10,-5,1,0,1,0,150,150,113,1,,,,,,,,
,,,,,,,,,,,,,FF,,,,,,,,0.649,,,,,,,,,,,,,,,,,,,,,,6103633108de7b1f37485955,61036d6636f49f6fa4568585,2021-07-29_23h16.03.011,Simcolourproject_2stim_asymm_v5,2020.2.10,MacIntel,60,61025ae37ef11b136ea224fe,,,,,,,,,2751,53,71,1,0,1,response1disk,,7,0,-5,1,0,1,rectangle,-78,40,1,0,1,-4,8,1,0,1,0,151,151,138,1,,response7disk_3,TRUE,1,1,"[276,292,196,242,27,106,267,57,36,59,167,112,57,24,152,261,98,94,237,302]",1.849,rectangle
,,,,,,,,,,,,,FF,,,,,,,,1.58,,,,,,,,,,,,,,,,,,,,,,6103633108de7b1f37485955,61036d6636f49f6fa4568585,2021-07-29_23h16.03.011,Simcolourproject_2stim_asymm_v5,2020.2.10,MacIntel,60,61025ae37ef11b136ea224fe,,,,,,,,,2186,81,43,1,0,1,response1disk,,6,32,4,1,0,1,rectangle,32,4,1,0,1,32,4,1,0,1,0,152,152,127,1,,,,,,,,
,,,,,,,,,,,,,FF,,,,,,,,0.943,,,,,,,,,,,,,,,,,,,,,,6103633108de7b1f37485955,61036d6636f49f6fa4568585,2021-07-29_23h16.03.011,Simcolourproject_2stim_asymm_v5,2020.2.10,MacIntel,60,61025ae37ef11b136ea224fe,,,,,,,,,642,59,30,1,0,1,response1disk,,6,16,3,1,0,1,rectangle,16,3,1,0,1,16,3,1,0,1,0,153,153,26,1,,,,,,,,
,,,,,,,,,,,,,FF,,,,,,,,1.137,,,,,,,,,,,,,,,,,,,,,,6103633108de7b1f37485955,61036d6636f49f6fa4568585,2021-07-29_23h16.03.011,Simcolourproject_2stim_asymm_v5,2020.2.10,MacIntel,60,61025ae37ef11b136ea224fe,,,,,,,,,2670,-40,-75,1,0,1,response5disk,,3,3,-1,1,0,1,rectangle,3,-1,1,0,1,3,-1,1,0,1,0,154,154,136,1,,,,,,,,
,,,,,,,,,,,,,FF,,,,,,,,1.051,,,,,,,,,,,,,,,,,,,,,,6103633108de7b1f37485955,61036d6636f49f6fa4568585,2021-07-29_23h16.03.011,Simcolourproject_2stim_asymm_v5,2020.2.10,MacIntel,60,61025ae37ef11b136ea224fe,,,,,,,,,2995,-38,-59,1,0,1,response5disk,,3,0,-2,1,0,1,rectangle,0,-2,1,0,1,0,-2,1,0,1,0,155,155,43,1,,,,,,,,
,,,,,,,,,,,,,FF,,,,,,,,1.114,,,,,,,,,,,,,,,,,,,,,,6103633108de7b1f37485955,61036d6636f49f6fa4568585,2021-07-29_23h16.03.011,Simcolourproject_2stim_asymm_v5,2020.2.10,MacIntel,60,61025ae37ef11b136ea224fe,,,,,,,,,2376,36,-60,1,0,1,response3disk,,4,10,9,1,0,1,rectangle,10,9,1,0,1,10,9,1,0,1,0,156,156,33,1,,,,,,,,
,,,,,,,,,,,,,FF,,,,,,,,0.877,,,,,,,,,,,,,,,,,,,,,,6103633108de7b1f37485955,61036d6636f49f6fa4568585,2021-07-29_23h16.03.011,Simcolourproject_2stim_asymm_v5,2020.2.10,MacIntel,60,61025ae37ef11b136ea224fe,,,,,,,,,3083,40,76,1,0,1,response1disk,,7,8,-4,1,0,1,rectangle,8,-4,1,0,1,8,-4,1,0,1,0,157,157,80,1,,,,,,,,
,,,,,,,,,,,,,FF,,,,,,,,1.1,,,,,,,,,,,,,,,,,,,,,,6103633108de7b1f37485955,61036d6636f49f6fa4568585,2021-07-29_23h16.03.011,Simcolourproject_2stim_asymm_v5,2020.2.10,MacIntel,60,61025ae37ef11b136ea224fe,,,,,,,,,657,32,-67,1,0,1,response3disk,,4,14,-4,1,0,1,rectangle,14,-4,1,0,1,14,-4,1,0,1,0,158,158,118,1,,,,,,,,
,,,,,,,,,,,,,FF,,,,,,,,0.561,,,,,,,,,,,,,,,,,,,,,,6103633108de7b1f37485955,61036d6636f49f6fa4568585,2021-07-29_23h16.03.011,Simcolourproject_2stim_asymm_v5,2020.2.10,MacIntel,60,61025ae37ef11b136ea224fe,,,,,,,,,2983,50,70,1,0,1,response1disk,,7,9,-11,1,0,1,rectangle,9,-11,1,0,1,9,-11,1,0,1,0,159,159,54,1,,,,,,,,
,,,,,,,,,,,,,FF,,,,,,,,1.396,,,,,,,,,,,,,,,,,,,,,,6103633108de7b1f37485955,61036d6636f49f6fa4568585,2021-07-29_23h16.03.011,Simcolourproject_2stim_asymm_v5,2020.2.10,MacIntel,60,61025ae37ef11b136ea224fe,,,,,,,,,2681,19,-62,1,0,1,response3disk,,4,2,-5,1,0,1,rectangle,2,-5,1,0,1,2,-5,1,0,1,1,0,160,130,1,,,,,,,,
,,,,,,,,,,,,,FF,,,,,,,,1.164,,,,,,,,,,,,,,,,,,,,,,6103633108de7b1f37485955,61036d6636f49f6fa4568585,2021-07-29_23h16.03.011,Simcolourproject_2stim_asymm_v5,2020.2.10,MacIntel,60,61025ae37ef11b136ea224fe,,,,,,,,,2937,42,-59,1,0,1,response3disk,,4,21,-14,1,0,1,rectangle,21,-14,1,0,1,21,-14,1,0,1,1,1,161,118,1,,,,,,,,
,,,,,,,,,,,,,FF,,,,,,,,1.592,,,,,,,,,,,,,,,,,,,,,,6103633108de7b1f37485955,61036d6636f49f6fa4568585,2021-07-29_23h16.03.011,Simcolourproject_2stim_asymm_v5,2020.2.10,MacIntel,60,61025ae37ef11b136ea224fe,,,,,,,,,4339,-44,-29,1,0,1,response5disk,,2,-5,-2,1,0,1,rectangle,-5,-2,1,0,1,-5,-2,1,0,1,1,2,162,43,1,,,,,,,,
,,,,,,,,,,,,,FF,,,,,,,,0.571,,,,,,,,,,,,,,,,,,,,,,6103633108de7b1f37485955,61036d6636f49f6fa4568585,2021-07-29_23h16.03.011,Simcolourproject_2stim_asymm_v5,2020.2.10,MacIntel,60,61025ae37ef11b136ea224fe,,,,,,,,,50,38,56,1,0,1,response1disk,,7,9,0,1,0,1,rectangle,9,0,1,0,1,9,0,1,0,1,1,3,163,119,1,,,,,,,,
,,,,,,,,,,,,,FF,,,,,,,,0.75,,,,,,,,,,,,,,,,,,,,,,6103633108de7b1f37485955,61036d6636f49f6fa4568585,2021-07-29_23h16.03.011,Simcolourproject_2stim_asymm_v5,2020.2.10,MacIntel,60,61025ae37ef11b136ea224fe,,,,,,,,,1071,16,65,1,0,1,response1disk,,7,-1,-3,1,0,1,rectangle,-1,-3,1,0,1,-1,-3,1,0,1,1,4,164,126,1,,,,,,,,
,,,,,,,,,,,,,FF,,,,,,,,0.96,,,,,,,,,,,,,,,,,,,,,,6103633108de7b1f37485955,61036d6636f49f6fa4568585,2021-07-29_23h16.03.011,Simcolourproject_2stim_asymm_v5,2020.2.10,MacIntel,60,61025ae37ef11b136ea224fe,,,,,,,,,4322,39,75,1,0,1,response1disk,,7,15,6,1,0,1,rectangle,15,6,1,0,1,15,6,1,0,1,1,5,165,15,1,,,,,,,,
,,,,,,,,,,,,,FF,,,,,,,,0.507,,,,,,,,,,,,,,,,,,,,,,6103633108de7b1f37485955,61036d6636f49f6fa4568585,2021-07-29_23h16.03.011,Simcolourproject_2stim_asymm_v5,2020.2.10,MacIntel,60,61025ae37ef11b136ea224fe,,,,,,,,,200,44,67,1,0,1,response1disk,,7,18,6,1,0,1,rectangle,-51,36,1,0,1,-7,-7,1,0,1,1,6,166,114,1,,response7disk_3,TRUE,1,1,"[276,292,196,242,27,106,267,57,36,59,167,112,57,24,152,261,98,94,237,302]",1.645,rectangle
,,,,,,,,,,,,,FF,,,,,,,,0.862,,,,,,,,,,,,,,,,,,,,,,6103633108de7b1f37485955,61036d6636f49f6fa4568585,2021-07-29_23h16.03.011,Simcolourproject_2stim_asymm_v5,2020.2.10,MacIntel,60,61025ae37ef11b136ea224fe,,,,,,,,,396,53,95,1,0,1,response1disk,,7,7,-12,1,0,1,rectangle,7,-12,1,0,1,7,-12,1,0,1,1,7,167,0,1,,,,,,,,
,,,,,,,,,,,,,FF,,,,,,,,0.775,,,,,,,,,,,,,,,,,,,,,,6103633108de7b1f37485955,61036d6636f49f6fa4568585,2021-07-29_23h16.03.011,Simcolourproject_2stim_asymm_v5,2020.2.10,MacIntel,60,61025ae37ef11b136ea224fe,,,,,,,,,3734,26,61,1,0,1,response1disk,,7,4,-5,1,0,1,rectangle,4,-5,1,0,1,4,-5,1,0,1,1,8,168,44,1,,,,,,,,
,,,,,,,,,,,,,FF,,,,,,,,0.504,,,,,,,,,,,,,,,,,,,,,,6103633108de7b1f37485955,61036d6636f49f6fa4568585,2021-07-29_23h16.03.011,Simcolourproject_2stim_asymm_v5,2020.2.10,MacIntel,60,61025ae37ef11b136ea224fe,,,,,,,,,448,43,65,1,0,1,response1disk,,7,15,3,1,0,1,rectangle,15,3,1,0,1,15,3,1,0,1,1,9,169,88,1,,,,,,,,
,,,,,,,,,,,,,FF,,,,,,,,1.066,,,,,,,,,,,,,,,,,,,,,,6103633108de7b1f37485955,61036d6636f49f6fa4568585,2021-07-29_23h16.03.011,Simcolourproject_2stim_asymm_v5,2020.2.10,MacIntel,60,61025ae37ef11b136ea224fe,,,,,,,,,1065,72,27,1,0,1,response1disk,,6,25,0,1,0,1,rectangle,25,0,1,0,1,25,0,1,0,1,1,10,170,2,1,,,,,,,,
,,,,,,,,,,,,,FF,,,,,,,,0.49,,,,,,,,,,,,,,,,,,,,,,6103633108de7b1f37485955,61036d6636f49f6fa4568585,2021-07-29_23h16.03.011,Simcolourproject_2stim_asymm_v5,2020.2.10,MacIntel,60,61025ae37ef11b136ea224fe,,,,,,,,,248,40,71,1,0,1,response1disk,,7,11,1,1,0,1,rectangle,11,1,1,0,1,11,1,1,0,1,1,11,171,157,1,,,,,,,,
,,,,,,,,,,,,,FF,,,,,,,,0.854,,,,,,,,,,,,,,,,,,,,,,6103633108de7b1f37485955,61036d6636f49f6fa4568585,2021-07-29_23h16.03.011,Simcolourproject_2stim_asymm_v5,2020.2.10,MacIntel,60,61025ae37ef11b136ea224fe,,,,,,,,,3514,-20,-68,1,0,1,response5disk,,3,-2,-13,1,0,1,rectangle,-2,-13,1,0,1,-2,-13,1,0,1,1,12,172,79,1,,,,,,,,
,,,,,,,,,,,,,FF,,,,,,,,3.917,,,,,,,,,,,,,,,,,,,,,,6103633108de7b1f37485955,61036d6636f49f6fa4568585,2021-07-29_23h16.03.011,Simcolourproject_2stim_asymm_v5,2020.2.10,MacIntel,60,61025ae37ef11b136ea224fe,,,,,,,,,3138,-36,-59,1,0,1,response5disk,,3,1,6,1,0,1,rectangle,1,6,1,0,1,1,6,1,0,1,1,13,173,109,1,,,,,,,,
,,,,,,,,,,,,,FF,,,,,,,,1.273,,,,,,,,,,,,,,,,,,,,,,6103633108de7b1f37485955,61036d6636f49f6fa4568585,2021-07-29_23h16.03.011,Simcolourproject_2stim_asymm_v5,2020.2.10,MacIntel,60,61025ae37ef11b136ea224fe,,,,,,,,,3694,32,58,1,0,1,response1disk,,7,6,2,1,0,1,rectangle,6,2,1,0,1,6,2,1,0,1,1,14,174,98,1,,,,,,,,
,,,,,,,,,,,,,FF,,,,,,,,0.932,,,,,,,,,,,,,,,,,,,,,,6103633108de7b1f37485955,61036d6636f49f6fa4568585,2021-07-29_23h16.03.011,Simcolourproject_2stim_asymm_v5,2020.2.10,MacIntel,60,61025ae37ef11b136ea224fe,,,,,,,,,4213,35,54,1,0,1,response1disk,,7,16,-6,1,0,1,rectangle,16,-6,1,0,1,16,-6,1,0,1,1,15,175,121,1,,,,,,,,
,,,,,,,,,,,,,FF,,,,,,,,0.867,,,,,,,,,,,,,,,,,,,,,,6103633108de7b1f37485955,61036d6636f49f6fa4568585,2021-07-29_23h16.03.011,Simcolourproject_2stim_asymm_v5,2020.2.10,MacIntel,60,61025ae37ef11b136ea224fe,,,,,,,,,363,31,52,1,0,1,response1disk,,7,31,10,1,0,1,rectangle,31,10,1,0,1,31,10,1,0,1,1,16,176,123,1,,,,,,,,
,,,,,,,,,,,,,FF,,,,,,,,4.008,,,,,,,,,,,,,,,,,,,,,,6103633108de7b1f37485955,61036d6636f49f6fa4568585,2021-07-29_23h16.03.011,Simcolourproject_2stim_asymm_v5,2020.2.10,MacIntel,60,61025ae37ef11b136ea224fe,,,,,,,,,39,58,66,1,0,1,response1disk,,7,19,-1,1,0,1,rectangle,19,-1,1,0,1,19,-1,1,0,1,1,17,177,105,1,,,,,,,,
,,,,,,,,,,,,,FF,,,,,,,,0.889,,,,,,,,,,,,,,,,,,,,,,6103633108de7b1f37485955,61036d6636f49f6fa4568585,2021-07-29_23h16.03.011,Simcolourproject_2stim_asymm_v5,2020.2.10,MacIntel,60,61025ae37ef11b136ea224fe,,,,,,,,,4013,37,74,1,0,1,response1disk,,7,15,15,1,0,1,rectangle,15,15,1,0,1,15,15,1,0,1,1,18,178,102,1,,,,,,,,
,,,,,,,,,,,,,FF,,,,,,,,0.888,,,,,,,,,,,,,,,,,,,,,,6103633108de7b1f37485955,61036d6636f49f6fa4568585,2021-07-29_23h16.03.011,Simcolourproject_2stim_asymm_v5,2020.2.10,MacIntel,60,61025ae37ef11b136ea224fe,,,,,,,,,2413,35,79,1,0,1,response1disk,,7,-5,-3,1,0,1,rectangle,-5,-3,1,0,1,-5,-3,1,0,1,1,19,179,76,1,,,,,,,,
,,,,,,,,,,,,,FF,,,,,,,,1.357,,,,,,,,,,,,,,,,,,,,,,6103633108de7b1f37485955,61036d6636f49f6fa4568585,2021-07-29_23h16.03.011,Simcolourproject_2stim_asymm_v5,2020.2.10,MacIntel,60,61025ae37ef11b136ea224fe,,,,,,,,,519,84,-40,1,0,1,response3disk,,5,3,-8,1,0,1,rectangle,3,-8,1,0,1,3,-8,1,0,1,1,20,180,59,1,,,,,,,,
,,,,,,,,,,,,,FF,,,,,,,,6.625,,,,,,,,,,,,,,,,,,,,,,6103633108de7b1f37485955,61036d6636f49f6fa4568585,2021-07-29_23h16.03.011,Simcolourproject_2stim_asymm_v5,2020.2.10,MacIntel,60,61025ae37ef11b136ea224fe,,,,,,,,,1360,28,49,1,0,1,response1disk,,7,11,11,1,0,1,rectangle,11,11,1,0,1,11,11,1,0,1,1,21,181,65,1,,,,,,,,
,,,,,,,,,,,,,FF,,,,,,,,0.866,,,,,,,,,,,,,,,,,,,,,,6103633108de7b1f37485955,61036d6636f49f6fa4568585,2021-07-29_23h16.03.011,Simcolourproject_2stim_asymm_v5,2020.2.10,MacIntel,60,61025ae37ef11b136ea224fe,,,,,,,,,556,54,37,1,0,1,response1disk,,6,13,-6,1,0,1,rectangle,13,-6,1,0,1,13,-6,1,0,1,1,22,182,124,1,,,,,,,,
,,,,,,,,,,,,,FF,,,,,,,,0.915,,,,,,,,,,,,,,,,,,,,,,6103633108de7b1f37485955,61036d6636f49f6fa4568585,2021-07-29_23h16.03.011,Simcolourproject_2stim_asymm_v5,2020.2.10,MacIntel,60,61025ae37ef11b136ea224fe,,,,,,,,,5,-41,-76,1,0,1,response5disk,,3,1,-7,1,0,1,rectangle,1,-7,1,0,1,1,-7,1,0,1,1,23,183,133,1,,,,,,,,
,,,,,,,,,,,,,FF,,,,,,,,0.909,,,,,,,,,,,,,,,,,,,,,,6103633108de7b1f37485955,61036d6636f49f6fa4568585,2021-07-29_23h16.03.011,Simcolourproject_2stim_asymm_v5,2020.2.10,MacIntel,60,61025ae37ef11b136ea224fe,,,,,,,,,480,28,75,1,0,1,response1disk,,7,14,3,1,0,1,rectangle,14,3,1,0,1,14,3,1,0,1,1,24,184,138,1,,,,,,,,
,,,,,,,,,,,,,FF,,,,,,,,1.089,,,,,,,,,,,,,,,,,,,,,,6103633108de7b1f37485955,61036d6636f49f6fa4568585,2021-07-29_23h16.03.011,Simcolourproject_2stim_asymm_v5,2020.2.10,MacIntel,60,61025ae37ef11b136ea224fe,,,,,,,,,1841,-20,-66,1,0,1,response5disk,,3,0,11,1,0,1,rectangle,0,11,1,0,1,0,11,1,0,1,1,25,185,122,1,,,,,,,,
,,,,,,,,,,,,,FF,,,,,,,,0.89,,,,,,,,,,,,,,,,,,,,,,6103633108de7b1f37485955,61036d6636f49f6fa4568585,2021-07-29_23h16.03.011,Simcolourproject_2stim_asymm_v5,2020.2.10,MacIntel,60,61025ae37ef11b136ea224fe,,,,,,,,,2361,-23,-60,1,0,1,response5disk,,3,3,4,1,0,1,rectangle,3,4,1,0,1,3,4,1,0,1,1,26,186,22,1,,,,,,,,
,,,,,,,,,,,,,FF,,,,,,,,0.667,,,,,,,,,,,,,,,,,,,,,,6103633108de7b1f37485955,61036d6636f49f6fa4568585,2021-07-29_23h16.03.011,Simcolourproject_2stim_asymm_v5,2020.2.10,MacIntel,60,61025ae37ef11b136ea224fe,,,,,,,,,2325,29,71,1,0,1,response1disk,,7,7,-1,1,0,1,rectangle,7,-1,1,0,1,7,-1,1,0,1,1,27,187,83,1,,,,,,,,
,,,,,,,,,,,,,FF,,,,,,,,0.624,,,,,,,,,,,,,,,,,,,,,,6103633108de7b1f37485955,61036d6636f49f6fa4568585,2021-07-29_23h16.03.011,Simcolourproject_2stim_asymm_v5,2020.2.10,MacIntel,60,61025ae37ef11b136ea224fe,,,,,,,,,4172,35,63,1,0,1,response1disk,,7,4,-11,1,0,1,rectangle,4,-11,1,0,1,4,-11,1,0,1,1,28,188,141,1,,,,,,,,
,,,,,,,,,,,,,FF,,,,,,,,1.316,,,,,,,,,,,,,,,,,,,,,,6103633108de7b1f37485955,61036d6636f49f6fa4568585,2021-07-29_23h16.03.011,Simcolourproject_2stim_asymm_v5,2020.2.10,MacIntel,60,61025ae37ef11b136ea224fe,,,,,,,,,1977,-26,-58,1,0,1,response5disk,,3,-7,-12,1,0,1,rectangle,-7,-12,1,0,1,-7,-12,1,0,1,1,29,189,143,1,,,,,,,,
,,,,,,,,,,,,,FF,,,,,,,,1.292,,,,,,,,,,,,,,,,,,,,,,6103633108de7b1f37485955,61036d6636f49f6fa4568585,2021-07-29_23h16.03.011,Simcolourproject_2stim_asymm_v5,2020.2.10,MacIntel,60,61025ae37ef11b136ea224fe,,,,,,,,,4124,-30,-56,1,0,1,response5disk,,3,-8,-3,1,0,1,rectangle,-8,-3,1,0,1,-8,-3,1,0,1,1,30,190,115,1,,,,,,,,
,,,,,,,,,,,,,FF,,,,,,,,1.472,,,,,,,,,,,,,,,,,,,,,,6103633108de7b1f37485955,61036d6636f49f6fa4568585,2021-07-29_23h16.03.011,Simcolourproject_2stim_asymm_v5,2020.2.10,MacIntel,60,61025ae37ef11b136ea224fe,,,,,,,,,3424,32,-56,1,0,1,response3disk,,4,12,-3,1,0,1,rectangle,12,-3,1,0,1,12,-3,1,0,1,1,31,191,38,1,,,,,,,,
,,,,,,,,,,,,,FF,,,,,,,,0.895,,,,,,,,,,,,,,,,,,,,,,6103633108de7b1f37485955,61036d6636f49f6fa4568585,2021-07-29_23h16.03.011,Simcolourproject_2stim_asymm_v5,2020.2.10,MacIntel,60,61025ae37ef11b136ea224fe,,,,,,,,,4202,-30,-63,1,0,1,response5disk,,3,-14,6,1,0,1,rectangle,-14,6,1,0,1,-14,6,1,0,1,1,32,192,3,1,,,,,,,,
,,,,,,,,,,,,,FF,,,,,,,,0.58,,,,,,,,,,,,,,,,,,,,,,6103633108de7b1f37485955,61036d6636f49f6fa4568585,2021-07-29_23h16.03.011,Simcolourproject_2stim_asymm_v5,2020.2.10,MacIntel,60,61025ae37ef11b136ea224fe,,,,,,,,,1024,25,59,1,0,1,response1disk,,7,0,-4,1,0,1,rectangle,0,-4,1,0,1,0,-4,1,0,1,1,33,193,120,1,,,,,,,,
,,,,,,,,,,,,,FF,,,,,,,,1.672,,,,,,,,,,,,,,,,,,,,,,6103633108de7b1f37485955,61036d6636f49f6fa4568585,2021-07-29_23h16.03.011,Simcolourproject_2stim_asymm_v5,2020.2.10,MacIntel,60,61025ae37ef11b136ea224fe,,,,,,,,,3759,76,-36,1,0,1,response3disk,,5,9,-4,1,0,1,rectangle,9,-4,1,0,1,9,-4,1,0,1,1,34,194,104,1,,,,,,,,
,,,,,,,,,,,,,FF,,,,,,,,1.294,,,,,,,,,,,,,,,,,,,,,,6103633108de7b1f37485955,61036d6636f49f6fa4568585,2021-07-29_23h16.03.011,Simcolourproject_2stim_asymm_v5,2020.2.10,MacIntel,60,61025ae37ef11b136ea224fe,,,,,,,,,1267,68,-39,1,0,1,response3disk,,5,29,-17,1,0,1,rectangle,79,-42,1,0,1,7,-4,1,0,1,1,35,195,131,1,,response3disk_3,TRUE,5,5,"[276,292,196,242,27,106,267,57,36,59,167,112,57,24,152,261,98,94,237,302]",1.923,rectangle
,,,,,,,,,,,,,FF,,,,,,,,1.024,,,,,,,,,,,,,,,,,,,,,,6103633108de7b1f37485955,61036d6636f49f6fa4568585,2021-07-29_23h16.03.011,Simcolourproject_2stim_asymm_v5,2020.2.10,MacIntel,60,61025ae37ef11b136ea224fe,,,,,,,,,2984,42,67,1,0,1,response1disk,,7,2,6,1,0,1,rectangle,2,6,1,0,1,2,6,1,0,1,1,36,196,74,1,,,,,,,,
,,,,,,,,,,,,,FF,,,,,,,,0.714,,,,,,,,,,,,,,,,,,,,,,6103633108de7b1f37485955,61036d6636f49f6fa4568585,2021-07-29_23h16.03.011,Simcolourproject_2stim_asymm_v5,2020.2.10,MacIntel,60,61025ae37ef11b136ea224fe,,,,,,,,,1492,19,52,1,0,1,response1disk,,7,5,7,1,0,1,rectangle,5,7,1,0,1,5,7,1,0,1,1,37,197,12,1,,,,,,,,
,,,,,,,,,,,,,FF,,,,,,,,1.018,,,,,,,,,,,,,,,,,,,,,,6103633108de7b1f37485955,61036d6636f49f6fa4568585,2021-07-29_23h16.03.011,Simcolourproject_2stim_asymm_v5,2020.2.10,MacIntel,60,61025ae37ef11b136ea224fe,,,,,,,,,2495,35,65,1,0,1,response1disk,,7,17,9,1,0,1,rectangle,17,9,1,0,1,17,9,1,0,1,1,38,198,53,1,,,,,,,,
,,,,,,,,,,,,,FF,,,,,,,,0.759,,,,,,,,,,,,,,,,,,,,,,6103633108de7b1f37485955,61036d6636f49f6fa4568585,2021-07-29_23h16.03.011,Simcolourproject_2stim_asymm_v5,2020.2.10,MacIntel,60,61025ae37ef11b136ea224fe,,,,,,,,,2210,33,57,1,0,1,response1disk,,7,17,8,1,0,1,rectangle,17,8,1,0,1,17,8,1,0,1,1,39,199,23,1,,,,,,,,
,,,,,,,,,,,,,FF,,,,,,,,0.964,,,,,,,,,,,,,,,,,,,,,,6103633108de7b1f37485955,61036d6636f49f6fa4568585,2021-07-29_23h16.03.011,Simcolourproject_2stim_asymm_v5,2020.2.10,MacIntel,60,61025ae37ef11b136ea224fe,,,,,,,,,1201,79,34,1,0,1,response1disk,,6,29,-5,1,0,1,rectangle,29,-5,1,0,1,29,-5,1,0,1,1,40,200,154,1,,,,,,,,
,,,,,,,,,,,,,FF,,,,,,,,2.489,,,,,,,,,,,,,,,,,,,,,,6103633108de7b1f37485955,61036d6636f49f6fa4568585,2021-07-29_23h16.03.011,Simcolourproject_2stim_asymm_v5,2020.2.10,MacIntel,60,61025ae37ef11b136ea224fe,,,,,,,,,2897,-38,-78,1,0,1,response5disk,,3,5,3,1,0,1,rectangle,5,3,1,0,1,5,3,1,0,1,1,41,201,5,1,,,,,,,,
,,,,,,,,,,,,,FF,,,,,,,,0.69,,,,,,,,,,,,,,,,,,,,,,6103633108de7b1f37485955,61036d6636f49f6fa4568585,2021-07-29_23h16.03.011,Simcolourproject_2stim_asymm_v5,2020.2.10,MacIntel,60,61025ae37ef11b136ea224fe,,,,,,,,,145,22,66,1,0,1,response1disk,,7,4,2,1,0,1,rectangle,4,2,1,0,1,4,2,1,0,1,1,42,202,51,1,,,,,,,,
,,,,,,,,,,,,,FF,,,,,,,,0.602,,,,,,,,,,,,,,,,,,,,,,6103633108de7b1f37485955,61036d6636f49f6fa4568585,2021-07-29_23h16.03.011,Simcolourproject_2stim_asymm_v5,2020.2.10,MacIntel,60,61025ae37ef11b136ea224fe,,,,,,,,,1508,34,63,1,0,1,response1disk,,7,12,6,1,0,1,rectangle,12,6,1,0,1,12,6,1,0,1,1,43,203,81,1,,,,,,,,
,,,,,,,,,,,,,FF,,,,,,,,0.582,,,,,,,,,,,,,,,,,,,,,,6103633108de7b1f37485955,61036d6636f49f6fa4568585,2021-07-29_23h16.03.011,Simcolourproject_2stim_asymm_v5,2020.2.10,MacIntel,60,61025ae37ef11b136ea224fe,,,,,,,,,33,39,71,1,0,1,response1disk,,7,13,-1,1,0,1,rectangle,13,-1,1,0,1,13,-1,1,0,1,1,44,204,19,1,,,,,,,,
,,,,,,,,,,,,,FF,,,,,,,,0.538,,,,,,,,,,,,,,,,,,,,,,6103633108de7b1f37485955,61036d6636f49f6fa4568585,2021-07-29_23h16.03.011,Simcolourproject_2stim_asymm_v5,2020.2.10,MacIntel,60,61025ae37ef11b136ea224fe,,,,,,,,,2199,33,76,1,0,1,response1disk,,7,15,16,1,0,1,rectangle,15,16,1,0,1,15,16,1,0,1,1,45,205,77,1,,,,,,,,
,,,,,,,,,,,,,FF,,,,,,,,1.124,,,,,,,,,,,,,,,,,,,,,,6103633108de7b1f37485955,61036d6636f49f6fa4568585,2021-07-29_23h16.03.011,Simcolourproject_2stim_asymm_v5,2020.2.10,MacIntel,60,61025ae37ef11b136ea224fe,,,,,,,,,719,-67,-49,1,0,1,response5disk,,2,7,-10,1,0,1,rectangle,7,-10,1,0,1,7,-10,1,0,1,1,46,206,125,1,,,,,,,,
,,,,,,,,,,,,,FF,,,,,,,,0.958,,,,,,,,,,,,,,,,,,,,,,6103633108de7b1f37485955,61036d6636f49f6fa4568585,2021-07-29_23h16.03.011,Simcolourproject_2stim_asymm_v5,2020.2.10,MacIntel,60,61025ae37ef11b136ea224fe,,,,,,,,,2932,-25,-61,1,0,1,response5disk,,3,-2,2,1,0,1,rectangle,-2,2,1,0,1,-2,2,1,0,1,1,47,207,46,1,,,,,,,,
,,,,,,,,,,,,,FF,,,,,,,,1.491,,,,,,,,,,,,,,,,,,,,,,6103633108de7b1f37485955,61036d6636f49f6fa4568585,2021-07-29_23h16.03.011,Simcolourproject_2stim_asymm_v5,2020.2.10,MacIntel,60,61025ae37ef11b136ea224fe,,,,,,,,,2884,70,31,1,0,1,response1disk,,6,14,-4,1,0,1,rectangle,14,-4,1,0,1,14,-4,1,0,1,1,48,208,16,1,,,,,,,,
,,,,,,,,,,,,,FF,,,,,,,,1.002,,,,,,,,,,,,,,,,,,,,,,6103633108de7b1f37485955,61036d6636f49f6fa4568585,2021-07-29_23h16.03.011,Simcolourproject_2stim_asymm_v5,2020.2.10,MacIntel,60,61025ae37ef11b136ea224fe,,,,,,,,,3465,41,33,1,0,1,response1disk,,6,16,10,1,0,1,rectangle,16,10,1,0,1,16,10,1,0,1,1,49,209,111,1,,,,,,,,
,,,,,,,,,,,,,FF,,,,,,,,0.82,,,,,,,,,,,,,,,,,,,,,,6103633108de7b1f37485955,61036d6636f49f6fa4568585,2021-07-29_23h16.03.011,Simcolourproject_2stim_asymm_v5,2020.2.10,MacIntel,60,61025ae37ef11b136ea224fe,,,,,,,,,217,36,69,1,0,1,response1disk,,7,11,7,1,0,1,rectangle,11,7,1,0,1,11,7,1,0,1,1,50,210,32,1,,,,,,,,
,,,,,,,,,,,,,FF,,,,,,,,1.179,,,,,,,,,,,,,,,,,,,,,,6103633108de7b1f37485955,61036d6636f49f6fa4568585,2021-07-29_23h16.03.011,Simcolourproject_2stim_asymm_v5,2020.2.10,MacIntel,60,61025ae37ef11b136ea224fe,,,,,,,,,1200,40,67,1,0,1,response1disk,,7,14,14,1,0,1,rectangle,14,14,1,0,1,14,14,1,0,1,1,51,211,84,1,,,,,,,,
,,,,,,,,,,,,,FF,,,,,,,,0.642,,,,,,,,,,,,,,,,,,,,,,6103633108de7b1f37485955,61036d6636f49f6fa4568585,2021-07-29_23h16.03.011,Simcolourproject_2stim_asymm_v5,2020.2.10,MacIntel,60,61025ae37ef11b136ea224fe,,,,,,,,,2958,35,60,1,0,1,response1disk,,7,6,-4,1,0,1,rectangle,6,-4,1,0,1,6,-4,1,0,1,1,52,212,56,1,,,,,,,,
,,,,,,,,,,,,,FF,,,,,,,,1.041,,,,,,,,,,,,,,,,,,,,,,6103633108de7b1f37485955,61036d6636f49f6fa4568585,2021-07-29_23h16.03.011,Simcolourproject_2stim_asymm_v5,2020.2.10,MacIntel,60,61025ae37ef11b136ea224fe,,,,,,,,,2501,28,66,1,0,1,response1disk,,7,5,7,1,0,1,rectangle,5,7,1,0,1,5,7,1,0,1,1,53,213,75,1,,,,,,,,
,,,,,,,,,,,,,FF,,,,,,,,1.198,,,,,,,,,,,,,,,,,,,,,,6103633108de7b1f37485955,61036d6636f49f6fa4568585,2021-07-29_23h16.03.011,Simcolourproject_2stim_asymm_v5,2020.2.10,MacIntel,60,61025ae37ef11b136ea224fe,,,,,,,,,1247,31,51,1,0,1,response1disk,,7,10,-1,1,0,1,rectangle,10,-1,1,0,1,10,-1,1,0,1,1,54,214,35,1,,,,,,,,
,,,,,,,,,,,,,FF,,,,,,,,1.025,,,,,,,,,,,,,,,,,,,,,,6103633108de7b1f37485955,61036d6636f49f6fa4568585,2021-07-29_23h16.03.011,Simcolourproject_2stim_asymm_v5,2020.2.10,MacIntel,60,61025ae37ef11b136ea224fe,,,,,,,,,1536,57,32,1,0,1,response1disk,,6,22,-1,1,0,1,rectangle,22,-1,1,0,1,22,-1,1,0,1,1,55,215,87,1,,,,,,,,
,,,,,,,,,,,,,FF,,,,,,,,2.004,,,,,,,,,,,,,,,,,,,,,,6103633108de7b1f37485955,61036d6636f49f6fa4568585,2021-07-29_23h16.03.011,Simcolourproject_2stim_asymm_v5,2020.2.10,MacIntel,60,61025ae37ef11b136ea224fe,,,,,,,,,2595,59,20,1,0,1,response1disk,,6,27,7,1,0,1,rectangle,27,7,1,0,1,27,7,1,0,1,1,56,216,42,1,,,,,,,,
,,,,,,,,,,,,,FF,,,,,,,,0.758,,,,,,,,,,,,,,,,,,,,,,6103633108de7b1f37485955,61036d6636f49f6fa4568585,2021-07-29_23h16.03.011,Simcolourproject_2stim_asymm_v5,2020.2.10,MacIntel,60,61025ae37ef11b136ea224fe,,,,,,,,,3216,37,63,1,0,1,response1disk,,7,17,2,1,0,1,rectangle,17,2,1,0,1,17,2,1,0,1,1,57,217,134,1,,,,,,,,
,,,,,,,,,,,,,FF,,,,,,,,0.76,,,,,,,,,,,,,,,,,,,,,,6103633108de7b1f37485955,61036d6636f49f6fa4568585,2021-07-29_23h16.03.011,Simcolourproject_2stim_asymm_v5,2020.2.10,MacIntel,60,61025ae37ef11b136ea224fe,,,,,,,,,1846,23,54,1,0,1,response1disk,,7,10,4,1,0,1,rectangle,10,4,1,0,1,10,4,1,0,1,1,58,218,55,1,,,,,,,,
,,,,,,,,,,,,,FF,,,,,,,,0.621,,,,,,,,,,,,,,,,,,,,,,6103633108de7b1f37485955,61036d6636f49f6fa4568585,2021-07-29_23h16.03.011,Simcolourproject_2stim_asymm_v5,2020.2.10,MacIntel,60,61025ae37ef11b136ea224fe,,,,,,,,,2055,30,56,1,0,1,response1disk,,7,14,-7,1,0,1,rectangle,14,-7,1,0,1,14,-7,1,0,1,1,59,219,41,1,,,,,,,,
,,,,,,,,,,,,,FF,,,,,,,,1.633,,,,,,,,,,,,,,,,,,,,,,6103633108de7b1f37485955,61036d6636f49f6fa4568585,2021-07-29_23h16.03.011,Simcolourproject_2stim_asymm_v5,2020.2.10,MacIntel,60,61025ae37ef11b136ea224fe,,,,,,,,,3696,24,57,1,0,1,response1disk,,7,14,11,1,0,1,rectangle,14,11,1,0,1,14,11,1,0,1,1,60,220,1,1,,,,,,,,
,,,,,,,,,,,,,FF,,,,,,,,1.464,,,,,,,,,,,,,,,,,,,,,,6103633108de7b1f37485955,61036d6636f49f6fa4568585,2021-07-29_23h16.03.011,Simcolourproject_2stim_asymm_v5,2020.2.10,MacIntel,60,61025ae37ef11b136ea224fe,,,,,,,,,3932,-38,-73,1,0,1,response5disk,,3,1,3,1,0,1,rectangle,1,3,1,0,1,1,3,1,0,1,1,61,221,25,1,,,,,,,,
,,,,,,,,,,,,,FF,,,,,,,,0.981,,,,,,,,,,,,,,,,,,,,,,6103633108de7b1f37485955,61036d6636f49f6fa4568585,2021-07-29_23h16.03.011,Simcolourproject_2stim_asymm_v5,2020.2.10,MacIntel,60,61025ae37ef11b136ea224fe,,,,,,,,,2472,-23,-52,1,0,1,response5disk,,3,-4,0,1,0,1,rectangle,-4,0,1,0,1,-4,0,1,0,1,1,62,222,110,1,,,,,,,,
,,,,,,,,,,,,,FF,,,,,,,,0.577,,,,,,,,,,,,,,,,,,,,,,6103633108de7b1f37485955,61036d6636f49f6fa4568585,2021-07-29_23h16.03.011,Simcolourproject_2stim_asymm_v5,2020.2.10,MacIntel,60,61025ae37ef11b136ea224fe,,,,,,,,,1722,29,61,1,0,1,response1disk,,7,9,-1,1,0,1,rectangle,9,-1,1,0,1,9,-1,1,0,1,1,63,223,155,1,,,,,,,,
,,,,,,,,,,,,,FF,,,,,,,,0.515,,,,,,,,,,,,,,,,,,,,,,6103633108de7b1f37485955,61036d6636f49f6fa4568585,2021-07-29_23h16.03.011,Simcolourproject_2stim_asymm_v5,2020.2.10,MacIntel,60,61025ae37ef11b136ea224fe,,,,,,,,,335,31,49,1,0,1,response1disk,,7,4,-8,1,0,1,rectangle,4,-8,1,0,1,4,-8,1,0,1,1,64,224,148,1,,,,,,,,
,,,,,,,,,,,,,FF,,,,,,,,1.137,,,,,,,,,,,,,,,,,,,,,,6103633108de7b1f37485955,61036d6636f49f6fa4568585,2021-07-29_23h16.03.011,Simcolourproject_2stim_asymm_v5,2020.2.10,MacIntel,60,61025ae37ef11b136ea224fe,,,,,,,,,2599,25,49,1,0,1,response1disk,,7,10,7,1,0,1,rectangle,10,7,1,0,1,10,7,1,0,1,1,65,225,39,1,,,,,,,,
,,,,,,,,,,,,,FF,,,,,,,,1.171,,,,,,,,,,,,,,,,,,,,,,6103633108de7b1f37485955,61036d6636f49f6fa4568585,2021-07-29_23h16.03.011,Simcolourproject_2stim_asymm_v5,2020.2.10,MacIntel,60,61025ae37ef11b136ea224fe,,,,,,,,,4366,-39,20,1,0,1,response7disk,,1,13,-6,1,0,1,rectangle,13,-6,1,0,1,13,-6,1,0,1,1,66,226,140,1,,,,,,,,
,,,,,,,,,,,,,FF,,,,,,,,1.115,,,,,,,,,,,,,,,,,,,,,,6103633108de7b1f37485955,61036d6636f49f6fa4568585,2021-07-29_23h16.03.011,Simcolourproject_2stim_asymm_v5,2020.2.10,MacIntel,60,61025ae37ef11b136ea224fe,,,,,,,,,375,-48,-36,1,0,1,response5disk,,2,-12,0,1,0,1,rectangle,-12,0,1,0,1,-12,0,1,0,1,1,67,227,4,1,,,,,,,,
,,,,,,,,,,,,,FF,,,,,,,,1.1,,,,,,,,,,,,,,,,,,,,,,6103633108de7b1f37485955,61036d6636f49f6fa4568585,2021-07-29_23h16.03.011,Simcolourproject_2stim_asymm_v5,2020.2.10,MacIntel,60,61025ae37ef11b136ea224fe,,,,,,,,,1922,21,67,1,0,1,response1disk,,7,0,5,1,0,1,rectangle,0,5,1,0,1,0,5,1,0,1,1,68,228,29,1,,,,,,,,
,,,,,,,,,,,,,FF,,,,,,,,1.602,,,,,,,,,,,,,,,,,,,,,,6103633108de7b1f37485955,61036d6636f49f6fa4568585,2021-07-29_23h16.03.011,Simcolourproject_2stim_asymm_v5,2020.2.10,MacIntel,60,61025ae37ef11b136ea224fe,,,,,,,,,3588,40,-27,1,0,1,response3disk,,5,0,-6,1,0,1,rectangle,0,-6,1,0,1,0,-6,1,0,1,1,69,229,113,1,,,,,,,,
,,,,,,,,,,,,,FF,,,,,,,,1.495,,,,,,,,,,,,,,,,,,,,,,6103633108de7b1f37485955,61036d6636f49f6fa4568585,2021-07-29_23h16.03.011,Simcolourproject_2stim_asymm_v5,2020.2.10,MacIntel,60,61025ae37ef11b136ea224fe,,,,,,,,,3566,60,-30,1,0,1,response3disk,,5,17,-4,1,0,1,rectangle,17,-4,1,0,1,17,-4,1,0,1,1,70,230,26,1,,,,,,,,
,,,,,,,,,,,,,FF,,,,,,,,1.693,,,,,,,,,,,,,,,,,,,,,,6103633108de7b1f37485955,61036d6636f49f6fa4568585,2021-07-29_23h16.03.011,Simcolourproject_2stim_asymm_v5,2020.2.10,MacIntel,60,61025ae37ef11b136ea224fe,,,,,,,,,3073,37,32,1,0,1,response1disk,,6,11,-2,1,0,1,rectangle,11,-2,1,0,1,11,-2,1,0,1,1,71,231,36,1,,,,,,,,
,,,,,,,,,,,,,FF,,,,,,,,1.089,,,,,,,,,,,,,,,,,,,,,,6103633108de7b1f37485955,61036d6636f49f6fa4568585,2021-07-29_23h16.03.011,Simcolourproject_2stim_asymm_v5,2020.2.10,MacIntel,60,61025ae37ef11b136ea224fe,,,,,,,,,2556,41,25,1,0,1,response1disk,,6,18,-4,1,0,1,rectangle,18,-4,1,0,1,18,-4,1,0,1,1,72,232,27,1,,,,,,,,
,,,,,,,,,,,,,FF,,,,,,,,0.757,,,,,,,,,,,,,,,,,,,,,,6103633108de7b1f37485955,61036d6636f49f6fa4568585,2021-07-29_23h16.03.011,Simcolourproject_2stim_asymm_v5,2020.2.10,MacIntel,60,61025ae37ef11b136ea224fe,,,,,,,,,2277,23,47,1,0,1,response1disk,,7,7,-2,1,0,1,rectangle,7,-2,1,0,1,7,-2,1,0,1,1,73,233,145,1,,,,,,,,
,,,,,,,,,,,,,FF,,,,,,,,0.871,,,,,,,,,,,,,,,,,,,,,,6103633108de7b1f37485955,61036d6636f49f6fa4568585,2021-07-29_23h16.03.011,Simcolourproject_2stim_asymm_v5,2020.2.10,MacIntel,60,61025ae37ef11b136ea224fe,,,,,,,,,4287,24,39,1,0,1,response1disk,,7,11,11,1,0,1,rectangle,11,11,1,0,1,11,11,1,0,1,1,74,234,54,1,,,,,,,,
,,,,,,,,,,,,,FF,,,,,,,,0.689,,,,,,,,,,,,,,,,,,,,,,6103633108de7b1f37485955,61036d6636f49f6fa4568585,2021-07-29_23h16.03.011,Simcolourproject_2stim_asymm_v5,2020.2.10,MacIntel,60,61025ae37ef11b136ea224fe,,,,,,,,,2256,26,53,1,0,1,response1disk,,7,9,9,1,0,1,rectangle,9,9,1,0,1,9,9,1,0,1,1,75,235,132,1,,,,,,,,
,,,,,,,,,,,,,FF,,,,,,,,1.005,,,,,,,,,,,,,,,,,,,,,,6103633108de7b1f37485955,61036d6636f49f6fa4568585,2021-07-29_23h16.03.011,Simcolourproject_2stim_asymm_v5,2020.2.10,MacIntel,60,61025ae37ef11b136ea224fe,,,,,,,,,3878,28,41,1,0,1,response1disk,,7,18,4,1,0,1,rectangle,60,-33,1,0,1,14,-7,1,0,1,1,76,236,152,1,,response3disk_3,TRUE,5,5,"[276,292,196,242,27,106,267,57,36,59,167,112,57,24,152,261,98,94,237,302]",1.608,rectangle
,,,,,,,,,,,,,FF,,,,,,,,0.869,,,,,,,,,,,,,,,,,,,,,,6103633108de7b1f37485955,61036d6636f49f6fa4568585,2021-07-29_23h16.03.011,Simcolourproject_2stim_asymm_v5,2020.2.10,MacIntel,60,61025ae37ef11b136ea224fe,,,,,,,,,2000,30,56,1,0,1,response1disk,,7,14,3,1,0,1,rectangle,14,3,1,0,1,14,3,1,0,1,1,77,237,101,1,,,,,,,,
,,,,,,,,,,,,,FF,,,,,,,,1.062,,,,,,,,,,,,,,,,,,,,,,6103633108de7b1f37485955,61036d6636f49f6fa4568585,2021-07-29_23h16.03.011,Simcolourproject_2stim_asymm_v5,2020.2.10,MacIntel,60,61025ae37ef11b136ea224fe,,,,,,,,,3809,32,66,1,0,1,response1disk,,7,15,10,1,0,1,rectangle,15,10,1,0,1,15,10,1,0,1,1,78,238,37,1,,,,,,,,
,,,,,,,,,,,,,FF,,,,,,,,0.758,,,,,,,,,,,,,,,,,,,,,,6103633108de7b1f37485955,61036d6636f49f6fa4568585,2021-07-29_23h16.03.011,Simcolourproject_2stim_asymm_v5,2020.2.10,MacIntel,60,61025ae37ef11b136ea224fe,,,,,,,,,2060,26,43,1,0,1,response1disk,,7,6,-4,1,0,1,rectangle,6,-4,1,0,1,6,-4,1,0,1,1,79,239,93,1,,,,,,,,
,,,,,,,,,,,,,FF,,,,,,,,0.646,,,,,,,,,,,,,,,,,,,,,,6103633108de7b1f37485955,61036d6636f49f6fa4568585,2021-07-29_23h16.03.011,Simcolourproject_2stim_asymm_v5,2020.2.10,MacIntel,60,61025ae37ef11b136ea224fe,,,,,,,,,2977,33,62,1,0,1,response1disk,,7,10,16,1,0,1,rectangle,10,16,1,0,1,10,16,1,0,1,1,80,240,6,1,,,,,,,,
,,,,,,,,,,,,,FF,,,,,,,,0.628,,,,,,,,,,,,,,,,,,,,,,6103633108de7b1f37485955,61036d6636f49f6fa4568585,2021-07-29_23h16.03.011,Simcolourproject_2stim_asymm_v5,2020.2.10,MacIntel,60,61025ae37ef11b136ea224fe,,,,,,,,,3649,29,72,1,0,1,response1disk,,7,9,5,1,0,1,rectangle,-39,57,1,0,1,-1,-1,1,0,1,1,81,241,69,1,,response7disk_3,TRUE,0,0,"[276,292,196,242,27,106,267,57,36,59,167,112,57,24,152,261,98,94,237,302]",1.871,rectangle
,,,,,,,,,,,,,FF,,,,,,,,0.889,,,,,,,,,,,,,,,,,,,,,,6103633108de7b1f37485955,61036d6636f49f6fa4568585,2021-07-29_23h16.03.011,Simcolourproject_2stim_asymm_v5,2020.2.10,MacIntel,60,61025ae37ef11b136ea224fe,,,,,,,,,947,25,47,1,0,1,response1disk,,7,26,5,1,0,1,rectangle,26,5,1,0,1,26,5,1,0,1,1,82,242,40,1,,,,,,,,
,,,,,,,,,,,,,FF,,,,,,,,0.847,,,,,,,,,,,,,,,,,,,,,,6103633108de7b1f37485955,61036d6636f49f6fa4568585,2021-07-29_23h16.03.011,Simcolourproject_2stim_asymm_v5,2020.2.10,MacIntel,60,61025ae37ef11b136ea224fe,,,,,,,,,161,30,49,1,0,1,response1disk,,7,7,-2,1,0,1,rectangle,7,-2,1,0,1,7,-2,1,0,1,1,83,243,31,1,,,,,,,,
,,,,,,,,,,,,,FF,,,,,,,,1.649,,,,,,,,,,,,,,,,,,,,,,6103633108de7b1f37485955,61036d6636f49f6fa4568585,2021-07-29_23h16.03.011,Simcolourproject_2stim_asymm_v5,2020.2.10,MacIntel,60,61025ae37ef11b136ea224fe,,,,,,,,,3441,43,-64,1,0,1,response3disk,,4,13,-4,1,0,1,rectangle,13,-4,1,0,1,13,-4,1,0,1,1,84,244,89,1,,,,,,,,
,,,,,,,,,,,,,FF,,,,,,,,0.78,,,,,,,,,,,,,,,,,,,,,,6103633108de7b1f37485955,61036d6636f49f6fa4568585,2021-07-29_23h16.03.011,Simcolourproject_2stim_asymm_v5,2020.2.10,MacIntel,60,61025ae37ef11b136ea224fe,,,,,,,,,763,29,59,1,0,1,response1disk,,7,12,4,1,0,1,rectangle,12,4,1,0,1,12,4,1,0,1,1,85,245,20,1,,,,,,,,
,,,,,,,,,,,,,FF,,,,,,,,1.315,,,,,,,,,,,,,,,,,,,,,,6103633108de7b1f37485955,61036d6636f49f6fa4568585,2021-07-29_23h16.03.011,Simcolourproject_2stim_asymm_v5,2020.2.10,MacIntel,60,61025ae37ef11b136ea224fe,,,,,,,,,1613,41,-55,1,0,1,response3disk,,4,20,-15,1,0,1,rectangle,20,-15,1,0,1,20,-15,1,0,1,1,86,246,149,1,,,,,,,,
,,,,,,,,,,,,,FF,,,,,,,,0.648,,,,,,,,,,,,,,,,,,,,,,6103633108de7b1f37485955,61036d6636f49f6fa4568585,2021-07-29_23h16.03.011,Simcolourproject_2stim_asymm_v5,2020.2.10,MacIntel,60,61025ae37ef11b136ea224fe,,,,,,,,,3260,38,56,1,0,1,response1disk,,7,17,2,1,0,1,rectangle,17,2,1,0,1,17,2,1,0,1,1,87,247,94,1,,,,,,,,
,,,,,,,,,,,,,FF,,,,,,,,1.714,,,,,,,,,,,,,,,,,,,,,,6103633108de7b1f37485955,61036d6636f49f6fa4568585,2021-07-29_23h16.03.011,Simcolourproject_2stim_asymm_v5,2020.2.10,MacIntel,60,61025ae37ef11b136ea224fe,,,,,,,,,3387,38,-61,1,0,1,response3disk,,4,7,3,1,0,1,rectangle,7,3,1,0,1,7,3,1,0,1,1,88,248,150,1,,,,,,,,
,,,,,,,,,,,,,FF,,,,,,,,1.587,,,,,,,,,,,,,,,,,,,,,,6103633108de7b1f37485955,61036d6636f49f6fa4568585,2021-07-29_23h16.03.011,Simcolourproject_2stim_asymm_v5,2020.2.10,MacIntel,60,61025ae37ef11b136ea224fe,,,,,,,,,2828,57,25,1,0,1,response1disk,,6,3,-7,1,0,1,rectangle,3,-7,1,0,1,3,-7,1,0,1,1,89,249,72,1,,,,,,,,
,,,,,,,,,,,,,FF,,,,,,,,1.099,,,,,,,,,,,,,,,,,,,,,,6103633108de7b1f37485955,61036d6636f49f6fa4568585,2021-07-29_23h16.03.011,Simcolourproject_2stim_asymm_v5,2020.2.10,MacIntel,60,61025ae37ef11b136ea224fe,,,,,,,,,3801,36,61,1,0,1,response1disk,,7,13,-3,1,0,1,rectangle,13,-3,1,0,1,13,-3,1,0,1,1,90,250,71,1,,,,,,,,
,,,,,,,,,,,,,FF,,,,,,,,0.802,,,,,,,,,,,,,,,,,,,,,,6103633108de7b1f37485955,61036d6636f49f6fa4568585,2021-07-29_23h16.03.011,Simcolourproject_2stim_asymm_v5,2020.2.10,MacIntel,60,61025ae37ef11b136ea224fe,,,,,,,,,2465,31,52,1,0,1,response1disk,,7,15,9,1,0,1,rectangle,15,9,1,0,1,15,9,1,0,1,1,91,251,80,1,,,,,,,,
,,,,,,,,,,,,,FF,,,,,,,,1.251,,,,,,,,,,,,,,,,,,,,,,6103633108de7b1f37485955,61036d6636f49f6fa4568585,2021-07-29_23h16.03.011,Simcolourproject_2stim_asymm_v5,2020.2.10,MacIntel,60,61025ae37ef11b136ea224fe,,,,,,,,,42,27,51,1,0,1,response1disk,,7,3,9,1,0,1,rectangle,3,9,1,0,1,3,9,1,0,1,1,92,252,153,1,,,,,,,,
,,,,,,,,,,,,,FF,,,,,,,,1.291,,,,,,,,,,,,,,,,,,,,,,6103633108de7b1f37485955,61036d6636f49f6fa4568585,2021-07-29_23h16.03.011,Simcolourproject_2stim_asymm_v5,2020.2.10,MacIntel,60,61025ae37ef11b136ea224fe,,,,,,,,,888,-59,-40,1,0,1,response5disk,,2,6,4,1,0,1,rectangle,6,4,1,0,1,6,4,1,0,1,1,93,253,86,1,,,,,,,,
,,,,,,,,,,,,,FF,,,,,,,,0.65,,,,,,,,,,,,,,,,,,,,,,6103633108de7b1f37485955,61036d6636f49f6fa4568585,2021-07-29_23h16.03.011,Simcolourproject_2stim_asymm_v5,2020.2.10,MacIntel,60,61025ae37ef11b136ea224fe,,,,,,,,,2387,35,56,1,0,1,response1disk,,7,14,1,1,0,1,rectangle,14,1,1,0,1,14,1,1,0,1,1,94,254,85,1,,,,,,,,
,,,,,,,,,,,,,FF,,,,,,,,0.823,,,,,,,,,,,,,,,,,,,,,,6103633108de7b1f37485955,61036d6636f49f6fa4568585,2021-07-29_23h16.03.011,Simcolourproject_2stim_asymm_v5,2020.2.10,MacIntel,60,61025ae37ef11b136ea224fe,,,,,,,,,409,34,42,1,0,1,response1disk,,7,14,-7,1,0,1,rectangle,14,-7,1,0,1,14,-7,1,0,1,1,95,255,137,1,,,,,,,,
,,,,,,,,,,,,,FF,,,,,,,,1.493,,,,,,,,,,,,,,,,,,,,,,6103633108de7b1f37485955,61036d6636f49f6fa4568585,2021-07-29_23h16.03.011,Simcolourproject_2stim_asymm_v5,2020.2.10,MacIntel,60,61025ae37ef11b136ea224fe,,,,,,,,,1441,23,49,1,0,1,response1disk,,7,8,11,1,0,1,rectangle,8,11,1,0,1,8,11,1,0,1,1,96,256,129,1,,,,,,,,
,,,,,,,,,,,,,FF,,,,,,,,0.91,,,,,,,,,,,,,,,,,,,,,,6103633108de7b1f37485955,61036d6636f49f6fa4568585,2021-07-29_23h16.03.011,Simcolourproject_2stim_asymm_v5,2020.2.10,MacIntel,60,61025ae37ef11b136ea224fe,,,,,,,,,4080,70,25,1,0,1,response1disk,,6,26,-5,1,0,1,rectangle,26,-5,1,0,1,26,-5,1,0,1,1,97,257,49,1,,,,,,,,
,,,,,,,,,,,,,FF,,,,,,,,0.58,,,,,,,,,,,,,,,,,,,,,,6103633108de7b1f37485955,61036d6636f49f6fa4568585,2021-07-29_23h16.03.011,Simcolourproject_2stim_asymm_v5,2020.2.10,MacIntel,60,61025ae37ef11b136ea224fe,,,,,,,,,3841,39,71,1,0,1,response1disk,,7,10,9,1,0,1,rectangle,10,9,1,0,1,10,9,1,0,1,1,98,258,92,1,,,,,,,,
,,,,,,,,,,,,,FF,,,,,,,,0.777,,,,,,,,,,,,,,,,,,,,,,6103633108de7b1f37485955,61036d6636f49f6fa4568585,2021-07-29_23h16.03.011,Simcolourproject_2stim_asymm_v5,2020.2.10,MacIntel,60,61025ae37ef11b136ea224fe,,,,,,,,,3377,29,50,1,0,1,response1disk,,7,7,-5,1,0,1,rectangle,7,-5,1,0,1,7,-5,1,0,1,1,99,259,45,1,,,,,,,,
,,,,,,,,,,,,,FF,,,,,,,,0.736,,,,,,,,,,,,,,,,,,,,,,6103633108de7b1f37485955,61036d6636f49f6fa4568585,2021-07-29_23h16.03.011,Simcolourproject_2stim_asymm_v5,2020.2.10,MacIntel,60,61025ae37ef11b136ea224fe,,,,,,,,,1577,29,52,1,0,1,response1disk,,7,13,8,1,0,1,rectangle,-19,105,1,0,1,-2,-7,1,0,1,1,100,260,47,1,,response7disk_3,TRUE,0,0,"[276,292,196,242,27,106,267,57,36,59,167,112,57,24,152,261,98,94,237,302]",1.825,rectangle
,,,,,,,,,,,,,FF,,,,,,,,0.601,,,,,,,,,,,,,,,,,,,,,,6103633108de7b1f37485955,61036d6636f49f6fa4568585,2021-07-29_23h16.03.011,Simcolourproject_2stim_asymm_v5,2020.2.10,MacIntel,60,61025ae37ef11b136ea224fe,,,,,,,,,3407,23,43,1,0,1,response1disk,,7,13,1,1,0,1,rectangle,13,1,1,0,1,13,1,1,0,1,1,101,261,60,1,,,,,,,,
,,,,,,,,,,,,,FF,,,,,,,,0.645,,,,,,,,,,,,,,,,,,,,,,6103633108de7b1f37485955,61036d6636f49f6fa4568585,2021-07-29_23h16.03.011,Simcolourproject_2stim_asymm_v5,2020.2.10,MacIntel,60,61025ae37ef11b136ea224fe,,,,,,,,,414,28,44,1,0,1,response1disk,,7,9,-6,1,0,1,rectangle,9,-6,1,0,1,9,-6,1,0,1,1,102,262,106,1,,,,,,,,
,,,,,,,,,,,,,FF,,,,,,,,0.844,,,,,,,,,,,,,,,,,,,,,,6103633108de7b1f37485955,61036d6636f49f6fa4568585,2021-07-29_23h16.03.011,Simcolourproject_2stim_asymm_v5,2020.2.10,MacIntel,60,61025ae37ef11b136ea224fe,,,,,,,,,511,48,30,1,0,1,response1disk,,6,25,8,1,0,1,rectangle,25,8,1,0,1,25,8,1,0,1,1,103,263,66,1,,,,,,,,
,,,,,,,,,,,,,FF,,,,,,,,0.595,,,,,,,,,,,,,,,,,,,,,,6103633108de7b1f37485955,61036d6636f49f6fa4568585,2021-07-29_23h16.03.011,Simcolourproject_2stim_asymm_v5,2020.2.10,MacIntel,60,61025ae37ef11b136ea224fe,,,,,,,,,1578,32,41,1,0,1,response1disk,,7,18,15,1,0,1,rectangle,18,15,1,0,1,18,15,1,0,1,1,104,264,11,1,,,,,,,,
,,,,,,,,,,,,,FF,,,,,,,,0.755,,,,,,,,,,,,,,,,,,,,,,6103633108de7b1f37485955,61036d6636f49f6fa4568585,2021-07-29_23h16.03.011,Simcolourproject_2stim_asymm_v5,2020.2.10,MacIntel,60,61025ae37ef11b136ea224fe,,,,,,,,,122,28,40,1,0,1,response1disk,,7,13,-11,1,0,1,rectangle,13,-11,1,0,1,13,-11,1,0,1,1,105,265,142,1,,,,,,,,
,,,,,,,,,,,,,FF,,,,,,,,0.675,,,,,,,,,,,,,,,,,,,,,,6103633108de7b1f37485955,61036d6636f49f6fa4568585,2021-07-29_23h16.03.011,Simcolourproject_2stim_asymm_v5,2020.2.10,MacIntel,60,61025ae37ef11b136ea224fe,,,,,,,,,3987,32,39,1,0,1,response1disk,,7,11,-1,1,0,1,rectangle,-31,-91,1,0,1,3,-2,1,0,1,1,106,266,159,1,,response5disk_3,TRUE,3,3,"[276,292,196,242,27,106,267,57,36,59,167,112,57,24,152,261,98,94,237,302]",2.381,rectangle
,,,,,,,,,,,,,FF,,,,,,,,1.006,,,,,,,,,,,,,,,,,,,,,,6103633108de7b1f37485955,61036d6636f49f6fa4568585,2021-07-29_23h16.03.011,Simcolourproject_2stim_asymm_v5,2020.2.10,MacIntel,60,61025ae37ef11b136ea224fe,,,,,,,,,3781,-46,-35,1,0,1,response5disk,,2,2,4,1,0,1,rectangle,2,4,1,0,1,2,4,1,0,1,1,107,267,78,1,,,,,,,,
,,,,,,,,,,,,,FF,,,,,,,,1.358,,,,,,,,,,,,,,,,,,,,,,6103633108de7b1f37485955,61036d6636f49f6fa4568585,2021-07-29_23h16.03.011,Simcolourproject_2stim_asymm_v5,2020.2.10,MacIntel,60,61025ae37ef11b136ea224fe,,,,,,,,,1767,46,-47,1,0,1,response3disk,,4,20,-13,1,0,1,rectangle,20,-13,1,0,1,20,-13,1,0,1,1,108,268,34,1,,,,,,,,
,,,,,,,,,,,,,FF,,,,,,,,1.268,,,,,,,,,,,,,,,,,,,,,,6103633108de7b1f37485955,61036d6636f49f6fa4568585,2021-07-29_23h16.03.011,Simcolourproject_2stim_asymm_v5,2020.2.10,MacIntel,60,61025ae37ef11b136ea224fe,,,,,,,,,3964,34,71,1,0,1,response1disk,,7,12,-6,1,0,1,rectangle,12,-6,1,0,1,12,-6,1,0,1,1,109,269,33,1,,,,,,,,
,,,,,,,,,,,,,FF,,,,,,,,1.403,,,,,,,,,,,,,,,,,,,,,,6103633108de7b1f37485955,61036d6636f49f6fa4568585,2021-07-29_23h16.03.011,Simcolourproject_2stim_asymm_v5,2020.2.10,MacIntel,60,61025ae37ef11b136ea224fe,,,,,,,,,3633,72,-47,1,0,1,response3disk,,5,22,-8,1,0,1,rectangle,22,-8,1,0,1,22,-8,1,0,1,1,110,270,128,1,,,,,,,,
,,,,,,,,,,,,,FF,,,,,,,,1.98,,,,,,,,,,,,,,,,,,,,,,6103633108de7b1f37485955,61036d6636f49f6fa4568585,2021-07-29_23h16.03.011,Simcolourproject_2stim_asymm_v5,2020.2.10,MacIntel,60,61025ae37ef11b136ea224fe,,,,,,,,,4252,-64,-36,1,0,1,response5disk,,2,-9,-11,1,0,1,rectangle,-9,-11,1,0,1,-9,-11,1,0,1,1,111,271,151,1,,,,,,,,
,,,,,,,,,,,,,FF,,,,,,,,1.002,,,,,,,,,,,,,,,,,,,,,,6103633108de7b1f37485955,61036d6636f49f6fa4568585,2021-07-29_23h16.03.011,Simcolourproject_2stim_asymm_v5,2020.2.10,MacIntel,60,61025ae37ef11b136ea224fe,,,,,,,,,2374,19,40,1,0,1,response1disk,,7,7,-1,1,0,1,rectangle,7,-1,1,0,1,7,-1,1,0,1,1,112,272,13,1,,,,,,,,
,,,,,,,,,,,,,FF,,,,,,,,0.862,,,,,,,,,,,,,,,,,,,,,,6103633108de7b1f37485955,61036d6636f49f6fa4568585,2021-07-29_23h16.03.011,Simcolourproject_2stim_asymm_v5,2020.2.10,MacIntel,60,61025ae37ef11b136ea224fe,,,,,,,,,3704,22,34,1,0,1,response1disk,,7,5,-18,1,0,1,rectangle,5,-18,1,0,1,5,-18,1,0,1,1,113,273,30,1,,,,,,,,
,,,,,,,,,,,,,FF,,,,,,,,0.711,,,,,,,,,,,,,,,,,,,,,,6103633108de7b1f37485955,61036d6636f49f6fa4568585,2021-07-29_23h16.03.011,Simcolourproject_2stim_asymm_v5,2020.2.10,MacIntel,60,61025ae37ef11b136ea224fe,,,,,,,,,838,24,42,1,0,1,response1disk,,7,8,-9,1,0,1,rectangle,8,-9,1,0,1,8,-9,1,0,1,1,114,274,158,1,,,,,,,,
,,,,,,,,,,,,,FF,,,,,,,,1.482,,,,,,,,,,,,,,,,,,,,,,6103633108de7b1f37485955,61036d6636f49f6fa4568585,2021-07-29_23h16.03.011,Simcolourproject_2stim_asymm_v5,2020.2.10,MacIntel,60,61025ae37ef11b136ea224fe,,,,,,,,,3386,30,-61,1,0,1,response3disk,,4,14,-5,1,0,1,rectangle,-57,18,1,0,1,-24,-5,1,0,1,1,115,275,50,1,,response7disk_3,TRUE,1,1,"[276,292,196,242,27,106,267,57,36,59,167,112,57,24,152,261,98,94,237,302]",1.67,rectangle
,,,,,,,,,,,,,FF,,,,,,,,1.913,,,,,,,,,,,,,,,,,,,,,,6103633108de7b1f37485955,61036d6636f49f6fa4568585,2021-07-29_23h16.03.011,Simcolourproject_2stim_asymm_v5,2020.2.10,MacIntel,60,61025ae37ef11b136ea224fe,,,,,,,,,1443,46,63,1,0,1,response1disk,,7,18,9,1,0,1,rectangle,18,9,1,0,1,18,9,1,0,1,1,116,276,112,1,,,,,,,,
,,,,,,,,,,,,,FF,,,,,,,,1.133,,,,,,,,,,,,,,,,,,,,,,6103633108de7b1f37485955,61036d6636f49f6fa4568585,2021-07-29_23h16.03.011,Simcolourproject_2stim_asymm_v5,2020.2.10,MacIntel,60,61025ae37ef11b136ea224fe,,,,,,,,,76,-31,-90,1,0,1,response5disk,,3,-1,3,1,0,1,rectangle,-1,3,1,0,1,-1,3,1,0,1,1,117,277,7,1,,,,,,,,
,,,,,,,,,,,,,FF,,,,,,,,0.692,,,,,,,,,,,,,,,,,,,,,,6103633108de7b1f37485955,61036d6636f49f6fa4568585,2021-07-29_23h16.03.011,Simcolourproject_2stim_asymm_v5,2020.2.10,MacIntel,60,61025ae37ef11b136ea224fe,,,,,,,,,3451,27,74,1,0,1,response1disk,,7,2,8,1,0,1,rectangle,2,8,1,0,1,2,8,1,0,1,1,118,278,139,1,,,,,,,,
,,,,,,,,,,,,,FF,,,,,,,,0.734,,,,,,,,,,,,,,,,,,,,,,6103633108de7b1f37485955,61036d6636f49f6fa4568585,2021-07-29_23h16.03.011,Simcolourproject_2stim_asymm_v5,2020.2.10,MacIntel,60,61025ae37ef11b136ea224fe,,,,,,,,,3738,18,39,1,0,1,response1disk,,7,1,-10,1,0,1,rectangle,1,-10,1,0,1,1,-10,1,0,1,1,119,279,146,1,,,,,,,,
,,,,,,,,,,,,,FF,,,,,,,,0.868,,,,,,,,,,,,,,,,,,,,,,6103633108de7b1f37485955,61036d6636f49f6fa4568585,2021-07-29_23h16.03.011,Simcolourproject_2stim_asymm_v5,2020.2.10,MacIntel,60,61025ae37ef11b136ea224fe,,,,,,,,,3822,26,35,1,0,1,response1disk,,7,12,-7,1,0,1,rectangle,12,-7,1,0,1,12,-7,1,0,1,1,120,280,116,1,,,,,,,,
,,,,,,,,,,,,,FF,,,,,,,,0.811,,,,,,,,,,,,,,,,,,,,,,6103633108de7b1f37485955,61036d6636f49f6fa4568585,2021-07-29_23h16.03.011,Simcolourproject_2stim_asymm_v5,2020.2.10,MacIntel,60,61025ae37ef11b136ea224fe,,,,,,,,,3213,33,65,1,0,1,response1disk,,7,14,5,1,0,1,rectangle,14,5,1,0,1,14,5,1,0,1,1,121,281,135,1,,,,,,,,
,,,,,,,,,,,,,FF,,,,,,,,0.74,,,,,,,,,,,,,,,,,,,,,,6103633108de7b1f37485955,61036d6636f49f6fa4568585,2021-07-29_23h16.03.011,Simcolourproject_2stim_asymm_v5,2020.2.10,MacIntel,60,61025ae37ef11b136ea224fe,,,,,,,,,608,30,51,1,0,1,response1disk,,7,14,4,1,0,1,rectangle,14,4,1,0,1,14,4,1,0,1,1,122,282,96,1,,,,,,,,
,,,,,,,,,,,,,FF,,,,,,,,0.895,,,,,,,,,,,,,,,,,,,,,,6103633108de7b1f37485955,61036d6636f49f6fa4568585,2021-07-29_23h16.03.011,Simcolourproject_2stim_asymm_v5,2020.2.10,MacIntel,60,61025ae37ef11b136ea224fe,,,,,,,,,3472,-44,-67,1,0,1,response5disk,,3,-14,4,1,0,1,rectangle,-14,4,1,0,1,-14,4,1,0,1,1,123,283,100,1,,,,,,,,
,,,,,,,,,,,,,FF,,,,,,,,1.063,,,,,,,,,,,,,,,,,,,,,,6103633108de7b1f37485955,61036d6636f49f6fa4568585,2021-07-29_23h16.03.011,Simcolourproject_2stim_asymm_v5,2020.2.10,MacIntel,60,61025ae37ef11b136ea224fe,,,,,,,,,1661,31,52,1,0,1,response1disk,,7,16,9,1,0,1,rectangle,16,9,1,0,1,16,9,1,0,1,1,124,284,117,1,,,,,,,,
,,,,,,,,,,,,,FF,,,,,,,,0.89,,,,,,,,,,,,,,,,,,,,,,6103633108de7b1f37485955,61036d6636f49f6fa4568585,2021-07-29_23h16.03.011,Simcolourproject_2stim_asymm_v5,2020.2.10,MacIntel,60,61025ae37ef11b136ea224fe,,,,,,,,,2236,-56,-27,1,0,1,response5disk,,2,-5,10,1,0,1,rectangle,-5,10,1,0,1,-5,10,1,0,1,1,125,285,24,1,,,,,,,,
,,,,,,,,,,,,,FF,,,,,,,,0.616,,,,,,,,,,,,,,,,,,,,,,6103633108de7b1f37485955,61036d6636f49f6fa4568585,2021-07-29_23h16.03.011,Simcolourproject_2stim_asymm_v5,2020.2.10,MacIntel,60,61025ae37ef11b136ea224fe,,,,,,,,,234,37,52,1,0,1,response1disk,,7,13,-8,1,0,1,rectangle,13,-8,1,0,1,13,-8,1,0,1,1,126,286,82,1,,,,,,,,
,,,,,,,,,,,,,FF,,,,,,,,0.786,,,,,,,,,,,,,,,,,,,,,,6103633108de7b1f37485955,61036d6636f49f6fa4568585,2021-07-29_23h16.03.011,Simcolourproject_2stim_asymm_v5,2020.2.10,MacIntel,60,61025ae37ef11b136ea224fe,,,,,,,,,1896,-27,-44,1,0,1,response5disk,,3,-10,-5,1,0,1,rectangle,-10,-5,1,0,1,-10,-5,1,0,1,1,127,287,14,1,,,,,,,,
,,,,,,,,,,,,,FF,,,,,,,,0.6,,,,,,,,,,,,,,,,,,,,,,6103633108de7b1f37485955,61036d6636f49f6fa4568585,2021-07-29_23h16.03.011,Simcolourproject_2stim_asymm_v5,2020.2.10,MacIntel,60,61025ae37ef11b136ea224fe,,,,,,,,,2071,34,38,1,0,1,response1disk,,7,13,-1,1,0,1,rectangle,13,-1,1,0,1,13,-1,1,0,1,1,128,288,156,1,,,,,,,,
,,,,,,,,,,,,,FF,,,,,,,,1.07,,,,,,,,,,,,,,,,,,,,,,6103633108de7b1f37485955,61036d6636f49f6fa4568585,2021-07-29_23h16.03.011,Simcolourproject_2stim_asymm_v5,2020.2.10,MacIntel,60,61025ae37ef11b136ea224fe,,,,,,,,,3340,-32,-60,1,0,1,response5disk,,3,-12,-4,1,0,1,rectangle,-12,-4,1,0,1,-12,-4,1,0,1,1,129,289,91,1,,,,,,,,
,,,,,,,,,,,,,FF,,,,,,,,0.76,,,,,,,,,,,,,,,,,,,,,,6103633108de7b1f37485955,61036d6636f49f6fa4568585,2021-07-29_23h16.03.011,Simcolourproject_2stim_asymm_v5,2020.2.10,MacIntel,60,61025ae37ef11b136ea224fe,,,,,,,,,2214,28,47,1,0,1,response1disk,,7,16,16,1,0,1,rectangle,16,16,1,0,1,16,16,1,0,1,1,130,290,21,1,,,,,,,,
,,,,,,,,,,,,,FF,,,,,,,,0.816,,,,,,,,,,,,,,,,,,,,,,6103633108de7b1f37485955,61036d6636f49f6fa4568585,2021-07-29_23h16.03.011,Simcolourproject_2stim_asymm_v5,2020.2.10,MacIntel,60,61025ae37ef11b136ea224fe,,,,,,,,,2198,27,58,1,0,1,response1disk,,7,0,10,1,0,1,rectangle,21,54,1,0,1,8,11,1,0,1,1,131,291,95,1,,response1disk_3,TRUE,7,7,"[276,292,196,242,27,106,267,57,36,59,167,112,57,24,152,261,98,94,237,302]",1.981,rectangle
,,,,,,,,,,,,,FF,,,,,,,,0.771,,,,,,,,,,,,,,,,,,,,,,6103633108de7b1f37485955,61036d6636f49f6fa4568585,2021-07-29_23h16.03.011,Simcolourproject_2stim_asymm_v5,2020.2.10,MacIntel,60,61025ae37ef11b136ea224fe,,,,,,,,,2137,28,55,1,0,1,response1disk,,7,9,2,1,0,1,rectangle,9,2,1,0,1,9,2,1,0,1,1,132,292,144,1,,,,,,,,
,,,,,,,,,,,,,FF,,,,,,,,0.954,,,,,,,,,,,,,,,,,,,,,,6103633108de7b1f37485955,61036d6636f49f6fa4568585,2021-07-29_23h16.03.011,Simcolourproject_2stim_asymm_v5,2020.2.10,MacIntel,60,61025ae37ef11b136ea224fe,,,,,,,,,531,-27,-51,1,0,1,response5disk,,3,-11,-10,1,0,1,rectangle,-11,-10,1,0,1,-11,-10,1,0,1,1,133,293,58,1,,,,,,,,
,,,,,,,,,,,,,FF,,,,,,,,0.793,,,,,,,,,,,,,,,,,,,,,,6103633108de7b1f37485955,61036d6636f49f6fa4568585,2021-07-29_23h16.03.011,Simcolourproject_2stim_asymm_v5,2020.2.10,MacIntel,60,61025ae37ef11b136ea224fe,,,,,,,,,3513,-44,-60,1,0,1,response5disk,,3,-9,-6,1,0,1,rectangle,-9,-6,1,0,1,-9,-6,1,0,1,1,134,294,63,1,,,,,,,,
,,,,,,,,,,,,,FF,,,,,,,,1.522,,,,,,,,,,,,,,,,,,,,,,6103633108de7b1f37485955,61036d6636f49f6fa4568585,2021-07-29_23h16.03.011,Simcolourproject_2stim_asymm_v5,2020.2.10,MacIntel,60,61025ae37ef11b136ea224fe,,,,,,,,,4005,54,-30,1,0,1,response3disk,,5,5,-12,1,0,1,rectangle,5,-12,1,0,1,5,-12,1,0,1,1,135,295,103,1,,,,,,,,
,,,,,,,,,,,,,FF,,,,,,,,0.824,,,,,,,,,,,,,,,,,,,,,,6103633108de7b1f37485955,61036d6636f49f6fa4568585,2021-07-29_23h16.03.011,Simcolourproject_2stim_asymm_v5,2020.2.10,MacIntel,60,61025ae37ef11b136ea224fe,,,,,,,,,3764,23,63,1,0,1,response1disk,,7,8,7,1,0,1,rectangle,8,7,1,0,1,8,7,1,0,1,1,136,296,73,1,,,,,,,,
,,,,,,,,,,,,,FF,,,,,,,,0.918,,,,,,,,,,,,,,,,,,,,,,6103633108de7b1f37485955,61036d6636f49f6fa4568585,2021-07-29_23h16.03.011,Simcolourproject_2stim_asymm_v5,2020.2.10,MacIntel,60,61025ae37ef11b136ea224fe,,,,,,,,,2565,42,69,1,0,1,response1disk,,7,15,3,1,0,1,rectangle,15,3,1,0,1,15,3,1,0,1,1,137,297,8,1,,,,,,,,
,,,,,,,,,,,,,FF,,,,,,,,0.671,,,,,,,,,,,,,,,,,,,,,,6103633108de7b1f37485955,61036d6636f49f6fa4568585,2021-07-29_23h16.03.011,Simcolourproject_2stim_asymm_v5,2020.2.10,MacIntel,60,61025ae37ef11b136ea224fe,,,,,,,,,1431,35,58,1,0,1,response1disk,,7,10,-6,1,0,1,rectangle,10,-6,1,0,1,10,-6,1,0,1,1,138,298,107,1,,,,,,,,
,,,,,,,,,,,,,FF,,,,,,,,0.624,,,,,,,,,,,,,,,,,,,,,,6103633108de7b1f37485955,61036d6636f49f6fa4568585,2021-07-29_23h16.03.011,Simcolourproject_2stim_asymm_v5,2020.2.10,MacIntel,60,61025ae37ef11b136ea224fe,,,,,,,,,4198,29,56,1,0,1,response1disk,,7,10,9,1,0,1,rectangle,10,9,1,0,1,10,9,1,0,1,1,139,299,68,1,,,,,,,,
,,,,,,,,,,,,,FF,,,,,,,,0.603,,,,,,,,,,,,,,,,,,,,,,6103633108de7b1f37485955,61036d6636f49f6fa4568585,2021-07-29_23h16.03.011,Simcolourproject_2stim_asymm_v5,2020.2.10,MacIntel,60,61025ae37ef11b136ea224fe,,,,,,,,,473,23,57,1,0,1,response1disk,,7,6,9,1,0,1,rectangle,6,9,1,0,1,6,9,1,0,1,1,140,300,10,1,,,,,,,,
,,,,,,,,,,,,,FF,,,,,,,,0.536,,,,,,,,,,,,,,,,,,,,,,6103633108de7b1f37485955,61036d6636f49f6fa4568585,2021-07-29_23h16.03.011,Simcolourproject_2stim_asymm_v5,2020.2.10,MacIntel,60,61025ae37ef11b136ea224fe,,,,,,,,,1092,27,57,1,0,1,response1disk,,7,8,-6,1,0,1,rectangle,-25,55,1,0,1,-4,-1,1,0,1,1,141,301,28,1,,response7disk_3,TRUE,0,0,"[276,292,196,242,27,106,267,57,36,59,167,112,57,24,152,261,98,94,237,302]",1.901,rectangle
