key_resp.keys,key_resp.rt,key_resp_14.keys,key_resp_14.rt,key_resp_15.keys,key_resp_15.rt,key_resp_17.keys,key_resp_17.rt,key_resp_9.keys,key_resp_9.rt,key_resp_10.keys,key_resp_10.rt,practice_comparison,Ecc,mouse_5.x,mouse_5.y,mouse_5.leftButton,mouse_5.midButton,mouse_5.rightButton,mouse_5.clicked_name,pracsimilarity,response_time,mouse_10.x,mouse_10.y,mouse_10.leftButton,mouse_10.midButton,mouse_10.rightButton,mouse_10.clicked_name,mouse_7.x,mouse_7.y,mouse_7.leftButton,mouse_7.midButton,mouse_7.rightButton,mouse_6.x,mouse_6.y,mouse_6.leftButton,mouse_6.midButton,mouse_6.rightButton,duringprac.thisRepN,duringprac.thisTrialN,duringprac.thisN,duringprac.thisIndex,duringprac.ran,participant,session,date,expName,psychopyVersion,OS,frameRate,study_id,mouse_7.clicked_name,catchpracsimilarity,catch_response_time,catchnumberprac,catchtrialorderprac,mouse_6.clicked_name,key_resp_22.keys,key_resp_22.rt,realcomparison,mouse.x,mouse.y,mouse.leftButton,mouse.midButton,mouse.rightButton,mouse.clicked_name,Colour2,similarity,mouse_2.x,mouse_2.y,mouse_2.leftButton,mouse_2.midButton,mouse_2.rightButton,mouse_2.clicked_name,mouse_3.x,mouse_3.y,mouse_3.leftButton,mouse_3.midButton,mouse_3.rightButton,mouse_11.x,mouse_11.y,mouse_11.leftButton,mouse_11.midButton,mouse_11.rightButton,trials_2.thisRepN,trials_2.thisTrialN,trials_2.thisN,trials_2.thisIndex,trials_2.ran,Colour1,mouse_3.clicked_name,catchornah,catchsimilarity,catchnumber,catchtrialorder,catchRT,mouse_11.clicked_name
space,1.6083,space,10.2636,space,22.2494,space,3.2386,space,2.223,space,3.4171,42,PF,-31.4979248,60.00762939,1,0,0,response7disk_5,0,7.9731,-1.135192871,-4.145721436,1,0,0,rectangle_8,-1.135192871,-4.145721436,1,0,0,-1.135192871,-4.145721436,1,0,0,0,0,0,6,1,61036353cf559b0c0d3a025c,610367f7cfd6951386c96279,2021-07-29_22h46.57.033,Simcolourproject_2stim_asymm_v5,2020.2.10,MacIntel,60,61025ae37ef11b136ea224fe,,,,,,,,,,,,,,,,,,,,,,,,,,,,,,,,,,,,,,,,,,,,,,
,,,,,,,,,,,,155,PF,44.05664063,65.80023193,1,0,0,response1disk_5,7,2.1502,-0.557434082,-0.064697266,1,0,0,rectangle_8,99.38934326,47.37646484,1,0,0,3.677368164,-1.639953613,1,0,0,0,1,1,2,1,61036353cf559b0c0d3a025c,610367f7cfd6951386c96279,2021-07-29_22h46.57.033,Simcolourproject_2stim_asymm_v5,2020.2.10,MacIntel,60,61025ae37ef11b136ea224fe,response1disk_7,6,2.5674,6,"[2,5]",rectangle_4,,,,,,,,,,,,,,,,,,,,,,,,,,,,,,,,,,,,,,,,
,,,,,,,,,,,,4,PF,33.34490967,67.16253662,1,0,0,response1disk_5,7,3.1003,0.550109863,2.954956055,1,0,0,rectangle_8,0.550109863,2.954956055,1,0,0,0.550109863,2.954956055,1,0,0,0,2,2,4,1,61036353cf559b0c0d3a025c,610367f7cfd6951386c96279,2021-07-29_22h46.57.033,Simcolourproject_2stim_asymm_v5,2020.2.10,MacIntel,60,61025ae37ef11b136ea224fe,,,,,,,,,,,,,,,,,,,,,,,,,,,,,,,,,,,,,,,,,,,,,,
,,,,,,,,,,,,5,FF,33.20935059,67.50384521,1,0,0,response1disk_5,7,1.5335,-3.945678711,-0.190063477,1,0,0,rectangle_8,-3.945678711,-0.190063477,1,0,0,-3.945678711,-0.190063477,1,0,0,0,3,3,5,1,61036353cf559b0c0d3a025c,610367f7cfd6951386c96279,2021-07-29_22h46.57.033,Simcolourproject_2stim_asymm_v5,2020.2.10,MacIntel,60,61025ae37ef11b136ea224fe,,,,,,,,,,,,,,,,,,,,,,,,,,,,,,,,,,,,,,,,,,,,,,
,,,,,,,,,,,,86,FF,39.09619141,-63.92529297,1,0,0,response3disk_5,4,2.1828,2.54107666,-1.685180664,1,0,0,rectangle_8,91.99859619,37.33828735,1,0,0,0.125183105,3.338684082,1,0,0,0,4,4,0,1,61036353cf559b0c0d3a025c,610367f7cfd6951386c96279,2021-07-29_22h46.57.033,Simcolourproject_2stim_asymm_v5,2020.2.10,MacIntel,60,61025ae37ef11b136ea224fe,response1disk_7,6,2.0491,6,"[2,5]",rectangle_4,,,,,,,,,,,,,,,,,,,,,,,,,,,,,,,,,,,,,,,,
,,,,,,,,,,,,19,FF,47.27545166,78.83721924,1,0,0,response1disk_5,7,1.3504,-0.352478027,1.37322998,1,0,0,rectangle_8,-0.352478027,1.37322998,1,0,0,-0.352478027,1.37322998,1,0,0,0,5,5,3,1,61036353cf559b0c0d3a025c,610367f7cfd6951386c96279,2021-07-29_22h46.57.033,Simcolourproject_2stim_asymm_v5,2020.2.10,MacIntel,60,61025ae37ef11b136ea224fe,,,,,,,,,,,,,,,,,,,,,,,,,,,,,,,,,,,,,,,,,,,,,,
,,,,,,,,,,,,52,PF,89.23828125,-41.77365112,1,0,0,response3disk_5,5,2.2183,6.086853027,4.663970947,1,0,0,rectangle_8,6.086853027,4.663970947,1,0,0,6.086853027,4.663970947,1,0,0,0,6,6,1,1,61036353cf559b0c0d3a025c,610367f7cfd6951386c96279,2021-07-29_22h46.57.033,Simcolourproject_2stim_asymm_v5,2020.2.10,MacIntel,60,61025ae37ef11b136ea224fe,,,,,,,,,,,,,,,,,,,,,,,,,,,,,,,,,,,,,,,,,,,,,,
,,,,,,,,,,,,,FF,,,,,,,,1.8999,,,,,,,,,,,,,,,,,,,,,,61036353cf559b0c0d3a025c,610367f7cfd6951386c96279,2021-07-29_22h46.57.033,Simcolourproject_2stim_asymm_v5,2020.2.10,MacIntel,60,61025ae37ef11b136ea224fe,,,,,,,space,5.2308,1205,36.1418457,76.5826416,1,0,0,response1disk,,7,-3.268310547,-2.35168457,1,0,0,rectangle,-3.268310547,-2.35168457,1,0,0,-3.268310547,-2.35168457,1,0,0,0,0,0,86,1,,,,,,,,
,,,,,,,,,,,,,FF,,,,,,,,1.5506,,,,,,,,,,,,,,,,,,,,,,61036353cf559b0c0d3a025c,610367f7cfd6951386c96279,2021-07-29_22h46.57.033,Simcolourproject_2stim_asymm_v5,2020.2.10,MacIntel,60,61025ae37ef11b136ea224fe,,,,,,,,,2064,48.70935059,94.05917358,1,0,0,response1disk,,7,-4.556213379,-3.055664063,1,0,0,rectangle,-4.556213379,-3.055664063,1,0,0,-4.556213379,-3.055664063,1,0,0,0,1,1,147,1,,,,,,,,
,,,,,,,,,,,,,FF,,,,,,,,2.4494,,,,,,,,,,,,,,,,,,,,,,61036353cf559b0c0d3a025c,610367f7cfd6951386c96279,2021-07-29_22h46.57.033,Simcolourproject_2stim_asymm_v5,2020.2.10,MacIntel,60,61025ae37ef11b136ea224fe,,,,,,,,,945,46.00402832,80.38418579,1,0,0,response1disk,,7,-0.468261719,-0.094818115,1,0,0,rectangle,-0.468261719,-0.094818115,1,0,0,-0.468261719,-0.094818115,1,0,0,0,2,2,119,1,,,,,,,,
,,,,,,,,,,,,,FF,,,,,,,,3.1004,,,,,,,,,,,,,,,,,,,,,,61036353cf559b0c0d3a025c,610367f7cfd6951386c96279,2021-07-29_22h46.57.033,Simcolourproject_2stim_asymm_v5,2020.2.10,MacIntel,60,61025ae37ef11b136ea224fe,,,,,,,,,2164,39.78039551,-94.24822998,1,0,0,response3disk,,4,-1.484802246,4.268005371,1,0,0,rectangle,-1.484802246,4.268005371,1,0,0,-1.484802246,4.268005371,1,0,0,0,3,3,8,1,,,,,,,,
,,,,,,,,,,,,,FF,,,,,,,,1.2674,,,,,,,,,,,,,,,,,,,,,,61036353cf559b0c0d3a025c,610367f7cfd6951386c96279,2021-07-29_22h46.57.033,Simcolourproject_2stim_asymm_v5,2020.2.10,MacIntel,60,61025ae37ef11b136ea224fe,,,,,,,,,3415,46.63214111,82.99182129,1,0,0,response1disk,,7,-0.501037598,-2.931152344,1,0,0,rectangle,-0.501037598,-2.931152344,1,0,0,-0.501037598,-2.931152344,1,0,0,0,4,4,9,1,,,,,,,,
,,,,,,,,,,,,,FF,,,,,,,,1.7002,,,,,,,,,,,,,,,,,,,,,,61036353cf559b0c0d3a025c,610367f7cfd6951386c96279,2021-07-29_22h46.57.033,Simcolourproject_2stim_asymm_v5,2020.2.10,MacIntel,60,61025ae37ef11b136ea224fe,,,,,,,,,2683,49.50952148,94.7477417,1,0,0,response1disk,,7,0.548034668,3.943115234,1,0,0,rectangle,0.548034668,3.943115234,1,0,0,0.548034668,3.943115234,1,0,0,0,5,5,43,1,,,,,,,,
,,,,,,,,,,,,,FF,,,,,,,,3.3327,,,,,,,,,,,,,,,,,,,,,,61036353cf559b0c0d3a025c,610367f7cfd6951386c96279,2021-07-29_22h46.57.033,Simcolourproject_2stim_asymm_v5,2020.2.10,MacIntel,60,61025ae37ef11b136ea224fe,,,,,,,,,3393,-46.22802734,-96.81536865,1,0,0,response5disk,,3,-2.665588379,1.616485596,1,0,0,rectangle,-2.665588379,1.616485596,1,0,0,-2.665588379,1.616485596,1,0,0,0,6,6,30,1,,,,,,,,
,,,,,,,,,,,,,FF,,,,,,,,1.8674,,,,,,,,,,,,,,,,,,,,,,61036353cf559b0c0d3a025c,610367f7cfd6951386c96279,2021-07-29_22h46.57.033,Simcolourproject_2stim_asymm_v5,2020.2.10,MacIntel,60,61025ae37ef11b136ea224fe,,,,,,,,,1037,52.7612915,90.19824219,1,0,0,response1disk,,7,-1.6640625,-2.053131104,1,0,0,rectangle,-1.6640625,-2.053131104,1,0,0,-1.6640625,-2.053131104,1,0,0,0,7,7,50,1,,,,,,,,
,,,,,,,,,,,,,FF,,,,,,,,1.7174,,,,,,,,,,,,,,,,,,,,,,61036353cf559b0c0d3a025c,610367f7cfd6951386c96279,2021-07-29_22h46.57.033,Simcolourproject_2stim_asymm_v5,2020.2.10,MacIntel,60,61025ae37ef11b136ea224fe,,,,,,,,,2545,50.76593018,87.78775024,1,0,0,response1disk,,7,0.131164551,1.16204834,1,0,0,rectangle,0.131164551,1.16204834,1,0,0,0.131164551,1.16204834,1,0,0,0,8,8,31,1,,,,,,,,
,,,,,,,,,,,,,FF,,,,,,,,1.1177,,,,,,,,,,,,,,,,,,,,,,61036353cf559b0c0d3a025c,610367f7cfd6951386c96279,2021-07-29_22h46.57.033,Simcolourproject_2stim_asymm_v5,2020.2.10,MacIntel,60,61025ae37ef11b136ea224fe,,,,,,,,,2154,46.23577881,89.66226196,1,0,0,response1disk,,7,-2.283569336,1.864257813,1,0,0,rectangle,-2.283569336,1.864257813,1,0,0,-2.283569336,1.864257813,1,0,0,0,9,9,76,1,,,,,,,,
,,,,,,,,,,,,,FF,,,,,,,,1.2499,,,,,,,,,,,,,,,,,,,,,,61036353cf559b0c0d3a025c,610367f7cfd6951386c96279,2021-07-29_22h46.57.033,Simcolourproject_2stim_asymm_v5,2020.2.10,MacIntel,60,61025ae37ef11b136ea224fe,,,,,,,,,2793,43.22808838,84.96478271,1,0,0,response1disk,,7,-3.374328613,0.095397949,1,0,0,rectangle,-3.374328613,0.095397949,1,0,0,-3.374328613,0.095397949,1,0,0,0,10,10,128,1,,,,,,,,
,,,,,,,,,,,,,FF,,,,,,,,0.9186,,,,,,,,,,,,,,,,,,,,,,61036353cf559b0c0d3a025c,610367f7cfd6951386c96279,2021-07-29_22h46.57.033,Simcolourproject_2stim_asymm_v5,2020.2.10,MacIntel,60,61025ae37ef11b136ea224fe,,,,,,,,,4259,44.46252441,86.46109009,1,0,0,response1disk,,7,7.005493164,8.942077637,1,0,0,rectangle,56.51965332,104.1156616,1,0,0,-0.823791504,-1.85055542,1,0,0,0,11,11,51,1,,response1disk_3,TRUE,7,7,"[19,209,265,293,157,12,233,77,228,140,194,19,200,237,111,269,134,16,241,195]",1.7161,rectangle
,,,,,,,,,,,,,FF,,,,,,,,0.7845,,,,,,,,,,,,,,,,,,,,,,61036353cf559b0c0d3a025c,610367f7cfd6951386c96279,2021-07-29_22h46.57.033,Simcolourproject_2stim_asymm_v5,2020.2.10,MacIntel,60,61025ae37ef11b136ea224fe,,,,,,,,,365,48.97045898,97.68026733,1,0,0,response1disk,,7,-5.068725586,-3.223968506,1,0,0,rectangle,-5.068725586,-3.223968506,1,0,0,-5.068725586,-3.223968506,1,0,0,0,12,12,65,1,,,,,,,,
,,,,,,,,,,,,,FF,,,,,,,,1.3841,,,,,,,,,,,,,,,,,,,,,,61036353cf559b0c0d3a025c,610367f7cfd6951386c96279,2021-07-29_22h46.57.033,Simcolourproject_2stim_asymm_v5,2020.2.10,MacIntel,60,61025ae37ef11b136ea224fe,,,,,,,,,431,41.69671631,79.21737671,1,0,0,response1disk,,7,4.749328613,8.878631592,1,0,0,rectangle,4.749328613,8.878631592,1,0,0,4.749328613,8.878631592,1,0,0,0,13,13,95,1,,,,,,,,
,,,,,,,,,,,,,FF,,,,,,,,0.8671,,,,,,,,,,,,,,,,,,,,,,61036353cf559b0c0d3a025c,610367f7cfd6951386c96279,2021-07-29_22h46.57.033,Simcolourproject_2stim_asymm_v5,2020.2.10,MacIntel,60,61025ae37ef11b136ea224fe,,,,,,,,,2082,58.40924072,88.7722168,1,0,0,response1disk,,7,2.759033203,-0.569671631,1,0,0,rectangle,2.759033203,-0.569671631,1,0,0,2.759033203,-0.569671631,1,0,0,0,14,14,122,1,,,,,,,,
,,,,,,,,,,,,,FF,,,,,,,,0.7677,,,,,,,,,,,,,,,,,,,,,,61036353cf559b0c0d3a025c,610367f7cfd6951386c96279,2021-07-29_22h46.57.033,Simcolourproject_2stim_asymm_v5,2020.2.10,MacIntel,60,61025ae37ef11b136ea224fe,,,,,,,,,2904,54.02001953,84.65792847,1,0,0,response1disk,,7,10.79925537,2.793701172,1,0,0,rectangle,-76.71936035,45.51654053,1,0,0,-1.635742188,5.576934814,1,0,0,0,15,15,142,1,,response7disk_3,TRUE,1,1,"[19,209,265,293,157,12,233,77,228,140,194,19,200,237,111,269,134,16,241,195]",1.7673,rectangle
,,,,,,,,,,,,,FF,,,,,,,,1.4672,,,,,,,,,,,,,,,,,,,,,,61036353cf559b0c0d3a025c,610367f7cfd6951386c96279,2021-07-29_22h46.57.033,Simcolourproject_2stim_asymm_v5,2020.2.10,MacIntel,60,61025ae37ef11b136ea224fe,,,,,,,,,1907,42.36676025,90.96044922,1,0,0,response1disk,,7,-0.839355469,-5.586669922,1,0,0,rectangle,-0.839355469,-5.586669922,1,0,0,-0.839355469,-5.586669922,1,0,0,0,16,16,92,1,,,,,,,,
,,,,,,,,,,,,,FF,,,,,,,,0.7851,,,,,,,,,,,,,,,,,,,,,,61036353cf559b0c0d3a025c,610367f7cfd6951386c96279,2021-07-29_22h46.57.033,Simcolourproject_2stim_asymm_v5,2020.2.10,MacIntel,60,61025ae37ef11b136ea224fe,,,,,,,,,1312,50.42053223,88.79898071,1,0,0,response1disk,,7,-4.087219238,-1.37286377,1,0,0,rectangle,-4.087219238,-1.37286377,1,0,0,-4.087219238,-1.37286377,1,0,0,0,17,17,96,1,,,,,,,,
,,,,,,,,,,,,,FF,,,,,,,,1.0163,,,,,,,,,,,,,,,,,,,,,,61036353cf559b0c0d3a025c,610367f7cfd6951386c96279,2021-07-29_22h46.57.033,Simcolourproject_2stim_asymm_v5,2020.2.10,MacIntel,60,61025ae37ef11b136ea224fe,,,,,,,,,2180,47.61016846,90.70275879,1,0,0,response1disk,,7,-0.198730469,2.820617676,1,0,0,rectangle,-37.75708008,81.7822876,1,0,0,-7.749938965,1.022277832,1,0,0,0,18,18,39,1,,response7disk_3,TRUE,0,0,"[19,209,265,293,157,12,233,77,228,140,194,19,200,237,111,269,134,16,241,195]",1.9174,rectangle
,,,,,,,,,,,,,FF,,,,,,,,2.0166,,,,,,,,,,,,,,,,,,,,,,61036353cf559b0c0d3a025c,610367f7cfd6951386c96279,2021-07-29_22h46.57.033,Simcolourproject_2stim_asymm_v5,2020.2.10,MacIntel,60,61025ae37ef11b136ea224fe,,,,,,,,,3309,51.99377441,96.3480835,1,0,0,response1disk,,7,-0.810668945,1.466674805,1,0,0,rectangle,-0.810668945,1.466674805,1,0,0,-0.810668945,1.466674805,1,0,0,0,19,19,117,1,,,,,,,,
,,,,,,,,,,,,,FF,,,,,,,,1.0182,,,,,,,,,,,,,,,,,,,,,,61036353cf559b0c0d3a025c,610367f7cfd6951386c96279,2021-07-29_22h46.57.033,Simcolourproject_2stim_asymm_v5,2020.2.10,MacIntel,60,61025ae37ef11b136ea224fe,,,,,,,,,1552,54.50085449,94.09429932,1,0,0,response1disk,,7,3.640014648,-3.05847168,1,0,0,rectangle,3.640014648,-3.05847168,1,0,0,3.640014648,-3.05847168,1,0,0,0,20,20,15,1,,,,,,,,
,,,,,,,,,,,,,FF,,,,,,,,0.932,,,,,,,,,,,,,,,,,,,,,,61036353cf559b0c0d3a025c,610367f7cfd6951386c96279,2021-07-29_22h46.57.033,Simcolourproject_2stim_asymm_v5,2020.2.10,MacIntel,60,61025ae37ef11b136ea224fe,,,,,,,,,4043,53.79901123,84.07403564,1,0,0,response1disk,,7,-0.814575195,-1.09942627,1,0,0,rectangle,-0.814575195,-1.09942627,1,0,0,-0.814575195,-1.09942627,1,0,0,0,21,21,85,1,,,,,,,,
,,,,,,,,,,,,,FF,,,,,,,,0.8011,,,,,,,,,,,,,,,,,,,,,,61036353cf559b0c0d3a025c,610367f7cfd6951386c96279,2021-07-29_22h46.57.033,Simcolourproject_2stim_asymm_v5,2020.2.10,MacIntel,60,61025ae37ef11b136ea224fe,,,,,,,,,3826,55.59375,99.48565674,1,0,0,response1disk,,7,2.345581055,9.830535889,1,0,0,rectangle,2.345581055,9.830535889,1,0,0,2.345581055,9.830535889,1,0,0,0,22,22,126,1,,,,,,,,
,,,,,,,,,,,,,FF,,,,,,,,1.016,,,,,,,,,,,,,,,,,,,,,,61036353cf559b0c0d3a025c,610367f7cfd6951386c96279,2021-07-29_22h46.57.033,Simcolourproject_2stim_asymm_v5,2020.2.10,MacIntel,60,61025ae37ef11b136ea224fe,,,,,,,,,166,51.24108887,95.59191895,1,0,0,response1disk,,7,5.142028809,9.040283203,1,0,0,rectangle,5.142028809,9.040283203,1,0,0,5.142028809,9.040283203,1,0,0,0,23,23,27,1,,,,,,,,
,,,,,,,,,,,,,FF,,,,,,,,0.7186,,,,,,,,,,,,,,,,,,,,,,61036353cf559b0c0d3a025c,610367f7cfd6951386c96279,2021-07-29_22h46.57.033,Simcolourproject_2stim_asymm_v5,2020.2.10,MacIntel,60,61025ae37ef11b136ea224fe,,,,,,,,,1730,52.76879883,85.01330566,1,0,0,response1disk,,7,-2.813293457,2.682434082,1,0,0,rectangle,-2.813293457,2.682434082,1,0,0,-2.813293457,2.682434082,1,0,0,0,24,24,139,1,,,,,,,,
,,,,,,,,,,,,,FF,,,,,,,,1.2837,,,,,,,,,,,,,,,,,,,,,,61036353cf559b0c0d3a025c,610367f7cfd6951386c96279,2021-07-29_22h46.57.033,Simcolourproject_2stim_asymm_v5,2020.2.10,MacIntel,60,61025ae37ef11b136ea224fe,,,,,,,,,3921,54.20019531,84.42553711,1,0,0,response1disk,,7,-2.16595459,4.21661377,1,0,0,rectangle,-2.16595459,4.21661377,1,0,0,-2.16595459,4.21661377,1,0,0,0,25,25,64,1,,,,,,,,
,,,,,,,,,,,,,FF,,,,,,,,0.835,,,,,,,,,,,,,,,,,,,,,,61036353cf559b0c0d3a025c,610367f7cfd6951386c96279,2021-07-29_22h46.57.033,Simcolourproject_2stim_asymm_v5,2020.2.10,MacIntel,60,61025ae37ef11b136ea224fe,,,,,,,,,2070,57.67211914,87.74887085,1,0,0,response1disk,,7,-4.381896973,2.073913574,1,0,0,rectangle,-4.381896973,2.073913574,1,0,0,-4.381896973,2.073913574,1,0,0,0,26,26,59,1,,,,,,,,
,,,,,,,,,,,,,FF,,,,,,,,2.5501,,,,,,,,,,,,,,,,,,,,,,61036353cf559b0c0d3a025c,610367f7cfd6951386c96279,2021-07-29_22h46.57.033,Simcolourproject_2stim_asymm_v5,2020.2.10,MacIntel,60,61025ae37ef11b136ea224fe,,,,,,,,,3138,97.21759033,-39.9147644,1,0,0,response3disk,,5,0.721618652,3.841522217,1,0,0,rectangle,0.721618652,3.841522217,1,0,0,0.721618652,3.841522217,1,0,0,0,27,27,125,1,,,,,,,,
,,,,,,,,,,,,,FF,,,,,,,,1.7165,,,,,,,,,,,,,,,,,,,,,,61036353cf559b0c0d3a025c,610367f7cfd6951386c96279,2021-07-29_22h46.57.033,Simcolourproject_2stim_asymm_v5,2020.2.10,MacIntel,60,61025ae37ef11b136ea224fe,,,,,,,,,612,79.60321045,-49.64660645,1,0,0,response3disk,,5,6.844482422,-0.633911133,1,0,0,rectangle,6.844482422,-0.633911133,1,0,0,6.844482422,-0.633911133,1,0,0,0,28,28,83,1,,,,,,,,
,,,,,,,,,,,,,FF,,,,,,,,1.1007,,,,,,,,,,,,,,,,,,,,,,61036353cf559b0c0d3a025c,610367f7cfd6951386c96279,2021-07-29_22h46.57.033,Simcolourproject_2stim_asymm_v5,2020.2.10,MacIntel,60,61025ae37ef11b136ea224fe,,,,,,,,,274,62.4553833,96.99304199,1,0,0,response1disk,,7,4.774291992,-12.21124268,1,0,0,rectangle,4.774291992,-12.21124268,1,0,0,4.774291992,-12.21124268,1,0,0,0,29,29,137,1,,,,,,,,
,,,,,,,,,,,,,FF,,,,,,,,0.7336,,,,,,,,,,,,,,,,,,,,,,61036353cf559b0c0d3a025c,610367f7cfd6951386c96279,2021-07-29_22h46.57.033,Simcolourproject_2stim_asymm_v5,2020.2.10,MacIntel,60,61025ae37ef11b136ea224fe,,,,,,,,,2806,67.00445557,94.34686279,1,0,0,response1disk,,7,-6.076171875,-2.703521729,1,0,0,rectangle,-6.076171875,-2.703521729,1,0,0,-6.076171875,-2.703521729,1,0,0,0,30,30,127,1,,,,,,,,
,,,,,,,,,,,,,FF,,,,,,,,0.7335,,,,,,,,,,,,,,,,,,,,,,61036353cf559b0c0d3a025c,610367f7cfd6951386c96279,2021-07-29_22h46.57.033,Simcolourproject_2stim_asymm_v5,2020.2.10,MacIntel,60,61025ae37ef11b136ea224fe,,,,,,,,,2502,56.98449707,91.09838867,1,0,0,response1disk,,7,3.521484375,1.602905273,1,0,0,rectangle,3.521484375,1.602905273,1,0,0,3.521484375,1.602905273,1,0,0,0,31,31,77,1,,,,,,,,
,,,,,,,,,,,,,FF,,,,,,,,0.7172,,,,,,,,,,,,,,,,,,,,,,61036353cf559b0c0d3a025c,610367f7cfd6951386c96279,2021-07-29_22h46.57.033,Simcolourproject_2stim_asymm_v5,2020.2.10,MacIntel,60,61025ae37ef11b136ea224fe,,,,,,,,,239,71.2855835,101.1117554,1,0,0,response1disk,,7,-3.807189941,2.108673096,1,0,0,rectangle,-3.807189941,2.108673096,1,0,0,-3.807189941,2.108673096,1,0,0,0,32,32,37,1,,,,,,,,
,,,,,,,,,,,,,FF,,,,,,,,2.1004,,,,,,,,,,,,,,,,,,,,,,61036353cf559b0c0d3a025c,610367f7cfd6951386c96279,2021-07-29_22h46.57.033,Simcolourproject_2stim_asymm_v5,2020.2.10,MacIntel,60,61025ae37ef11b136ea224fe,,,,,,,,,3431,48.18811035,-90.40789795,1,0,0,response3disk,,4,-0.508178711,-3.50201416,1,0,0,rectangle,-0.508178711,-3.50201416,1,0,0,-0.508178711,-3.50201416,1,0,0,0,33,33,69,1,,,,,,,,
,,,,,,,,,,,,,FF,,,,,,,,0.8,,,,,,,,,,,,,,,,,,,,,,61036353cf559b0c0d3a025c,610367f7cfd6951386c96279,2021-07-29_22h46.57.033,Simcolourproject_2stim_asymm_v5,2020.2.10,MacIntel,60,61025ae37ef11b136ea224fe,,,,,,,,,23,32.33642578,76.1739502,1,0,0,response1disk,,7,-5.779174805,-5.643127441,1,0,0,rectangle,-5.779174805,-5.643127441,1,0,0,-5.779174805,-5.643127441,1,0,0,0,34,34,53,1,,,,,,,,
,,,,,,,,,,,,,FF,,,,,,,,0.7169,,,,,,,,,,,,,,,,,,,,,,61036353cf559b0c0d3a025c,610367f7cfd6951386c96279,2021-07-29_22h46.57.033,Simcolourproject_2stim_asymm_v5,2020.2.10,MacIntel,60,61025ae37ef11b136ea224fe,,,,,,,,,3369,55.91845703,94.9303894,1,0,0,response1disk,,7,-0.541992188,6.679016113,1,0,0,rectangle,-0.541992188,6.679016113,1,0,0,-0.541992188,6.679016113,1,0,0,0,35,35,67,1,,,,,,,,
,,,,,,,,,,,,,FF,,,,,,,,0.7167,,,,,,,,,,,,,,,,,,,,,,61036353cf559b0c0d3a025c,610367f7cfd6951386c96279,2021-07-29_22h46.57.033,Simcolourproject_2stim_asymm_v5,2020.2.10,MacIntel,60,61025ae37ef11b136ea224fe,,,,,,,,,3128,42.94995117,80.57476807,1,0,0,response1disk,,7,3.164611816,-3.821960449,1,0,0,rectangle,3.164611816,-3.821960449,1,0,0,3.164611816,-3.821960449,1,0,0,0,36,36,68,1,,,,,,,,
,,,,,,,,,,,,,FF,,,,,,,,0.5998,,,,,,,,,,,,,,,,,,,,,,61036353cf559b0c0d3a025c,610367f7cfd6951386c96279,2021-07-29_22h46.57.033,Simcolourproject_2stim_asymm_v5,2020.2.10,MacIntel,60,61025ae37ef11b136ea224fe,,,,,,,,,2694,40.9989624,85.6824646,1,0,0,response1disk,,7,3.187316895,9.575012207,1,0,0,rectangle,3.187316895,9.575012207,1,0,0,3.187316895,9.575012207,1,0,0,0,37,37,105,1,,,,,,,,
,,,,,,,,,,,,,FF,,,,,,,,0.5501,,,,,,,,,,,,,,,,,,,,,,61036353cf559b0c0d3a025c,610367f7cfd6951386c96279,2021-07-29_22h46.57.033,Simcolourproject_2stim_asymm_v5,2020.2.10,MacIntel,60,61025ae37ef11b136ea224fe,,,,,,,,,2214,41.06939697,81.86022949,1,0,0,response1disk,,7,0.404907227,-2.987060547,1,0,0,rectangle,0.404907227,-2.987060547,1,0,0,0.404907227,-2.987060547,1,0,0,0,38,38,42,1,,,,,,,,
,,,,,,,,,,,,,FF,,,,,,,,0.5837,,,,,,,,,,,,,,,,,,,,,,61036353cf559b0c0d3a025c,610367f7cfd6951386c96279,2021-07-29_22h46.57.033,Simcolourproject_2stim_asymm_v5,2020.2.10,MacIntel,60,61025ae37ef11b136ea224fe,,,,,,,,,2586,57.40344238,91.1072998,1,0,0,response1disk,,7,3.430664063,5.859680176,1,0,0,rectangle,3.430664063,5.859680176,1,0,0,3.430664063,5.859680176,1,0,0,0,39,39,151,1,,,,,,,,
,,,,,,,,,,,,,FF,,,,,,,,0.652,,,,,,,,,,,,,,,,,,,,,,61036353cf559b0c0d3a025c,610367f7cfd6951386c96279,2021-07-29_22h46.57.033,Simcolourproject_2stim_asymm_v5,2020.2.10,MacIntel,60,61025ae37ef11b136ea224fe,,,,,,,,,4310,43.18188477,81.68392944,1,0,0,response1disk,,7,-8.400756836,-1.068237305,1,0,0,rectangle,-8.400756836,-1.068237305,1,0,0,-8.400756836,-1.068237305,1,0,0,0,40,40,157,1,,,,,,,,
,,,,,,,,,,,,,FF,,,,,,,,0.5668,,,,,,,,,,,,,,,,,,,,,,61036353cf559b0c0d3a025c,610367f7cfd6951386c96279,2021-07-29_22h46.57.033,Simcolourproject_2stim_asymm_v5,2020.2.10,MacIntel,60,61025ae37ef11b136ea224fe,,,,,,,,,3169,59.98425293,89.34835815,1,0,0,response1disk,,7,0.975402832,1.791717529,1,0,0,rectangle,0.975402832,1.791717529,1,0,0,0.975402832,1.791717529,1,0,0,0,41,41,140,1,,,,,,,,
,,,,,,,,,,,,,FF,,,,,,,,0.5672,,,,,,,,,,,,,,,,,,,,,,61036353cf559b0c0d3a025c,610367f7cfd6951386c96279,2021-07-29_22h46.57.033,Simcolourproject_2stim_asymm_v5,2020.2.10,MacIntel,60,61025ae37ef11b136ea224fe,,,,,,,,,791,52.8394165,83.58514404,1,0,0,response1disk,,7,5.763427734,0.969177246,1,0,0,rectangle,5.763427734,0.969177246,1,0,0,5.763427734,0.969177246,1,0,0,0,42,42,100,1,,,,,,,,
,,,,,,,,,,,,,FF,,,,,,,,0.6006,,,,,,,,,,,,,,,,,,,,,,61036353cf559b0c0d3a025c,610367f7cfd6951386c96279,2021-07-29_22h46.57.033,Simcolourproject_2stim_asymm_v5,2020.2.10,MacIntel,60,61025ae37ef11b136ea224fe,,,,,,,,,1082,56.83654785,82.14260864,1,0,0,response1disk,,7,6.348815918,1.452270508,1,0,0,rectangle,6.348815918,1.452270508,1,0,0,6.348815918,1.452270508,1,0,0,0,43,43,61,1,,,,,,,,
,,,,,,,,,,,,,FF,,,,,,,,0.5499,,,,,,,,,,,,,,,,,,,,,,61036353cf559b0c0d3a025c,610367f7cfd6951386c96279,2021-07-29_22h46.57.033,Simcolourproject_2stim_asymm_v5,2020.2.10,MacIntel,60,61025ae37ef11b136ea224fe,,,,,,,,,2211,48.17138672,85.53881836,1,0,0,response1disk,,7,5.093444824,7.257202148,1,0,0,rectangle,5.093444824,7.257202148,1,0,0,5.093444824,7.257202148,1,0,0,0,44,44,94,1,,,,,,,,
,,,,,,,,,,,,,FF,,,,,,,,2.3001,,,,,,,,,,,,,,,,,,,,,,61036353cf559b0c0d3a025c,610367f7cfd6951386c96279,2021-07-29_22h46.57.033,Simcolourproject_2stim_asymm_v5,2020.2.10,MacIntel,60,61025ae37ef11b136ea224fe,,,,,,,,,2607,-40.90228271,-73.01782227,1,0,0,response5disk,,3,0.200012207,11.29840088,1,0,0,rectangle,0.200012207,11.29840088,1,0,0,0.200012207,11.29840088,1,0,0,0,45,45,49,1,,,,,,,,
,,,,,,,,,,,,,FF,,,,,,,,0.6504,,,,,,,,,,,,,,,,,,,,,,61036353cf559b0c0d3a025c,610367f7cfd6951386c96279,2021-07-29_22h46.57.033,Simcolourproject_2stim_asymm_v5,2020.2.10,MacIntel,60,61025ae37ef11b136ea224fe,,,,,,,,,2938,41.05224609,81.99807739,1,0,0,response1disk,,7,0.112304688,1.763977051,1,0,0,rectangle,0.112304688,1.763977051,1,0,0,0.112304688,1.763977051,1,0,0,0,46,46,48,1,,,,,,,,
,,,,,,,,,,,,,FF,,,,,,,,0.7176,,,,,,,,,,,,,,,,,,,,,,61036353cf559b0c0d3a025c,610367f7cfd6951386c96279,2021-07-29_22h46.57.033,Simcolourproject_2stim_asymm_v5,2020.2.10,MacIntel,60,61025ae37ef11b136ea224fe,,,,,,,,,1842,43.7322998,77.32513428,1,0,0,response1disk,,7,8.67590332,8.946899414,1,0,0,rectangle,8.67590332,8.946899414,1,0,0,8.67590332,8.946899414,1,0,0,0,47,47,36,1,,,,,,,,
,,,,,,,,,,,,,FF,,,,,,,,0.5173,,,,,,,,,,,,,,,,,,,,,,61036353cf559b0c0d3a025c,610367f7cfd6951386c96279,2021-07-29_22h46.57.033,Simcolourproject_2stim_asymm_v5,2020.2.10,MacIntel,60,61025ae37ef11b136ea224fe,,,,,,,,,2389,43.69696045,69.13745117,1,0,0,response1disk,,7,-4.030883789,-8.28527832,1,0,0,rectangle,-4.030883789,-8.28527832,1,0,0,-4.030883789,-8.28527832,1,0,0,0,48,48,121,1,,,,,,,,
,,,,,,,,,,,,,FF,,,,,,,,0.5678,,,,,,,,,,,,,,,,,,,,,,61036353cf559b0c0d3a025c,610367f7cfd6951386c96279,2021-07-29_22h46.57.033,Simcolourproject_2stim_asymm_v5,2020.2.10,MacIntel,60,61025ae37ef11b136ea224fe,,,,,,,,,1511,42.93505859,75.86117554,1,0,0,response1disk,,7,3.592102051,1.690307617,1,0,0,rectangle,3.592102051,1.690307617,1,0,0,3.592102051,1.690307617,1,0,0,0,49,49,154,1,,,,,,,,
,,,,,,,,,,,,,FF,,,,,,,,1.6497,,,,,,,,,,,,,,,,,,,,,,61036353cf559b0c0d3a025c,610367f7cfd6951386c96279,2021-07-29_22h46.57.033,Simcolourproject_2stim_asymm_v5,2020.2.10,MacIntel,60,61025ae37ef11b136ea224fe,,,,,,,,,3470,29.72235107,-78.76196289,1,0,0,response3disk,,4,-1.472900391,2.54284668,1,0,0,rectangle,-1.472900391,2.54284668,1,0,0,-1.472900391,2.54284668,1,0,0,0,50,50,52,1,,,,,,,,
,,,,,,,,,,,,,FF,,,,,,,,0.784,,,,,,,,,,,,,,,,,,,,,,61036353cf559b0c0d3a025c,610367f7cfd6951386c96279,2021-07-29_22h46.57.033,Simcolourproject_2stim_asymm_v5,2020.2.10,MacIntel,60,61025ae37ef11b136ea224fe,,,,,,,,,4199,34.25097656,76.07626343,1,0,0,response1disk,,7,-1.89855957,7.538391113,1,0,0,rectangle,-1.89855957,7.538391113,1,0,0,-1.89855957,7.538391113,1,0,0,0,51,51,145,1,,,,,,,,
,,,,,,,,,,,,,FF,,,,,,,,1.1005,,,,,,,,,,,,,,,,,,,,,,61036353cf559b0c0d3a025c,610367f7cfd6951386c96279,2021-07-29_22h46.57.033,Simcolourproject_2stim_asymm_v5,2020.2.10,MacIntel,60,61025ae37ef11b136ea224fe,,,,,,,,,1523,36.24224854,73.9140625,1,0,0,response1disk,,7,-8.493530273,-6.44519043,1,0,0,rectangle,-8.493530273,-6.44519043,1,0,0,-8.493530273,-6.44519043,1,0,0,0,52,52,123,1,,,,,,,,
,,,,,,,,,,,,,FF,,,,,,,,0.6001,,,,,,,,,,,,,,,,,,,,,,61036353cf559b0c0d3a025c,610367f7cfd6951386c96279,2021-07-29_22h46.57.033,Simcolourproject_2stim_asymm_v5,2020.2.10,MacIntel,60,61025ae37ef11b136ea224fe,,,,,,,,,1930,51.66802979,89.09692383,1,0,0,response1disk,,7,-2.176879883,0.296508789,1,0,0,rectangle,-2.176879883,0.296508789,1,0,0,-2.176879883,0.296508789,1,0,0,0,53,53,2,1,,,,,,,,
,,,,,,,,,,,,,FF,,,,,,,,0.6004,,,,,,,,,,,,,,,,,,,,,,61036353cf559b0c0d3a025c,610367f7cfd6951386c96279,2021-07-29_22h46.57.033,Simcolourproject_2stim_asymm_v5,2020.2.10,MacIntel,60,61025ae37ef11b136ea224fe,,,,,,,,,1398,48.38220215,80.3661499,1,0,0,response1disk,,7,3.675292969,0.435302734,1,0,0,rectangle,3.675292969,0.435302734,1,0,0,3.675292969,0.435302734,1,0,0,0,54,54,146,1,,,,,,,,
,,,,,,,,,,,,,FF,,,,,,,,0.8169,,,,,,,,,,,,,,,,,,,,,,61036353cf559b0c0d3a025c,610367f7cfd6951386c96279,2021-07-29_22h46.57.033,Simcolourproject_2stim_asymm_v5,2020.2.10,MacIntel,60,61025ae37ef11b136ea224fe,,,,,,,,,2758,49.71942139,86.46685791,1,0,0,response1disk,,7,-2.034484863,-10.60568237,1,0,0,rectangle,-2.034484863,-10.60568237,1,0,0,-2.034484863,-10.60568237,1,0,0,0,55,55,153,1,,,,,,,,
,,,,,,,,,,,,,FF,,,,,,,,0.6506,,,,,,,,,,,,,,,,,,,,,,61036353cf559b0c0d3a025c,610367f7cfd6951386c96279,2021-07-29_22h46.57.033,Simcolourproject_2stim_asymm_v5,2020.2.10,MacIntel,60,61025ae37ef11b136ea224fe,,,,,,,,,1237,40.00616455,77.79748535,1,0,0,response1disk,,7,1.463195801,0.489379883,1,0,0,rectangle,1.463195801,0.489379883,1,0,0,1.463195801,0.489379883,1,0,0,0,56,56,118,1,,,,,,,,
,,,,,,,,,,,,,FF,,,,,,,,0.5291,,,,,,,,,,,,,,,,,,,,,,61036353cf559b0c0d3a025c,610367f7cfd6951386c96279,2021-07-29_22h46.57.033,Simcolourproject_2stim_asymm_v5,2020.2.10,MacIntel,60,61025ae37ef11b136ea224fe,,,,,,,,,511,53.14733887,90.7421875,1,0,0,response1disk,,7,4.142089844,0.213500977,1,0,0,rectangle,4.142089844,0.213500977,1,0,0,4.142089844,0.213500977,1,0,0,0,57,57,34,1,,,,,,,,
,,,,,,,,,,,,,FF,,,,,,,,0.5677,,,,,,,,,,,,,,,,,,,,,,61036353cf559b0c0d3a025c,610367f7cfd6951386c96279,2021-07-29_22h46.57.033,Simcolourproject_2stim_asymm_v5,2020.2.10,MacIntel,60,61025ae37ef11b136ea224fe,,,,,,,,,2473,47.03881836,95.19024658,1,0,0,response1disk,,7,7.841186523,1.777893066,1,0,0,rectangle,7.841186523,1.777893066,1,0,0,7.841186523,1.777893066,1,0,0,0,58,58,99,1,,,,,,,,
,,,,,,,,,,,,,FF,,,,,,,,1.2017,,,,,,,,,,,,,,,,,,,,,,61036353cf559b0c0d3a025c,610367f7cfd6951386c96279,2021-07-29_22h46.57.033,Simcolourproject_2stim_asymm_v5,2020.2.10,MacIntel,60,61025ae37ef11b136ea224fe,,,,,,,,,2832,-51.44128418,89.23706055,1,0,0,response7disk,,0,-6.21887207,2.678100586,1,0,0,rectangle,-6.21887207,2.678100586,1,0,0,-6.21887207,2.678100586,1,0,0,0,59,59,18,1,,,,,,,,
,,,,,,,,,,,,,FF,,,,,,,,0.65,,,,,,,,,,,,,,,,,,,,,,61036353cf559b0c0d3a025c,610367f7cfd6951386c96279,2021-07-29_22h46.57.033,Simcolourproject_2stim_asymm_v5,2020.2.10,MacIntel,60,61025ae37ef11b136ea224fe,,,,,,,,,2278,40.09051514,69.65704346,1,0,0,response1disk,,7,5.38470459,-1.815246582,1,0,0,rectangle,5.38470459,-1.815246582,1,0,0,5.38470459,-1.815246582,1,0,0,0,60,60,66,1,,,,,,,,
,,,,,,,,,,,,,FF,,,,,,,,0.5505,,,,,,,,,,,,,,,,,,,,,,61036353cf559b0c0d3a025c,610367f7cfd6951386c96279,2021-07-29_22h46.57.033,Simcolourproject_2stim_asymm_v5,2020.2.10,MacIntel,60,61025ae37ef11b136ea224fe,,,,,,,,,1083,43.08459473,82.87768555,1,0,0,response1disk,,7,3.487731934,-1.213195801,1,0,0,rectangle,3.487731934,-1.213195801,1,0,0,3.487731934,-1.213195801,1,0,0,0,61,61,114,1,,,,,,,,
,,,,,,,,,,,,,FF,,,,,,,,0.8339,,,,,,,,,,,,,,,,,,,,,,61036353cf559b0c0d3a025c,610367f7cfd6951386c96279,2021-07-29_22h46.57.033,Simcolourproject_2stim_asymm_v5,2020.2.10,MacIntel,60,61025ae37ef11b136ea224fe,,,,,,,,,3503,42.20715332,78.13955688,1,0,0,response1disk,,7,-2.706237793,-1.828979492,1,0,0,rectangle,-2.706237793,-1.828979492,1,0,0,-2.706237793,-1.828979492,1,0,0,0,62,62,98,1,,,,,,,,
,,,,,,,,,,,,,FF,,,,,,,,0.6016,,,,,,,,,,,,,,,,,,,,,,61036353cf559b0c0d3a025c,610367f7cfd6951386c96279,2021-07-29_22h46.57.033,Simcolourproject_2stim_asymm_v5,2020.2.10,MacIntel,60,61025ae37ef11b136ea224fe,,,,,,,,,3530,39.44787598,69.91204834,1,0,0,response1disk,,7,1.568664551,-1.341674805,1,0,0,rectangle,1.568664551,-1.341674805,1,0,0,1.568664551,-1.341674805,1,0,0,0,63,63,63,1,,,,,,,,
,,,,,,,,,,,,,FF,,,,,,,,0.5347,,,,,,,,,,,,,,,,,,,,,,61036353cf559b0c0d3a025c,610367f7cfd6951386c96279,2021-07-29_22h46.57.033,Simcolourproject_2stim_asymm_v5,2020.2.10,MacIntel,60,61025ae37ef11b136ea224fe,,,,,,,,,1252,47.2611084,89.63421631,1,0,0,response1disk,,7,-1.224914551,-5.772094727,1,0,0,rectangle,-1.224914551,-5.772094727,1,0,0,-1.224914551,-5.772094727,1,0,0,0,64,64,97,1,,,,,,,,
,,,,,,,,,,,,,FF,,,,,,,,0.4845,,,,,,,,,,,,,,,,,,,,,,61036353cf559b0c0d3a025c,610367f7cfd6951386c96279,2021-07-29_22h46.57.033,Simcolourproject_2stim_asymm_v5,2020.2.10,MacIntel,60,61025ae37ef11b136ea224fe,,,,,,,,,4206,49.10473633,82.89053345,1,0,0,response1disk,,7,-0.779602051,1.687927246,1,0,0,rectangle,-0.779602051,1.687927246,1,0,0,-0.779602051,1.687927246,1,0,0,0,65,65,7,1,,,,,,,,
,,,,,,,,,,,,,FF,,,,,,,,0.4011,,,,,,,,,,,,,,,,,,,,,,61036353cf559b0c0d3a025c,610367f7cfd6951386c96279,2021-07-29_22h46.57.033,Simcolourproject_2stim_asymm_v5,2020.2.10,MacIntel,60,61025ae37ef11b136ea224fe,,,,,,,,,1313,42.11938477,76.2600708,1,0,0,response1disk,,7,4.649047852,-0.63394165,1,0,0,rectangle,4.649047852,-0.63394165,1,0,0,4.649047852,-0.63394165,1,0,0,0,66,66,111,1,,,,,,,,
,,,,,,,,,,,,,FF,,,,,,,,3.1343,,,,,,,,,,,,,,,,,,,,,,61036353cf559b0c0d3a025c,610367f7cfd6951386c96279,2021-07-29_22h46.57.033,Simcolourproject_2stim_asymm_v5,2020.2.10,MacIntel,60,61025ae37ef11b136ea224fe,,,,,,,,,3670,-95.43780518,-40.6751709,1,0,0,response5disk,,2,-2.838134766,-3.806945801,1,0,0,rectangle,-2.838134766,-3.806945801,1,0,0,-2.838134766,-3.806945801,1,0,0,0,67,67,17,1,,,,,,,,
,,,,,,,,,,,,,FF,,,,,,,,1.6837,,,,,,,,,,,,,,,,,,,,,,61036353cf559b0c0d3a025c,610367f7cfd6951386c96279,2021-07-29_22h46.57.033,Simcolourproject_2stim_asymm_v5,2020.2.10,MacIntel,60,61025ae37ef11b136ea224fe,,,,,,,,,3907,-43.06103516,-115.1531372,1,0,0,response5disk,,3,3.588867188,-1.851074219,1,0,0,rectangle,3.588867188,-1.851074219,1,0,0,3.588867188,-1.851074219,1,0,0,0,68,68,109,1,,,,,,,,
,,,,,,,,,,,,,FF,,,,,,,,0.7004,,,,,,,,,,,,,,,,,,,,,,61036353cf559b0c0d3a025c,610367f7cfd6951386c96279,2021-07-29_22h46.57.033,Simcolourproject_2stim_asymm_v5,2020.2.10,MacIntel,60,61025ae37ef11b136ea224fe,,,,,,,,,1777,39.96722412,81.89746094,1,0,0,response1disk,,7,8.36114502,2.92956543,1,0,0,rectangle,8.36114502,2.92956543,1,0,0,8.36114502,2.92956543,1,0,0,0,69,69,45,1,,,,,,,,
,,,,,,,,,,,,,FF,,,,,,,,0.6012,,,,,,,,,,,,,,,,,,,,,,61036353cf559b0c0d3a025c,610367f7cfd6951386c96279,2021-07-29_22h46.57.033,Simcolourproject_2stim_asymm_v5,2020.2.10,MacIntel,60,61025ae37ef11b136ea224fe,,,,,,,,,1587,37.03430176,80.04702759,1,0,0,response1disk,,7,8.172180176,6.67364502,1,0,0,rectangle,8.172180176,6.67364502,1,0,0,8.172180176,6.67364502,1,0,0,0,70,70,106,1,,,,,,,,
,,,,,,,,,,,,,FF,,,,,,,,0.5501,,,,,,,,,,,,,,,,,,,,,,61036353cf559b0c0d3a025c,610367f7cfd6951386c96279,2021-07-29_22h46.57.033,Simcolourproject_2stim_asymm_v5,2020.2.10,MacIntel,60,61025ae37ef11b136ea224fe,,,,,,,,,3406,44.83166504,98.7088623,1,0,0,response1disk,,7,9.494445801,5.55847168,1,0,0,rectangle,9.494445801,5.55847168,1,0,0,9.494445801,5.55847168,1,0,0,0,71,71,47,1,,,,,,,,
,,,,,,,,,,,,,FF,,,,,,,,0.533,,,,,,,,,,,,,,,,,,,,,,61036353cf559b0c0d3a025c,610367f7cfd6951386c96279,2021-07-29_22h46.57.033,Simcolourproject_2stim_asymm_v5,2020.2.10,MacIntel,60,61025ae37ef11b136ea224fe,,,,,,,,,1562,49.49108887,94.52731323,1,0,0,response1disk,,7,8.349182129,0.564880371,1,0,0,rectangle,8.349182129,0.564880371,1,0,0,8.349182129,0.564880371,1,0,0,0,72,72,102,1,,,,,,,,
,,,,,,,,,,,,,FF,,,,,,,,0.5165,,,,,,,,,,,,,,,,,,,,,,61036353cf559b0c0d3a025c,610367f7cfd6951386c96279,2021-07-29_22h46.57.033,Simcolourproject_2stim_asymm_v5,2020.2.10,MacIntel,60,61025ae37ef11b136ea224fe,,,,,,,,,1176,47.78515625,84.29580688,1,0,0,response1disk,,7,-4.918212891,-6.857543945,1,0,0,rectangle,-4.918212891,-6.857543945,1,0,0,-4.918212891,-6.857543945,1,0,0,0,73,73,87,1,,,,,,,,
,,,,,,,,,,,,,FF,,,,,,,,1.6998,,,,,,,,,,,,,,,,,,,,,,61036353cf559b0c0d3a025c,610367f7cfd6951386c96279,2021-07-29_22h46.57.033,Simcolourproject_2stim_asymm_v5,2020.2.10,MacIntel,60,61025ae37ef11b136ea224fe,,,,,,,,,4207,-54.1819458,-95.91436768,1,0,0,response5disk,,3,-2.686645508,3.224243164,1,0,0,rectangle,-2.686645508,3.224243164,1,0,0,-2.686645508,3.224243164,1,0,0,0,74,74,89,1,,,,,,,,
,,,,,,,,,,,,,FF,,,,,,,,0.6678,,,,,,,,,,,,,,,,,,,,,,61036353cf559b0c0d3a025c,610367f7cfd6951386c96279,2021-07-29_22h46.57.033,Simcolourproject_2stim_asymm_v5,2020.2.10,MacIntel,60,61025ae37ef11b136ea224fe,,,,,,,,,1878,40.81726074,79.50500488,1,0,0,response1disk,,7,-4.225158691,-7.42578125,1,0,0,rectangle,-4.225158691,-7.42578125,1,0,0,-4.225158691,-7.42578125,1,0,0,0,75,75,115,1,,,,,,,,
,,,,,,,,,,,,,FF,,,,,,,,0.5989,,,,,,,,,,,,,,,,,,,,,,61036353cf559b0c0d3a025c,610367f7cfd6951386c96279,2021-07-29_22h46.57.033,Simcolourproject_2stim_asymm_v5,2020.2.10,MacIntel,60,61025ae37ef11b136ea224fe,,,,,,,,,2790,41.81835938,78.68823242,1,0,0,response1disk,,7,5.583190918,9.545410156,1,0,0,rectangle,-31.22814941,98.36004639,1,0,0,2.799926758,-4.27545166,1,0,0,0,76,76,81,1,,response7disk_3,TRUE,0,0,"[19,209,265,293,157,12,233,77,228,140,194,19,200,237,111,269,134,16,241,195]",1.6827,rectangle
,,,,,,,,,,,,,FF,,,,,,,,0.6503,,,,,,,,,,,,,,,,,,,,,,61036353cf559b0c0d3a025c,610367f7cfd6951386c96279,2021-07-29_22h46.57.033,Simcolourproject_2stim_asymm_v5,2020.2.10,MacIntel,60,61025ae37ef11b136ea224fe,,,,,,,,,2989,49.84375,94.26043701,1,0,0,response1disk,,7,-2.722900391,-7.987060547,1,0,0,rectangle,-2.722900391,-7.987060547,1,0,0,-2.722900391,-7.987060547,1,0,0,0,77,77,20,1,,,,,,,,
,,,,,,,,,,,,,FF,,,,,,,,0.6661,,,,,,,,,,,,,,,,,,,,,,61036353cf559b0c0d3a025c,610367f7cfd6951386c96279,2021-07-29_22h46.57.033,Simcolourproject_2stim_asymm_v5,2020.2.10,MacIntel,60,61025ae37ef11b136ea224fe,,,,,,,,,4341,42.65216064,85.84411621,1,0,0,response1disk,,7,6.518737793,3.24798584,1,0,0,rectangle,6.518737793,3.24798584,1,0,0,6.518737793,3.24798584,1,0,0,0,78,78,156,1,,,,,,,,
,,,,,,,,,,,,,FF,,,,,,,,2.1178,,,,,,,,,,,,,,,,,,,,,,61036353cf559b0c0d3a025c,610367f7cfd6951386c96279,2021-07-29_22h46.57.033,Simcolourproject_2stim_asymm_v5,2020.2.10,MacIntel,60,61025ae37ef11b136ea224fe,,,,,,,,,3389,-91.53857422,-39.43139648,1,0,0,response5disk,,2,-2.480957031,4.685119629,1,0,0,rectangle,-2.480957031,4.685119629,1,0,0,-2.480957031,4.685119629,1,0,0,0,79,79,35,1,,,,,,,,
,,,,,,,,,,,,,FF,,,,,,,,1.8842,,,,,,,,,,,,,,,,,,,,,,61036353cf559b0c0d3a025c,610367f7cfd6951386c96279,2021-07-29_22h46.57.033,Simcolourproject_2stim_asymm_v5,2020.2.10,MacIntel,60,61025ae37ef11b136ea224fe,,,,,,,,,718,42.05438232,-79.93798828,1,0,0,response3disk,,4,-1.479125977,4.687561035,1,0,0,rectangle,-1.479125977,4.687561035,1,0,0,-1.479125977,4.687561035,1,0,0,0,80,80,4,1,,,,,,,,
,,,,,,,,,,,,,FF,,,,,,,,0.567,,,,,,,,,,,,,,,,,,,,,,61036353cf559b0c0d3a025c,610367f7cfd6951386c96279,2021-07-29_22h46.57.033,Simcolourproject_2stim_asymm_v5,2020.2.10,MacIntel,60,61025ae37ef11b136ea224fe,,,,,,,,,1711,39.74743652,90.28204346,1,0,0,response1disk,,7,5.477661133,-7.672912598,1,0,0,rectangle,5.477661133,-7.672912598,1,0,0,5.477661133,-7.672912598,1,0,0,0,81,81,56,1,,,,,,,,
,,,,,,,,,,,,,FF,,,,,,,,0.5166,,,,,,,,,,,,,,,,,,,,,,61036353cf559b0c0d3a025c,610367f7cfd6951386c96279,2021-07-29_22h46.57.033,Simcolourproject_2stim_asymm_v5,2020.2.10,MacIntel,60,61025ae37ef11b136ea224fe,,,,,,,,,2309,50.5057373,95.71008301,1,0,0,response1disk,,7,1.360778809,-3.838867188,1,0,0,rectangle,1.360778809,-3.838867188,1,0,0,1.360778809,-3.838867188,1,0,0,0,82,82,71,1,,,,,,,,
,,,,,,,,,,,,,FF,,,,,,,,1.5339,,,,,,,,,,,,,,,,,,,,,,61036353cf559b0c0d3a025c,610367f7cfd6951386c96279,2021-07-29_22h46.57.033,Simcolourproject_2stim_asymm_v5,2020.2.10,MacIntel,60,61025ae37ef11b136ea224fe,,,,,,,,,953,35.0369873,70.11480713,1,0,0,response1disk,,7,-2.74810791,-4.05657959,1,0,0,rectangle,-2.74810791,-4.05657959,1,0,0,-2.74810791,-4.05657959,1,0,0,0,83,83,60,1,,,,,,,,
,,,,,,,,,,,,,FF,,,,,,,,0.734,,,,,,,,,,,,,,,,,,,,,,61036353cf559b0c0d3a025c,610367f7cfd6951386c96279,2021-07-29_22h46.57.033,Simcolourproject_2stim_asymm_v5,2020.2.10,MacIntel,60,61025ae37ef11b136ea224fe,,,,,,,,,3294,24.64709473,66.26693726,1,0,0,response1disk,,7,-9.991149902,-14.02145386,1,0,0,rectangle,-9.991149902,-14.02145386,1,0,0,-9.991149902,-14.02145386,1,0,0,0,84,84,152,1,,,,,,,,
,,,,,,,,,,,,,FF,,,,,,,,0.6341,,,,,,,,,,,,,,,,,,,,,,61036353cf559b0c0d3a025c,610367f7cfd6951386c96279,2021-07-29_22h46.57.033,Simcolourproject_2stim_asymm_v5,2020.2.10,MacIntel,60,61025ae37ef11b136ea224fe,,,,,,,,,3250,42.04095459,76.89117432,1,0,0,response1disk,,7,0.384643555,3.731964111,1,0,0,rectangle,0.384643555,3.731964111,1,0,0,0.384643555,3.731964111,1,0,0,0,85,85,1,1,,,,,,,,
,,,,,,,,,,,,,FF,,,,,,,,0.618,,,,,,,,,,,,,,,,,,,,,,61036353cf559b0c0d3a025c,610367f7cfd6951386c96279,2021-07-29_22h46.57.033,Simcolourproject_2stim_asymm_v5,2020.2.10,MacIntel,60,61025ae37ef11b136ea224fe,,,,,,,,,2378,49.9118042,92.38192749,1,0,0,response1disk,,7,6.647094727,5.103210449,1,0,0,rectangle,6.647094727,5.103210449,1,0,0,6.647094727,5.103210449,1,0,0,0,86,86,141,1,,,,,,,,
,,,,,,,,,,,,,FF,,,,,,,,0.4838,,,,,,,,,,,,,,,,,,,,,,61036353cf559b0c0d3a025c,610367f7cfd6951386c96279,2021-07-29_22h46.57.033,Simcolourproject_2stim_asymm_v5,2020.2.10,MacIntel,60,61025ae37ef11b136ea224fe,,,,,,,,,1836,45.98693848,87.79003906,1,0,0,response1disk,,7,1.934631348,-4.340881348,1,0,0,rectangle,1.934631348,-4.340881348,1,0,0,1.934631348,-4.340881348,1,0,0,0,87,87,70,1,,,,,,,,
,,,,,,,,,,,,,FF,,,,,,,,0.6675,,,,,,,,,,,,,,,,,,,,,,61036353cf559b0c0d3a025c,610367f7cfd6951386c96279,2021-07-29_22h46.57.033,Simcolourproject_2stim_asymm_v5,2020.2.10,MacIntel,60,61025ae37ef11b136ea224fe,,,,,,,,,1357,40.73352051,79.51867676,1,0,0,response1disk,,7,-5.051269531,-4.302520752,1,0,0,rectangle,-5.051269531,-4.302520752,1,0,0,-5.051269531,-4.302520752,1,0,0,0,88,88,41,1,,,,,,,,
,,,,,,,,,,,,,FF,,,,,,,,0.6669,,,,,,,,,,,,,,,,,,,,,,61036353cf559b0c0d3a025c,610367f7cfd6951386c96279,2021-07-29_22h46.57.033,Simcolourproject_2stim_asymm_v5,2020.2.10,MacIntel,60,61025ae37ef11b136ea224fe,,,,,,,,,4337,44.60900879,76.18197632,1,0,0,response1disk,,7,1.739990234,1.848052979,1,0,0,rectangle,1.739990234,1.848052979,1,0,0,1.739990234,1.848052979,1,0,0,0,89,89,0,1,,,,,,,,
,,,,,,,,,,,,,FF,,,,,,,,0.4673,,,,,,,,,,,,,,,,,,,,,,61036353cf559b0c0d3a025c,610367f7cfd6951386c96279,2021-07-29_22h46.57.033,Simcolourproject_2stim_asymm_v5,2020.2.10,MacIntel,60,61025ae37ef11b136ea224fe,,,,,,,,,92,38.57171631,72.18835449,1,0,0,response1disk,,7,1.876464844,-1.262329102,1,0,0,rectangle,1.876464844,-1.262329102,1,0,0,1.876464844,-1.262329102,1,0,0,0,90,90,124,1,,,,,,,,
,,,,,,,,,,,,,FF,,,,,,,,0.4177,,,,,,,,,,,,,,,,,,,,,,61036353cf559b0c0d3a025c,610367f7cfd6951386c96279,2021-07-29_22h46.57.033,Simcolourproject_2stim_asymm_v5,2020.2.10,MacIntel,60,61025ae37ef11b136ea224fe,,,,,,,,,1772,48.0604248,77.69830322,1,0,0,response1disk,,7,4.196716309,6.276611328,1,0,0,rectangle,4.196716309,6.276611328,1,0,0,4.196716309,6.276611328,1,0,0,0,91,91,21,1,,,,,,,,
,,,,,,,,,,,,,FF,,,,,,,,0.4847,,,,,,,,,,,,,,,,,,,,,,61036353cf559b0c0d3a025c,610367f7cfd6951386c96279,2021-07-29_22h46.57.033,Simcolourproject_2stim_asymm_v5,2020.2.10,MacIntel,60,61025ae37ef11b136ea224fe,,,,,,,,,2416,49.61120605,106.2601013,1,0,0,response1disk,,7,-1.083129883,-5.549957275,1,0,0,rectangle,-1.083129883,-5.549957275,1,0,0,-1.083129883,-5.549957275,1,0,0,0,92,92,13,1,,,,,,,,
,,,,,,,,,,,,,FF,,,,,,,,0.568,,,,,,,,,,,,,,,,,,,,,,61036353cf559b0c0d3a025c,610367f7cfd6951386c96279,2021-07-29_22h46.57.033,Simcolourproject_2stim_asymm_v5,2020.2.10,MacIntel,60,61025ae37ef11b136ea224fe,,,,,,,,,1430,32.75622559,67.85952759,1,0,0,response1disk,,7,3.123596191,4.727722168,1,0,0,rectangle,3.123596191,4.727722168,1,0,0,3.123596191,4.727722168,1,0,0,0,93,93,130,1,,,,,,,,
,,,,,,,,,,,,,FF,,,,,,,,0.4664,,,,,,,,,,,,,,,,,,,,,,61036353cf559b0c0d3a025c,610367f7cfd6951386c96279,2021-07-29_22h46.57.033,Simcolourproject_2stim_asymm_v5,2020.2.10,MacIntel,60,61025ae37ef11b136ea224fe,,,,,,,,,3857,46.97930908,84.34255981,1,0,0,response1disk,,7,1.42175293,-0.398986816,1,0,0,rectangle,1.42175293,-0.398986816,1,0,0,1.42175293,-0.398986816,1,0,0,0,94,94,19,1,,,,,,,,
,,,,,,,,,,,,,FF,,,,,,,,0.4669,,,,,,,,,,,,,,,,,,,,,,61036353cf559b0c0d3a025c,610367f7cfd6951386c96279,2021-07-29_22h46.57.033,Simcolourproject_2stim_asymm_v5,2020.2.10,MacIntel,60,61025ae37ef11b136ea224fe,,,,,,,,,3063,59.75604248,91.88796997,1,0,0,response1disk,,7,-1.891113281,-5.636901855,1,0,0,rectangle,-1.891113281,-5.636901855,1,0,0,-1.891113281,-5.636901855,1,0,0,0,95,95,103,1,,,,,,,,
,,,,,,,,,,,,,FF,,,,,,,,0.4829,,,,,,,,,,,,,,,,,,,,,,61036353cf559b0c0d3a025c,610367f7cfd6951386c96279,2021-07-29_22h46.57.033,Simcolourproject_2stim_asymm_v5,2020.2.10,MacIntel,60,61025ae37ef11b136ea224fe,,,,,,,,,2277,30.12200928,72.77264404,1,0,0,response1disk,,7,0.071533203,-4.995422363,1,0,0,rectangle,0.071533203,-4.995422363,1,0,0,0.071533203,-4.995422363,1,0,0,0,96,96,32,1,,,,,,,,
,,,,,,,,,,,,,FF,,,,,,,,0.6332,,,,,,,,,,,,,,,,,,,,,,61036353cf559b0c0d3a025c,610367f7cfd6951386c96279,2021-07-29_22h46.57.033,Simcolourproject_2stim_asymm_v5,2020.2.10,MacIntel,60,61025ae37ef11b136ea224fe,,,,,,,,,1611,42.93066406,80.06173706,1,0,0,response1disk,,7,6.571044922,-3.290039063,1,0,0,rectangle,6.571044922,-3.290039063,1,0,0,6.571044922,-3.290039063,1,0,0,0,97,97,38,1,,,,,,,,
,,,,,,,,,,,,,FF,,,,,,,,0.5184,,,,,,,,,,,,,,,,,,,,,,61036353cf559b0c0d3a025c,610367f7cfd6951386c96279,2021-07-29_22h46.57.033,Simcolourproject_2stim_asymm_v5,2020.2.10,MacIntel,60,61025ae37ef11b136ea224fe,,,,,,,,,1955,37.85375977,74.57235718,1,0,0,response1disk,,7,0.344970703,-7.141418457,1,0,0,rectangle,0.344970703,-7.141418457,1,0,0,0.344970703,-7.141418457,1,0,0,0,98,98,79,1,,,,,,,,
,,,,,,,,,,,,,FF,,,,,,,,0.5488,,,,,,,,,,,,,,,,,,,,,,61036353cf559b0c0d3a025c,610367f7cfd6951386c96279,2021-07-29_22h46.57.033,Simcolourproject_2stim_asymm_v5,2020.2.10,MacIntel,60,61025ae37ef11b136ea224fe,,,,,,,,,692,44.37597656,72.87329102,1,0,0,response1disk,,7,1.27142334,-5.902282715,1,0,0,rectangle,1.27142334,-5.902282715,1,0,0,1.27142334,-5.902282715,1,0,0,0,99,99,73,1,,,,,,,,
,,,,,,,,,,,,,FF,,,,,,,,0.5674,,,,,,,,,,,,,,,,,,,,,,61036353cf559b0c0d3a025c,610367f7cfd6951386c96279,2021-07-29_22h46.57.033,Simcolourproject_2stim_asymm_v5,2020.2.10,MacIntel,60,61025ae37ef11b136ea224fe,,,,,,,,,3576,34.92840576,67.28155518,1,0,0,response1disk,,7,-1.395507813,-14.89016724,1,0,0,rectangle,-1.395507813,-14.89016724,1,0,0,-1.395507813,-14.89016724,1,0,0,0,100,100,40,1,,,,,,,,
,,,,,,,,,,,,,FF,,,,,,,,0.5503,,,,,,,,,,,,,,,,,,,,,,61036353cf559b0c0d3a025c,610367f7cfd6951386c96279,2021-07-29_22h46.57.033,Simcolourproject_2stim_asymm_v5,2020.2.10,MacIntel,60,61025ae37ef11b136ea224fe,,,,,,,,,2163,43.22607422,75.45373535,1,0,0,response1disk,,7,-1.539855957,-11.25085449,1,0,0,rectangle,-1.539855957,-11.25085449,1,0,0,-1.539855957,-11.25085449,1,0,0,0,101,101,23,1,,,,,,,,
,,,,,,,,,,,,,FF,,,,,,,,0.4852,,,,,,,,,,,,,,,,,,,,,,61036353cf559b0c0d3a025c,610367f7cfd6951386c96279,2021-07-29_22h46.57.033,Simcolourproject_2stim_asymm_v5,2020.2.10,MacIntel,60,61025ae37ef11b136ea224fe,,,,,,,,,811,34.28479004,67.64248657,1,0,0,response1disk,,7,-2.030029297,-2.292297363,1,0,0,rectangle,-2.030029297,-2.292297363,1,0,0,-2.030029297,-2.292297363,1,0,0,0,102,102,136,1,,,,,,,,
,,,,,,,,,,,,,FF,,,,,,,,0.5504,,,,,,,,,,,,,,,,,,,,,,61036353cf559b0c0d3a025c,610367f7cfd6951386c96279,2021-07-29_22h46.57.033,Simcolourproject_2stim_asymm_v5,2020.2.10,MacIntel,60,61025ae37ef11b136ea224fe,,,,,,,,,702,35.18884277,76.52990723,1,0,0,response1disk,,7,2.401733398,5.88684082,1,0,0,rectangle,2.401733398,5.88684082,1,0,0,2.401733398,5.88684082,1,0,0,0,103,103,5,1,,,,,,,,
,,,,,,,,,,,,,FF,,,,,,,,0.4837,,,,,,,,,,,,,,,,,,,,,,61036353cf559b0c0d3a025c,610367f7cfd6951386c96279,2021-07-29_22h46.57.033,Simcolourproject_2stim_asymm_v5,2020.2.10,MacIntel,60,61025ae37ef11b136ea224fe,,,,,,,,,1852,42.26208496,75.54608154,1,0,0,response1disk,,7,0.764831543,-7.694335938,1,0,0,rectangle,0.764831543,-7.694335938,1,0,0,0.764831543,-7.694335938,1,0,0,0,104,104,144,1,,,,,,,,
,,,,,,,,,,,,,FF,,,,,,,,0.4176,,,,,,,,,,,,,,,,,,,,,,61036353cf559b0c0d3a025c,610367f7cfd6951386c96279,2021-07-29_22h46.57.033,Simcolourproject_2stim_asymm_v5,2020.2.10,MacIntel,60,61025ae37ef11b136ea224fe,,,,,,,,,1492,40.03710938,72.51965332,1,0,0,response1disk,,7,4.292541504,-4.570129395,1,0,0,rectangle,4.292541504,-4.570129395,1,0,0,4.292541504,-4.570129395,1,0,0,0,105,105,29,1,,,,,,,,
,,,,,,,,,,,,,FF,,,,,,,,0.5666,,,,,,,,,,,,,,,,,,,,,,61036353cf559b0c0d3a025c,610367f7cfd6951386c96279,2021-07-29_22h46.57.033,Simcolourproject_2stim_asymm_v5,2020.2.10,MacIntel,60,61025ae37ef11b136ea224fe,,,,,,,,,197,49.27215576,70.24768066,1,0,0,response1disk,,7,8.44934082,8.877868652,1,0,0,rectangle,8.44934082,8.877868652,1,0,0,8.44934082,8.877868652,1,0,0,0,106,106,78,1,,,,,,,,
,,,,,,,,,,,,,FF,,,,,,,,0.5175,,,,,,,,,,,,,,,,,,,,,,61036353cf559b0c0d3a025c,610367f7cfd6951386c96279,2021-07-29_22h46.57.033,Simcolourproject_2stim_asymm_v5,2020.2.10,MacIntel,60,61025ae37ef11b136ea224fe,,,,,,,,,3640,39.9385376,84.16525269,1,0,0,response1disk,,7,-4.136901855,-5.832672119,1,0,0,rectangle,-4.136901855,-5.832672119,1,0,0,-4.136901855,-5.832672119,1,0,0,0,107,107,132,1,,,,,,,,
,,,,,,,,,,,,,FF,,,,,,,,0.8164,,,,,,,,,,,,,,,,,,,,,,61036353cf559b0c0d3a025c,610367f7cfd6951386c96279,2021-07-29_22h46.57.033,Simcolourproject_2stim_asymm_v5,2020.2.10,MacIntel,60,61025ae37ef11b136ea224fe,,,,,,,,,3752,25.02368164,54.61795044,1,0,0,response1disk,,7,-2.631103516,-8.610595703,1,0,0,rectangle,-2.631103516,-8.610595703,1,0,0,-2.631103516,-8.610595703,1,0,0,0,108,108,26,1,,,,,,,,
,,,,,,,,,,,,,FF,,,,,,,,0.5003,,,,,,,,,,,,,,,,,,,,,,61036353cf559b0c0d3a025c,610367f7cfd6951386c96279,2021-07-29_22h46.57.033,Simcolourproject_2stim_asymm_v5,2020.2.10,MacIntel,60,61025ae37ef11b136ea224fe,,,,,,,,,1577,34.2800293,56.25942993,1,0,0,response1disk,,7,-0.406799316,-6.302246094,1,0,0,rectangle,-0.406799316,-6.302246094,1,0,0,-0.406799316,-6.302246094,1,0,0,0,109,109,6,1,,,,,,,,
,,,,,,,,,,,,,FF,,,,,,,,0.5336,,,,,,,,,,,,,,,,,,,,,,61036353cf559b0c0d3a025c,610367f7cfd6951386c96279,2021-07-29_22h46.57.033,Simcolourproject_2stim_asymm_v5,2020.2.10,MacIntel,60,61025ae37ef11b136ea224fe,,,,,,,,,2251,40.41766357,85.33947754,1,0,0,response1disk,,7,-2.697021484,3.699645996,1,0,0,rectangle,35.69311523,-95.67541504,1,0,0,4.766845703,3.286193848,1,0,0,0,110,110,24,1,,response3disk_3,TRUE,4,4,"[19,209,265,293,157,12,233,77,228,140,194,19,200,237,111,269,134,16,241,195]",2.3002,rectangle
,,,,,,,,,,,,,FF,,,,,,,,0.7009,,,,,,,,,,,,,,,,,,,,,,61036353cf559b0c0d3a025c,610367f7cfd6951386c96279,2021-07-29_22h46.57.033,Simcolourproject_2stim_asymm_v5,2020.2.10,MacIntel,60,61025ae37ef11b136ea224fe,,,,,,,,,252,29.77954102,70.74023438,1,0,0,response1disk,,7,0.209106445,-4.006530762,1,0,0,rectangle,0.209106445,-4.006530762,1,0,0,0.209106445,-4.006530762,1,0,0,0,111,111,129,1,,,,,,,,
,,,,,,,,,,,,,FF,,,,,,,,0.4996,,,,,,,,,,,,,,,,,,,,,,61036353cf559b0c0d3a025c,610367f7cfd6951386c96279,2021-07-29_22h46.57.033,Simcolourproject_2stim_asymm_v5,2020.2.10,MacIntel,60,61025ae37ef11b136ea224fe,,,,,,,,,2084,40.07843018,70.8319397,1,0,0,response1disk,,7,4.905273438,1.431213379,1,0,0,rectangle,4.905273438,1.431213379,1,0,0,4.905273438,1.431213379,1,0,0,0,112,112,28,1,,,,,,,,
,,,,,,,,,,,,,FF,,,,,,,,0.6161,,,,,,,,,,,,,,,,,,,,,,61036353cf559b0c0d3a025c,610367f7cfd6951386c96279,2021-07-29_22h46.57.033,Simcolourproject_2stim_asymm_v5,2020.2.10,MacIntel,60,61025ae37ef11b136ea224fe,,,,,,,,,2391,28.46496582,74.29922485,1,0,0,response1disk,,7,-5.321533203,-4.190612793,1,0,0,rectangle,-5.321533203,-4.190612793,1,0,0,-5.321533203,-4.190612793,1,0,0,0,113,113,33,1,,,,,,,,
,,,,,,,,,,,,,FF,,,,,,,,0.5155,,,,,,,,,,,,,,,,,,,,,,61036353cf559b0c0d3a025c,610367f7cfd6951386c96279,2021-07-29_22h46.57.033,Simcolourproject_2stim_asymm_v5,2020.2.10,MacIntel,60,61025ae37ef11b136ea224fe,,,,,,,,,3654,39.96124268,87.12106323,1,0,0,response1disk,,7,-2.369750977,-4.985321045,1,0,0,rectangle,-2.369750977,-4.985321045,1,0,0,-2.369750977,-4.985321045,1,0,0,0,114,114,57,1,,,,,,,,
,,,,,,,,,,,,,FF,,,,,,,,0.6162,,,,,,,,,,,,,,,,,,,,,,61036353cf559b0c0d3a025c,610367f7cfd6951386c96279,2021-07-29_22h46.57.033,Simcolourproject_2stim_asymm_v5,2020.2.10,MacIntel,60,61025ae37ef11b136ea224fe,,,,,,,,,3014,44.9263916,89.46960449,1,0,0,response1disk,,7,-5.015319824,-6.133758545,1,0,0,rectangle,-5.015319824,-6.133758545,1,0,0,-5.015319824,-6.133758545,1,0,0,0,115,115,159,1,,,,,,,,
,,,,,,,,,,,,,FF,,,,,,,,0.384,,,,,,,,,,,,,,,,,,,,,,61036353cf559b0c0d3a025c,610367f7cfd6951386c96279,2021-07-29_22h46.57.033,Simcolourproject_2stim_asymm_v5,2020.2.10,MacIntel,60,61025ae37ef11b136ea224fe,,,,,,,,,211,67.43933105,105.0935669,1,0,0,response1disk,,7,3.061462402,-5.759155273,1,0,0,rectangle,3.061462402,-5.759155273,1,0,0,3.061462402,-5.759155273,1,0,0,0,116,116,62,1,,,,,,,,
,,,,,,,,,,,,,FF,,,,,,,,0.5016,,,,,,,,,,,,,,,,,,,,,,61036353cf559b0c0d3a025c,610367f7cfd6951386c96279,2021-07-29_22h46.57.033,Simcolourproject_2stim_asymm_v5,2020.2.10,MacIntel,60,61025ae37ef11b136ea224fe,,,,,,,,,3886,50.76599121,77.95632935,1,0,0,response1disk,,7,7.572998047,8.615936279,1,0,0,rectangle,7.572998047,8.615936279,1,0,0,7.572998047,8.615936279,1,0,0,0,117,117,16,1,,,,,,,,
,,,,,,,,,,,,,FF,,,,,,,,0.7169,,,,,,,,,,,,,,,,,,,,,,61036353cf559b0c0d3a025c,610367f7cfd6951386c96279,2021-07-29_22h46.57.033,Simcolourproject_2stim_asymm_v5,2020.2.10,MacIntel,60,61025ae37ef11b136ea224fe,,,,,,,,,711,48.51281738,84.72174072,1,0,0,response1disk,,7,-1.364379883,-10.28182983,1,0,0,rectangle,-1.364379883,-10.28182983,1,0,0,-1.364379883,-10.28182983,1,0,0,0,118,118,108,1,,,,,,,,
,,,,,,,,,,,,,FF,,,,,,,,0.5684,,,,,,,,,,,,,,,,,,,,,,61036353cf559b0c0d3a025c,610367f7cfd6951386c96279,2021-07-29_22h46.57.033,Simcolourproject_2stim_asymm_v5,2020.2.10,MacIntel,60,61025ae37ef11b136ea224fe,,,,,,,,,4011,40.26818848,78.18798828,1,0,0,response1disk,,7,6.261962891,0.999847412,1,0,0,rectangle,6.261962891,0.999847412,1,0,0,6.261962891,0.999847412,1,0,0,0,119,119,10,1,,,,,,,,
,,,,,,,,,,,,,FF,,,,,,,,0.4669,,,,,,,,,,,,,,,,,,,,,,61036353cf559b0c0d3a025c,610367f7cfd6951386c96279,2021-07-29_22h46.57.033,Simcolourproject_2stim_asymm_v5,2020.2.10,MacIntel,60,61025ae37ef11b136ea224fe,,,,,,,,,536,42.13574219,89.24591064,1,0,0,response1disk,,7,5.399536133,2.082885742,1,0,0,rectangle,5.399536133,2.082885742,1,0,0,5.399536133,2.082885742,1,0,0,0,120,120,113,1,,,,,,,,
,,,,,,,,,,,,,FF,,,,,,,,0.5845,,,,,,,,,,,,,,,,,,,,,,61036353cf559b0c0d3a025c,610367f7cfd6951386c96279,2021-07-29_22h46.57.033,Simcolourproject_2stim_asymm_v5,2020.2.10,MacIntel,60,61025ae37ef11b136ea224fe,,,,,,,,,1114,40.85168457,72.52764893,1,0,0,response1disk,,7,-6.228515625,-14.73999023,1,0,0,rectangle,-6.228515625,-14.73999023,1,0,0,-6.228515625,-14.73999023,1,0,0,0,121,121,110,1,,,,,,,,
,,,,,,,,,,,,,FF,,,,,,,,0.433,,,,,,,,,,,,,,,,,,,,,,61036353cf559b0c0d3a025c,610367f7cfd6951386c96279,2021-07-29_22h46.57.033,Simcolourproject_2stim_asymm_v5,2020.2.10,MacIntel,60,61025ae37ef11b136ea224fe,,,,,,,,,2969,50.19287109,68.68347168,1,0,0,response1disk,,7,2.262329102,-3.735595703,1,0,0,rectangle,2.262329102,-3.735595703,1,0,0,2.262329102,-3.735595703,1,0,0,0,122,122,133,1,,,,,,,,
,,,,,,,,,,,,,FF,,,,,,,,0.7507,,,,,,,,,,,,,,,,,,,,,,61036353cf559b0c0d3a025c,610367f7cfd6951386c96279,2021-07-29_22h46.57.033,Simcolourproject_2stim_asymm_v5,2020.2.10,MacIntel,60,61025ae37ef11b136ea224fe,,,,,,,,,3800,41.53967285,85.82806396,1,0,0,response1disk,,7,3.828369141,6.178405762,1,0,0,rectangle,3.828369141,6.178405762,1,0,0,3.828369141,6.178405762,1,0,0,0,123,123,54,1,,,,,,,,
,,,,,,,,,,,,,FF,,,,,,,,0.5338,,,,,,,,,,,,,,,,,,,,,,61036353cf559b0c0d3a025c,610367f7cfd6951386c96279,2021-07-29_22h46.57.033,Simcolourproject_2stim_asymm_v5,2020.2.10,MacIntel,60,61025ae37ef11b136ea224fe,,,,,,,,,2308,37.57550049,104.6810608,1,0,0,response1disk,,7,10.92541504,1.665527344,1,0,0,rectangle,10.92541504,1.665527344,1,0,0,10.92541504,1.665527344,1,0,0,0,124,124,104,1,,,,,,,,
,,,,,,,,,,,,,FF,,,,,,,,0.6179,,,,,,,,,,,,,,,,,,,,,,61036353cf559b0c0d3a025c,610367f7cfd6951386c96279,2021-07-29_22h46.57.033,Simcolourproject_2stim_asymm_v5,2020.2.10,MacIntel,60,61025ae37ef11b136ea224fe,,,,,,,,,3126,41.98370361,82.24713135,1,0,0,response1disk,,7,-6.177124023,-2.869812012,1,0,0,rectangle,-6.177124023,-2.869812012,1,0,0,-6.177124023,-2.869812012,1,0,0,0,125,125,12,1,,,,,,,,
,,,,,,,,,,,,,FF,,,,,,,,0.5334,,,,,,,,,,,,,,,,,,,,,,61036353cf559b0c0d3a025c,610367f7cfd6951386c96279,2021-07-29_22h46.57.033,Simcolourproject_2stim_asymm_v5,2020.2.10,MacIntel,60,61025ae37ef11b136ea224fe,,,,,,,,,2544,58.76031494,94.11935425,1,0,0,response1disk,,7,-2.700256348,-9.782043457,1,0,0,rectangle,-2.700256348,-9.782043457,1,0,0,-2.700256348,-9.782043457,1,0,0,0,126,126,91,1,,,,,,,,
,,,,,,,,,,,,,FF,,,,,,,,0.3668,,,,,,,,,,,,,,,,,,,,,,61036353cf559b0c0d3a025c,610367f7cfd6951386c96279,2021-07-29_22h46.57.033,Simcolourproject_2stim_asymm_v5,2020.2.10,MacIntel,60,61025ae37ef11b136ea224fe,,,,,,,,,1845,54.84509277,85.84078979,1,0,0,response1disk,,7,2.576538086,-9.311096191,1,0,0,rectangle,2.576538086,-9.311096191,1,0,0,2.576538086,-9.311096191,1,0,0,0,127,127,58,1,,,,,,,,
,,,,,,,,,,,,,FF,,,,,,,,1.7683,,,,,,,,,,,,,,,,,,,,,,61036353cf559b0c0d3a025c,610367f7cfd6951386c96279,2021-07-29_22h46.57.033,Simcolourproject_2stim_asymm_v5,2020.2.10,MacIntel,60,61025ae37ef11b136ea224fe,,,,,,,,,630,-63.19665527,41.61029053,1,0,0,response7disk,,1,2.253601074,-0.153930664,1,0,0,rectangle,2.253601074,-0.153930664,1,0,0,2.253601074,-0.153930664,1,0,0,0,128,128,158,1,,,,,,,,
,,,,,,,,,,,,,FF,,,,,,,,0.6506,,,,,,,,,,,,,,,,,,,,,,61036353cf559b0c0d3a025c,610367f7cfd6951386c96279,2021-07-29_22h46.57.033,Simcolourproject_2stim_asymm_v5,2020.2.10,MacIntel,60,61025ae37ef11b136ea224fe,,,,,,,,,1256,52.23278809,87.29119873,1,0,0,response1disk,,7,0.846313477,-7.587890625,1,0,0,rectangle,0.846313477,-7.587890625,1,0,0,0.846313477,-7.587890625,1,0,0,0,129,129,46,1,,,,,,,,
,,,,,,,,,,,,,FF,,,,,,,,1.1655,,,,,,,,,,,,,,,,,,,,,,61036353cf559b0c0d3a025c,610367f7cfd6951386c96279,2021-07-29_22h46.57.033,Simcolourproject_2stim_asymm_v5,2020.2.10,MacIntel,60,61025ae37ef11b136ea224fe,,,,,,,,,4149,43.72235107,93.96057129,1,0,0,response1disk,,7,-0.152587891,-5.697570801,1,0,0,rectangle,-0.152587891,-5.697570801,1,0,0,-0.152587891,-5.697570801,1,0,0,0,130,130,112,1,,,,,,,,
,,,,,,,,,,,,,FF,,,,,,,,0.533,,,,,,,,,,,,,,,,,,,,,,61036353cf559b0c0d3a025c,610367f7cfd6951386c96279,2021-07-29_22h46.57.033,Simcolourproject_2stim_asymm_v5,2020.2.10,MacIntel,60,61025ae37ef11b136ea224fe,,,,,,,,,3876,44.62121582,91.94946289,1,0,0,response1disk,,7,2.815917969,-1.711639404,1,0,0,rectangle,2.815917969,-1.711639404,1,0,0,2.815917969,-1.711639404,1,0,0,0,131,131,84,1,,,,,,,,
,,,,,,,,,,,,,FF,,,,,,,,0.5339,,,,,,,,,,,,,,,,,,,,,,61036353cf559b0c0d3a025c,610367f7cfd6951386c96279,2021-07-29_22h46.57.033,Simcolourproject_2stim_asymm_v5,2020.2.10,MacIntel,60,61025ae37ef11b136ea224fe,,,,,,,,,2971,40.2154541,75.68579102,1,0,0,response1disk,,7,7.16204834,-1.174499512,1,0,0,rectangle,7.16204834,-1.174499512,1,0,0,7.16204834,-1.174499512,1,0,0,0,132,132,135,1,,,,,,,,
,,,,,,,,,,,,,FF,,,,,,,,0.4335,,,,,,,,,,,,,,,,,,,,,,61036353cf559b0c0d3a025c,610367f7cfd6951386c96279,2021-07-29_22h46.57.033,Simcolourproject_2stim_asymm_v5,2020.2.10,MacIntel,60,61025ae37ef11b136ea224fe,,,,,,,,,3786,57.27203369,101.0223999,1,0,0,response1disk,,7,1.524475098,-4.644226074,1,0,0,rectangle,81.14672852,-41.21969604,1,0,0,7.777893066,1.257019043,1,0,0,0,133,133,22,1,,response3disk_3,TRUE,5,5,"[19,209,265,293,157,12,233,77,228,140,194,19,200,237,111,269,134,16,241,195]",1.4833,rectangle
,,,,,,,,,,,,,FF,,,,,,,,0.9001,,,,,,,,,,,,,,,,,,,,,,61036353cf559b0c0d3a025c,610367f7cfd6951386c96279,2021-07-29_22h46.57.033,Simcolourproject_2stim_asymm_v5,2020.2.10,MacIntel,60,61025ae37ef11b136ea224fe,,,,,,,,,2097,34.94763184,78.34539795,1,0,0,response1disk,,7,-1.346313477,-3.528747559,1,0,0,rectangle,-1.346313477,-3.528747559,1,0,0,-1.346313477,-3.528747559,1,0,0,0,134,134,138,1,,,,,,,,
,,,,,,,,,,,,,FF,,,,,,,,0.5343,,,,,,,,,,,,,,,,,,,,,,61036353cf559b0c0d3a025c,610367f7cfd6951386c96279,2021-07-29_22h46.57.033,Simcolourproject_2stim_asymm_v5,2020.2.10,MacIntel,60,61025ae37ef11b136ea224fe,,,,,,,,,3893,32.62738037,81.86761475,1,0,0,response1disk,,7,2.977050781,-4.51965332,1,0,0,rectangle,2.977050781,-4.51965332,1,0,0,2.977050781,-4.51965332,1,0,0,0,135,135,72,1,,,,,,,,
,,,,,,,,,,,,,FF,,,,,,,,0.4673,,,,,,,,,,,,,,,,,,,,,,61036353cf559b0c0d3a025c,610367f7cfd6951386c96279,2021-07-29_22h46.57.033,Simcolourproject_2stim_asymm_v5,2020.2.10,MacIntel,60,61025ae37ef11b136ea224fe,,,,,,,,,674,44.96386719,70.3760376,1,0,0,response1disk,,7,4.653198242,-3.851135254,1,0,0,rectangle,4.653198242,-3.851135254,1,0,0,4.653198242,-3.851135254,1,0,0,0,136,136,90,1,,,,,,,,
,,,,,,,,,,,,,FF,,,,,,,,0.4662,,,,,,,,,,,,,,,,,,,,,,61036353cf559b0c0d3a025c,610367f7cfd6951386c96279,2021-07-29_22h46.57.033,Simcolourproject_2stim_asymm_v5,2020.2.10,MacIntel,60,61025ae37ef11b136ea224fe,,,,,,,,,1240,43.19354248,67.21179199,1,0,0,response1disk,,7,6.768310547,-9.527862549,1,0,0,rectangle,6.768310547,-9.527862549,1,0,0,6.768310547,-9.527862549,1,0,0,0,137,137,131,1,,,,,,,,
,,,,,,,,,,,,,FF,,,,,,,,0.5013,,,,,,,,,,,,,,,,,,,,,,61036353cf559b0c0d3a025c,610367f7cfd6951386c96279,2021-07-29_22h46.57.033,Simcolourproject_2stim_asymm_v5,2020.2.10,MacIntel,60,61025ae37ef11b136ea224fe,,,,,,,,,214,51.9619751,105.1939697,1,0,0,response1disk,,7,0.593200684,-8.17300415,1,0,0,rectangle,0.593200684,-8.17300415,1,0,0,0.593200684,-8.17300415,1,0,0,0,138,138,74,1,,,,,,,,
,,,,,,,,,,,,,FF,,,,,,,,1.5997,,,,,,,,,,,,,,,,,,,,,,61036353cf559b0c0d3a025c,610367f7cfd6951386c96279,2021-07-29_22h46.57.033,Simcolourproject_2stim_asymm_v5,2020.2.10,MacIntel,60,61025ae37ef11b136ea224fe,,,,,,,,,31,34.24487305,80.71670532,1,0,0,response1disk,,7,-6.141479492,-0.766418457,1,0,0,rectangle,28.5501709,57.47418213,1,0,0,-6.366699219,-5.127929688,1,0,0,0,139,139,93,1,,response1disk_3,TRUE,7,7,"[19,209,265,293,157,12,233,77,228,140,194,19,200,237,111,269,134,16,241,195]",1.5318,rectangle
,,,,,,,,,,,,,FF,,,,,,,,0.7495,,,,,,,,,,,,,,,,,,,,,,61036353cf559b0c0d3a025c,610367f7cfd6951386c96279,2021-07-29_22h46.57.033,Simcolourproject_2stim_asymm_v5,2020.2.10,MacIntel,60,61025ae37ef11b136ea224fe,,,,,,,,,3623,25.3536377,53.59088135,1,0,0,response1disk,,7,-1.051269531,3.950927734,1,0,0,rectangle,-1.051269531,3.950927734,1,0,0,-1.051269531,3.950927734,1,0,0,0,140,140,88,1,,,,,,,,
,,,,,,,,,,,,,FF,,,,,,,,0.6849,,,,,,,,,,,,,,,,,,,,,,61036353cf559b0c0d3a025c,610367f7cfd6951386c96279,2021-07-29_22h46.57.033,Simcolourproject_2stim_asymm_v5,2020.2.10,MacIntel,60,61025ae37ef11b136ea224fe,,,,,,,,,3992,38.69244385,78.46963501,1,0,0,response1disk,,7,1.147644043,5.276763916,1,0,0,rectangle,1.147644043,5.276763916,1,0,0,1.147644043,5.276763916,1,0,0,0,141,141,149,1,,,,,,,,
,,,,,,,,,,,,,FF,,,,,,,,2.15,,,,,,,,,,,,,,,,,,,,,,61036353cf559b0c0d3a025c,610367f7cfd6951386c96279,2021-07-29_22h46.57.033,Simcolourproject_2stim_asymm_v5,2020.2.10,MacIntel,60,61025ae37ef11b136ea224fe,,,,,,,,,3671,-53.28094482,-89.35784912,1,0,0,response5disk,,3,4.54901123,-3.98626709,1,0,0,rectangle,4.54901123,-3.98626709,1,0,0,4.54901123,-3.98626709,1,0,0,0,142,142,120,1,,,,,,,,
,,,,,,,,,,,,,FF,,,,,,,,0.8837,,,,,,,,,,,,,,,,,,,,,,61036353cf559b0c0d3a025c,610367f7cfd6951386c96279,2021-07-29_22h46.57.033,Simcolourproject_2stim_asymm_v5,2020.2.10,MacIntel,60,61025ae37ef11b136ea224fe,,,,,,,,,2385,34.85961914,75.61425781,1,0,0,response1disk,,7,-1.86151123,0.469818115,1,0,0,rectangle,-1.86151123,0.469818115,1,0,0,-1.86151123,0.469818115,1,0,0,0,143,143,44,1,,,,,,,,
,,,,,,,,,,,,,FF,,,,,,,,0.5341,,,,,,,,,,,,,,,,,,,,,,61036353cf559b0c0d3a025c,610367f7cfd6951386c96279,2021-07-29_22h46.57.033,Simcolourproject_2stim_asymm_v5,2020.2.10,MacIntel,60,61025ae37ef11b136ea224fe,,,,,,,,,2017,39.4251709,82.33221436,1,0,0,response1disk,,7,1.192016602,2.253479004,1,0,0,rectangle,1.192016602,2.253479004,1,0,0,1.192016602,2.253479004,1,0,0,0,144,144,14,1,,,,,,,,
,,,,,,,,,,,,,FF,,,,,,,,0.5167,,,,,,,,,,,,,,,,,,,,,,61036353cf559b0c0d3a025c,610367f7cfd6951386c96279,2021-07-29_22h46.57.033,Simcolourproject_2stim_asymm_v5,2020.2.10,MacIntel,60,61025ae37ef11b136ea224fe,,,,,,,,,2639,33.56738281,76.44049072,1,0,0,response1disk,,7,7.259521484,9.088745117,1,0,0,rectangle,7.259521484,9.088745117,1,0,0,7.259521484,9.088745117,1,0,0,0,145,145,150,1,,,,,,,,
,,,,,,,,,,,,,FF,,,,,,,,4.199,,,,,,,,,,,,,,,,,,,,,,61036353cf559b0c0d3a025c,610367f7cfd6951386c96279,2021-07-29_22h46.57.033,Simcolourproject_2stim_asymm_v5,2020.2.10,MacIntel,60,61025ae37ef11b136ea224fe,,,,,,,,,803,95.21942139,-21.9744873,1,0,0,response3disk,,5,-5.761962891,-2.154602051,1,0,0,rectangle,-5.761962891,-2.154602051,1,0,0,-5.761962891,-2.154602051,1,0,0,0,146,146,148,1,,,,,,,,
,,,,,,,,,,,,,FF,,,,,,,,0.6994,,,,,,,,,,,,,,,,,,,,,,61036353cf559b0c0d3a025c,610367f7cfd6951386c96279,2021-07-29_22h46.57.033,Simcolourproject_2stim_asymm_v5,2020.2.10,MacIntel,60,61025ae37ef11b136ea224fe,,,,,,,,,189,31.60400391,80.40570068,1,0,0,response1disk,,7,6.41998291,12.11877441,1,0,0,rectangle,6.41998291,12.11877441,1,0,0,6.41998291,12.11877441,1,0,0,0,147,147,101,1,,,,,,,,
,,,,,,,,,,,,,FF,,,,,,,,0.9995,,,,,,,,,,,,,,,,,,,,,,61036353cf559b0c0d3a025c,610367f7cfd6951386c96279,2021-07-29_22h46.57.033,Simcolourproject_2stim_asymm_v5,2020.2.10,MacIntel,60,61025ae37ef11b136ea224fe,,,,,,,,,1676,40.45855713,81.76055908,1,0,0,response1disk,,7,-0.831787109,-4.355377197,1,0,0,rectangle,-0.831787109,-4.355377197,1,0,0,-0.831787109,-4.355377197,1,0,0,0,148,148,75,1,,,,,,,,
,,,,,,,,,,,,,FF,,,,,,,,0.7177,,,,,,,,,,,,,,,,,,,,,,61036353cf559b0c0d3a025c,610367f7cfd6951386c96279,2021-07-29_22h46.57.033,Simcolourproject_2stim_asymm_v5,2020.2.10,MacIntel,60,61025ae37ef11b136ea224fe,,,,,,,,,1613,42.79101563,87.1663208,1,0,0,response1disk,,7,4.995239258,7.842590332,1,0,0,rectangle,4.995239258,7.842590332,1,0,0,4.995239258,7.842590332,1,0,0,0,149,149,82,1,,,,,,,,
,,,,,,,,,,,,,FF,,,,,,,,0.6008,,,,,,,,,,,,,,,,,,,,,,61036353cf559b0c0d3a025c,610367f7cfd6951386c96279,2021-07-29_22h46.57.033,Simcolourproject_2stim_asymm_v5,2020.2.10,MacIntel,60,61025ae37ef11b136ea224fe,,,,,,,,,3361,37.03161621,90.93548584,1,0,0,response1disk,,7,9.531005859,6.992370605,1,0,0,rectangle,9.531005859,6.992370605,1,0,0,9.531005859,6.992370605,1,0,0,0,150,150,80,1,,,,,,,,
,,,,,,,,,,,,,FF,,,,,,,,0.4853,,,,,,,,,,,,,,,,,,,,,,61036353cf559b0c0d3a025c,610367f7cfd6951386c96279,2021-07-29_22h46.57.033,Simcolourproject_2stim_asymm_v5,2020.2.10,MacIntel,60,61025ae37ef11b136ea224fe,,,,,,,,,2087,48.70306396,86.02597046,1,0,0,response1disk,,7,-3.45123291,-14.93615723,1,0,0,rectangle,-3.45123291,-14.93615723,1,0,0,-3.45123291,-14.93615723,1,0,0,0,151,151,55,1,,,,,,,,
,,,,,,,,,,,,,FF,,,,,,,,0.4671,,,,,,,,,,,,,,,,,,,,,,61036353cf559b0c0d3a025c,610367f7cfd6951386c96279,2021-07-29_22h46.57.033,Simcolourproject_2stim_asymm_v5,2020.2.10,MacIntel,60,61025ae37ef11b136ea224fe,,,,,,,,,2429,49.96136475,101.3514404,1,0,0,response1disk,,7,-0.196594238,-0.502410889,1,0,0,rectangle,-0.196594238,-0.502410889,1,0,0,-0.196594238,-0.502410889,1,0,0,0,152,152,143,1,,,,,,,,
,,,,,,,,,,,,,FF,,,,,,,,0.4671,,,,,,,,,,,,,,,,,,,,,,61036353cf559b0c0d3a025c,610367f7cfd6951386c96279,2021-07-29_22h46.57.033,Simcolourproject_2stim_asymm_v5,2020.2.10,MacIntel,60,61025ae37ef11b136ea224fe,,,,,,,,,4292,45.77099609,102.9752808,1,0,0,response1disk,,7,14.87957764,5.628662109,1,0,0,rectangle,14.87957764,5.628662109,1,0,0,14.87957764,5.628662109,1,0,0,0,153,153,3,1,,,,,,,,
,,,,,,,,,,,,,FF,,,,,,,,0.5011,,,,,,,,,,,,,,,,,,,,,,61036353cf559b0c0d3a025c,610367f7cfd6951386c96279,2021-07-29_22h46.57.033,Simcolourproject_2stim_asymm_v5,2020.2.10,MacIntel,60,61025ae37ef11b136ea224fe,,,,,,,,,2375,37.51184082,87.26934814,1,0,0,response1disk,,7,1.012512207,3.183837891,1,0,0,rectangle,1.012512207,3.183837891,1,0,0,1.012512207,3.183837891,1,0,0,0,154,154,107,1,,,,,,,,
,,,,,,,,,,,,,FF,,,,,,,,0.5824,,,,,,,,,,,,,,,,,,,,,,61036353cf559b0c0d3a025c,610367f7cfd6951386c96279,2021-07-29_22h46.57.033,Simcolourproject_2stim_asymm_v5,2020.2.10,MacIntel,60,61025ae37ef11b136ea224fe,,,,,,,,,626,38.00769043,83.32894897,1,0,0,response1disk,,7,1.005004883,-6.781951904,1,0,0,rectangle,1.005004883,-6.781951904,1,0,0,1.005004883,-6.781951904,1,0,0,0,155,155,155,1,,,,,,,,
,,,,,,,,,,,,,FF,,,,,,,,0.4836,,,,,,,,,,,,,,,,,,,,,,61036353cf559b0c0d3a025c,610367f7cfd6951386c96279,2021-07-29_22h46.57.033,Simcolourproject_2stim_asymm_v5,2020.2.10,MacIntel,60,61025ae37ef11b136ea224fe,,,,,,,,,3491,51.30639648,93.04544067,1,0,0,response1disk,,7,2.780944824,-4.094177246,1,0,0,rectangle,80.0703125,-39.89666748,1,0,0,6.035339355,0.794494629,1,0,0,0,156,156,134,1,,response3disk_3,TRUE,5,5,"[19,209,265,293,157,12,233,77,228,140,194,19,200,237,111,269,134,16,241,195]",1.8167,rectangle
,,,,,,,,,,,,,FF,,,,,,,,1.9831,,,,,,,,,,,,,,,,,,,,,,61036353cf559b0c0d3a025c,610367f7cfd6951386c96279,2021-07-29_22h46.57.033,Simcolourproject_2stim_asymm_v5,2020.2.10,MacIntel,60,61025ae37ef11b136ea224fe,,,,,,,,,1596,-30.6685791,55.68127441,1,0,0,response7disk,,0,-0.644958496,-8.624359131,1,0,0,rectangle,-0.644958496,-8.624359131,1,0,0,-0.644958496,-8.624359131,1,0,0,0,157,157,25,1,,,,,,,,
,,,,,,,,,,,,,FF,,,,,,,,0.6164,,,,,,,,,,,,,,,,,,,,,,61036353cf559b0c0d3a025c,610367f7cfd6951386c96279,2021-07-29_22h46.57.033,Simcolourproject_2stim_asymm_v5,2020.2.10,MacIntel,60,61025ae37ef11b136ea224fe,,,,,,,,,3481,28.99279785,62.99838257,1,0,0,response1disk,,7,2.821655273,-0.635253906,1,0,0,rectangle,2.821655273,-0.635253906,1,0,0,2.821655273,-0.635253906,1,0,0,0,158,158,116,1,,,,,,,,
,,,,,,,,,,,,,FF,,,,,,,,0.4505,,,,,,,,,,,,,,,,,,,,,,61036353cf559b0c0d3a025c,610367f7cfd6951386c96279,2021-07-29_22h46.57.033,Simcolourproject_2stim_asymm_v5,2020.2.10,MacIntel,60,61025ae37ef11b136ea224fe,,,,,,,,,2348,37.65734863,68.82723999,1,0,0,response1disk,,7,1.0625,-10.53408813,1,0,0,rectangle,1.0625,-10.53408813,1,0,0,1.0625,-10.53408813,1,0,0,0,159,159,11,1,,,,,,,,
,,,,,,,,,,,,,FF,,,,,,,,0.418,,,,,,,,,,,,,,,,,,,,,,61036353cf559b0c0d3a025c,610367f7cfd6951386c96279,2021-07-29_22h46.57.033,Simcolourproject_2stim_asymm_v5,2020.2.10,MacIntel,60,61025ae37ef11b136ea224fe,,,,,,,,,1205,51.13464355,98.4932251,1,0,0,response1disk,,7,7.721923828,-2.592529297,1,0,0,rectangle,7.721923828,-2.592529297,1,0,0,7.721923828,-2.592529297,1,0,0,1,0,160,132,1,,,,,,,,
,,,,,,,,,,,,,FF,,,,,,,,0.3844,,,,,,,,,,,,,,,,,,,,,,61036353cf559b0c0d3a025c,610367f7cfd6951386c96279,2021-07-29_22h46.57.033,Simcolourproject_2stim_asymm_v5,2020.2.10,MacIntel,60,61025ae37ef11b136ea224fe,,,,,,,,,2064,34.00317383,70.21432495,1,0,0,response1disk,,7,1.414367676,-3.957092285,1,0,0,rectangle,1.414367676,-3.957092285,1,0,0,1.414367676,-3.957092285,1,0,0,1,1,161,22,1,,,,,,,,
,,,,,,,,,,,,,FF,,,,,,,,0.6507,,,,,,,,,,,,,,,,,,,,,,61036353cf559b0c0d3a025c,610367f7cfd6951386c96279,2021-07-29_22h46.57.033,Simcolourproject_2stim_asymm_v5,2020.2.10,MacIntel,60,61025ae37ef11b136ea224fe,,,,,,,,,945,33.00604248,59.0291748,1,0,0,response1disk,,7,-2.479187012,-1.458740234,1,0,0,rectangle,-2.479187012,-1.458740234,1,0,0,-2.479187012,-1.458740234,1,0,0,1,2,162,46,1,,,,,,,,
,,,,,,,,,,,,,FF,,,,,,,,1.4514,,,,,,,,,,,,,,,,,,,,,,61036353cf559b0c0d3a025c,610367f7cfd6951386c96279,2021-07-29_22h46.57.033,Simcolourproject_2stim_asymm_v5,2020.2.10,MacIntel,60,61025ae37ef11b136ea224fe,,,,,,,,,2164,37.44946289,67.82894897,1,0,0,response1disk,,7,-1.158752441,-9.425415039,1,0,0,rectangle,-1.158752441,-9.425415039,1,0,0,-1.158752441,-9.425415039,1,0,0,1,3,163,98,1,,,,,,,,
,,,,,,,,,,,,,FF,,,,,,,,0.4997,,,,,,,,,,,,,,,,,,,,,,61036353cf559b0c0d3a025c,610367f7cfd6951386c96279,2021-07-29_22h46.57.033,Simcolourproject_2stim_asymm_v5,2020.2.10,MacIntel,60,61025ae37ef11b136ea224fe,,,,,,,,,3415,37.28479004,49.48046875,1,0,0,response1disk,,7,3.180419922,-4.03213501,1,0,0,rectangle,3.180419922,-4.03213501,1,0,0,3.180419922,-4.03213501,1,0,0,1,4,164,154,1,,,,,,,,
,,,,,,,,,,,,,FF,,,,,,,,0.6167,,,,,,,,,,,,,,,,,,,,,,61036353cf559b0c0d3a025c,610367f7cfd6951386c96279,2021-07-29_22h46.57.033,Simcolourproject_2stim_asymm_v5,2020.2.10,MacIntel,60,61025ae37ef11b136ea224fe,,,,,,,,,2683,34.6796875,59.17382813,1,0,0,response1disk,,7,3.575439453,0.807312012,1,0,0,rectangle,3.575439453,0.807312012,1,0,0,3.575439453,0.807312012,1,0,0,1,5,165,106,1,,,,,,,,
,,,,,,,,,,,,,FF,,,,,,,,0.4994,,,,,,,,,,,,,,,,,,,,,,61036353cf559b0c0d3a025c,610367f7cfd6951386c96279,2021-07-29_22h46.57.033,Simcolourproject_2stim_asymm_v5,2020.2.10,MacIntel,60,61025ae37ef11b136ea224fe,,,,,,,,,3393,34.3638916,62.85314941,1,0,0,response1disk,,7,5.244628906,-2.157775879,1,0,0,rectangle,5.244628906,-2.157775879,1,0,0,5.244628906,-2.157775879,1,0,0,1,6,166,130,1,,,,,,,,
,,,,,,,,,,,,,FF,,,,,,,,0.5153,,,,,,,,,,,,,,,,,,,,,,61036353cf559b0c0d3a025c,610367f7cfd6951386c96279,2021-07-29_22h46.57.033,Simcolourproject_2stim_asymm_v5,2020.2.10,MacIntel,60,61025ae37ef11b136ea224fe,,,,,,,,,1037,39.08654785,70.45077515,1,0,0,response1disk,,7,10.91662598,2.01852417,1,0,0,rectangle,10.91662598,2.01852417,1,0,0,10.91662598,2.01852417,1,0,0,1,7,167,140,1,,,,,,,,
,,,,,,,,,,,,,FF,,,,,,,,0.7674,,,,,,,,,,,,,,,,,,,,,,61036353cf559b0c0d3a025c,610367f7cfd6951386c96279,2021-07-29_22h46.57.033,Simcolourproject_2stim_asymm_v5,2020.2.10,MacIntel,60,61025ae37ef11b136ea224fe,,,,,,,,,2545,37.36779785,72.34387207,1,0,0,response1disk,,7,-0.769775391,2.14743042,1,0,0,rectangle,-0.769775391,2.14743042,1,0,0,-0.769775391,2.14743042,1,0,0,1,8,168,26,1,,,,,,,,
,,,,,,,,,,,,,FF,,,,,,,,0.5168,,,,,,,,,,,,,,,,,,,,,,61036353cf559b0c0d3a025c,610367f7cfd6951386c96279,2021-07-29_22h46.57.033,Simcolourproject_2stim_asymm_v5,2020.2.10,MacIntel,60,61025ae37ef11b136ea224fe,,,,,,,,,2154,36.20288086,79.44406128,1,0,0,response1disk,,7,8.589172363,5.300964355,1,0,0,rectangle,8.589172363,5.300964355,1,0,0,8.589172363,5.300964355,1,0,0,1,9,169,145,1,,,,,,,,
,,,,,,,,,,,,,FF,,,,,,,,0.4659,,,,,,,,,,,,,,,,,,,,,,61036353cf559b0c0d3a025c,610367f7cfd6951386c96279,2021-07-29_22h46.57.033,Simcolourproject_2stim_asymm_v5,2020.2.10,MacIntel,60,61025ae37ef11b136ea224fe,,,,,,,,,2793,31.02154541,66.22314453,1,0,0,response1disk,,7,-0.022888184,-3.526550293,1,0,0,rectangle,-0.022888184,-3.526550293,1,0,0,-0.022888184,-3.526550293,1,0,0,1,10,170,48,1,,,,,,,,
,,,,,,,,,,,,,FF,,,,,,,,0.4339,,,,,,,,,,,,,,,,,,,,,,61036353cf559b0c0d3a025c,610367f7cfd6951386c96279,2021-07-29_22h46.57.033,Simcolourproject_2stim_asymm_v5,2020.2.10,MacIntel,60,61025ae37ef11b136ea224fe,,,,,,,,,4259,42.82208252,81.83123779,1,0,0,response1disk,,7,10.17736816,8.295654297,1,0,0,rectangle,10.17736816,8.295654297,1,0,0,10.17736816,8.295654297,1,0,0,1,11,171,11,1,,,,,,,,
,,,,,,,,,,,,,FF,,,,,,,,0.417,,,,,,,,,,,,,,,,,,,,,,61036353cf559b0c0d3a025c,610367f7cfd6951386c96279,2021-07-29_22h46.57.033,Simcolourproject_2stim_asymm_v5,2020.2.10,MacIntel,60,61025ae37ef11b136ea224fe,,,,,,,,,365,36.00952148,69.50457764,1,0,0,response1disk,,7,11.65661621,13.78488159,1,0,0,rectangle,11.65661621,13.78488159,1,0,0,11.65661621,13.78488159,1,0,0,1,12,172,126,1,,,,,,,,
,,,,,,,,,,,,,FF,,,,,,,,0.5172,,,,,,,,,,,,,,,,,,,,,,61036353cf559b0c0d3a025c,610367f7cfd6951386c96279,2021-07-29_22h46.57.033,Simcolourproject_2stim_asymm_v5,2020.2.10,MacIntel,60,61025ae37ef11b136ea224fe,,,,,,,,,431,42.46258545,57.07275391,1,0,0,response1disk,,7,4.799072266,-3.822967529,1,0,0,rectangle,4.799072266,-3.822967529,1,0,0,4.799072266,-3.822967529,1,0,0,1,13,173,91,1,,,,,,,,
,,,,,,,,,,,,,FF,,,,,,,,0.516,,,,,,,,,,,,,,,,,,,,,,61036353cf559b0c0d3a025c,610367f7cfd6951386c96279,2021-07-29_22h46.57.033,Simcolourproject_2stim_asymm_v5,2020.2.10,MacIntel,60,61025ae37ef11b136ea224fe,,,,,,,,,2082,33.08703613,69.25280762,1,0,0,response1disk,,7,2.057617188,3.149597168,1,0,0,rectangle,2.057617188,3.149597168,1,0,0,2.057617188,3.149597168,1,0,0,1,14,174,101,1,,,,,,,,
,,,,,,,,,,,,,FF,,,,,,,,0.5683,,,,,,,,,,,,,,,,,,,,,,61036353cf559b0c0d3a025c,610367f7cfd6951386c96279,2021-07-29_22h46.57.033,Simcolourproject_2stim_asymm_v5,2020.2.10,MacIntel,60,61025ae37ef11b136ea224fe,,,,,,,,,2904,49.84246826,89.11981201,1,0,0,response1disk,,7,-1.677978516,4.374816895,1,0,0,rectangle,-1.677978516,4.374816895,1,0,0,-1.677978516,4.374816895,1,0,0,1,15,175,3,1,,,,,,,,
,,,,,,,,,,,,,FF,,,,,,,,0.5664,,,,,,,,,,,,,,,,,,,,,,61036353cf559b0c0d3a025c,610367f7cfd6951386c96279,2021-07-29_22h46.57.033,Simcolourproject_2stim_asymm_v5,2020.2.10,MacIntel,60,61025ae37ef11b136ea224fe,,,,,,,,,1907,41.58825684,70.9491272,1,0,0,response1disk,,7,7.528808594,-0.960113525,1,0,0,rectangle,7.528808594,-0.960113525,1,0,0,7.528808594,-0.960113525,1,0,0,1,16,176,116,1,,,,,,,,
,,,,,,,,,,,,,FF,,,,,,,,0.5503,,,,,,,,,,,,,,,,,,,,,,61036353cf559b0c0d3a025c,610367f7cfd6951386c96279,2021-07-29_22h46.57.033,Simcolourproject_2stim_asymm_v5,2020.2.10,MacIntel,60,61025ae37ef11b136ea224fe,,,,,,,,,1312,40.85748291,65.93634033,1,0,0,response1disk,,7,3.828125,-2.209960938,1,0,0,rectangle,3.828125,-2.209960938,1,0,0,3.828125,-2.209960938,1,0,0,1,17,177,158,1,,,,,,,,
,,,,,,,,,,,,,FF,,,,,,,,0.5507,,,,,,,,,,,,,,,,,,,,,,61036353cf559b0c0d3a025c,610367f7cfd6951386c96279,2021-07-29_22h46.57.033,Simcolourproject_2stim_asymm_v5,2020.2.10,MacIntel,60,61025ae37ef11b136ea224fe,,,,,,,,,2180,40.20202637,72.92388916,1,0,0,response1disk,,7,6.860046387,-0.692382813,1,0,0,rectangle,6.860046387,-0.692382813,1,0,0,6.860046387,-0.692382813,1,0,0,1,18,178,70,1,,,,,,,,
,,,,,,,,,,,,,FF,,,,,,,,0.7511,,,,,,,,,,,,,,,,,,,,,,61036353cf559b0c0d3a025c,610367f7cfd6951386c96279,2021-07-29_22h46.57.033,Simcolourproject_2stim_asymm_v5,2020.2.10,MacIntel,60,61025ae37ef11b136ea224fe,,,,,,,,,3309,34.97027588,61.2543335,1,0,0,response1disk,,7,-2.871582031,-3.076171875,1,0,0,rectangle,-2.871582031,-3.076171875,1,0,0,-2.871582031,-3.076171875,1,0,0,1,19,179,65,1,,,,,,,,
,,,,,,,,,,,,,FF,,,,,,,,0.8008,,,,,,,,,,,,,,,,,,,,,,61036353cf559b0c0d3a025c,610367f7cfd6951386c96279,2021-07-29_22h46.57.033,Simcolourproject_2stim_asymm_v5,2020.2.10,MacIntel,60,61025ae37ef11b136ea224fe,,,,,,,,,1552,25.7142334,56.9173584,1,0,0,response1disk,,7,6.662475586,12.70123291,1,0,0,rectangle,6.662475586,12.70123291,1,0,0,6.662475586,12.70123291,1,0,0,1,20,180,110,1,,,,,,,,
,,,,,,,,,,,,,FF,,,,,,,,0.5836,,,,,,,,,,,,,,,,,,,,,,61036353cf559b0c0d3a025c,610367f7cfd6951386c96279,2021-07-29_22h46.57.033,Simcolourproject_2stim_asymm_v5,2020.2.10,MacIntel,60,61025ae37ef11b136ea224fe,,,,,,,,,4043,27.0994873,58.63720703,1,0,0,response1disk,,7,6.042175293,13.20098877,1,0,0,rectangle,6.042175293,13.20098877,1,0,0,6.042175293,13.20098877,1,0,0,1,21,181,128,1,,,,,,,,
,,,,,,,,,,,,,FF,,,,,,,,1.2838,,,,,,,,,,,,,,,,,,,,,,61036353cf559b0c0d3a025c,610367f7cfd6951386c96279,2021-07-29_22h46.57.033,Simcolourproject_2stim_asymm_v5,2020.2.10,MacIntel,60,61025ae37ef11b136ea224fe,,,,,,,,,3826,27.42669678,53.56994629,1,0,0,response1disk,,7,-0.090698242,-2.769622803,1,0,0,rectangle,-0.090698242,-2.769622803,1,0,0,-0.090698242,-2.769622803,1,0,0,1,22,182,103,1,,,,,,,,
,,,,,,,,,,,,,FF,,,,,,,,0.7491,,,,,,,,,,,,,,,,,,,,,,61036353cf559b0c0d3a025c,610367f7cfd6951386c96279,2021-07-29_22h46.57.033,Simcolourproject_2stim_asymm_v5,2020.2.10,MacIntel,60,61025ae37ef11b136ea224fe,,,,,,,,,166,38.25085449,76.08520508,1,0,0,response1disk,,7,0.556884766,9.661956787,1,0,0,rectangle,0.556884766,9.661956787,1,0,0,0.556884766,9.661956787,1,0,0,1,23,183,143,1,,,,,,,,
,,,,,,,,,,,,,FF,,,,,,,,0.8503,,,,,,,,,,,,,,,,,,,,,,61036353cf559b0c0d3a025c,610367f7cfd6951386c96279,2021-07-29_22h46.57.033,Simcolourproject_2stim_asymm_v5,2020.2.10,MacIntel,60,61025ae37ef11b136ea224fe,,,,,,,,,1730,22.32629395,62.27548218,1,0,0,response1disk,,7,-1.11517334,-5.813018799,1,0,0,rectangle,-1.11517334,-5.813018799,1,0,0,-1.11517334,-5.813018799,1,0,0,1,24,184,159,1,,,,,,,,
,,,,,,,,,,,,,FF,,,,,,,,0.5336,,,,,,,,,,,,,,,,,,,,,,61036353cf559b0c0d3a025c,610367f7cfd6951386c96279,2021-07-29_22h46.57.033,Simcolourproject_2stim_asymm_v5,2020.2.10,MacIntel,60,61025ae37ef11b136ea224fe,,,,,,,,,3921,28.68786621,69.44589233,1,0,0,response1disk,,7,6.843139648,-7.391357422,1,0,0,rectangle,6.843139648,-7.391357422,1,0,0,6.843139648,-7.391357422,1,0,0,1,25,185,45,1,,,,,,,,
,,,,,,,,,,,,,FF,,,,,,,,0.5342,,,,,,,,,,,,,,,,,,,,,,61036353cf559b0c0d3a025c,610367f7cfd6951386c96279,2021-07-29_22h46.57.033,Simcolourproject_2stim_asymm_v5,2020.2.10,MacIntel,60,61025ae37ef11b136ea224fe,,,,,,,,,2070,31.56408691,59.86993408,1,0,0,response1disk,,7,8.808959961,12.77230835,1,0,0,rectangle,8.808959961,12.77230835,1,0,0,8.808959961,12.77230835,1,0,0,1,26,186,29,1,,,,,,,,
,,,,,,,,,,,,,FF,,,,,,,,0.5514,,,,,,,,,,,,,,,,,,,,,,61036353cf559b0c0d3a025c,610367f7cfd6951386c96279,2021-07-29_22h46.57.033,Simcolourproject_2stim_asymm_v5,2020.2.10,MacIntel,60,61025ae37ef11b136ea224fe,,,,,,,,,3138,34.10601807,76.23297119,1,0,0,response1disk,,7,6.571228027,-3.844970703,1,0,0,rectangle,6.571228027,-3.844970703,1,0,0,6.571228027,-3.844970703,1,0,0,1,27,187,20,1,,,,,,,,
,,,,,,,,,,,,,FF,,,,,,,,0.716,,,,,,,,,,,,,,,,,,,,,,61036353cf559b0c0d3a025c,610367f7cfd6951386c96279,2021-07-29_22h46.57.033,Simcolourproject_2stim_asymm_v5,2020.2.10,MacIntel,60,61025ae37ef11b136ea224fe,,,,,,,,,612,26.17199707,58.65686035,1,0,0,response1disk,,7,6.033325195,6.974487305,1,0,0,rectangle,6.033325195,6.974487305,1,0,0,6.033325195,6.974487305,1,0,0,1,28,188,35,1,,,,,,,,
,,,,,,,,,,,,,FF,,,,,,,,0.6506,,,,,,,,,,,,,,,,,,,,,,61036353cf559b0c0d3a025c,610367f7cfd6951386c96279,2021-07-29_22h46.57.033,Simcolourproject_2stim_asymm_v5,2020.2.10,MacIntel,60,61025ae37ef11b136ea224fe,,,,,,,,,274,16.10339355,61.93841553,1,0,0,response1disk,,7,2.450378418,-10.2467041,1,0,0,rectangle,2.450378418,-10.2467041,1,0,0,2.450378418,-10.2467041,1,0,0,1,29,189,131,1,,,,,,,,
,,,,,,,,,,,,,FF,,,,,,,,0.4847,,,,,,,,,,,,,,,,,,,,,,61036353cf559b0c0d3a025c,610367f7cfd6951386c96279,2021-07-29_22h46.57.033,Simcolourproject_2stim_asymm_v5,2020.2.10,MacIntel,60,61025ae37ef11b136ea224fe,,,,,,,,,2806,34.40600586,60.34869385,1,0,0,response1disk,,7,10.21630859,9.432037354,1,0,0,rectangle,10.21630859,9.432037354,1,0,0,10.21630859,9.432037354,1,0,0,1,30,190,0,1,,,,,,,,
,,,,,,,,,,,,,FF,,,,,,,,0.585,,,,,,,,,,,,,,,,,,,,,,61036353cf559b0c0d3a025c,610367f7cfd6951386c96279,2021-07-29_22h46.57.033,Simcolourproject_2stim_asymm_v5,2020.2.10,MacIntel,60,61025ae37ef11b136ea224fe,,,,,,,,,2502,48.86560059,82.59558105,1,0,0,response1disk,,7,10.68359375,9.759307861,1,0,0,rectangle,10.68359375,9.759307861,1,0,0,10.68359375,9.759307861,1,0,0,1,31,191,136,1,,,,,,,,
,,,,,,,,,,,,,FF,,,,,,,,0.6353,,,,,,,,,,,,,,,,,,,,,,61036353cf559b0c0d3a025c,610367f7cfd6951386c96279,2021-07-29_22h46.57.033,Simcolourproject_2stim_asymm_v5,2020.2.10,MacIntel,60,61025ae37ef11b136ea224fe,,,,,,,,,239,30.00268555,53.5267334,1,0,0,response1disk,,7,8.16998291,4.438537598,1,0,0,rectangle,8.16998291,4.438537598,1,0,0,8.16998291,4.438537598,1,0,0,1,32,192,43,1,,,,,,,,
,,,,,,,,,,,,,FF,,,,,,,,0.6178,,,,,,,,,,,,,,,,,,,,,,61036353cf559b0c0d3a025c,610367f7cfd6951386c96279,2021-07-29_22h46.57.033,Simcolourproject_2stim_asymm_v5,2020.2.10,MacIntel,60,61025ae37ef11b136ea224fe,,,,,,,,,3431,37.18103027,62.73736572,1,0,0,response1disk,,7,5.513244629,4.75,1,0,0,rectangle,-33.59130859,89.79223633,1,0,0,2.401977539,-16.55157471,1,0,0,1,33,193,76,1,,response7disk_3,TRUE,0,0,"[19,209,265,293,157,12,233,77,228,140,194,19,200,237,111,269,134,16,241,195]",1.7159,rectangle
,,,,,,,,,,,,,FF,,,,,,,,0.7017,,,,,,,,,,,,,,,,,,,,,,61036353cf559b0c0d3a025c,610367f7cfd6951386c96279,2021-07-29_22h46.57.033,Simcolourproject_2stim_asymm_v5,2020.2.10,MacIntel,60,61025ae37ef11b136ea224fe,,,,,,,,,23,45.04998779,78.50738525,1,0,0,response1disk,,7,14.25646973,4.733032227,1,0,0,rectangle,-38.04876709,-85.17132568,1,0,0,-2.709472656,-0.129974365,1,0,0,1,34,194,127,1,,response5disk_3,TRUE,3,3,"[19,209,265,293,157,12,233,77,228,140,194,19,200,237,111,269,134,16,241,195]",2.2515,rectangle
,,,,,,,,,,,,,FF,,,,,,,,0.7844,,,,,,,,,,,,,,,,,,,,,,61036353cf559b0c0d3a025c,610367f7cfd6951386c96279,2021-07-29_22h46.57.033,Simcolourproject_2stim_asymm_v5,2020.2.10,MacIntel,60,61025ae37ef11b136ea224fe,,,,,,,,,3369,34.90966797,76.25863647,1,0,0,response1disk,,7,-1.26574707,0.956817627,1,0,0,rectangle,-1.26574707,0.956817627,1,0,0,-1.26574707,0.956817627,1,0,0,1,35,195,111,1,,,,,,,,
,,,,,,,,,,,,,FF,,,,,,,,1.0171,,,,,,,,,,,,,,,,,,,,,,61036353cf559b0c0d3a025c,610367f7cfd6951386c96279,2021-07-29_22h46.57.033,Simcolourproject_2stim_asymm_v5,2020.2.10,MacIntel,60,61025ae37ef11b136ea224fe,,,,,,,,,3128,36.73815918,69.27093506,1,0,0,response1disk,,7,8.682617188,14.6555481,1,0,0,rectangle,8.682617188,14.6555481,1,0,0,8.682617188,14.6555481,1,0,0,1,36,196,83,1,,,,,,,,
,,,,,,,,,,,,,FF,,,,,,,,0.5174,,,,,,,,,,,,,,,,,,,,,,61036353cf559b0c0d3a025c,610367f7cfd6951386c96279,2021-07-29_22h46.57.033,Simcolourproject_2stim_asymm_v5,2020.2.10,MacIntel,60,61025ae37ef11b136ea224fe,,,,,,,,,2694,33.34307861,70.87200928,1,0,0,response1disk,,7,7.304199219,7.454101563,1,0,0,rectangle,7.304199219,7.454101563,1,0,0,7.304199219,7.454101563,1,0,0,1,37,197,32,1,,,,,,,,
,,,,,,,,,,,,,FF,,,,,,,,2.7835,,,,,,,,,,,,,,,,,,,,,,61036353cf559b0c0d3a025c,610367f7cfd6951386c96279,2021-07-29_22h46.57.033,Simcolourproject_2stim_asymm_v5,2020.2.10,MacIntel,60,61025ae37ef11b136ea224fe,,,,,,,,,2214,37.46643066,74.74645996,1,0,0,response1disk,,7,2.190063477,-6.278503418,1,0,0,rectangle,2.190063477,-6.278503418,1,0,0,2.190063477,-6.278503418,1,0,0,1,38,198,2,1,,,,,,,,
,,,,,,,,,,,,,FF,,,,,,,,0.7165,,,,,,,,,,,,,,,,,,,,,,61036353cf559b0c0d3a025c,610367f7cfd6951386c96279,2021-07-29_22h46.57.033,Simcolourproject_2stim_asymm_v5,2020.2.10,MacIntel,60,61025ae37ef11b136ea224fe,,,,,,,,,2586,31.25665283,59.22741699,1,0,0,response1disk,,7,3.671264648,-3.402526855,1,0,0,rectangle,77.65393066,-37.03213501,1,0,0,-1.139282227,-1.475891113,1,0,0,1,39,199,77,1,,response3disk_3,TRUE,5,5,"[19,209,265,293,157,12,233,77,228,140,194,19,200,237,111,269,134,16,241,195]",1.5158,rectangle
,,,,,,,,,,,,,FF,,,,,,,,0.7832,,,,,,,,,,,,,,,,,,,,,,61036353cf559b0c0d3a025c,610367f7cfd6951386c96279,2021-07-29_22h46.57.033,Simcolourproject_2stim_asymm_v5,2020.2.10,MacIntel,60,61025ae37ef11b136ea224fe,,,,,,,,,4310,20.1829834,57.68487549,1,0,0,response1disk,,7,5.88458252,-4.069519043,1,0,0,rectangle,5.88458252,-4.069519043,1,0,0,5.88458252,-4.069519043,1,0,0,1,40,200,36,1,,,,,,,,
,,,,,,,,,,,,,FF,,,,,,,,0.6334,,,,,,,,,,,,,,,,,,,,,,61036353cf559b0c0d3a025c,610367f7cfd6951386c96279,2021-07-29_22h46.57.033,Simcolourproject_2stim_asymm_v5,2020.2.10,MacIntel,60,61025ae37ef11b136ea224fe,,,,,,,,,3169,29.00878906,64.28713989,1,0,0,response1disk,,7,-1.095214844,-3.424316406,1,0,0,rectangle,-1.095214844,-3.424316406,1,0,0,-1.095214844,-3.424316406,1,0,0,1,41,201,47,1,,,,,,,,
,,,,,,,,,,,,,FF,,,,,,,,0.501,,,,,,,,,,,,,,,,,,,,,,61036353cf559b0c0d3a025c,610367f7cfd6951386c96279,2021-07-29_22h46.57.033,Simcolourproject_2stim_asymm_v5,2020.2.10,MacIntel,60,61025ae37ef11b136ea224fe,,,,,,,,,791,39.37896729,69.69604492,1,0,0,response1disk,,7,3.550537109,0.457519531,1,0,0,rectangle,3.550537109,0.457519531,1,0,0,3.550537109,0.457519531,1,0,0,1,42,202,60,1,,,,,,,,
,,,,,,,,,,,,,FF,,,,,,,,0.5335,,,,,,,,,,,,,,,,,,,,,,61036353cf559b0c0d3a025c,610367f7cfd6951386c96279,2021-07-29_22h46.57.033,Simcolourproject_2stim_asymm_v5,2020.2.10,MacIntel,60,61025ae37ef11b136ea224fe,,,,,,,,,1082,35.01580811,66.15594482,1,0,0,response1disk,,7,-0.722717285,0.443908691,1,0,0,rectangle,-0.722717285,0.443908691,1,0,0,-0.722717285,0.443908691,1,0,0,1,43,203,74,1,,,,,,,,
,,,,,,,,,,,,,FF,,,,,,,,0.5167,,,,,,,,,,,,,,,,,,,,,,61036353cf559b0c0d3a025c,610367f7cfd6951386c96279,2021-07-29_22h46.57.033,Simcolourproject_2stim_asymm_v5,2020.2.10,MacIntel,60,61025ae37ef11b136ea224fe,,,,,,,,,2211,27.95581055,69.08071899,1,0,0,response1disk,,7,-0.601623535,-0.144104004,1,0,0,rectangle,-0.601623535,-0.144104004,1,0,0,-0.601623535,-0.144104004,1,0,0,1,44,204,78,1,,,,,,,,
,,,,,,,,,,,,,FF,,,,,,,,1.5843,,,,,,,,,,,,,,,,,,,,,,61036353cf559b0c0d3a025c,610367f7cfd6951386c96279,2021-07-29_22h46.57.033,Simcolourproject_2stim_asymm_v5,2020.2.10,MacIntel,60,61025ae37ef11b136ea224fe,,,,,,,,,2607,-56.35424805,-87.78198242,1,0,0,response5disk,,3,-1.075012207,-3.37097168,1,0,0,rectangle,-1.075012207,-3.37097168,1,0,0,-1.075012207,-3.37097168,1,0,0,1,45,205,61,1,,,,,,,,
,,,,,,,,,,,,,FF,,,,,,,,2.0838,,,,,,,,,,,,,,,,,,,,,,61036353cf559b0c0d3a025c,610367f7cfd6951386c96279,2021-07-29_22h46.57.033,Simcolourproject_2stim_asymm_v5,2020.2.10,MacIntel,60,61025ae37ef11b136ea224fe,,,,,,,,,2938,41.8684082,81.8895874,1,0,0,response1disk,,7,3.227905273,-1.424072266,1,0,0,rectangle,3.227905273,-1.424072266,1,0,0,3.227905273,-1.424072266,1,0,0,1,46,206,80,1,,,,,,,,
,,,,,,,,,,,,,FF,,,,,,,,0.9005,,,,,,,,,,,,,,,,,,,,,,61036353cf559b0c0d3a025c,610367f7cfd6951386c96279,2021-07-29_22h46.57.033,Simcolourproject_2stim_asymm_v5,2020.2.10,MacIntel,60,61025ae37ef11b136ea224fe,,,,,,,,,1842,32.74066162,69.2644043,1,0,0,response1disk,,7,-1.22442627,1.13949585,1,0,0,rectangle,-1.22442627,1.13949585,1,0,0,-1.22442627,1.13949585,1,0,0,1,47,207,121,1,,,,,,,,
,,,,,,,,,,,,,FF,,,,,,,,0.518,,,,,,,,,,,,,,,,,,,,,,61036353cf559b0c0d3a025c,610367f7cfd6951386c96279,2021-07-29_22h46.57.033,Simcolourproject_2stim_asymm_v5,2020.2.10,MacIntel,60,61025ae37ef11b136ea224fe,,,,,,,,,2389,31.63946533,62.69711304,1,0,0,response1disk,,7,1.504943848,-5.596679688,1,0,0,rectangle,-41.30633545,103.4494629,1,0,0,1.271850586,2.642181396,1,0,0,1,48,208,41,1,,response7disk_3,TRUE,0,0,"[19,209,265,293,157,12,233,77,228,140,194,19,200,237,111,269,134,16,241,195]",1.451,rectangle
,,,,,,,,,,,,,FF,,,,,,,,0.7334,,,,,,,,,,,,,,,,,,,,,,61036353cf559b0c0d3a025c,610367f7cfd6951386c96279,2021-07-29_22h46.57.033,Simcolourproject_2stim_asymm_v5,2020.2.10,MacIntel,60,61025ae37ef11b136ea224fe,,,,,,,,,1511,40.97717285,92.81582642,1,0,0,response1disk,,7,1.346557617,-8.62097168,1,0,0,rectangle,1.346557617,-8.62097168,1,0,0,1.346557617,-8.62097168,1,0,0,1,49,209,59,1,,,,,,,,
,,,,,,,,,,,,,FF,,,,,,,,2.2509,,,,,,,,,,,,,,,,,,,,,,61036353cf559b0c0d3a025c,610367f7cfd6951386c96279,2021-07-29_22h46.57.033,Simcolourproject_2stim_asymm_v5,2020.2.10,MacIntel,60,61025ae37ef11b136ea224fe,,,,,,,,,3470,-45.90014648,-102.4718628,1,0,0,response5disk,,3,-1.861694336,0.602600098,1,0,0,rectangle,-1.861694336,0.602600098,1,0,0,-1.861694336,0.602600098,1,0,0,1,50,210,71,1,,,,,,,,
,,,,,,,,,,,,,FF,,,,,,,,0.6339,,,,,,,,,,,,,,,,,,,,,,61036353cf559b0c0d3a025c,610367f7cfd6951386c96279,2021-07-29_22h46.57.033,Simcolourproject_2stim_asymm_v5,2020.2.10,MacIntel,60,61025ae37ef11b136ea224fe,,,,,,,,,4199,33.57769775,73.55889893,1,0,0,response1disk,,7,4.299072266,2.074951172,1,0,0,rectangle,4.299072266,2.074951172,1,0,0,4.299072266,2.074951172,1,0,0,1,51,211,117,1,,,,,,,,
,,,,,,,,,,,,,FF,,,,,,,,0.6493,,,,,,,,,,,,,,,,,,,,,,61036353cf559b0c0d3a025c,610367f7cfd6951386c96279,2021-07-29_22h46.57.033,Simcolourproject_2stim_asymm_v5,2020.2.10,MacIntel,60,61025ae37ef11b136ea224fe,,,,,,,,,1523,35.24560547,65.15454102,1,0,0,response1disk,,7,5.750671387,-0.49206543,1,0,0,rectangle,5.750671387,-0.49206543,1,0,0,5.750671387,-0.49206543,1,0,0,1,52,212,112,1,,,,,,,,
,,,,,,,,,,,,,FF,,,,,,,,0.5015,,,,,,,,,,,,,,,,,,,,,,61036353cf559b0c0d3a025c,610367f7cfd6951386c96279,2021-07-29_22h46.57.033,Simcolourproject_2stim_asymm_v5,2020.2.10,MacIntel,60,61025ae37ef11b136ea224fe,,,,,,,,,1930,32.11096191,72.25500488,1,0,0,response1disk,,7,5.29498291,-0.943054199,1,0,0,rectangle,5.29498291,-0.943054199,1,0,0,5.29498291,-0.943054199,1,0,0,1,53,213,99,1,,,,,,,,
,,,,,,,,,,,,,FF,,,,,,,,0.5001,,,,,,,,,,,,,,,,,,,,,,61036353cf559b0c0d3a025c,610367f7cfd6951386c96279,2021-07-29_22h46.57.033,Simcolourproject_2stim_asymm_v5,2020.2.10,MacIntel,60,61025ae37ef11b136ea224fe,,,,,,,,,1398,35.04614258,70.67495728,1,0,0,response1disk,,7,8.819091797,-3.034301758,1,0,0,rectangle,8.819091797,-3.034301758,1,0,0,8.819091797,-3.034301758,1,0,0,1,54,214,155,1,,,,,,,,
,,,,,,,,,,,,,FF,,,,,,,,0.4665,,,,,,,,,,,,,,,,,,,,,,61036353cf559b0c0d3a025c,610367f7cfd6951386c96279,2021-07-29_22h46.57.033,Simcolourproject_2stim_asymm_v5,2020.2.10,MacIntel,60,61025ae37ef11b136ea224fe,,,,,,,,,2758,38.66650391,78.97802734,1,0,0,response1disk,,7,8.862243652,-2.124084473,1,0,0,rectangle,8.862243652,-2.124084473,1,0,0,8.862243652,-2.124084473,1,0,0,1,55,215,63,1,,,,,,,,
,,,,,,,,,,,,,FF,,,,,,,,0.5344,,,,,,,,,,,,,,,,,,,,,,61036353cf559b0c0d3a025c,610367f7cfd6951386c96279,2021-07-29_22h46.57.033,Simcolourproject_2stim_asymm_v5,2020.2.10,MacIntel,60,61025ae37ef11b136ea224fe,,,,,,,,,1237,26.82232666,66.2159729,1,0,0,response1disk,,7,-0.382446289,1.861328125,1,0,0,rectangle,-0.382446289,1.861328125,1,0,0,-0.382446289,1.861328125,1,0,0,1,56,216,10,1,,,,,,,,
,,,,,,,,,,,,,FF,,,,,,,,0.516,,,,,,,,,,,,,,,,,,,,,,61036353cf559b0c0d3a025c,610367f7cfd6951386c96279,2021-07-29_22h46.57.033,Simcolourproject_2stim_asymm_v5,2020.2.10,MacIntel,60,61025ae37ef11b136ea224fe,,,,,,,,,511,37.29016113,77.57971191,1,0,0,response1disk,,7,-1.94909668,-12.00616455,1,0,0,rectangle,-1.94909668,-12.00616455,1,0,0,-1.94909668,-12.00616455,1,0,0,1,57,217,86,1,,,,,,,,
,,,,,,,,,,,,,FF,,,,,,,,0.4501,,,,,,,,,,,,,,,,,,,,,,61036353cf559b0c0d3a025c,610367f7cfd6951386c96279,2021-07-29_22h46.57.033,Simcolourproject_2stim_asymm_v5,2020.2.10,MacIntel,60,61025ae37ef11b136ea224fe,,,,,,,,,2473,31.71496582,58.71520996,1,0,0,response1disk,,7,0.08795166,-4.174591064,1,0,0,rectangle,0.08795166,-4.174591064,1,0,0,0.08795166,-4.174591064,1,0,0,1,58,218,30,1,,,,,,,,
,,,,,,,,,,,,,FF,,,,,,,,2.6835,,,,,,,,,,,,,,,,,,,,,,61036353cf559b0c0d3a025c,610367f7cfd6951386c96279,2021-07-29_22h46.57.033,Simcolourproject_2stim_asymm_v5,2020.2.10,MacIntel,60,61025ae37ef11b136ea224fe,,,,,,,,,2832,-45.7164917,-82.53991699,1,0,0,response5disk,,3,1.844482422,-2.138671875,1,0,0,rectangle,1.844482422,-2.138671875,1,0,0,1.844482422,-2.138671875,1,0,0,1,59,219,87,1,,,,,,,,
,,,,,,,,,,,,,FF,,,,,,,,0.8342,,,,,,,,,,,,,,,,,,,,,,61036353cf559b0c0d3a025c,610367f7cfd6951386c96279,2021-07-29_22h46.57.033,Simcolourproject_2stim_asymm_v5,2020.2.10,MacIntel,60,61025ae37ef11b136ea224fe,,,,,,,,,2278,37.69995117,70.12109375,1,0,0,response1disk,,7,2.285766602,-4.980834961,1,0,0,rectangle,2.285766602,-4.980834961,1,0,0,2.285766602,-4.980834961,1,0,0,1,60,220,50,1,,,,,,,,
,,,,,,,,,,,,,FF,,,,,,,,0.4997,,,,,,,,,,,,,,,,,,,,,,61036353cf559b0c0d3a025c,610367f7cfd6951386c96279,2021-07-29_22h46.57.033,Simcolourproject_2stim_asymm_v5,2020.2.10,MacIntel,60,61025ae37ef11b136ea224fe,,,,,,,,,1083,39.34619141,75.27758789,1,0,0,response1disk,,7,1.034606934,-8.815551758,1,0,0,rectangle,1.034606934,-8.815551758,1,0,0,1.034606934,-8.815551758,1,0,0,1,61,221,9,1,,,,,,,,
,,,,,,,,,,,,,FF,,,,,,,,1.484,,,,,,,,,,,,,,,,,,,,,,61036353cf559b0c0d3a025c,610367f7cfd6951386c96279,2021-07-29_22h46.57.033,Simcolourproject_2stim_asymm_v5,2020.2.10,MacIntel,60,61025ae37ef11b136ea224fe,,,,,,,,,3503,39.6739502,71.1940918,1,0,0,response1disk,,7,-1.766235352,-8.393371582,1,0,0,rectangle,-1.766235352,-8.393371582,1,0,0,-1.766235352,-8.393371582,1,0,0,1,62,222,18,1,,,,,,,,
,,,,,,,,,,,,,FF,,,,,,,,0.4165,,,,,,,,,,,,,,,,,,,,,,61036353cf559b0c0d3a025c,610367f7cfd6951386c96279,2021-07-29_22h46.57.033,Simcolourproject_2stim_asymm_v5,2020.2.10,MacIntel,60,61025ae37ef11b136ea224fe,,,,,,,,,3530,41.92102051,60.16571045,1,0,0,response1disk,,7,1.265625,-8.039733887,1,0,0,rectangle,1.265625,-8.039733887,1,0,0,1.265625,-8.039733887,1,0,0,1,63,223,92,1,,,,,,,,
,,,,,,,,,,,,,FF,,,,,,,,0.5342,,,,,,,,,,,,,,,,,,,,,,61036353cf559b0c0d3a025c,610367f7cfd6951386c96279,2021-07-29_22h46.57.033,Simcolourproject_2stim_asymm_v5,2020.2.10,MacIntel,60,61025ae37ef11b136ea224fe,,,,,,,,,1252,34.27416992,67.26000977,1,0,0,response1disk,,7,14.26940918,8.267456055,1,0,0,rectangle,14.26940918,8.267456055,1,0,0,14.26940918,8.267456055,1,0,0,1,64,224,57,1,,,,,,,,
,,,,,,,,,,,,,FF,,,,,,,,1.4333,,,,,,,,,,,,,,,,,,,,,,61036353cf559b0c0d3a025c,610367f7cfd6951386c96279,2021-07-29_22h46.57.033,Simcolourproject_2stim_asymm_v5,2020.2.10,MacIntel,60,61025ae37ef11b136ea224fe,,,,,,,,,4206,91.5491333,35.253479,1,0,0,response1disk,,6,1.058349609,1.202697754,1,0,0,rectangle,1.058349609,1.202697754,1,0,0,1.058349609,1.202697754,1,0,0,1,65,225,16,1,,,,,,,,
,,,,,,,,,,,,,FF,,,,,,,,0.6177,,,,,,,,,,,,,,,,,,,,,,61036353cf559b0c0d3a025c,610367f7cfd6951386c96279,2021-07-29_22h46.57.033,Simcolourproject_2stim_asymm_v5,2020.2.10,MacIntel,60,61025ae37ef11b136ea224fe,,,,,,,,,1313,26.15710449,59.67788696,1,0,0,response1disk,,7,1.437255859,-3.862213135,1,0,0,rectangle,1.437255859,-3.862213135,1,0,0,1.437255859,-3.862213135,1,0,0,1,66,226,58,1,,,,,,,,
,,,,,,,,,,,,,FF,,,,,,,,2.7167,,,,,,,,,,,,,,,,,,,,,,61036353cf559b0c0d3a025c,610367f7cfd6951386c96279,2021-07-29_22h46.57.033,Simcolourproject_2stim_asymm_v5,2020.2.10,MacIntel,60,61025ae37ef11b136ea224fe,,,,,,,,,3670,-34.15917969,-93.07965088,1,0,0,response5disk,,3,4.11328125,0.960876465,1,0,0,rectangle,-115.5205078,-63.5067749,1,0,0,-1.160217285,-1.738647461,1,0,0,1,67,227,122,1,,response5disk_3,TRUE,2,2,"[19,209,265,293,157,12,233,77,228,140,194,19,200,237,111,269,134,16,241,195]",2.3339,rectangle
,,,,,,,,,,,,,FF,,,,,,,,2.3009,,,,,,,,,,,,,,,,,,,,,,61036353cf559b0c0d3a025c,610367f7cfd6951386c96279,2021-07-29_22h46.57.033,Simcolourproject_2stim_asymm_v5,2020.2.10,MacIntel,60,61025ae37ef11b136ea224fe,,,,,,,,,3907,56.65966797,-75.23999023,1,0,0,response3disk,,4,-8.038208008,8.907684326,1,0,0,rectangle,-8.038208008,8.907684326,1,0,0,-8.038208008,8.907684326,1,0,0,1,68,228,105,1,,,,,,,,
,,,,,,,,,,,,,FF,,,,,,,,0.7971,,,,,,,,,,,,,,,,,,,,,,61036353cf559b0c0d3a025c,610367f7cfd6951386c96279,2021-07-29_22h46.57.033,Simcolourproject_2stim_asymm_v5,2020.2.10,MacIntel,60,61025ae37ef11b136ea224fe,,,,,,,,,1777,31.9765625,71.2791748,1,0,0,response1disk,,7,6.365234375,2.462097168,1,0,0,rectangle,6.365234375,2.462097168,1,0,0,6.365234375,2.462097168,1,0,0,1,69,229,17,1,,,,,,,,
,,,,,,,,,,,,,FF,,,,,,,,0.6017,,,,,,,,,,,,,,,,,,,,,,61036353cf559b0c0d3a025c,610367f7cfd6951386c96279,2021-07-29_22h46.57.033,Simcolourproject_2stim_asymm_v5,2020.2.10,MacIntel,60,61025ae37ef11b136ea224fe,,,,,,,,,1587,41.14105225,76.06481934,1,0,0,response1disk,,7,6.340393066,9.828918457,1,0,0,rectangle,6.340393066,9.828918457,1,0,0,6.340393066,9.828918457,1,0,0,1,70,230,72,1,,,,,,,,
,,,,,,,,,,,,,FF,,,,,,,,0.4836,,,,,,,,,,,,,,,,,,,,,,61036353cf559b0c0d3a025c,610367f7cfd6951386c96279,2021-07-29_22h46.57.033,Simcolourproject_2stim_asymm_v5,2020.2.10,MacIntel,60,61025ae37ef11b136ea224fe,,,,,,,,,3406,33.11553955,73.05496216,1,0,0,response1disk,,7,5.799438477,0.574554443,1,0,0,rectangle,5.799438477,0.574554443,1,0,0,5.799438477,0.574554443,1,0,0,1,71,231,54,1,,,,,,,,
,,,,,,,,,,,,,FF,,,,,,,,0.45,,,,,,,,,,,,,,,,,,,,,,61036353cf559b0c0d3a025c,610367f7cfd6951386c96279,2021-07-29_22h46.57.033,Simcolourproject_2stim_asymm_v5,2020.2.10,MacIntel,60,61025ae37ef11b136ea224fe,,,,,,,,,1562,36.18939209,62.86550903,1,0,0,response1disk,,7,0.803344727,-0.778747559,1,0,0,rectangle,41.17822266,-71.70043945,1,0,0,3.520202637,7.663574219,1,0,0,1,72,232,52,1,,response3disk_3,TRUE,4,4,"[19,209,265,293,157,12,233,77,228,140,194,19,200,237,111,269,134,16,241,195]",1.9167,rectangle
,,,,,,,,,,,,,FF,,,,,,,,0.7006,,,,,,,,,,,,,,,,,,,,,,61036353cf559b0c0d3a025c,610367f7cfd6951386c96279,2021-07-29_22h46.57.033,Simcolourproject_2stim_asymm_v5,2020.2.10,MacIntel,60,61025ae37ef11b136ea224fe,,,,,,,,,1176,45.10778809,86.07989502,1,0,0,response1disk,,7,2.201965332,3.780700684,1,0,0,rectangle,2.201965332,3.780700684,1,0,0,2.201965332,3.780700684,1,0,0,1,73,233,125,1,,,,,,,,
,,,,,,,,,,,,,FF,,,,,,,,2.1665,,,,,,,,,,,,,,,,,,,,,,61036353cf559b0c0d3a025c,610367f7cfd6951386c96279,2021-07-29_22h46.57.033,Simcolourproject_2stim_asymm_v5,2020.2.10,MacIntel,60,61025ae37ef11b136ea224fe,,,,,,,,,4207,92.85778809,-41.40155029,1,0,0,response3disk,,5,1.935668945,-6.868255615,1,0,0,rectangle,1.935668945,-6.868255615,1,0,0,1.935668945,-6.868255615,1,0,0,1,74,234,21,1,,,,,,,,
,,,,,,,,,,,,,FF,,,,,,,,0.7012,,,,,,,,,,,,,,,,,,,,,,61036353cf559b0c0d3a025c,610367f7cfd6951386c96279,2021-07-29_22h46.57.033,Simcolourproject_2stim_asymm_v5,2020.2.10,MacIntel,60,61025ae37ef11b136ea224fe,,,,,,,,,1878,32.23657227,92.59484863,1,0,0,response1disk,,7,3.676147461,-4.850341797,1,0,0,rectangle,3.676147461,-4.850341797,1,0,0,3.676147461,-4.850341797,1,0,0,1,75,235,135,1,,,,,,,,
,,,,,,,,,,,,,FF,,,,,,,,0.5498,,,,,,,,,,,,,,,,,,,,,,61036353cf559b0c0d3a025c,610367f7cfd6951386c96279,2021-07-29_22h46.57.033,Simcolourproject_2stim_asymm_v5,2020.2.10,MacIntel,60,61025ae37ef11b136ea224fe,,,,,,,,,2790,31.49243164,60.90222168,1,0,0,response1disk,,7,11.02349854,3.477722168,1,0,0,rectangle,-30.83154297,73.64233398,1,0,0,-13.09570313,1.109008789,1,0,0,1,76,236,107,1,,response7disk_3,TRUE,0,0,"[19,209,265,293,157,12,233,77,228,140,194,19,200,237,111,269,134,16,241,195]",1.4169,rectangle
,,,,,,,,,,,,,FF,,,,,,,,1.0178,,,,,,,,,,,,,,,,,,,,,,61036353cf559b0c0d3a025c,610367f7cfd6951386c96279,2021-07-29_22h46.57.033,Simcolourproject_2stim_asymm_v5,2020.2.10,MacIntel,60,61025ae37ef11b136ea224fe,,,,,,,,,2989,35.22387695,62.55111694,1,0,0,response1disk,,7,10.13806152,8.509216309,1,0,0,rectangle,10.13806152,8.509216309,1,0,0,10.13806152,8.509216309,1,0,0,1,77,237,108,1,,,,,,,,
,,,,,,,,,,,,,FF,,,,,,,,0.8169,,,,,,,,,,,,,,,,,,,,,,61036353cf559b0c0d3a025c,610367f7cfd6951386c96279,2021-07-29_22h46.57.033,Simcolourproject_2stim_asymm_v5,2020.2.10,MacIntel,60,61025ae37ef11b136ea224fe,,,,,,,,,4341,29.89685059,65.60305786,1,0,0,response1disk,,7,8.937683105,0.403198242,1,0,0,rectangle,8.937683105,0.403198242,1,0,0,8.937683105,0.403198242,1,0,0,1,78,238,156,1,,,,,,,,
,,,,,,,,,,,,,FF,,,,,,,,1.7519,,,,,,,,,,,,,,,,,,,,,,61036353cf559b0c0d3a025c,610367f7cfd6951386c96279,2021-07-29_22h46.57.033,Simcolourproject_2stim_asymm_v5,2020.2.10,MacIntel,60,61025ae37ef11b136ea224fe,,,,,,,,,3389,-43.16003418,-81.26257324,1,0,0,response5disk,,3,0.721069336,-5.431152344,1,0,0,rectangle,0.721069336,-5.431152344,1,0,0,0.721069336,-5.431152344,1,0,0,1,79,239,89,1,,,,,,,,
,,,,,,,,,,,,,FF,,,,,,,,1.8001,,,,,,,,,,,,,,,,,,,,,,61036353cf559b0c0d3a025c,610367f7cfd6951386c96279,2021-07-29_22h46.57.033,Simcolourproject_2stim_asymm_v5,2020.2.10,MacIntel,60,61025ae37ef11b136ea224fe,,,,,,,,,718,31.57666016,-78.32403564,1,0,0,response3disk,,4,2.544555664,-3.702392578,1,0,0,rectangle,-112.8773193,-57.45428467,1,0,0,-1.588256836,-6.836120605,1,0,0,1,80,240,113,1,,response5disk_3,TRUE,2,2,"[19,209,265,293,157,12,233,77,228,140,194,19,200,237,111,269,134,16,241,195]",1.5675,rectangle
,,,,,,,,,,,,,FF,,,,,,,,0.6996,,,,,,,,,,,,,,,,,,,,,,61036353cf559b0c0d3a025c,610367f7cfd6951386c96279,2021-07-29_22h46.57.033,Simcolourproject_2stim_asymm_v5,2020.2.10,MacIntel,60,61025ae37ef11b136ea224fe,,,,,,,,,1711,29.67474365,71.28137207,1,0,0,response1disk,,7,2.137512207,-4.271728516,1,0,0,rectangle,2.137512207,-4.271728516,1,0,0,2.137512207,-4.271728516,1,0,0,1,81,241,104,1,,,,,,,,
