key_resp.keys,key_resp.rt,key_resp_14.keys,key_resp_14.rt,key_resp_15.keys,key_resp_15.rt,key_resp_17.keys,key_resp_17.rt,key_resp_9.keys,key_resp_9.rt,key_resp_10.keys,key_resp_10.rt,practice_comparison,Ecc,mouse_5.x,mouse_5.y,mouse_5.leftButton,mouse_5.midButton,mouse_5.rightButton,mouse_5.clicked_name,pracsimilarity,response_time,mouse_10.x,mouse_10.y,mouse_10.leftButton,mouse_10.midButton,mouse_10.rightButton,mouse_10.clicked_name,mouse_7.x,mouse_7.y,mouse_7.leftButton,mouse_7.midButton,mouse_7.rightButton,mouse_6.x,mouse_6.y,mouse_6.leftButton,mouse_6.midButton,mouse_6.rightButton,duringprac.thisRepN,duringprac.thisTrialN,duringprac.thisN,duringprac.thisIndex,duringprac.ran,participant,session,date,expName,psychopyVersion,OS,frameRate,study_id,mouse_7.clicked_name,catchpracsimilarity,catch_response_time,catchnumberprac,catchtrialorderprac,mouse_6.clicked_name,key_resp_22.keys,key_resp_22.rt,realcomparison,mouse.x,mouse.y,mouse.leftButton,mouse.midButton,mouse.rightButton,mouse.clicked_name,Colour2,similarity,mouse_2.x,mouse_2.y,mouse_2.leftButton,mouse_2.midButton,mouse_2.rightButton,mouse_2.clicked_name,mouse_3.x,mouse_3.y,mouse_3.leftButton,mouse_3.midButton,mouse_3.rightButton,mouse_11.x,mouse_11.y,mouse_11.leftButton,mouse_11.midButton,mouse_11.rightButton,trials_2.thisRepN,trials_2.thisTrialN,trials_2.thisN,trials_2.thisIndex,trials_2.ran,Colour1,mouse_3.clicked_name,catchornah,catchsimilarity,catchnumber,catchtrialorder,catchRT,mouse_11.clicked_name
space,1.197,space,2.427,space,18.737,space,7.191,space,1.604,space,3.624,132,FF,65,45,1,0,0,response1disk_5,6,15.432,-4,-2,1,0,0,rectangle_8,-4,-2,1,0,0,-4,-2,1,0,0,0,0,0,3,1,610367ad785ce86ceb8d201c,61036aea4ea5c745f29813b6,2021-07-29_21h59.34.207,Simcolourproject_2stim_asymm_v5,2020.2.10,MacIntel,60,61025ae37ef11b136ea224fe,,,,,,,,,,,,,,,,,,,,,,,,,,,,,,,,,,,,,,,,,,,,,,
,,,,,,,,,,,,10,PF,68,-53,1,0,0,response3disk_5,5,2.65,3,-6,1,0,0,rectangle_8,-91,-38,1,0,0,-5,-5,1,0,0,0,1,1,6,1,610367ad785ce86ceb8d201c,61036aea4ea5c745f29813b6,2021-07-29_21h59.34.207,Simcolourproject_2stim_asymm_v5,2020.2.10,MacIntel,60,61025ae37ef11b136ea224fe,response5disk_7,2,3.818,2,"[2,5]",rectangle_4,,,,,,,,,,,,,,,,,,,,,,,,,,,,,,,,,,,,,,,,
,,,,,,,,,,,,160,PF,69,-52,1,0,0,response3disk_5,5,4.567,-4,-6,1,0,0,rectangle_8,-4,-6,1,0,0,-4,-6,1,0,0,0,2,2,4,1,610367ad785ce86ceb8d201c,61036aea4ea5c745f29813b6,2021-07-29_21h59.34.207,Simcolourproject_2stim_asymm_v5,2020.2.10,MacIntel,60,61025ae37ef11b136ea224fe,,,,,,,,,,,,,,,,,,,,,,,,,,,,,,,,,,,,,,,,,,,,,,
,,,,,,,,,,,,25,PF,42,70,1,0,0,response1disk_5,7,1.432,16,-1,1,0,0,rectangle_8,16,-1,1,0,0,16,-1,1,0,0,0,3,3,1,1,610367ad785ce86ceb8d201c,61036aea4ea5c745f29813b6,2021-07-29_21h59.34.207,Simcolourproject_2stim_asymm_v5,2020.2.10,MacIntel,60,61025ae37ef11b136ea224fe,,,,,,,,,,,,,,,,,,,,,,,,,,,,,,,,,,,,,,,,,,,,,,
,,,,,,,,,,,,47,FF,34,54,1,0,0,response1disk_5,7,0.833,11,2,1,0,0,rectangle_8,-67,-40,1,0,0,-6,3,1,0,0,0,4,4,5,1,610367ad785ce86ceb8d201c,61036aea4ea5c745f29813b6,2021-07-29_21h59.34.207,Simcolourproject_2stim_asymm_v5,2020.2.10,MacIntel,60,61025ae37ef11b136ea224fe,response5disk_7,2,1.682,2,"[2,5]",rectangle_4,,,,,,,,,,,,,,,,,,,,,,,,,,,,,,,,,,,,,,,,
,,,,,,,,,,,,100,FF,68,-42,1,0,0,response3disk_5,5,1.734,1,-3,1,0,0,rectangle_8,1,-3,1,0,0,1,-3,1,0,0,0,5,5,0,1,610367ad785ce86ceb8d201c,61036aea4ea5c745f29813b6,2021-07-29_21h59.34.207,Simcolourproject_2stim_asymm_v5,2020.2.10,MacIntel,60,61025ae37ef11b136ea224fe,,,,,,,,,,,,,,,,,,,,,,,,,,,,,,,,,,,,,,,,,,,,,,
,,,,,,,,,,,,54,PF,75,31,1,0,0,response1disk_5,6,2,-1,-3,1,0,0,rectangle_8,-1,-3,1,0,0,-1,-3,1,0,0,0,6,6,2,1,610367ad785ce86ceb8d201c,61036aea4ea5c745f29813b6,2021-07-29_21h59.34.207,Simcolourproject_2stim_asymm_v5,2020.2.10,MacIntel,60,61025ae37ef11b136ea224fe,,,,,,,,,,,,,,,,,,,,,,,,,,,,,,,,,,,,,,,,,,,,,,
,,,,,,,,,,,,,FF,,,,,,,,1.499,,,,,,,,,,,,,,,,,,,,,,610367ad785ce86ceb8d201c,61036aea4ea5c745f29813b6,2021-07-29_21h59.34.207,Simcolourproject_2stim_asymm_v5,2020.2.10,MacIntel,60,61025ae37ef11b136ea224fe,,,,,,,space,2.644,2089,76,-44,1,0,0,response3disk,,5,-9,-3,1,0,0,rectangle,-9,-3,1,0,0,-9,-3,1,0,0,0,0,0,123,1,,,,,,,,
,,,,,,,,,,,,,FF,,,,,,,,1.5,,,,,,,,,,,,,,,,,,,,,,610367ad785ce86ceb8d201c,61036aea4ea5c745f29813b6,2021-07-29_21h59.34.207,Simcolourproject_2stim_asymm_v5,2020.2.10,MacIntel,60,61025ae37ef11b136ea224fe,,,,,,,,,2968,77,-43,1,0,0,response3disk,,5,4,-6,1,0,0,rectangle,4,-6,1,0,0,4,-6,1,0,0,0,1,1,12,1,,,,,,,,
,,,,,,,,,,,,,FF,,,,,,,,1.551,,,,,,,,,,,,,,,,,,,,,,610367ad785ce86ceb8d201c,61036aea4ea5c745f29813b6,2021-07-29_21h59.34.207,Simcolourproject_2stim_asymm_v5,2020.2.10,MacIntel,60,61025ae37ef11b136ea224fe,,,,,,,,,3480,-41,-94,1,0,0,response5disk,,3,0,-4,1,0,0,rectangle,0,-4,1,0,0,0,-4,1,0,0,0,2,2,103,1,,,,,,,,
,,,,,,,,,,,,,FF,,,,,,,,1.601,,,,,,,,,,,,,,,,,,,,,,610367ad785ce86ceb8d201c,61036aea4ea5c745f29813b6,2021-07-29_21h59.34.207,Simcolourproject_2stim_asymm_v5,2020.2.10,MacIntel,60,61025ae37ef11b136ea224fe,,,,,,,,,3119,46,89,1,0,0,response1disk,,7,-8,-2,1,0,0,rectangle,-8,-2,1,0,0,-8,-2,1,0,0,0,3,3,94,1,,,,,,,,
,,,,,,,,,,,,,FF,,,,,,,,1.4,,,,,,,,,,,,,,,,,,,,,,610367ad785ce86ceb8d201c,61036aea4ea5c745f29813b6,2021-07-29_21h59.34.207,Simcolourproject_2stim_asymm_v5,2020.2.10,MacIntel,60,61025ae37ef11b136ea224fe,,,,,,,,,1833,96,50,1,0,0,response1disk,,6,15,-8,1,0,0,rectangle,15,-8,1,0,0,15,-8,1,0,0,0,4,4,31,1,,,,,,,,
,,,,,,,,,,,,,FF,,,,,,,,1.05,,,,,,,,,,,,,,,,,,,,,,610367ad785ce86ceb8d201c,61036aea4ea5c745f29813b6,2021-07-29_21h59.34.207,Simcolourproject_2stim_asymm_v5,2020.2.10,MacIntel,60,61025ae37ef11b136ea224fe,,,,,,,,,2293,36,-69,1,0,0,response3disk,,4,-1,-9,1,0,0,rectangle,-1,-9,1,0,0,-1,-9,1,0,0,0,5,5,10,1,,,,,,,,
,,,,,,,,,,,,,FF,,,,,,,,1.4,,,,,,,,,,,,,,,,,,,,,,610367ad785ce86ceb8d201c,61036aea4ea5c745f29813b6,2021-07-29_21h59.34.207,Simcolourproject_2stim_asymm_v5,2020.2.10,MacIntel,60,61025ae37ef11b136ea224fe,,,,,,,,,1322,84,49,1,0,0,response1disk,,6,9,0,1,0,0,rectangle,9,0,1,0,0,9,0,1,0,0,0,6,6,15,1,,,,,,,,
,,,,,,,,,,,,,FF,,,,,,,,1.233,,,,,,,,,,,,,,,,,,,,,,610367ad785ce86ceb8d201c,61036aea4ea5c745f29813b6,2021-07-29_21h59.34.207,Simcolourproject_2stim_asymm_v5,2020.2.10,MacIntel,60,61025ae37ef11b136ea224fe,,,,,,,,,2770,-87,-57,1,0,0,response5disk,,2,-16,4,1,0,0,rectangle,-16,4,1,0,0,-16,4,1,0,0,0,7,7,130,1,,,,,,,,
,,,,,,,,,,,,,FF,,,,,,,,1.366,,,,,,,,,,,,,,,,,,,,,,610367ad785ce86ceb8d201c,61036aea4ea5c745f29813b6,2021-07-29_21h59.34.207,Simcolourproject_2stim_asymm_v5,2020.2.10,MacIntel,60,61025ae37ef11b136ea224fe,,,,,,,,,1703,53,-74,1,0,0,response3disk,,4,9,-3,1,0,0,rectangle,9,-3,1,0,0,9,-3,1,0,0,0,8,8,74,1,,,,,,,,
,,,,,,,,,,,,,FF,,,,,,,,1.2,,,,,,,,,,,,,,,,,,,,,,610367ad785ce86ceb8d201c,61036aea4ea5c745f29813b6,2021-07-29_21h59.34.207,Simcolourproject_2stim_asymm_v5,2020.2.10,MacIntel,60,61025ae37ef11b136ea224fe,,,,,,,,,2320,75,-37,1,0,0,response3disk,,5,10,-4,1,0,0,rectangle,25,-83,1,0,0,-8,-8,1,0,0,0,9,9,146,1,,response3disk_3,TRUE,4,4,"[184,140,10,258,192,54,147,258,121,26,182,15,24,253,180,167,288,191,121,94]",1.499,rectangle
,,,,,,,,,,,,,FF,,,,,,,,1.85,,,,,,,,,,,,,,,,,,,,,,610367ad785ce86ceb8d201c,61036aea4ea5c745f29813b6,2021-07-29_21h59.34.207,Simcolourproject_2stim_asymm_v5,2020.2.10,MacIntel,60,61025ae37ef11b136ea224fe,,,,,,,,,2294,69,-51,1,0,0,response3disk,,5,-2,-7,1,0,0,rectangle,-2,-7,1,0,0,-2,-7,1,0,0,0,10,10,106,1,,,,,,,,
,,,,,,,,,,,,,FF,,,,,,,,1.267,,,,,,,,,,,,,,,,,,,,,,610367ad785ce86ceb8d201c,61036aea4ea5c745f29813b6,2021-07-29_21h59.34.207,Simcolourproject_2stim_asymm_v5,2020.2.10,MacIntel,60,61025ae37ef11b136ea224fe,,,,,,,,,1904,-35,-95,1,0,0,response5disk,,3,-17,-3,1,0,0,rectangle,-17,-3,1,0,0,-17,-3,1,0,0,0,11,11,51,1,,,,,,,,
,,,,,,,,,,,,,FF,,,,,,,,0.866,,,,,,,,,,,,,,,,,,,,,,610367ad785ce86ceb8d201c,61036aea4ea5c745f29813b6,2021-07-29_21h59.34.207,Simcolourproject_2stim_asymm_v5,2020.2.10,MacIntel,60,61025ae37ef11b136ea224fe,,,,,,,,,2850,93,-55,1,0,0,response3disk,,5,7,3,1,0,0,rectangle,7,3,1,0,0,7,3,1,0,0,0,12,12,22,1,,,,,,,,
,,,,,,,,,,,,,FF,,,,,,,,1.366,,,,,,,,,,,,,,,,,,,,,,610367ad785ce86ceb8d201c,61036aea4ea5c745f29813b6,2021-07-29_21h59.34.207,Simcolourproject_2stim_asymm_v5,2020.2.10,MacIntel,60,61025ae37ef11b136ea224fe,,,,,,,,,1257,82,67,1,0,0,response1disk,,6,12,1,1,0,0,rectangle,12,1,1,0,0,12,1,1,0,0,0,13,13,114,1,,,,,,,,
,,,,,,,,,,,,,FF,,,,,,,,0.95,,,,,,,,,,,,,,,,,,,,,,610367ad785ce86ceb8d201c,61036aea4ea5c745f29813b6,2021-07-29_21h59.34.207,Simcolourproject_2stim_asymm_v5,2020.2.10,MacIntel,60,61025ae37ef11b136ea224fe,,,,,,,,,466,-83,-45,1,0,0,response5disk,,2,-9,4,1,0,0,rectangle,57,67,1,0,0,-14,8,1,0,0,0,14,14,75,1,,response1disk_3,TRUE,7,7,"[184,140,10,258,192,54,147,258,121,26,182,15,24,253,180,167,288,191,121,94]",1.683,rectangle
,,,,,,,,,,,,,FF,,,,,,,,0.967,,,,,,,,,,,,,,,,,,,,,,610367ad785ce86ceb8d201c,61036aea4ea5c745f29813b6,2021-07-29_21h59.34.207,Simcolourproject_2stim_asymm_v5,2020.2.10,MacIntel,60,61025ae37ef11b136ea224fe,,,,,,,,,3516,-78,50,1,0,0,response7disk,,1,-7,-1,1,0,0,rectangle,-7,-1,1,0,0,-7,-1,1,0,0,0,15,15,121,1,,,,,,,,
,,,,,,,,,,,,,FF,,,,,,,,1.618,,,,,,,,,,,,,,,,,,,,,,610367ad785ce86ceb8d201c,61036aea4ea5c745f29813b6,2021-07-29_21h59.34.207,Simcolourproject_2stim_asymm_v5,2020.2.10,MacIntel,60,61025ae37ef11b136ea224fe,,,,,,,,,1376,-60,-83,1,0,0,response5disk,,3,-5,10,1,0,0,rectangle,-5,10,1,0,0,-5,10,1,0,0,0,16,16,79,1,,,,,,,,
,,,,,,,,,,,,,FF,,,,,,,,1.099,,,,,,,,,,,,,,,,,,,,,,610367ad785ce86ceb8d201c,61036aea4ea5c745f29813b6,2021-07-29_21h59.34.207,Simcolourproject_2stim_asymm_v5,2020.2.10,MacIntel,60,61025ae37ef11b136ea224fe,,,,,,,,,2246,32,-90,1,0,0,response3disk,,4,-8,3,1,0,0,rectangle,-8,3,1,0,0,-8,3,1,0,0,0,17,17,156,1,,,,,,,,
,,,,,,,,,,,,,FF,,,,,,,,1.349,,,,,,,,,,,,,,,,,,,,,,610367ad785ce86ceb8d201c,61036aea4ea5c745f29813b6,2021-07-29_21h59.34.207,Simcolourproject_2stim_asymm_v5,2020.2.10,MacIntel,60,61025ae37ef11b136ea224fe,,,,,,,,,1893,37,-86,1,0,0,response3disk,,4,4,-6,1,0,0,rectangle,4,-6,1,0,0,4,-6,1,0,0,0,18,18,77,1,,,,,,,,
,,,,,,,,,,,,,FF,,,,,,,,2.899,,,,,,,,,,,,,,,,,,,,,,610367ad785ce86ceb8d201c,61036aea4ea5c745f29813b6,2021-07-29_21h59.34.207,Simcolourproject_2stim_asymm_v5,2020.2.10,MacIntel,60,61025ae37ef11b136ea224fe,,,,,,,,,709,33,-84,1,0,0,response3disk,,4,9,5,1,0,0,rectangle,9,5,1,0,0,9,5,1,0,0,0,19,19,29,1,,,,,,,,
,,,,,,,,,,,,,FF,,,,,,,,0.8,,,,,,,,,,,,,,,,,,,,,,610367ad785ce86ceb8d201c,61036aea4ea5c745f29813b6,2021-07-29_21h59.34.207,Simcolourproject_2stim_asymm_v5,2020.2.10,MacIntel,60,61025ae37ef11b136ea224fe,,,,,,,,,2346,34,72,1,0,0,response1disk,,7,12,-4,1,0,0,rectangle,12,-4,1,0,0,12,-4,1,0,0,0,20,20,14,1,,,,,,,,
,,,,,,,,,,,,,FF,,,,,,,,0.933,,,,,,,,,,,,,,,,,,,,,,610367ad785ce86ceb8d201c,61036aea4ea5c745f29813b6,2021-07-29_21h59.34.207,Simcolourproject_2stim_asymm_v5,2020.2.10,MacIntel,60,61025ae37ef11b136ea224fe,,,,,,,,,1079,34,-72,1,0,0,response3disk,,4,13,-3,1,0,0,rectangle,13,-3,1,0,0,13,-3,1,0,0,0,21,21,9,1,,,,,,,,
,,,,,,,,,,,,,FF,,,,,,,,0.933,,,,,,,,,,,,,,,,,,,,,,610367ad785ce86ceb8d201c,61036aea4ea5c745f29813b6,2021-07-29_21h59.34.207,Simcolourproject_2stim_asymm_v5,2020.2.10,MacIntel,60,61025ae37ef11b136ea224fe,,,,,,,,,2308,44,-72,1,0,0,response3disk,,4,10,-18,1,0,0,rectangle,10,-18,1,0,0,10,-18,1,0,0,0,22,22,52,1,,,,,,,,
,,,,,,,,,,,,,FF,,,,,,,,1.883,,,,,,,,,,,,,,,,,,,,,,610367ad785ce86ceb8d201c,61036aea4ea5c745f29813b6,2021-07-29_21h59.34.207,Simcolourproject_2stim_asymm_v5,2020.2.10,MacIntel,60,61025ae37ef11b136ea224fe,,,,,,,,,249,47,-81,1,0,0,response3disk,,4,-10,5,1,0,0,rectangle,-85,-26,1,0,0,-15,-5,1,0,0,0,23,23,37,1,,response5disk_3,TRUE,2,2,"[184,140,10,258,192,54,147,258,121,26,182,15,24,253,180,167,288,191,121,94]",1.05,rectangle
,,,,,,,,,,,,,FF,,,,,,,,0.968,,,,,,,,,,,,,,,,,,,,,,610367ad785ce86ceb8d201c,61036aea4ea5c745f29813b6,2021-07-29_21h59.34.207,Simcolourproject_2stim_asymm_v5,2020.2.10,MacIntel,60,61025ae37ef11b136ea224fe,,,,,,,,,1623,-34,-75,1,0,0,response5disk,,3,-16,-7,1,0,0,rectangle,-16,-7,1,0,0,-16,-7,1,0,0,0,24,24,110,1,,,,,,,,
,,,,,,,,,,,,,FF,,,,,,,,0.967,,,,,,,,,,,,,,,,,,,,,,610367ad785ce86ceb8d201c,61036aea4ea5c745f29813b6,2021-07-29_21h59.34.207,Simcolourproject_2stim_asymm_v5,2020.2.10,MacIntel,60,61025ae37ef11b136ea224fe,,,,,,,,,2389,80,51,1,0,0,response1disk,,6,12,5,1,0,0,rectangle,32,69,1,0,0,1,2,1,0,0,0,25,25,125,1,,response1disk_3,TRUE,7,7,"[184,140,10,258,192,54,147,258,121,26,182,15,24,253,180,167,288,191,121,94]",1.35,rectangle
,,,,,,,,,,,,,FF,,,,,,,,1.084,,,,,,,,,,,,,,,,,,,,,,610367ad785ce86ceb8d201c,61036aea4ea5c745f29813b6,2021-07-29_21h59.34.207,Simcolourproject_2stim_asymm_v5,2020.2.10,MacIntel,60,61025ae37ef11b136ea224fe,,,,,,,,,3591,-35,75,1,0,0,response7disk,,0,-13,3,1,0,0,rectangle,-13,3,1,0,0,-13,3,1,0,0,0,26,26,133,1,,,,,,,,
,,,,,,,,,,,,,FF,,,,,,,,1.017,,,,,,,,,,,,,,,,,,,,,,610367ad785ce86ceb8d201c,61036aea4ea5c745f29813b6,2021-07-29_21h59.34.207,Simcolourproject_2stim_asymm_v5,2020.2.10,MacIntel,60,61025ae37ef11b136ea224fe,,,,,,,,,2403,41,-67,1,0,0,response3disk,,4,-2,-3,1,0,0,rectangle,-2,-3,1,0,0,-2,-3,1,0,0,0,27,27,82,1,,,,,,,,
,,,,,,,,,,,,,FF,,,,,,,,0.916,,,,,,,,,,,,,,,,,,,,,,610367ad785ce86ceb8d201c,61036aea4ea5c745f29813b6,2021-07-29_21h59.34.207,Simcolourproject_2stim_asymm_v5,2020.2.10,MacIntel,60,61025ae37ef11b136ea224fe,,,,,,,,,3297,-87,-35,1,0,0,response5disk,,2,7,2,1,0,0,rectangle,7,2,1,0,0,7,2,1,0,0,0,28,28,88,1,,,,,,,,
,,,,,,,,,,,,,FF,,,,,,,,0.7,,,,,,,,,,,,,,,,,,,,,,610367ad785ce86ceb8d201c,61036aea4ea5c745f29813b6,2021-07-29_21h59.34.207,Simcolourproject_2stim_asymm_v5,2020.2.10,MacIntel,60,61025ae37ef11b136ea224fe,,,,,,,,,3470,-84,-41,1,0,0,response5disk,,2,-6,2,1,0,0,rectangle,-6,2,1,0,0,-6,2,1,0,0,0,29,29,137,1,,,,,,,,
,,,,,,,,,,,,,FF,,,,,,,,0.883,,,,,,,,,,,,,,,,,,,,,,610367ad785ce86ceb8d201c,61036aea4ea5c745f29813b6,2021-07-29_21h59.34.207,Simcolourproject_2stim_asymm_v5,2020.2.10,MacIntel,60,61025ae37ef11b136ea224fe,,,,,,,,,2613,-82,-54,1,0,0,response5disk,,2,-10,-3,1,0,0,rectangle,-10,-3,1,0,0,-10,-3,1,0,0,0,30,30,27,1,,,,,,,,
,,,,,,,,,,,,,FF,,,,,,,,0.766,,,,,,,,,,,,,,,,,,,,,,610367ad785ce86ceb8d201c,61036aea4ea5c745f29813b6,2021-07-29_21h59.34.207,Simcolourproject_2stim_asymm_v5,2020.2.10,MacIntel,60,61025ae37ef11b136ea224fe,,,,,,,,,3749,-46,-106,1,0,0,response5disk,,3,-10,-3,1,0,0,rectangle,-10,-3,1,0,0,-10,-3,1,0,0,0,31,31,98,1,,,,,,,,
,,,,,,,,,,,,,FF,,,,,,,,0.616,,,,,,,,,,,,,,,,,,,,,,610367ad785ce86ceb8d201c,61036aea4ea5c745f29813b6,2021-07-29_21h59.34.207,Simcolourproject_2stim_asymm_v5,2020.2.10,MacIntel,60,61025ae37ef11b136ea224fe,,,,,,,,,2605,-38,-91,1,0,0,response5disk,,3,-11,-1,1,0,0,rectangle,-11,-1,1,0,0,-11,-1,1,0,0,0,32,32,8,1,,,,,,,,
,,,,,,,,,,,,,FF,,,,,,,,0.733,,,,,,,,,,,,,,,,,,,,,,610367ad785ce86ceb8d201c,61036aea4ea5c745f29813b6,2021-07-29_21h59.34.207,Simcolourproject_2stim_asymm_v5,2020.2.10,MacIntel,60,61025ae37ef11b136ea224fe,,,,,,,,,3719,86,-39,1,0,0,response3disk,,5,11,-3,1,0,0,rectangle,11,-3,1,0,0,11,-3,1,0,0,0,33,33,73,1,,,,,,,,
,,,,,,,,,,,,,FF,,,,,,,,0.717,,,,,,,,,,,,,,,,,,,,,,610367ad785ce86ceb8d201c,61036aea4ea5c745f29813b6,2021-07-29_21h59.34.207,Simcolourproject_2stim_asymm_v5,2020.2.10,MacIntel,60,61025ae37ef11b136ea224fe,,,,,,,,,551,48,-80,1,0,0,response3disk,,4,-6,-4,1,0,0,rectangle,-6,-4,1,0,0,-6,-4,1,0,0,0,34,34,46,1,,,,,,,,
,,,,,,,,,,,,,FF,,,,,,,,0.749,,,,,,,,,,,,,,,,,,,,,,610367ad785ce86ceb8d201c,61036aea4ea5c745f29813b6,2021-07-29_21h59.34.207,Simcolourproject_2stim_asymm_v5,2020.2.10,MacIntel,60,61025ae37ef11b136ea224fe,,,,,,,,,1089,43,-78,1,0,0,response3disk,,4,-11,2,1,0,0,rectangle,-11,2,1,0,0,-11,2,1,0,0,0,35,35,142,1,,,,,,,,
,,,,,,,,,,,,,FF,,,,,,,,1.45,,,,,,,,,,,,,,,,,,,,,,610367ad785ce86ceb8d201c,61036aea4ea5c745f29813b6,2021-07-29_21h59.34.207,Simcolourproject_2stim_asymm_v5,2020.2.10,MacIntel,60,61025ae37ef11b136ea224fe,,,,,,,,,4058,-31,-94,1,0,0,response5disk,,3,-16,-8,1,0,0,rectangle,-16,-8,1,0,0,-16,-8,1,0,0,0,36,36,87,1,,,,,,,,
,,,,,,,,,,,,,FF,,,,,,,,1.215,,,,,,,,,,,,,,,,,,,,,,610367ad785ce86ceb8d201c,61036aea4ea5c745f29813b6,2021-07-29_21h59.34.207,Simcolourproject_2stim_asymm_v5,2020.2.10,MacIntel,60,61025ae37ef11b136ea224fe,,,,,,,,,1978,51,-75,1,0,0,response3disk,,4,0,9,1,0,0,rectangle,0,9,1,0,0,0,9,1,0,0,0,37,37,16,1,,,,,,,,
,,,,,,,,,,,,,FF,,,,,,,,1.316,,,,,,,,,,,,,,,,,,,,,,610367ad785ce86ceb8d201c,61036aea4ea5c745f29813b6,2021-07-29_21h59.34.207,Simcolourproject_2stim_asymm_v5,2020.2.10,MacIntel,60,61025ae37ef11b136ea224fe,,,,,,,,,4174,-44,-94,1,0,0,response5disk,,3,-8,0,1,0,0,rectangle,-8,0,1,0,0,-8,0,1,0,0,0,38,38,140,1,,,,,,,,
,,,,,,,,,,,,,FF,,,,,,,,1.133,,,,,,,,,,,,,,,,,,,,,,610367ad785ce86ceb8d201c,61036aea4ea5c745f29813b6,2021-07-29_21h59.34.207,Simcolourproject_2stim_asymm_v5,2020.2.10,MacIntel,60,61025ae37ef11b136ea224fe,,,,,,,,,2710,32,-75,1,0,0,response3disk,,4,4,2,1,0,0,rectangle,4,2,1,0,0,4,2,1,0,0,0,39,39,45,1,,,,,,,,
,,,,,,,,,,,,,FF,,,,,,,,2.633,,,,,,,,,,,,,,,,,,,,,,610367ad785ce86ceb8d201c,61036aea4ea5c745f29813b6,2021-07-29_21h59.34.207,Simcolourproject_2stim_asymm_v5,2020.2.10,MacIntel,60,61025ae37ef11b136ea224fe,,,,,,,,,2815,98,-35,1,0,0,response3disk,,5,9,4,1,0,0,rectangle,9,4,1,0,0,9,4,1,0,0,0,40,40,99,1,,,,,,,,
,,,,,,,,,,,,,FF,,,,,,,,1.067,,,,,,,,,,,,,,,,,,,,,,610367ad785ce86ceb8d201c,61036aea4ea5c745f29813b6,2021-07-29_21h59.34.207,Simcolourproject_2stim_asymm_v5,2020.2.10,MacIntel,60,61025ae37ef11b136ea224fe,,,,,,,,,713,90,-32,1,0,0,response3disk,,5,17,-12,1,0,0,rectangle,17,-12,1,0,0,17,-12,1,0,0,0,41,41,85,1,,,,,,,,
,,,,,,,,,,,,,FF,,,,,,,,0.933,,,,,,,,,,,,,,,,,,,,,,610367ad785ce86ceb8d201c,61036aea4ea5c745f29813b6,2021-07-29_21h59.34.207,Simcolourproject_2stim_asymm_v5,2020.2.10,MacIntel,60,61025ae37ef11b136ea224fe,,,,,,,,,2926,36,101,1,0,0,response1disk,,7,-15,6,1,0,0,rectangle,-15,6,1,0,0,-15,6,1,0,0,0,42,42,69,1,,,,,,,,
,,,,,,,,,,,,,FF,,,,,,,,0.65,,,,,,,,,,,,,,,,,,,,,,610367ad785ce86ceb8d201c,61036aea4ea5c745f29813b6,2021-07-29_21h59.34.207,Simcolourproject_2stim_asymm_v5,2020.2.10,MacIntel,60,61025ae37ef11b136ea224fe,,,,,,,,,3186,27,67,1,0,0,response1disk,,7,-6,7,1,0,0,rectangle,-6,7,1,0,0,-6,7,1,0,0,0,43,43,21,1,,,,,,,,
,,,,,,,,,,,,,FF,,,,,,,,0.8,,,,,,,,,,,,,,,,,,,,,,610367ad785ce86ceb8d201c,61036aea4ea5c745f29813b6,2021-07-29_21h59.34.207,Simcolourproject_2stim_asymm_v5,2020.2.10,MacIntel,60,61025ae37ef11b136ea224fe,,,,,,,,,2367,36,-84,1,0,0,response3disk,,4,-11,1,1,0,0,rectangle,-11,1,1,0,0,-11,1,1,0,0,0,44,44,65,1,,,,,,,,
,,,,,,,,,,,,,FF,,,,,,,,1.017,,,,,,,,,,,,,,,,,,,,,,610367ad785ce86ceb8d201c,61036aea4ea5c745f29813b6,2021-07-29_21h59.34.207,Simcolourproject_2stim_asymm_v5,2020.2.10,MacIntel,60,61025ae37ef11b136ea224fe,,,,,,,,,784,29,-82,1,0,0,response3disk,,4,-7,1,1,0,0,rectangle,-7,1,1,0,0,-7,1,1,0,0,0,45,45,109,1,,,,,,,,
,,,,,,,,,,,,,FF,,,,,,,,1.2,,,,,,,,,,,,,,,,,,,,,,610367ad785ce86ceb8d201c,61036aea4ea5c745f29813b6,2021-07-29_21h59.34.207,Simcolourproject_2stim_asymm_v5,2020.2.10,MacIntel,60,61025ae37ef11b136ea224fe,,,,,,,,,3319,43,71,1,0,0,response1disk,,7,4,3,1,0,0,rectangle,4,3,1,0,0,4,3,1,0,0,0,46,46,39,1,,,,,,,,
,,,,,,,,,,,,,FF,,,,,,,,0.799,,,,,,,,,,,,,,,,,,,,,,610367ad785ce86ceb8d201c,61036aea4ea5c745f29813b6,2021-07-29_21h59.34.207,Simcolourproject_2stim_asymm_v5,2020.2.10,MacIntel,60,61025ae37ef11b136ea224fe,,,,,,,,,1793,50,-91,1,0,0,response3disk,,4,-4,2,1,0,0,rectangle,-4,2,1,0,0,-4,2,1,0,0,0,47,47,111,1,,,,,,,,
,,,,,,,,,,,,,FF,,,,,,,,1.766,,,,,,,,,,,,,,,,,,,,,,610367ad785ce86ceb8d201c,61036aea4ea5c745f29813b6,2021-07-29_21h59.34.207,Simcolourproject_2stim_asymm_v5,2020.2.10,MacIntel,60,61025ae37ef11b136ea224fe,,,,,,,,,4092,39,62,1,0,0,response1disk,,7,14,2,1,0,0,rectangle,14,2,1,0,0,14,2,1,0,0,0,48,48,53,1,,,,,,,,
,,,,,,,,,,,,,FF,,,,,,,,0.817,,,,,,,,,,,,,,,,,,,,,,610367ad785ce86ceb8d201c,61036aea4ea5c745f29813b6,2021-07-29_21h59.34.207,Simcolourproject_2stim_asymm_v5,2020.2.10,MacIntel,60,61025ae37ef11b136ea224fe,,,,,,,,,2198,36,78,1,0,0,response1disk,,7,9,1,1,0,0,rectangle,9,1,1,0,0,9,1,1,0,0,0,49,49,119,1,,,,,,,,
,,,,,,,,,,,,,FF,,,,,,,,0.751,,,,,,,,,,,,,,,,,,,,,,610367ad785ce86ceb8d201c,61036aea4ea5c745f29813b6,2021-07-29_21h59.34.207,Simcolourproject_2stim_asymm_v5,2020.2.10,MacIntel,60,61025ae37ef11b136ea224fe,,,,,,,,,1816,-91,-34,1,0,0,response5disk,,2,-22,4,1,0,0,rectangle,-22,4,1,0,0,-22,4,1,0,0,0,50,50,80,1,,,,,,,,
,,,,,,,,,,,,,FF,,,,,,,,0.816,,,,,,,,,,,,,,,,,,,,,,610367ad785ce86ceb8d201c,61036aea4ea5c745f29813b6,2021-07-29_21h59.34.207,Simcolourproject_2stim_asymm_v5,2020.2.10,MacIntel,60,61025ae37ef11b136ea224fe,,,,,,,,,1273,34,74,1,0,0,response1disk,,7,6,-3,1,0,0,rectangle,6,-3,1,0,0,6,-3,1,0,0,0,51,51,30,1,,,,,,,,
,,,,,,,,,,,,,FF,,,,,,,,0.767,,,,,,,,,,,,,,,,,,,,,,610367ad785ce86ceb8d201c,61036aea4ea5c745f29813b6,2021-07-29_21h59.34.207,Simcolourproject_2stim_asymm_v5,2020.2.10,MacIntel,60,61025ae37ef11b136ea224fe,,,,,,,,,3156,-86,-34,1,0,0,response5disk,,2,-25,-9,1,0,0,rectangle,-25,-9,1,0,0,-25,-9,1,0,0,0,52,52,152,1,,,,,,,,
,,,,,,,,,,,,,FF,,,,,,,,0.833,,,,,,,,,,,,,,,,,,,,,,610367ad785ce86ceb8d201c,61036aea4ea5c745f29813b6,2021-07-29_21h59.34.207,Simcolourproject_2stim_asymm_v5,2020.2.10,MacIntel,60,61025ae37ef11b136ea224fe,,,,,,,,,1151,-60,-29,1,0,0,response5disk,,2,-18,-5,1,0,0,rectangle,-48,-94,1,0,0,-11,2,1,0,0,0,53,53,122,1,,response5disk_3,TRUE,3,3,"[184,140,10,258,192,54,147,258,121,26,182,15,24,253,180,167,288,191,121,94]",1.8,rectangle
,,,,,,,,,,,,,FF,,,,,,,,0.899,,,,,,,,,,,,,,,,,,,,,,610367ad785ce86ceb8d201c,61036aea4ea5c745f29813b6,2021-07-29_21h59.34.207,Simcolourproject_2stim_asymm_v5,2020.2.10,MacIntel,60,61025ae37ef11b136ea224fe,,,,,,,,,3421,-50,-113,1,0,0,response5disk,,3,-8,-6,1,0,0,rectangle,-8,-6,1,0,0,-8,-6,1,0,0,0,54,54,60,1,,,,,,,,
,,,,,,,,,,,,,FF,,,,,,,,1.316,,,,,,,,,,,,,,,,,,,,,,610367ad785ce86ceb8d201c,61036aea4ea5c745f29813b6,2021-07-29_21h59.34.207,Simcolourproject_2stim_asymm_v5,2020.2.10,MacIntel,60,61025ae37ef11b136ea224fe,,,,,,,,,2908,43,-71,1,0,0,response3disk,,4,15,-6,1,0,0,rectangle,15,-6,1,0,0,15,-6,1,0,0,0,55,55,19,1,,,,,,,,
,,,,,,,,,,,,,FF,,,,,,,,1.083,,,,,,,,,,,,,,,,,,,,,,610367ad785ce86ceb8d201c,61036aea4ea5c745f29813b6,2021-07-29_21h59.34.207,Simcolourproject_2stim_asymm_v5,2020.2.10,MacIntel,60,61025ae37ef11b136ea224fe,,,,,,,,,2970,26,80,1,0,0,response1disk,,7,-3,2,1,0,0,rectangle,-3,2,1,0,0,-3,2,1,0,0,0,56,56,57,1,,,,,,,,
,,,,,,,,,,,,,FF,,,,,,,,0.817,,,,,,,,,,,,,,,,,,,,,,610367ad785ce86ceb8d201c,61036aea4ea5c745f29813b6,2021-07-29_21h59.34.207,Simcolourproject_2stim_asymm_v5,2020.2.10,MacIntel,60,61025ae37ef11b136ea224fe,,,,,,,,,4225,-84,-39,1,0,0,response5disk,,2,-23,7,1,0,0,rectangle,-23,7,1,0,0,-23,7,1,0,0,0,57,57,107,1,,,,,,,,
,,,,,,,,,,,,,FF,,,,,,,,1.033,,,,,,,,,,,,,,,,,,,,,,610367ad785ce86ceb8d201c,61036aea4ea5c745f29813b6,2021-07-29_21h59.34.207,Simcolourproject_2stim_asymm_v5,2020.2.10,MacIntel,60,61025ae37ef11b136ea224fe,,,,,,,,,1774,63,-57,1,0,0,response3disk,,5,12,-4,1,0,0,rectangle,12,-4,1,0,0,12,-4,1,0,0,0,58,58,18,1,,,,,,,,
,,,,,,,,,,,,,FF,,,,,,,,0.967,,,,,,,,,,,,,,,,,,,,,,610367ad785ce86ceb8d201c,61036aea4ea5c745f29813b6,2021-07-29_21h59.34.207,Simcolourproject_2stim_asymm_v5,2020.2.10,MacIntel,60,61025ae37ef11b136ea224fe,,,,,,,,,572,43,-92,1,0,0,response3disk,,4,-1,-8,1,0,0,rectangle,-1,-8,1,0,0,-1,-8,1,0,0,0,59,59,76,1,,,,,,,,
,,,,,,,,,,,,,FF,,,,,,,,0.699,,,,,,,,,,,,,,,,,,,,,,610367ad785ce86ceb8d201c,61036aea4ea5c745f29813b6,2021-07-29_21h59.34.207,Simcolourproject_2stim_asymm_v5,2020.2.10,MacIntel,60,61025ae37ef11b136ea224fe,,,,,,,,,377,55,-88,1,0,0,response3disk,,4,-4,-16,1,0,0,rectangle,-4,-16,1,0,0,-4,-16,1,0,0,0,60,60,32,1,,,,,,,,
,,,,,,,,,,,,,FF,,,,,,,,0.632,,,,,,,,,,,,,,,,,,,,,,610367ad785ce86ceb8d201c,61036aea4ea5c745f29813b6,2021-07-29_21h59.34.207,Simcolourproject_2stim_asymm_v5,2020.2.10,MacIntel,60,61025ae37ef11b136ea224fe,,,,,,,,,463,42,-80,1,0,0,response3disk,,4,-12,0,1,0,0,rectangle,-12,0,1,0,0,-12,0,1,0,0,0,61,61,127,1,,,,,,,,
,,,,,,,,,,,,,FF,,,,,,,,1.684,,,,,,,,,,,,,,,,,,,,,,610367ad785ce86ceb8d201c,61036aea4ea5c745f29813b6,2021-07-29_21h59.34.207,Simcolourproject_2stim_asymm_v5,2020.2.10,MacIntel,60,61025ae37ef11b136ea224fe,,,,,,,,,1881,39,-78,1,0,0,response3disk,,4,-8,5,1,0,0,rectangle,-8,5,1,0,0,-8,5,1,0,0,0,62,62,40,1,,,,,,,,
,,,,,,,,,,,,,FF,,,,,,,,1.05,,,,,,,,,,,,,,,,,,,,,,610367ad785ce86ceb8d201c,61036aea4ea5c745f29813b6,2021-07-29_21h59.34.207,Simcolourproject_2stim_asymm_v5,2020.2.10,MacIntel,60,61025ae37ef11b136ea224fe,,,,,,,,,2319,-105,-53,1,0,0,response5disk,,2,9,13,1,0,0,rectangle,9,13,1,0,0,9,13,1,0,0,0,63,63,81,1,,,,,,,,
,,,,,,,,,,,,,FF,,,,,,,,0.733,,,,,,,,,,,,,,,,,,,,,,610367ad785ce86ceb8d201c,61036aea4ea5c745f29813b6,2021-07-29_21h59.34.207,Simcolourproject_2stim_asymm_v5,2020.2.10,MacIntel,60,61025ae37ef11b136ea224fe,,,,,,,,,2750,33,78,1,0,0,response1disk,,7,-2,-3,1,0,0,rectangle,-2,-3,1,0,0,-2,-3,1,0,0,0,64,64,147,1,,,,,,,,
,,,,,,,,,,,,,FF,,,,,,,,0.683,,,,,,,,,,,,,,,,,,,,,,610367ad785ce86ceb8d201c,61036aea4ea5c745f29813b6,2021-07-29_21h59.34.207,Simcolourproject_2stim_asymm_v5,2020.2.10,MacIntel,60,61025ae37ef11b136ea224fe,,,,,,,,,735,21,51,1,0,0,response1disk,,7,-1,6,1,0,0,rectangle,-1,6,1,0,0,-1,6,1,0,0,0,65,65,153,1,,,,,,,,
,,,,,,,,,,,,,FF,,,,,,,,1.767,,,,,,,,,,,,,,,,,,,,,,610367ad785ce86ceb8d201c,61036aea4ea5c745f29813b6,2021-07-29_21h59.34.207,Simcolourproject_2stim_asymm_v5,2020.2.10,MacIntel,60,61025ae37ef11b136ea224fe,,,,,,,,,2998,-83,-66,1,0,0,response5disk,,2,-8,2,1,0,0,rectangle,-8,2,1,0,0,-8,2,1,0,0,0,66,66,36,1,,,,,,,,
,,,,,,,,,,,,,FF,,,,,,,,0.716,,,,,,,,,,,,,,,,,,,,,,610367ad785ce86ceb8d201c,61036aea4ea5c745f29813b6,2021-07-29_21h59.34.207,Simcolourproject_2stim_asymm_v5,2020.2.10,MacIntel,60,61025ae37ef11b136ea224fe,,,,,,,,,4285,29,60,1,0,0,response1disk,,7,7,7,1,0,0,rectangle,7,7,1,0,0,7,7,1,0,0,0,67,67,48,1,,,,,,,,
,,,,,,,,,,,,,FF,,,,,,,,2.149,,,,,,,,,,,,,,,,,,,,,,610367ad785ce86ceb8d201c,61036aea4ea5c745f29813b6,2021-07-29_21h59.34.207,Simcolourproject_2stim_asymm_v5,2020.2.10,MacIntel,60,61025ae37ef11b136ea224fe,,,,,,,,,2984,-47,-83,1,0,0,response5disk,,3,-4,-5,1,0,0,rectangle,-4,-5,1,0,0,-4,-5,1,0,0,0,68,68,78,1,,,,,,,,
,,,,,,,,,,,,,FF,,,,,,,,1.35,,,,,,,,,,,,,,,,,,,,,,610367ad785ce86ceb8d201c,61036aea4ea5c745f29813b6,2021-07-29_21h59.34.207,Simcolourproject_2stim_asymm_v5,2020.2.10,MacIntel,60,61025ae37ef11b136ea224fe,,,,,,,,,4319,86,-41,1,0,0,response3disk,,5,18,-6,1,0,0,rectangle,18,-6,1,0,0,18,-6,1,0,0,0,69,69,59,1,,,,,,,,
,,,,,,,,,,,,,FF,,,,,,,,1.483,,,,,,,,,,,,,,,,,,,,,,610367ad785ce86ceb8d201c,61036aea4ea5c745f29813b6,2021-07-29_21h59.34.207,Simcolourproject_2stim_asymm_v5,2020.2.10,MacIntel,60,61025ae37ef11b136ea224fe,,,,,,,,,2004,34,55,1,0,0,response1disk,,7,3,0,1,0,0,rectangle,3,0,1,0,0,3,0,1,0,0,0,70,70,58,1,,,,,,,,
,,,,,,,,,,,,,FF,,,,,,,,1.501,,,,,,,,,,,,,,,,,,,,,,610367ad785ce86ceb8d201c,61036aea4ea5c745f29813b6,2021-07-29_21h59.34.207,Simcolourproject_2stim_asymm_v5,2020.2.10,MacIntel,60,61025ae37ef11b136ea224fe,,,,,,,,,4274,70,42,1,0,0,response1disk,,6,13,9,1,0,0,rectangle,13,9,1,0,0,13,9,1,0,0,0,71,71,83,1,,,,,,,,
,,,,,,,,,,,,,FF,,,,,,,,1.033,,,,,,,,,,,,,,,,,,,,,,610367ad785ce86ceb8d201c,61036aea4ea5c745f29813b6,2021-07-29_21h59.34.207,Simcolourproject_2stim_asymm_v5,2020.2.10,MacIntel,60,61025ae37ef11b136ea224fe,,,,,,,,,3330,-89,-44,1,0,0,response5disk,,2,-13,-8,1,0,0,rectangle,-13,-8,1,0,0,-13,-8,1,0,0,0,72,72,139,1,,,,,,,,
,,,,,,,,,,,,,FF,,,,,,,,0.983,,,,,,,,,,,,,,,,,,,,,,610367ad785ce86ceb8d201c,61036aea4ea5c745f29813b6,2021-07-29_21h59.34.207,Simcolourproject_2stim_asymm_v5,2020.2.10,MacIntel,60,61025ae37ef11b136ea224fe,,,,,,,,,2672,30,-79,1,0,0,response3disk,,4,-6,-18,1,0,0,rectangle,-6,-18,1,0,0,-6,-18,1,0,0,0,73,73,47,1,,,,,,,,
,,,,,,,,,,,,,FF,,,,,,,,1.051,,,,,,,,,,,,,,,,,,,,,,610367ad785ce86ceb8d201c,61036aea4ea5c745f29813b6,2021-07-29_21h59.34.207,Simcolourproject_2stim_asymm_v5,2020.2.10,MacIntel,60,61025ae37ef11b136ea224fe,,,,,,,,,1034,90,-53,1,0,0,response3disk,,5,-6,-1,1,0,0,rectangle,-6,-1,1,0,0,-6,-1,1,0,0,0,74,74,0,1,,,,,,,,
,,,,,,,,,,,,,FF,,,,,,,,1.565,,,,,,,,,,,,,,,,,,,,,,610367ad785ce86ceb8d201c,61036aea4ea5c745f29813b6,2021-07-29_21h59.34.207,Simcolourproject_2stim_asymm_v5,2020.2.10,MacIntel,60,61025ae37ef11b136ea224fe,,,,,,,,,1324,85,29,1,0,0,response1disk,,6,0,-2,1,0,0,rectangle,0,-2,1,0,0,0,-2,1,0,0,0,75,75,23,1,,,,,,,,
,,,,,,,,,,,,,FF,,,,,,,,0.867,,,,,,,,,,,,,,,,,,,,,,610367ad785ce86ceb8d201c,61036aea4ea5c745f29813b6,2021-07-29_21h59.34.207,Simcolourproject_2stim_asymm_v5,2020.2.10,MacIntel,60,61025ae37ef11b136ea224fe,,,,,,,,,3840,67,-54,1,0,0,response3disk,,5,-12,-4,1,0,0,rectangle,-12,-4,1,0,0,-12,-4,1,0,0,0,76,76,62,1,,,,,,,,
,,,,,,,,,,,,,FF,,,,,,,,0.817,,,,,,,,,,,,,,,,,,,,,,610367ad785ce86ceb8d201c,61036aea4ea5c745f29813b6,2021-07-29_21h59.34.207,Simcolourproject_2stim_asymm_v5,2020.2.10,MacIntel,60,61025ae37ef11b136ea224fe,,,,,,,,,1941,32,-90,1,0,0,response3disk,,4,-12,-14,1,0,0,rectangle,-12,-14,1,0,0,-12,-14,1,0,0,0,77,77,66,1,,,,,,,,
,,,,,,,,,,,,,FF,,,,,,,,0.917,,,,,,,,,,,,,,,,,,,,,,610367ad785ce86ceb8d201c,61036aea4ea5c745f29813b6,2021-07-29_21h59.34.207,Simcolourproject_2stim_asymm_v5,2020.2.10,MacIntel,60,61025ae37ef11b136ea224fe,,,,,,,,,3657,51,99,1,0,0,response1disk,,7,9,5,1,0,0,rectangle,9,5,1,0,0,9,5,1,0,0,0,78,78,143,1,,,,,,,,
,,,,,,,,,,,,,FF,,,,,,,,0.667,,,,,,,,,,,,,,,,,,,,,,610367ad785ce86ceb8d201c,61036aea4ea5c745f29813b6,2021-07-29_21h59.34.207,Simcolourproject_2stim_asymm_v5,2020.2.10,MacIntel,60,61025ae37ef11b136ea224fe,,,,,,,,,1355,27,54,1,0,0,response1disk,,7,-2,-4,1,0,0,rectangle,-2,-4,1,0,0,-2,-4,1,0,0,0,79,79,71,1,,,,,,,,
,,,,,,,,,,,,,FF,,,,,,,,0.667,,,,,,,,,,,,,,,,,,,,,,610367ad785ce86ceb8d201c,61036aea4ea5c745f29813b6,2021-07-29_21h59.34.207,Simcolourproject_2stim_asymm_v5,2020.2.10,MacIntel,60,61025ae37ef11b136ea224fe,,,,,,,,,1404,29,61,1,0,0,response1disk,,7,2,2,1,0,0,rectangle,2,2,1,0,0,2,2,1,0,0,0,80,80,157,1,,,,,,,,
,,,,,,,,,,,,,FF,,,,,,,,1.033,,,,,,,,,,,,,,,,,,,,,,610367ad785ce86ceb8d201c,61036aea4ea5c745f29813b6,2021-07-29_21h59.34.207,Simcolourproject_2stim_asymm_v5,2020.2.10,MacIntel,60,61025ae37ef11b136ea224fe,,,,,,,,,3375,-87,-25,1,0,0,response5disk,,2,-11,-3,1,0,0,rectangle,-11,-3,1,0,0,-11,-3,1,0,0,0,81,81,56,1,,,,,,,,
,,,,,,,,,,,,,FF,,,,,,,,0.631,,,,,,,,,,,,,,,,,,,,,,610367ad785ce86ceb8d201c,61036aea4ea5c745f29813b6,2021-07-29_21h59.34.207,Simcolourproject_2stim_asymm_v5,2020.2.10,MacIntel,60,61025ae37ef11b136ea224fe,,,,,,,,,2519,17,47,1,0,0,response1disk,,7,0,5,1,0,0,rectangle,0,5,1,0,0,0,5,1,0,0,0,82,82,116,1,,,,,,,,
,,,,,,,,,,,,,FF,,,,,,,,1.5,,,,,,,,,,,,,,,,,,,,,,610367ad785ce86ceb8d201c,61036aea4ea5c745f29813b6,2021-07-29_21h59.34.207,Simcolourproject_2stim_asymm_v5,2020.2.10,MacIntel,60,61025ae37ef11b136ea224fe,,,,,,,,,691,-50,-87,1,0,0,response5disk,,3,-15,-2,1,0,0,rectangle,-15,-2,1,0,0,-15,-2,1,0,0,0,83,83,2,1,,,,,,,,
,,,,,,,,,,,,,FF,,,,,,,,1.801,,,,,,,,,,,,,,,,,,,,,,610367ad785ce86ceb8d201c,61036aea4ea5c745f29813b6,2021-07-29_21h59.34.207,Simcolourproject_2stim_asymm_v5,2020.2.10,MacIntel,60,61025ae37ef11b136ea224fe,,,,,,,,,2668,57,-71,1,0,0,response3disk,,4,-3,-1,1,0,0,rectangle,-3,-1,1,0,0,-3,-1,1,0,0,0,84,84,20,1,,,,,,,,
,,,,,,,,,,,,,FF,,,,,,,,0.85,,,,,,,,,,,,,,,,,,,,,,610367ad785ce86ceb8d201c,61036aea4ea5c745f29813b6,2021-07-29_21h59.34.207,Simcolourproject_2stim_asymm_v5,2020.2.10,MacIntel,60,61025ae37ef11b136ea224fe,,,,,,,,,1411,-51,-60,1,0,0,response5disk,,3,-4,6,1,0,0,rectangle,-4,6,1,0,0,-4,6,1,0,0,0,85,85,113,1,,,,,,,,
,,,,,,,,,,,,,FF,,,,,,,,2.201,,,,,,,,,,,,,,,,,,,,,,610367ad785ce86ceb8d201c,61036aea4ea5c745f29813b6,2021-07-29_21h59.34.207,Simcolourproject_2stim_asymm_v5,2020.2.10,MacIntel,60,61025ae37ef11b136ea224fe,,,,,,,,,756,58,16,1,0,0,response1disk,,6,2,-5,1,0,0,rectangle,2,-5,1,0,0,2,-5,1,0,0,0,86,86,118,1,,,,,,,,
,,,,,,,,,,,,,FF,,,,,,,,1.034,,,,,,,,,,,,,,,,,,,,,,610367ad785ce86ceb8d201c,61036aea4ea5c745f29813b6,2021-07-29_21h59.34.207,Simcolourproject_2stim_asymm_v5,2020.2.10,MacIntel,60,61025ae37ef11b136ea224fe,,,,,,,,,3587,-36,-84,1,0,0,response5disk,,3,-20,-11,1,0,0,rectangle,-20,-11,1,0,0,-20,-11,1,0,0,0,87,87,25,1,,,,,,,,
,,,,,,,,,,,,,FF,,,,,,,,1.1,,,,,,,,,,,,,,,,,,,,,,610367ad785ce86ceb8d201c,61036aea4ea5c745f29813b6,2021-07-29_21h59.34.207,Simcolourproject_2stim_asymm_v5,2020.2.10,MacIntel,60,61025ae37ef11b136ea224fe,,,,,,,,,2795,-42,-60,1,0,0,response5disk,,3,-1,-1,1,0,0,rectangle,-1,-1,1,0,0,-1,-1,1,0,0,0,88,88,24,1,,,,,,,,
,,,,,,,,,,,,,FF,,,,,,,,1.433,,,,,,,,,,,,,,,,,,,,,,610367ad785ce86ceb8d201c,61036aea4ea5c745f29813b6,2021-07-29_21h59.34.207,Simcolourproject_2stim_asymm_v5,2020.2.10,MacIntel,60,61025ae37ef11b136ea224fe,,,,,,,,,1676,-84,-54,1,0,0,response5disk,,2,-22,2,1,0,0,rectangle,-22,2,1,0,0,-22,2,1,0,0,0,89,89,68,1,,,,,,,,
,,,,,,,,,,,,,FF,,,,,,,,0.917,,,,,,,,,,,,,,,,,,,,,,610367ad785ce86ceb8d201c,61036aea4ea5c745f29813b6,2021-07-29_21h59.34.207,Simcolourproject_2stim_asymm_v5,2020.2.10,MacIntel,60,61025ae37ef11b136ea224fe,,,,,,,,,2670,41,-79,1,0,0,response3disk,,4,-6,-10,1,0,0,rectangle,-6,-10,1,0,0,-6,-10,1,0,0,0,90,90,100,1,,,,,,,,
,,,,,,,,,,,,,FF,,,,,,,,0.884,,,,,,,,,,,,,,,,,,,,,,610367ad785ce86ceb8d201c,61036aea4ea5c745f29813b6,2021-07-29_21h59.34.207,Simcolourproject_2stim_asymm_v5,2020.2.10,MacIntel,60,61025ae37ef11b136ea224fe,,,,,,,,,716,-56,89,1,0,0,response7disk,,0,2,4,1,0,0,rectangle,2,4,1,0,0,2,4,1,0,0,0,91,91,41,1,,,,,,,,
,,,,,,,,,,,,,FF,,,,,,,,0.85,,,,,,,,,,,,,,,,,,,,,,610367ad785ce86ceb8d201c,61036aea4ea5c745f29813b6,2021-07-29_21h59.34.207,Simcolourproject_2stim_asymm_v5,2020.2.10,MacIntel,60,61025ae37ef11b136ea224fe,,,,,,,,,1753,-42,-99,1,0,0,response5disk,,3,-7,14,1,0,0,rectangle,-7,14,1,0,0,-7,14,1,0,0,0,92,92,108,1,,,,,,,,
,,,,,,,,,,,,,FF,,,,,,,,0.633,,,,,,,,,,,,,,,,,,,,,,610367ad785ce86ceb8d201c,61036aea4ea5c745f29813b6,2021-07-29_21h59.34.207,Simcolourproject_2stim_asymm_v5,2020.2.10,MacIntel,60,61025ae37ef11b136ea224fe,,,,,,,,,2619,34,73,1,0,0,response1disk,,7,6,10,1,0,0,rectangle,-30,73,1,0,0,-11,11,1,0,0,0,93,93,96,1,,response7disk_3,TRUE,0,0,"[184,140,10,258,192,54,147,258,121,26,182,15,24,253,180,167,288,191,121,94]",1.349,rectangle
,,,,,,,,,,,,,FF,,,,,,,,0.784,,,,,,,,,,,,,,,,,,,,,,610367ad785ce86ceb8d201c,61036aea4ea5c745f29813b6,2021-07-29_21h59.34.207,Simcolourproject_2stim_asymm_v5,2020.2.10,MacIntel,60,61025ae37ef11b136ea224fe,,,,,,,,,1648,24,86,1,0,0,response1disk,,7,11,10,1,0,0,rectangle,11,10,1,0,0,11,10,1,0,0,0,94,94,1,1,,,,,,,,
,,,,,,,,,,,,,FF,,,,,,,,1.167,,,,,,,,,,,,,,,,,,,,,,610367ad785ce86ceb8d201c,61036aea4ea5c745f29813b6,2021-07-29_21h59.34.207,Simcolourproject_2stim_asymm_v5,2020.2.10,MacIntel,60,61025ae37ef11b136ea224fe,,,,,,,,,2026,-72,-62,1,0,0,response5disk,,2,-21,0,1,0,0,rectangle,-21,0,1,0,0,-21,0,1,0,0,0,95,95,93,1,,,,,,,,
,,,,,,,,,,,,,FF,,,,,,,,0.85,,,,,,,,,,,,,,,,,,,,,,610367ad785ce86ceb8d201c,61036aea4ea5c745f29813b6,2021-07-29_21h59.34.207,Simcolourproject_2stim_asymm_v5,2020.2.10,MacIntel,60,61025ae37ef11b136ea224fe,,,,,,,,,3163,-36,-73,1,0,0,response5disk,,3,-10,-12,1,0,0,rectangle,-10,-12,1,0,0,-10,-12,1,0,0,0,96,96,102,1,,,,,,,,
,,,,,,,,,,,,,FF,,,,,,,,0.75,,,,,,,,,,,,,,,,,,,,,,610367ad785ce86ceb8d201c,61036aea4ea5c745f29813b6,2021-07-29_21h59.34.207,Simcolourproject_2stim_asymm_v5,2020.2.10,MacIntel,60,61025ae37ef11b136ea224fe,,,,,,,,,2039,-23,-75,1,0,0,response5disk,,3,3,2,1,0,0,rectangle,3,2,1,0,0,3,2,1,0,0,0,97,97,138,1,,,,,,,,
,,,,,,,,,,,,,FF,,,,,,,,0.467,,,,,,,,,,,,,,,,,,,,,,610367ad785ce86ceb8d201c,61036aea4ea5c745f29813b6,2021-07-29_21h59.34.207,Simcolourproject_2stim_asymm_v5,2020.2.10,MacIntel,60,61025ae37ef11b136ea224fe,,,,,,,,,3382,-25,-56,1,0,0,response5disk,,3,-12,-12,1,0,0,rectangle,-12,-12,1,0,0,-12,-12,1,0,0,0,98,98,90,1,,,,,,,,
,,,,,,,,,,,,,FF,,,,,,,,1.316,,,,,,,,,,,,,,,,,,,,,,610367ad785ce86ceb8d201c,61036aea4ea5c745f29813b6,2021-07-29_21h59.34.207,Simcolourproject_2stim_asymm_v5,2020.2.10,MacIntel,60,61025ae37ef11b136ea224fe,,,,,,,,,3867,29,-63,1,0,0,response3disk,,4,-2,-7,1,0,0,rectangle,-2,-7,1,0,0,-2,-7,1,0,0,0,99,99,34,1,,,,,,,,
,,,,,,,,,,,,,FF,,,,,,,,1.15,,,,,,,,,,,,,,,,,,,,,,610367ad785ce86ceb8d201c,61036aea4ea5c745f29813b6,2021-07-29_21h59.34.207,Simcolourproject_2stim_asymm_v5,2020.2.10,MacIntel,60,61025ae37ef11b136ea224fe,,,,,,,,,2906,86,-29,1,0,0,response3disk,,5,1,5,1,0,0,rectangle,1,5,1,0,0,1,5,1,0,0,0,100,100,72,1,,,,,,,,
,,,,,,,,,,,,,FF,,,,,,,,0.899,,,,,,,,,,,,,,,,,,,,,,610367ad785ce86ceb8d201c,61036aea4ea5c745f29813b6,2021-07-29_21h59.34.207,Simcolourproject_2stim_asymm_v5,2020.2.10,MacIntel,60,61025ae37ef11b136ea224fe,,,,,,,,,834,40,70,1,0,0,response1disk,,7,9,5,1,0,0,rectangle,9,5,1,0,0,9,5,1,0,0,0,101,101,64,1,,,,,,,,
,,,,,,,,,,,,,FF,,,,,,,,0.433,,,,,,,,,,,,,,,,,,,,,,610367ad785ce86ceb8d201c,61036aea4ea5c745f29813b6,2021-07-29_21h59.34.207,Simcolourproject_2stim_asymm_v5,2020.2.10,MacIntel,60,61025ae37ef11b136ea224fe,,,,,,,,,3681,45,41,1,0,0,response1disk,,6,11,6,1,0,0,rectangle,11,6,1,0,0,11,6,1,0,0,0,102,102,61,1,,,,,,,,
,,,,,,,,,,,,,FF,,,,,,,,0.467,,,,,,,,,,,,,,,,,,,,,,610367ad785ce86ceb8d201c,61036aea4ea5c745f29813b6,2021-07-29_21h59.34.207,Simcolourproject_2stim_asymm_v5,2020.2.10,MacIntel,60,61025ae37ef11b136ea224fe,,,,,,,,,2872,37,56,1,0,0,response1disk,,7,10,5,1,0,0,rectangle,10,5,1,0,0,10,5,1,0,0,0,103,103,26,1,,,,,,,,
,,,,,,,,,,,,,FF,,,,,,,,0.433,,,,,,,,,,,,,,,,,,,,,,610367ad785ce86ceb8d201c,61036aea4ea5c745f29813b6,2021-07-29_21h59.34.207,Simcolourproject_2stim_asymm_v5,2020.2.10,MacIntel,60,61025ae37ef11b136ea224fe,,,,,,,,,3242,44,61,1,0,0,response1disk,,7,11,-4,1,0,0,rectangle,11,-4,1,0,0,11,-4,1,0,0,0,104,104,28,1,,,,,,,,
,,,,,,,,,,,,,FF,,,,,,,,0.732,,,,,,,,,,,,,,,,,,,,,,610367ad785ce86ceb8d201c,61036aea4ea5c745f29813b6,2021-07-29_21h59.34.207,Simcolourproject_2stim_asymm_v5,2020.2.10,MacIntel,60,61025ae37ef11b136ea224fe,,,,,,,,,1182,56,67,1,0,0,response1disk,,7,13,6,1,0,0,rectangle,13,6,1,0,0,13,6,1,0,0,0,105,105,155,1,,,,,,,,
,,,,,,,,,,,,,FF,,,,,,,,0.883,,,,,,,,,,,,,,,,,,,,,,610367ad785ce86ceb8d201c,61036aea4ea5c745f29813b6,2021-07-29_21h59.34.207,Simcolourproject_2stim_asymm_v5,2020.2.10,MacIntel,60,61025ae37ef11b136ea224fe,,,,,,,,,3154,-43,-59,1,0,0,response5disk,,3,-21,-7,1,0,0,rectangle,-21,-7,1,0,0,-21,-7,1,0,0,0,106,106,35,1,,,,,,,,
,,,,,,,,,,,,,FF,,,,,,,,0.983,,,,,,,,,,,,,,,,,,,,,,610367ad785ce86ceb8d201c,61036aea4ea5c745f29813b6,2021-07-29_21h59.34.207,Simcolourproject_2stim_asymm_v5,2020.2.10,MacIntel,60,61025ae37ef11b136ea224fe,,,,,,,,,200,17,69,1,0,0,response1disk,,7,-4,8,1,0,0,rectangle,-4,8,1,0,0,-4,8,1,0,0,0,107,107,42,1,,,,,,,,
,,,,,,,,,,,,,FF,,,,,,,,1.051,,,,,,,,,,,,,,,,,,,,,,610367ad785ce86ceb8d201c,61036aea4ea5c745f29813b6,2021-07-29_21h59.34.207,Simcolourproject_2stim_asymm_v5,2020.2.10,MacIntel,60,61025ae37ef11b136ea224fe,,,,,,,,,2945,87,-34,1,0,0,response3disk,,5,13,-15,1,0,0,rectangle,13,-15,1,0,0,13,-15,1,0,0,0,108,108,43,1,,,,,,,,
,,,,,,,,,,,,,FF,,,,,,,,0.984,,,,,,,,,,,,,,,,,,,,,,610367ad785ce86ceb8d201c,61036aea4ea5c745f29813b6,2021-07-29_21h59.34.207,Simcolourproject_2stim_asymm_v5,2020.2.10,MacIntel,60,61025ae37ef11b136ea224fe,,,,,,,,,3982,82,34,1,0,0,response1disk,,6,18,4,1,0,0,rectangle,18,4,1,0,0,18,4,1,0,0,0,109,109,97,1,,,,,,,,
,,,,,,,,,,,,,FF,,,,,,,,1.082,,,,,,,,,,,,,,,,,,,,,,610367ad785ce86ceb8d201c,61036aea4ea5c745f29813b6,2021-07-29_21h59.34.207,Simcolourproject_2stim_asymm_v5,2020.2.10,MacIntel,60,61025ae37ef11b136ea224fe,,,,,,,,,385,48,92,1,0,0,response1disk,,7,6,11,1,0,0,rectangle,6,11,1,0,0,6,11,1,0,0,0,110,110,55,1,,,,,,,,
,,,,,,,,,,,,,FF,,,,,,,,0.783,,,,,,,,,,,,,,,,,,,,,,610367ad785ce86ceb8d201c,61036aea4ea5c745f29813b6,2021-07-29_21h59.34.207,Simcolourproject_2stim_asymm_v5,2020.2.10,MacIntel,60,61025ae37ef11b136ea224fe,,,,,,,,,3918,33,47,1,0,0,response1disk,,7,4,1,1,0,0,rectangle,4,1,1,0,0,4,1,1,0,0,0,111,111,144,1,,,,,,,,
,,,,,,,,,,,,,FF,,,,,,,,0.65,,,,,,,,,,,,,,,,,,,,,,610367ad785ce86ceb8d201c,61036aea4ea5c745f29813b6,2021-07-29_21h59.34.207,Simcolourproject_2stim_asymm_v5,2020.2.10,MacIntel,60,61025ae37ef11b136ea224fe,,,,,,,,,1840,33,59,1,0,0,response1disk,,7,11,10,1,0,0,rectangle,11,10,1,0,0,11,10,1,0,0,0,112,112,101,1,,,,,,,,
,,,,,,,,,,,,,FF,,,,,,,,0.749,,,,,,,,,,,,,,,,,,,,,,610367ad785ce86ceb8d201c,61036aea4ea5c745f29813b6,2021-07-29_21h59.34.207,Simcolourproject_2stim_asymm_v5,2020.2.10,MacIntel,60,61025ae37ef11b136ea224fe,,,,,,,,,1970,63,36,1,0,0,response1disk,,6,24,4,1,0,0,rectangle,24,4,1,0,0,24,4,1,0,0,0,113,113,135,1,,,,,,,,
,,,,,,,,,,,,,FF,,,,,,,,0.734,,,,,,,,,,,,,,,,,,,,,,610367ad785ce86ceb8d201c,61036aea4ea5c745f29813b6,2021-07-29_21h59.34.207,Simcolourproject_2stim_asymm_v5,2020.2.10,MacIntel,60,61025ae37ef11b136ea224fe,,,,,,,,,3401,71,-38,1,0,0,response3disk,,5,13,-14,1,0,0,rectangle,13,-14,1,0,0,13,-14,1,0,0,0,114,114,91,1,,,,,,,,
,,,,,,,,,,,,,FF,,,,,,,,0.683,,,,,,,,,,,,,,,,,,,,,,610367ad785ce86ceb8d201c,61036aea4ea5c745f29813b6,2021-07-29_21h59.34.207,Simcolourproject_2stim_asymm_v5,2020.2.10,MacIntel,60,61025ae37ef11b136ea224fe,,,,,,,,,1656,-49,-44,1,0,0,response5disk,,2,-10,-4,1,0,0,rectangle,-10,-4,1,0,0,-10,-4,1,0,0,0,115,115,6,1,,,,,,,,
,,,,,,,,,,,,,FF,,,,,,,,1.016,,,,,,,,,,,,,,,,,,,,,,610367ad785ce86ceb8d201c,61036aea4ea5c745f29813b6,2021-07-29_21h59.34.207,Simcolourproject_2stim_asymm_v5,2020.2.10,MacIntel,60,61025ae37ef11b136ea224fe,,,,,,,,,1546,41,84,1,0,0,response1disk,,7,4,-1,1,0,0,rectangle,4,-1,1,0,0,4,-1,1,0,0,0,116,116,92,1,,,,,,,,
,,,,,,,,,,,,,FF,,,,,,,,0.65,,,,,,,,,,,,,,,,,,,,,,610367ad785ce86ceb8d201c,61036aea4ea5c745f29813b6,2021-07-29_21h59.34.207,Simcolourproject_2stim_asymm_v5,2020.2.10,MacIntel,60,61025ae37ef11b136ea224fe,,,,,,,,,1627,50,73,1,0,0,response1disk,,7,16,11,1,0,0,rectangle,16,11,1,0,0,16,11,1,0,0,0,117,117,151,1,,,,,,,,
,,,,,,,,,,,,,FF,,,,,,,,1.35,,,,,,,,,,,,,,,,,,,,,,610367ad785ce86ceb8d201c,61036aea4ea5c745f29813b6,2021-07-29_21h59.34.207,Simcolourproject_2stim_asymm_v5,2020.2.10,MacIntel,60,61025ae37ef11b136ea224fe,,,,,,,,,4227,75,-36,1,0,0,response3disk,,5,0,1,1,0,0,rectangle,0,1,1,0,0,0,1,1,0,0,0,118,118,104,1,,,,,,,,
,,,,,,,,,,,,,FF,,,,,,,,0.867,,,,,,,,,,,,,,,,,,,,,,610367ad785ce86ceb8d201c,61036aea4ea5c745f29813b6,2021-07-29_21h59.34.207,Simcolourproject_2stim_asymm_v5,2020.2.10,MacIntel,60,61025ae37ef11b136ea224fe,,,,,,,,,1855,40,65,1,0,0,response1disk,,7,0,0,1,0,0,rectangle,0,0,1,0,0,0,0,1,0,0,0,119,119,117,1,,,,,,,,
,,,,,,,,,,,,,FF,,,,,,,,1.134,,,,,,,,,,,,,,,,,,,,,,610367ad785ce86ceb8d201c,61036aea4ea5c745f29813b6,2021-07-29_21h59.34.207,Simcolourproject_2stim_asymm_v5,2020.2.10,MacIntel,60,61025ae37ef11b136ea224fe,,,,,,,,,480,38,76,1,0,0,response1disk,,7,3,4,1,0,0,rectangle,29,-81,1,0,0,-7,-8,1,0,0,0,120,120,5,1,,response3disk_3,TRUE,4,4,"[184,140,10,258,192,54,147,258,121,26,182,15,24,253,180,167,288,191,121,94]",1.733,rectangle
,,,,,,,,,,,,,FF,,,,,,,,0.966,,,,,,,,,,,,,,,,,,,,,,610367ad785ce86ceb8d201c,61036aea4ea5c745f29813b6,2021-07-29_21h59.34.207,Simcolourproject_2stim_asymm_v5,2020.2.10,MacIntel,60,61025ae37ef11b136ea224fe,,,,,,,,,3758,40,74,1,0,0,response1disk,,7,14,15,1,0,0,rectangle,14,15,1,0,0,14,15,1,0,0,0,121,121,126,1,,,,,,,,
,,,,,,,,,,,,,FF,,,,,,,,1.167,,,,,,,,,,,,,,,,,,,,,,610367ad785ce86ceb8d201c,61036aea4ea5c745f29813b6,2021-07-29_21h59.34.207,Simcolourproject_2stim_asymm_v5,2020.2.10,MacIntel,60,61025ae37ef11b136ea224fe,,,,,,,,,2244,73,-55,1,0,0,response3disk,,5,9,-10,1,0,0,rectangle,9,-10,1,0,0,9,-10,1,0,0,0,122,122,33,1,,,,,,,,
,,,,,,,,,,,,,FF,,,,,,,,1,,,,,,,,,,,,,,,,,,,,,,610367ad785ce86ceb8d201c,61036aea4ea5c745f29813b6,2021-07-29_21h59.34.207,Simcolourproject_2stim_asymm_v5,2020.2.10,MacIntel,60,61025ae37ef11b136ea224fe,,,,,,,,,3063,31,-75,1,0,0,response3disk,,4,-11,-15,1,0,0,rectangle,-11,-15,1,0,0,-11,-15,1,0,0,0,123,123,3,1,,,,,,,,
,,,,,,,,,,,,,FF,,,,,,,,0.601,,,,,,,,,,,,,,,,,,,,,,610367ad785ce86ceb8d201c,61036aea4ea5c745f29813b6,2021-07-29_21h59.34.207,Simcolourproject_2stim_asymm_v5,2020.2.10,MacIntel,60,61025ae37ef11b136ea224fe,,,,,,,,,557,32,65,1,0,0,response1disk,,7,2,1,1,0,0,rectangle,2,1,1,0,0,2,1,1,0,0,0,124,124,4,1,,,,,,,,
,,,,,,,,,,,,,FF,,,,,,,,0.684,,,,,,,,,,,,,,,,,,,,,,610367ad785ce86ceb8d201c,61036aea4ea5c745f29813b6,2021-07-29_21h59.34.207,Simcolourproject_2stim_asymm_v5,2020.2.10,MacIntel,60,61025ae37ef11b136ea224fe,,,,,,,,,2030,-37,-73,1,0,0,response5disk,,3,-13,-8,1,0,0,rectangle,-13,-8,1,0,0,-13,-8,1,0,0,0,125,125,158,1,,,,,,,,
,,,,,,,,,,,,,FF,,,,,,,,0.849,,,,,,,,,,,,,,,,,,,,,,610367ad785ce86ceb8d201c,61036aea4ea5c745f29813b6,2021-07-29_21h59.34.207,Simcolourproject_2stim_asymm_v5,2020.2.10,MacIntel,60,61025ae37ef11b136ea224fe,,,,,,,,,1330,79,-42,1,0,0,response3disk,,5,9,-5,1,0,0,rectangle,9,-5,1,0,0,9,-5,1,0,0,0,126,126,115,1,,,,,,,,
,,,,,,,,,,,,,FF,,,,,,,,1.15,,,,,,,,,,,,,,,,,,,,,,610367ad785ce86ceb8d201c,61036aea4ea5c745f29813b6,2021-07-29_21h59.34.207,Simcolourproject_2stim_asymm_v5,2020.2.10,MacIntel,60,61025ae37ef11b136ea224fe,,,,,,,,,339,47,-78,1,0,0,response3disk,,4,-18,-14,1,0,0,rectangle,-18,-14,1,0,0,-18,-14,1,0,0,0,127,127,38,1,,,,,,,,
,,,,,,,,,,,,,FF,,,,,,,,1.05,,,,,,,,,,,,,,,,,,,,,,610367ad785ce86ceb8d201c,61036aea4ea5c745f29813b6,2021-07-29_21h59.34.207,Simcolourproject_2stim_asymm_v5,2020.2.10,MacIntel,60,61025ae37ef11b136ea224fe,,,,,,,,,754,27,53,1,0,0,response1disk,,7,10,6,1,0,0,rectangle,10,6,1,0,0,10,6,1,0,0,0,128,128,86,1,,,,,,,,
,,,,,,,,,,,,,FF,,,,,,,,1.817,,,,,,,,,,,,,,,,,,,,,,610367ad785ce86ceb8d201c,61036aea4ea5c745f29813b6,2021-07-29_21h59.34.207,Simcolourproject_2stim_asymm_v5,2020.2.10,MacIntel,60,61025ae37ef11b136ea224fe,,,,,,,,,3174,66,-39,1,0,0,response3disk,,5,-1,10,1,0,0,rectangle,-1,10,1,0,0,-1,10,1,0,0,0,129,129,89,1,,,,,,,,
,,,,,,,,,,,,,FF,,,,,,,,0.767,,,,,,,,,,,,,,,,,,,,,,610367ad785ce86ceb8d201c,61036aea4ea5c745f29813b6,2021-07-29_21h59.34.207,Simcolourproject_2stim_asymm_v5,2020.2.10,MacIntel,60,61025ae37ef11b136ea224fe,,,,,,,,,2687,-37,-63,1,0,0,response5disk,,3,-2,6,1,0,0,rectangle,-2,6,1,0,0,-2,6,1,0,0,0,130,130,124,1,,,,,,,,
,,,,,,,,,,,,,FF,,,,,,,,0.649,,,,,,,,,,,,,,,,,,,,,,610367ad785ce86ceb8d201c,61036aea4ea5c745f29813b6,2021-07-29_21h59.34.207,Simcolourproject_2stim_asymm_v5,2020.2.10,MacIntel,60,61025ae37ef11b136ea224fe,,,,,,,,,1914,-26,-53,1,0,0,response5disk,,3,-9,-13,1,0,0,rectangle,-9,-13,1,0,0,-9,-13,1,0,0,0,131,131,150,1,,,,,,,,
,,,,,,,,,,,,,FF,,,,,,,,0.617,,,,,,,,,,,,,,,,,,,,,,610367ad785ce86ceb8d201c,61036aea4ea5c745f29813b6,2021-07-29_21h59.34.207,Simcolourproject_2stim_asymm_v5,2020.2.10,MacIntel,60,61025ae37ef11b136ea224fe,,,,,,,,,1388,42,-66,1,0,0,response3disk,,4,-8,-3,1,0,0,rectangle,-8,-3,1,0,0,-8,-3,1,0,0,0,132,132,49,1,,,,,,,,
,,,,,,,,,,,,,FF,,,,,,,,1.417,,,,,,,,,,,,,,,,,,,,,,610367ad785ce86ceb8d201c,61036aea4ea5c745f29813b6,2021-07-29_21h59.34.207,Simcolourproject_2stim_asymm_v5,2020.2.10,MacIntel,60,61025ae37ef11b136ea224fe,,,,,,,,,3356,49,-79,1,0,0,response3disk,,4,-2,-16,1,0,0,rectangle,-2,-16,1,0,0,-2,-16,1,0,0,0,133,133,120,1,,,,,,,,
,,,,,,,,,,,,,FF,,,,,,,,0.683,,,,,,,,,,,,,,,,,,,,,,610367ad785ce86ceb8d201c,61036aea4ea5c745f29813b6,2021-07-29_21h59.34.207,Simcolourproject_2stim_asymm_v5,2020.2.10,MacIntel,60,61025ae37ef11b136ea224fe,,,,,,,,,3954,31,59,1,0,0,response1disk,,7,13,5,1,0,0,rectangle,13,5,1,0,0,13,5,1,0,0,0,134,134,70,1,,,,,,,,
,,,,,,,,,,,,,FF,,,,,,,,1.049,,,,,,,,,,,,,,,,,,,,,,610367ad785ce86ceb8d201c,61036aea4ea5c745f29813b6,2021-07-29_21h59.34.207,Simcolourproject_2stim_asymm_v5,2020.2.10,MacIntel,60,61025ae37ef11b136ea224fe,,,,,,,,,264,-93,-38,1,0,0,response5disk,,2,-31,3,1,0,0,rectangle,-31,3,1,0,0,-31,3,1,0,0,0,135,135,54,1,,,,,,,,
,,,,,,,,,,,,,FF,,,,,,,,0.583,,,,,,,,,,,,,,,,,,,,,,610367ad785ce86ceb8d201c,61036aea4ea5c745f29813b6,2021-07-29_21h59.34.207,Simcolourproject_2stim_asymm_v5,2020.2.10,MacIntel,60,61025ae37ef11b136ea224fe,,,,,,,,,3448,43,65,1,0,0,response1disk,,7,17,5,1,0,0,rectangle,17,5,1,0,0,17,5,1,0,0,0,136,136,134,1,,,,,,,,
,,,,,,,,,,,,,FF,,,,,,,,1.183,,,,,,,,,,,,,,,,,,,,,,610367ad785ce86ceb8d201c,61036aea4ea5c745f29813b6,2021-07-29_21h59.34.207,Simcolourproject_2stim_asymm_v5,2020.2.10,MacIntel,60,61025ae37ef11b136ea224fe,,,,,,,,,2214,39,-91,1,0,0,response3disk,,4,3,-11,1,0,0,rectangle,3,-11,1,0,0,3,-11,1,0,0,0,137,137,84,1,,,,,,,,
,,,,,,,,,,,,,FF,,,,,,,,0.683,,,,,,,,,,,,,,,,,,,,,,610367ad785ce86ceb8d201c,61036aea4ea5c745f29813b6,2021-07-29_21h59.34.207,Simcolourproject_2stim_asymm_v5,2020.2.10,MacIntel,60,61025ae37ef11b136ea224fe,,,,,,,,,2488,-41,-74,1,0,0,response5disk,,3,-3,-2,1,0,0,rectangle,-3,-2,1,0,0,-3,-2,1,0,0,0,138,138,154,1,,,,,,,,
,,,,,,,,,,,,,FF,,,,,,,,1.249,,,,,,,,,,,,,,,,,,,,,,610367ad785ce86ceb8d201c,61036aea4ea5c745f29813b6,2021-07-29_21h59.34.207,Simcolourproject_2stim_asymm_v5,2020.2.10,MacIntel,60,61025ae37ef11b136ea224fe,,,,,,,,,4248,24,-92,1,0,0,response3disk,,4,-3,-7,1,0,0,rectangle,82,-36,1,0,0,15,-3,1,0,0,0,139,139,7,1,,response3disk_3,TRUE,5,5,"[184,140,10,258,192,54,147,258,121,26,182,15,24,253,180,167,288,191,121,94]",1.283,rectangle
,,,,,,,,,,,,,FF,,,,,,,,0.849,,,,,,,,,,,,,,,,,,,,,,610367ad785ce86ceb8d201c,61036aea4ea5c745f29813b6,2021-07-29_21h59.34.207,Simcolourproject_2stim_asymm_v5,2020.2.10,MacIntel,60,61025ae37ef11b136ea224fe,,,,,,,,,2507,35,76,1,0,0,response1disk,,7,10,1,1,0,0,rectangle,10,1,1,0,0,10,1,1,0,0,0,140,140,131,1,,,,,,,,
,,,,,,,,,,,,,FF,,,,,,,,1.299,,,,,,,,,,,,,,,,,,,,,,610367ad785ce86ceb8d201c,61036aea4ea5c745f29813b6,2021-07-29_21h59.34.207,Simcolourproject_2stim_asymm_v5,2020.2.10,MacIntel,60,61025ae37ef11b136ea224fe,,,,,,,,,187,-84,-39,1,0,0,response5disk,,2,-33,1,1,0,0,rectangle,-33,1,1,0,0,-33,1,1,0,0,0,141,141,141,1,,,,,,,,
,,,,,,,,,,,,,FF,,,,,,,,1.434,,,,,,,,,,,,,,,,,,,,,,610367ad785ce86ceb8d201c,61036aea4ea5c745f29813b6,2021-07-29_21h59.34.207,Simcolourproject_2stim_asymm_v5,2020.2.10,MacIntel,60,61025ae37ef11b136ea224fe,,,,,,,,,4301,77,-43,1,0,0,response3disk,,5,15,-18,1,0,0,rectangle,15,-18,1,0,0,15,-18,1,0,0,0,142,142,136,1,,,,,,,,
,,,,,,,,,,,,,FF,,,,,,,,0.817,,,,,,,,,,,,,,,,,,,,,,610367ad785ce86ceb8d201c,61036aea4ea5c745f29813b6,2021-07-29_21h59.34.207,Simcolourproject_2stim_asymm_v5,2020.2.10,MacIntel,60,61025ae37ef11b136ea224fe,,,,,,,,,2734,48,-72,1,0,0,response3disk,,4,-19,0,1,0,0,rectangle,-19,0,1,0,0,-19,0,1,0,0,0,143,143,128,1,,,,,,,,
,,,,,,,,,,,,,FF,,,,,,,,2.933,,,,,,,,,,,,,,,,,,,,,,610367ad785ce86ceb8d201c,61036aea4ea5c745f29813b6,2021-07-29_21h59.34.207,Simcolourproject_2stim_asymm_v5,2020.2.10,MacIntel,60,61025ae37ef11b136ea224fe,,,,,,,,,3823,22,-41,1,0,0,response3disk,,4,2,-5,1,0,0,rectangle,2,-5,1,0,0,2,-5,1,0,0,0,144,144,13,1,,,,,,,,
,,,,,,,,,,,,,FF,,,,,,,,1.117,,,,,,,,,,,,,,,,,,,,,,610367ad785ce86ceb8d201c,61036aea4ea5c745f29813b6,2021-07-29_21h59.34.207,Simcolourproject_2stim_asymm_v5,2020.2.10,MacIntel,60,61025ae37ef11b136ea224fe,,,,,,,,,2056,30,54,1,0,0,response1disk,,7,5,-11,1,0,0,rectangle,5,-11,1,0,0,5,-11,1,0,0,0,145,145,159,1,,,,,,,,
,,,,,,,,,,,,,FF,,,,,,,,1.314,,,,,,,,,,,,,,,,,,,,,,610367ad785ce86ceb8d201c,61036aea4ea5c745f29813b6,2021-07-29_21h59.34.207,Simcolourproject_2stim_asymm_v5,2020.2.10,MacIntel,60,61025ae37ef11b136ea224fe,,,,,,,,,1673,29,-87,1,0,0,response3disk,,4,-2,-3,1,0,0,rectangle,-55,-99,1,0,0,-5,-5,1,0,0,0,146,146,50,1,,response5disk_3,TRUE,3,3,"[184,140,10,258,192,54,147,258,121,26,182,15,24,253,180,167,288,191,121,94]",1.882,rectangle
,,,,,,,,,,,,,FF,,,,,,,,1.05,,,,,,,,,,,,,,,,,,,,,,610367ad785ce86ceb8d201c,61036aea4ea5c745f29813b6,2021-07-29_21h59.34.207,Simcolourproject_2stim_asymm_v5,2020.2.10,MacIntel,60,61025ae37ef11b136ea224fe,,,,,,,,,2219,-34,-75,1,0,0,response5disk,,3,-5,-4,1,0,0,rectangle,-5,-4,1,0,0,-5,-4,1,0,0,0,147,147,149,1,,,,,,,,
,,,,,,,,,,,,,FF,,,,,,,,0.634,,,,,,,,,,,,,,,,,,,,,,610367ad785ce86ceb8d201c,61036aea4ea5c745f29813b6,2021-07-29_21h59.34.207,Simcolourproject_2stim_asymm_v5,2020.2.10,MacIntel,60,61025ae37ef11b136ea224fe,,,,,,,,,1139,-45,-68,1,0,0,response5disk,,3,2,-2,1,0,0,rectangle,2,-2,1,0,0,2,-2,1,0,0,0,148,148,148,1,,,,,,,,
,,,,,,,,,,,,,FF,,,,,,,,0.6,,,,,,,,,,,,,,,,,,,,,,610367ad785ce86ceb8d201c,61036aea4ea5c745f29813b6,2021-07-29_21h59.34.207,Simcolourproject_2stim_asymm_v5,2020.2.10,MacIntel,60,61025ae37ef11b136ea224fe,,,,,,,,,489,43,-63,1,0,0,response3disk,,4,-1,-1,1,0,0,rectangle,-1,-1,1,0,0,-1,-1,1,0,0,0,149,149,63,1,,,,,,,,
,,,,,,,,,,,,,FF,,,,,,,,1.1,,,,,,,,,,,,,,,,,,,,,,610367ad785ce86ceb8d201c,61036aea4ea5c745f29813b6,2021-07-29_21h59.34.207,Simcolourproject_2stim_asymm_v5,2020.2.10,MacIntel,60,61025ae37ef11b136ea224fe,,,,,,,,,778,-38,-73,1,0,0,response5disk,,3,-10,-7,1,0,0,rectangle,-10,-7,1,0,0,-10,-7,1,0,0,0,150,150,145,1,,,,,,,,
,,,,,,,,,,,,,FF,,,,,,,,0.7,,,,,,,,,,,,,,,,,,,,,,610367ad785ce86ceb8d201c,61036aea4ea5c745f29813b6,2021-07-29_21h59.34.207,Simcolourproject_2stim_asymm_v5,2020.2.10,MacIntel,60,61025ae37ef11b136ea224fe,,,,,,,,,4323,28,69,1,0,0,response1disk,,7,1,2,1,0,0,rectangle,1,2,1,0,0,1,2,1,0,0,0,151,151,129,1,,,,,,,,
,,,,,,,,,,,,,FF,,,,,,,,0.683,,,,,,,,,,,,,,,,,,,,,,610367ad785ce86ceb8d201c,61036aea4ea5c745f29813b6,2021-07-29_21h59.34.207,Simcolourproject_2stim_asymm_v5,2020.2.10,MacIntel,60,61025ae37ef11b136ea224fe,,,,,,,,,3295,26,44,1,0,0,response1disk,,7,-2,-6,1,0,0,rectangle,-2,-6,1,0,0,-2,-6,1,0,0,0,152,152,17,1,,,,,,,,
,,,,,,,,,,,,,FF,,,,,,,,0.734,,,,,,,,,,,,,,,,,,,,,,610367ad785ce86ceb8d201c,61036aea4ea5c745f29813b6,2021-07-29_21h59.34.207,Simcolourproject_2stim_asymm_v5,2020.2.10,MacIntel,60,61025ae37ef11b136ea224fe,,,,,,,,,2624,33,50,1,0,0,response1disk,,7,-1,0,1,0,0,rectangle,-1,0,1,0,0,-1,0,1,0,0,0,153,153,132,1,,,,,,,,
,,,,,,,,,,,,,FF,,,,,,,,0.633,,,,,,,,,,,,,,,,,,,,,,610367ad785ce86ceb8d201c,61036aea4ea5c745f29813b6,2021-07-29_21h59.34.207,Simcolourproject_2stim_asymm_v5,2020.2.10,MacIntel,60,61025ae37ef11b136ea224fe,,,,,,,,,555,-36,-56,1,0,0,response5disk,,3,-11,-13,1,0,0,rectangle,-11,-13,1,0,0,-11,-13,1,0,0,0,154,154,112,1,,,,,,,,
,,,,,,,,,,,,,FF,,,,,,,,0.85,,,,,,,,,,,,,,,,,,,,,,610367ad785ce86ceb8d201c,61036aea4ea5c745f29813b6,2021-07-29_21h59.34.207,Simcolourproject_2stim_asymm_v5,2020.2.10,MacIntel,60,61025ae37ef11b136ea224fe,,,,,,,,,3425,-48,86,1,0,0,response7disk,,0,-3,3,1,0,0,rectangle,-3,3,1,0,0,-3,3,1,0,0,0,155,155,105,1,,,,,,,,
,,,,,,,,,,,,,FF,,,,,,,,0.899,,,,,,,,,,,,,,,,,,,,,,610367ad785ce86ceb8d201c,61036aea4ea5c745f29813b6,2021-07-29_21h59.34.207,Simcolourproject_2stim_asymm_v5,2020.2.10,MacIntel,60,61025ae37ef11b136ea224fe,,,,,,,,,322,31,70,1,0,0,response1disk,,7,9,0,1,0,0,rectangle,9,0,1,0,0,9,0,1,0,0,0,156,156,95,1,,,,,,,,
,,,,,,,,,,,,,FF,,,,,,,,0.85,,,,,,,,,,,,,,,,,,,,,,610367ad785ce86ceb8d201c,61036aea4ea5c745f29813b6,2021-07-29_21h59.34.207,Simcolourproject_2stim_asymm_v5,2020.2.10,MacIntel,60,61025ae37ef11b136ea224fe,,,,,,,,,3547,-41,-64,1,0,0,response5disk,,3,-4,-9,1,0,0,rectangle,-4,-9,1,0,0,-4,-9,1,0,0,0,157,157,11,1,,,,,,,,
,,,,,,,,,,,,,FF,,,,,,,,0.867,,,,,,,,,,,,,,,,,,,,,,610367ad785ce86ceb8d201c,61036aea4ea5c745f29813b6,2021-07-29_21h59.34.207,Simcolourproject_2stim_asymm_v5,2020.2.10,MacIntel,60,61025ae37ef11b136ea224fe,,,,,,,,,3038,-53,-31,1,0,0,response5disk,,2,-11,-12,1,0,0,rectangle,-11,-12,1,0,0,-11,-12,1,0,0,0,158,158,67,1,,,,,,,,
,,,,,,,,,,,,,FF,,,,,,,,0.701,,,,,,,,,,,,,,,,,,,,,,610367ad785ce86ceb8d201c,61036aea4ea5c745f29813b6,2021-07-29_21h59.34.207,Simcolourproject_2stim_asymm_v5,2020.2.10,MacIntel,60,61025ae37ef11b136ea224fe,,,,,,,,,2203,52,-53,1,0,0,response3disk,,4,15,-17,1,0,0,rectangle,15,-17,1,0,0,15,-17,1,0,0,0,159,159,44,1,,,,,,,,
,,,,,,,,,,,,,FF,,,,,,,,0.867,,,,,,,,,,,,,,,,,,,,,,610367ad785ce86ceb8d201c,61036aea4ea5c745f29813b6,2021-07-29_21h59.34.207,Simcolourproject_2stim_asymm_v5,2020.2.10,MacIntel,60,61025ae37ef11b136ea224fe,,,,,,,,,2089,91,-39,1,0,0,response3disk,,5,24,-9,1,0,0,rectangle,24,-9,1,0,0,24,-9,1,0,0,1,0,160,159,1,,,,,,,,
,,,,,,,,,,,,,FF,,,,,,,,0.484,,,,,,,,,,,,,,,,,,,,,,610367ad785ce86ceb8d201c,61036aea4ea5c745f29813b6,2021-07-29_21h59.34.207,Simcolourproject_2stim_asymm_v5,2020.2.10,MacIntel,60,61025ae37ef11b136ea224fe,,,,,,,,,2968,72,-32,1,0,0,response3disk,,5,6,-12,1,0,0,rectangle,6,-12,1,0,0,6,-12,1,0,0,1,1,161,59,1,,,,,,,,
,,,,,,,,,,,,,FF,,,,,,,,1.133,,,,,,,,,,,,,,,,,,,,,,610367ad785ce86ceb8d201c,61036aea4ea5c745f29813b6,2021-07-29_21h59.34.207,Simcolourproject_2stim_asymm_v5,2020.2.10,MacIntel,60,61025ae37ef11b136ea224fe,,,,,,,,,3480,41,-69,1,0,0,response3disk,,4,7,-13,1,0,0,rectangle,7,-13,1,0,0,7,-13,1,0,0,1,2,162,109,1,,,,,,,,
,,,,,,,,,,,,,FF,,,,,,,,1.266,,,,,,,,,,,,,,,,,,,,,,610367ad785ce86ceb8d201c,61036aea4ea5c745f29813b6,2021-07-29_21h59.34.207,Simcolourproject_2stim_asymm_v5,2020.2.10,MacIntel,60,61025ae37ef11b136ea224fe,,,,,,,,,3119,83,45,1,0,0,response1disk,,6,7,0,1,0,0,rectangle,7,0,1,0,0,7,0,1,0,0,1,3,163,102,1,,,,,,,,
,,,,,,,,,,,,,FF,,,,,,,,0.733,,,,,,,,,,,,,,,,,,,,,,610367ad785ce86ceb8d201c,61036aea4ea5c745f29813b6,2021-07-29_21h59.34.207,Simcolourproject_2stim_asymm_v5,2020.2.10,MacIntel,60,61025ae37ef11b136ea224fe,,,,,,,,,1833,74,38,1,0,0,response1disk,,6,6,5,1,0,0,rectangle,6,5,1,0,0,6,5,1,0,0,1,4,164,80,1,,,,,,,,
,,,,,,,,,,,,,FF,,,,,,,,0.316,,,,,,,,,,,,,,,,,,,,,,610367ad785ce86ceb8d201c,61036aea4ea5c745f29813b6,2021-07-29_21h59.34.207,Simcolourproject_2stim_asymm_v5,2020.2.10,MacIntel,60,61025ae37ef11b136ea224fe,,,,,,,,,2293,80,24,1,0,0,response1disk,,6,17,4,1,0,0,rectangle,17,4,1,0,0,17,4,1,0,0,1,5,165,1,1,,,,,,,,
,,,,,,,,,,,,,FF,,,,,,,,0.335,,,,,,,,,,,,,,,,,,,,,,610367ad785ce86ceb8d201c,61036aea4ea5c745f29813b6,2021-07-29_21h59.34.207,Simcolourproject_2stim_asymm_v5,2020.2.10,MacIntel,60,61025ae37ef11b136ea224fe,,,,,,,,,1322,80,19,1,0,0,response1disk,,6,19,3,1,0,0,rectangle,-38,-75,1,0,0,0,1,1,0,0,1,6,166,145,1,,response5disk_3,TRUE,3,3,"[184,140,10,258,192,54,147,258,121,26,182,15,24,253,180,167,288,191,121,94]",1.416,rectangle
,,,,,,,,,,,,,FF,,,,,,,,2.317,,,,,,,,,,,,,,,,,,,,,,610367ad785ce86ceb8d201c,61036aea4ea5c745f29813b6,2021-07-29_21h59.34.207,Simcolourproject_2stim_asymm_v5,2020.2.10,MacIntel,60,61025ae37ef11b136ea224fe,,,,,,,,,2770,54,35,1,0,0,response1disk,,6,12,5,1,0,0,rectangle,12,5,1,0,0,12,5,1,0,0,1,7,167,7,1,,,,,,,,
,,,,,,,,,,,,,FF,,,,,,,,0.783,,,,,,,,,,,,,,,,,,,,,,610367ad785ce86ceb8d201c,61036aea4ea5c745f29813b6,2021-07-29_21h59.34.207,Simcolourproject_2stim_asymm_v5,2020.2.10,MacIntel,60,61025ae37ef11b136ea224fe,,,,,,,,,1703,65,41,1,0,0,response1disk,,6,5,2,1,0,0,rectangle,5,2,1,0,0,5,2,1,0,0,1,8,168,50,1,,,,,,,,
,,,,,,,,,,,,,FF,,,,,,,,0.533,,,,,,,,,,,,,,,,,,,,,,610367ad785ce86ceb8d201c,61036aea4ea5c745f29813b6,2021-07-29_21h59.34.207,Simcolourproject_2stim_asymm_v5,2020.2.10,MacIntel,60,61025ae37ef11b136ea224fe,,,,,,,,,2320,32,59,1,0,0,response1disk,,7,-4,8,1,0,0,rectangle,-4,8,1,0,0,-4,8,1,0,0,1,9,169,154,1,,,,,,,,
,,,,,,,,,,,,,FF,,,,,,,,0.399,,,,,,,,,,,,,,,,,,,,,,610367ad785ce86ceb8d201c,61036aea4ea5c745f29813b6,2021-07-29_21h59.34.207,Simcolourproject_2stim_asymm_v5,2020.2.10,MacIntel,60,61025ae37ef11b136ea224fe,,,,,,,,,2294,28,53,1,0,0,response1disk,,7,6,6,1,0,0,rectangle,6,6,1,0,0,6,6,1,0,0,1,10,170,95,1,,,,,,,,
,,,,,,,,,,,,,FF,,,,,,,,0.65,,,,,,,,,,,,,,,,,,,,,,610367ad785ce86ceb8d201c,61036aea4ea5c745f29813b6,2021-07-29_21h59.34.207,Simcolourproject_2stim_asymm_v5,2020.2.10,MacIntel,60,61025ae37ef11b136ea224fe,,,,,,,,,1904,70,-32,1,0,0,response3disk,,5,0,-5,1,0,0,rectangle,0,-5,1,0,0,0,-5,1,0,0,1,11,171,51,1,,,,,,,,
,,,,,,,,,,,,,FF,,,,,,,,0.667,,,,,,,,,,,,,,,,,,,,,,610367ad785ce86ceb8d201c,61036aea4ea5c745f29813b6,2021-07-29_21h59.34.207,Simcolourproject_2stim_asymm_v5,2020.2.10,MacIntel,60,61025ae37ef11b136ea224fe,,,,,,,,,2850,76,-27,1,0,0,response3disk,,5,14,2,1,0,0,rectangle,14,2,1,0,0,14,2,1,0,0,1,12,172,5,1,,,,,,,,
,,,,,,,,,,,,,FF,,,,,,,,0.533,,,,,,,,,,,,,,,,,,,,,,610367ad785ce86ceb8d201c,61036aea4ea5c745f29813b6,2021-07-29_21h59.34.207,Simcolourproject_2stim_asymm_v5,2020.2.10,MacIntel,60,61025ae37ef11b136ea224fe,,,,,,,,,1257,34,55,1,0,0,response1disk,,7,6,10,1,0,0,rectangle,6,10,1,0,0,6,10,1,0,0,1,13,173,131,1,,,,,,,,
,,,,,,,,,,,,,FF,,,,,,,,0.75,,,,,,,,,,,,,,,,,,,,,,610367ad785ce86ceb8d201c,61036aea4ea5c745f29813b6,2021-07-29_21h59.34.207,Simcolourproject_2stim_asymm_v5,2020.2.10,MacIntel,60,61025ae37ef11b136ea224fe,,,,,,,,,466,54,-33,1,0,0,response3disk,,5,5,-8,1,0,0,rectangle,5,-8,1,0,0,5,-8,1,0,0,1,14,174,81,1,,,,,,,,
,,,,,,,,,,,,,FF,,,,,,,,1.017,,,,,,,,,,,,,,,,,,,,,,610367ad785ce86ceb8d201c,61036aea4ea5c745f29813b6,2021-07-29_21h59.34.207,Simcolourproject_2stim_asymm_v5,2020.2.10,MacIntel,60,61025ae37ef11b136ea224fe,,,,,,,,,3516,-35,-67,1,0,0,response5disk,,3,2,-8,1,0,0,rectangle,2,-8,1,0,0,2,-8,1,0,0,1,15,175,46,1,,,,,,,,
,,,,,,,,,,,,,FF,,,,,,,,0.618,,,,,,,,,,,,,,,,,,,,,,610367ad785ce86ceb8d201c,61036aea4ea5c745f29813b6,2021-07-29_21h59.34.207,Simcolourproject_2stim_asymm_v5,2020.2.10,MacIntel,60,61025ae37ef11b136ea224fe,,,,,,,,,1376,21,44,1,0,0,response1disk,,7,11,15,1,0,0,rectangle,11,15,1,0,0,11,15,1,0,0,1,16,176,155,1,,,,,,,,
,,,,,,,,,,,,,FF,,,,,,,,0.716,,,,,,,,,,,,,,,,,,,,,,610367ad785ce86ceb8d201c,61036aea4ea5c745f29813b6,2021-07-29_21h59.34.207,Simcolourproject_2stim_asymm_v5,2020.2.10,MacIntel,60,61025ae37ef11b136ea224fe,,,,,,,,,2246,24,57,1,0,0,response1disk,,7,2,10,1,0,0,rectangle,2,10,1,0,0,2,10,1,0,0,1,17,177,107,1,,,,,,,,
,,,,,,,,,,,,,FF,,,,,,,,0.599,,,,,,,,,,,,,,,,,,,,,,610367ad785ce86ceb8d201c,61036aea4ea5c745f29813b6,2021-07-29_21h59.34.207,Simcolourproject_2stim_asymm_v5,2020.2.10,MacIntel,60,61025ae37ef11b136ea224fe,,,,,,,,,1893,-38,-63,1,0,0,response5disk,,3,-2,-4,1,0,0,rectangle,-2,-4,1,0,0,-2,-4,1,0,0,1,18,178,147,1,,,,,,,,
,,,,,,,,,,,,,FF,,,,,,,,0.951,,,,,,,,,,,,,,,,,,,,,,610367ad785ce86ceb8d201c,61036aea4ea5c745f29813b6,2021-07-29_21h59.34.207,Simcolourproject_2stim_asymm_v5,2020.2.10,MacIntel,60,61025ae37ef11b136ea224fe,,,,,,,,,709,92,-39,1,0,0,response3disk,,5,19,-5,1,0,0,rectangle,-47,-73,1,0,0,-20,-10,1,0,0,1,19,179,153,1,,response5disk_3,TRUE,3,3,"[184,140,10,258,192,54,147,258,121,26,182,15,24,253,180,167,288,191,121,94]",1.232,rectangle
,,,,,,,,,,,,,FF,,,,,,,,0.866,,,,,,,,,,,,,,,,,,,,,,610367ad785ce86ceb8d201c,61036aea4ea5c745f29813b6,2021-07-29_21h59.34.207,Simcolourproject_2stim_asymm_v5,2020.2.10,MacIntel,60,61025ae37ef11b136ea224fe,,,,,,,,,2346,37,65,1,0,0,response1disk,,7,15,8,1,0,0,rectangle,15,8,1,0,0,15,8,1,0,0,1,20,180,61,1,,,,,,,,
,,,,,,,,,,,,,FF,,,,,,,,1.283,,,,,,,,,,,,,,,,,,,,,,610367ad785ce86ceb8d201c,61036aea4ea5c745f29813b6,2021-07-29_21h59.34.207,Simcolourproject_2stim_asymm_v5,2020.2.10,MacIntel,60,61025ae37ef11b136ea224fe,,,,,,,,,1079,-63,-63,1,0,0,response5disk,,2,6,-5,1,0,0,rectangle,30,65,1,0,0,18,8,1,0,0,1,21,181,2,1,,response1disk_3,TRUE,7,7,"[184,140,10,258,192,54,147,258,121,26,182,15,24,253,180,167,288,191,121,94]",1.082,rectangle
,,,,,,,,,,,,,FF,,,,,,,,1.133,,,,,,,,,,,,,,,,,,,,,,610367ad785ce86ceb8d201c,61036aea4ea5c745f29813b6,2021-07-29_21h59.34.207,Simcolourproject_2stim_asymm_v5,2020.2.10,MacIntel,60,61025ae37ef11b136ea224fe,,,,,,,,,2308,81,-45,1,0,0,response3disk,,5,14,-9,1,0,0,rectangle,14,-9,1,0,0,14,-9,1,0,0,1,22,182,52,1,,,,,,,,
,,,,,,,,,,,,,FF,,,,,,,,0.683,,,,,,,,,,,,,,,,,,,,,,610367ad785ce86ceb8d201c,61036aea4ea5c745f29813b6,2021-07-29_21h59.34.207,Simcolourproject_2stim_asymm_v5,2020.2.10,MacIntel,60,61025ae37ef11b136ea224fe,,,,,,,,,249,-42,-51,1,0,0,response5disk,,3,-5,-12,1,0,0,rectangle,77,-34,1,0,0,10,10,1,0,0,1,23,183,117,1,,response3disk_3,TRUE,5,3,"[184,140,10,258,192,54,147,258,121,26,182,15,24,253,180,167,288,191,121,94]",1.8,rectangle
,,,,,,,,,,,,,FF,,,,,,,,1.666,,,,,,,,,,,,,,,,,,,,,,610367ad785ce86ceb8d201c,61036aea4ea5c745f29813b6,2021-07-29_21h59.34.207,Simcolourproject_2stim_asymm_v5,2020.2.10,MacIntel,60,61025ae37ef11b136ea224fe,,,,,,,,,1623,-35,-49,1,0,0,response5disk,,3,0,-7,1,0,0,rectangle,0,-7,1,0,0,0,-7,1,0,0,1,24,184,85,1,,,,,,,,
,,,,,,,,,,,,,FF,,,,,,,,1.617,,,,,,,,,,,,,,,,,,,,,,610367ad785ce86ceb8d201c,61036aea4ea5c745f29813b6,2021-07-29_21h59.34.207,Simcolourproject_2stim_asymm_v5,2020.2.10,MacIntel,60,61025ae37ef11b136ea224fe,,,,,,,,,2389,84,17,1,0,0,response1disk,,6,15,-14,1,0,0,rectangle,15,-14,1,0,0,15,-14,1,0,0,1,25,185,30,1,,,,,,,,
,,,,,,,,,,,,,FF,,,,,,,,0.768,,,,,,,,,,,,,,,,,,,,,,610367ad785ce86ceb8d201c,61036aea4ea5c745f29813b6,2021-07-29_21h59.34.207,Simcolourproject_2stim_asymm_v5,2020.2.10,MacIntel,60,61025ae37ef11b136ea224fe,,,,,,,,,3591,-40,87,1,0,0,response7disk,,0,9,-7,1,0,0,rectangle,9,-7,1,0,0,9,-7,1,0,0,1,26,186,64,1,,,,,,,,
,,,,,,,,,,,,,FF,,,,,,,,1.467,,,,,,,,,,,,,,,,,,,,,,610367ad785ce86ceb8d201c,61036aea4ea5c745f29813b6,2021-07-29_21h59.34.207,Simcolourproject_2stim_asymm_v5,2020.2.10,MacIntel,60,61025ae37ef11b136ea224fe,,,,,,,,,2403,-24,-53,1,0,0,response5disk,,3,3,7,1,0,0,rectangle,3,7,1,0,0,3,7,1,0,0,1,27,187,83,1,,,,,,,,
,,,,,,,,,,,,,FF,,,,,,,,1.082,,,,,,,,,,,,,,,,,,,,,,610367ad785ce86ceb8d201c,61036aea4ea5c745f29813b6,2021-07-29_21h59.34.207,Simcolourproject_2stim_asymm_v5,2020.2.10,MacIntel,60,61025ae37ef11b136ea224fe,,,,,,,,,3297,-74,27,1,0,0,response7disk,,1,1,1,1,0,0,rectangle,1,1,1,0,0,1,1,1,0,0,1,28,188,123,1,,,,,,,,
,,,,,,,,,,,,,FF,,,,,,,,0.701,,,,,,,,,,,,,,,,,,,,,,610367ad785ce86ceb8d201c,61036aea4ea5c745f29813b6,2021-07-29_21h59.34.207,Simcolourproject_2stim_asymm_v5,2020.2.10,MacIntel,60,61025ae37ef11b136ea224fe,,,,,,,,,3470,-67,36,1,0,0,response7disk,,1,-7,-1,1,0,0,rectangle,-7,-1,1,0,0,-7,-1,1,0,0,1,29,189,39,1,,,,,,,,
,,,,,,,,,,,,,FF,,,,,,,,1.283,,,,,,,,,,,,,,,,,,,,,,610367ad785ce86ceb8d201c,61036aea4ea5c745f29813b6,2021-07-29_21h59.34.207,Simcolourproject_2stim_asymm_v5,2020.2.10,MacIntel,60,61025ae37ef11b136ea224fe,,,,,,,,,2613,58,-64,1,0,0,response3disk,,4,2,1,1,0,0,rectangle,-92,45,1,0,0,-23,-13,1,0,0,1,30,190,72,1,,response7disk_3,TRUE,1,1,"[184,140,10,258,192,54,147,258,121,26,182,15,24,253,180,167,288,191,121,94]",1.283,rectangle
,,,,,,,,,,,,,FF,,,,,,,,0.8,,,,,,,,,,,,,,,,,,,,,,610367ad785ce86ceb8d201c,61036aea4ea5c745f29813b6,2021-07-29_21h59.34.207,Simcolourproject_2stim_asymm_v5,2020.2.10,MacIntel,60,61025ae37ef11b136ea224fe,,,,,,,,,3749,-69,-36,1,0,0,response5disk,,2,2,-6,1,0,0,rectangle,-77,59,1,0,0,-11,-4,1,0,0,1,31,191,14,1,,response7disk_3,TRUE,1,1,"[184,140,10,258,192,54,147,258,121,26,182,15,24,253,180,167,288,191,121,94]",1.151,rectangle
,,,,,,,,,,,,,FF,,,,,,,,0.766,,,,,,,,,,,,,,,,,,,,,,610367ad785ce86ceb8d201c,61036aea4ea5c745f29813b6,2021-07-29_21h59.34.207,Simcolourproject_2stim_asymm_v5,2020.2.10,MacIntel,60,61025ae37ef11b136ea224fe,,,,,,,,,2605,-61,-29,1,0,0,response5disk,,2,-3,-3,1,0,0,rectangle,-3,-3,1,0,0,-3,-3,1,0,0,1,32,192,32,1,,,,,,,,
,,,,,,,,,,,,,FF,,,,,,,,1.75,,,,,,,,,,,,,,,,,,,,,,610367ad785ce86ceb8d201c,61036aea4ea5c745f29813b6,2021-07-29_21h59.34.207,Simcolourproject_2stim_asymm_v5,2020.2.10,MacIntel,60,61025ae37ef11b136ea224fe,,,,,,,,,3719,36,-60,1,0,0,response3disk,,4,-28,10,1,0,0,rectangle,-28,10,1,0,0,-28,10,1,0,0,1,33,193,137,1,,,,,,,,
,,,,,,,,,,,,,FF,,,,,,,,0.717,,,,,,,,,,,,,,,,,,,,,,610367ad785ce86ceb8d201c,61036aea4ea5c745f29813b6,2021-07-29_21h59.34.207,Simcolourproject_2stim_asymm_v5,2020.2.10,MacIntel,60,61025ae37ef11b136ea224fe,,,,,,,,,551,54,-69,1,0,0,response3disk,,4,-3,-15,1,0,0,rectangle,-3,-15,1,0,0,-3,-15,1,0,0,1,34,194,67,1,,,,,,,,
,,,,,,,,,,,,,FF,,,,,,,,0.683,,,,,,,,,,,,,,,,,,,,,,610367ad785ce86ceb8d201c,61036aea4ea5c745f29813b6,2021-07-29_21h59.34.207,Simcolourproject_2stim_asymm_v5,2020.2.10,MacIntel,60,61025ae37ef11b136ea224fe,,,,,,,,,1089,32,65,1,0,0,response1disk,,7,1,5,1,0,0,rectangle,1,5,1,0,0,1,5,1,0,0,1,35,195,22,1,,,,,,,,
,,,,,,,,,,,,,FF,,,,,,,,0.95,,,,,,,,,,,,,,,,,,,,,,610367ad785ce86ceb8d201c,61036aea4ea5c745f29813b6,2021-07-29_21h59.34.207,Simcolourproject_2stim_asymm_v5,2020.2.10,MacIntel,60,61025ae37ef11b136ea224fe,,,,,,,,,4058,53,-74,1,0,0,response3disk,,4,8,-14,1,0,0,rectangle,8,-14,1,0,0,8,-14,1,0,0,1,36,196,38,1,,,,,,,,
,,,,,,,,,,,,,FF,,,,,,,,0.55,,,,,,,,,,,,,,,,,,,,,,610367ad785ce86ceb8d201c,61036aea4ea5c745f29813b6,2021-07-29_21h59.34.207,Simcolourproject_2stim_asymm_v5,2020.2.10,MacIntel,60,61025ae37ef11b136ea224fe,,,,,,,,,1978,36,50,1,0,0,response1disk,,7,8,1,1,0,0,rectangle,8,1,1,0,0,8,1,1,0,0,1,37,197,101,1,,,,,,,,
,,,,,,,,,,,,,FF,,,,,,,,0.733,,,,,,,,,,,,,,,,,,,,,,610367ad785ce86ceb8d201c,61036aea4ea5c745f29813b6,2021-07-29_21h59.34.207,Simcolourproject_2stim_asymm_v5,2020.2.10,MacIntel,60,61025ae37ef11b136ea224fe,,,,,,,,,4174,32,63,1,0,0,response1disk,,7,5,-1,1,0,0,rectangle,5,-1,1,0,0,5,-1,1,0,0,1,38,198,148,1,,,,,,,,
,,,,,,,,,,,,,FF,,,,,,,,0.616,,,,,,,,,,,,,,,,,,,,,,610367ad785ce86ceb8d201c,61036aea4ea5c745f29813b6,2021-07-29_21h59.34.207,Simcolourproject_2stim_asymm_v5,2020.2.10,MacIntel,60,61025ae37ef11b136ea224fe,,,,,,,,,2710,35,68,1,0,0,response1disk,,7,-7,2,1,0,0,rectangle,-7,2,1,0,0,-7,2,1,0,0,1,39,199,94,1,,,,,,,,
,,,,,,,,,,,,,FF,,,,,,,,0.467,,,,,,,,,,,,,,,,,,,,,,610367ad785ce86ceb8d201c,61036aea4ea5c745f29813b6,2021-07-29_21h59.34.207,Simcolourproject_2stim_asymm_v5,2020.2.10,MacIntel,60,61025ae37ef11b136ea224fe,,,,,,,,,2815,43,58,1,0,0,response1disk,,7,3,-6,1,0,0,rectangle,3,-6,1,0,0,3,-6,1,0,0,1,40,200,119,1,,,,,,,,
,,,,,,,,,,,,,FF,,,,,,,,0.585,,,,,,,,,,,,,,,,,,,,,,610367ad785ce86ceb8d201c,61036aea4ea5c745f29813b6,2021-07-29_21h59.34.207,Simcolourproject_2stim_asymm_v5,2020.2.10,MacIntel,60,61025ae37ef11b136ea224fe,,,,,,,,,713,30,47,1,0,0,response1disk,,7,6,-3,1,0,0,rectangle,6,-3,1,0,0,6,-3,1,0,0,1,41,201,129,1,,,,,,,,
,,,,,,,,,,,,,FF,,,,,,,,0.634,,,,,,,,,,,,,,,,,,,,,,610367ad785ce86ceb8d201c,61036aea4ea5c745f29813b6,2021-07-29_21h59.34.207,Simcolourproject_2stim_asymm_v5,2020.2.10,MacIntel,60,61025ae37ef11b136ea224fe,,,,,,,,,2926,35,63,1,0,0,response1disk,,7,10,6,1,0,0,rectangle,10,6,1,0,0,10,6,1,0,0,1,42,202,90,1,,,,,,,,
,,,,,,,,,,,,,FF,,,,,,,,0.483,,,,,,,,,,,,,,,,,,,,,,610367ad785ce86ceb8d201c,61036aea4ea5c745f29813b6,2021-07-29_21h59.34.207,Simcolourproject_2stim_asymm_v5,2020.2.10,MacIntel,60,61025ae37ef11b136ea224fe,,,,,,,,,3186,29,48,1,0,0,response1disk,,7,-2,-2,1,0,0,rectangle,-2,-2,1,0,0,-2,-2,1,0,0,1,43,203,24,1,,,,,,,,
,,,,,,,,,,,,,FF,,,,,,,,0.667,,,,,,,,,,,,,,,,,,,,,,610367ad785ce86ceb8d201c,61036aea4ea5c745f29813b6,2021-07-29_21h59.34.207,Simcolourproject_2stim_asymm_v5,2020.2.10,MacIntel,60,61025ae37ef11b136ea224fe,,,,,,,,,2367,70,-45,1,0,0,response3disk,,5,3,-2,1,0,0,rectangle,3,-2,1,0,0,3,-2,1,0,0,1,44,204,103,1,,,,,,,,
,,,,,,,,,,,,,FF,,,,,,,,1.082,,,,,,,,,,,,,,,,,,,,,,610367ad785ce86ceb8d201c,61036aea4ea5c745f29813b6,2021-07-29_21h59.34.207,Simcolourproject_2stim_asymm_v5,2020.2.10,MacIntel,60,61025ae37ef11b136ea224fe,,,,,,,,,784,63,-50,1,0,0,response3disk,,5,15,-13,1,0,0,rectangle,15,-13,1,0,0,15,-13,1,0,0,1,45,205,41,1,,,,,,,,
,,,,,,,,,,,,,FF,,,,,,,,0.566,,,,,,,,,,,,,,,,,,,,,,610367ad785ce86ceb8d201c,61036aea4ea5c745f29813b6,2021-07-29_21h59.34.207,Simcolourproject_2stim_asymm_v5,2020.2.10,MacIntel,60,61025ae37ef11b136ea224fe,,,,,,,,,3319,19,52,1,0,0,response1disk,,7,3,5,1,0,0,rectangle,3,5,1,0,0,3,5,1,0,0,1,46,206,128,1,,,,,,,,
,,,,,,,,,,,,,FF,,,,,,,,0.5,,,,,,,,,,,,,,,,,,,,,,610367ad785ce86ceb8d201c,61036aea4ea5c745f29813b6,2021-07-29_21h59.34.207,Simcolourproject_2stim_asymm_v5,2020.2.10,MacIntel,60,61025ae37ef11b136ea224fe,,,,,,,,,1793,23,41,1,0,0,response1disk,,7,3,-3,1,0,0,rectangle,3,-3,1,0,0,3,-3,1,0,0,1,47,207,16,1,,,,,,,,
,,,,,,,,,,,,,FF,,,,,,,,0.484,,,,,,,,,,,,,,,,,,,,,,610367ad785ce86ceb8d201c,61036aea4ea5c745f29813b6,2021-07-29_21h59.34.207,Simcolourproject_2stim_asymm_v5,2020.2.10,MacIntel,60,61025ae37ef11b136ea224fe,,,,,,,,,4092,25,35,1,0,0,response1disk,,7,6,-6,1,0,0,rectangle,6,-6,1,0,0,6,-6,1,0,0,1,48,208,12,1,,,,,,,,
,,,,,,,,,,,,,FF,,,,,,,,0.601,,,,,,,,,,,,,,,,,,,,,,610367ad785ce86ceb8d201c,61036aea4ea5c745f29813b6,2021-07-29_21h59.34.207,Simcolourproject_2stim_asymm_v5,2020.2.10,MacIntel,60,61025ae37ef11b136ea224fe,,,,,,,,,2198,23,59,1,0,0,response1disk,,7,7,5,1,0,0,rectangle,7,5,1,0,0,7,5,1,0,0,1,49,209,68,1,,,,,,,,
,,,,,,,,,,,,,FF,,,,,,,,0.816,,,,,,,,,,,,,,,,,,,,,,610367ad785ce86ceb8d201c,61036aea4ea5c745f29813b6,2021-07-29_21h59.34.207,Simcolourproject_2stim_asymm_v5,2020.2.10,MacIntel,60,61025ae37ef11b136ea224fe,,,,,,,,,1816,-56,-32,1,0,0,response5disk,,2,-7,-16,1,0,0,rectangle,-7,-16,1,0,0,-7,-16,1,0,0,1,50,210,47,1,,,,,,,,
,,,,,,,,,,,,,FF,,,,,,,,0.816,,,,,,,,,,,,,,,,,,,,,,610367ad785ce86ceb8d201c,61036aea4ea5c745f29813b6,2021-07-29_21h59.34.207,Simcolourproject_2stim_asymm_v5,2020.2.10,MacIntel,60,61025ae37ef11b136ea224fe,,,,,,,,,1273,28,44,1,0,0,response1disk,,7,6,7,1,0,0,rectangle,6,7,1,0,0,6,7,1,0,0,1,51,211,113,1,,,,,,,,
,,,,,,,,,,,,,FF,,,,,,,,0.766,,,,,,,,,,,,,,,,,,,,,,610367ad785ce86ceb8d201c,61036aea4ea5c745f29813b6,2021-07-29_21h59.34.207,Simcolourproject_2stim_asymm_v5,2020.2.10,MacIntel,60,61025ae37ef11b136ea224fe,,,,,,,,,3156,-67,26,1,0,0,response7disk,,1,-4,0,1,0,0,rectangle,-4,0,1,0,0,-4,0,1,0,0,1,52,212,141,1,,,,,,,,
,,,,,,,,,,,,,FF,,,,,,,,0.617,,,,,,,,,,,,,,,,,,,,,,610367ad785ce86ceb8d201c,61036aea4ea5c745f29813b6,2021-07-29_21h59.34.207,Simcolourproject_2stim_asymm_v5,2020.2.10,MacIntel,60,61025ae37ef11b136ea224fe,,,,,,,,,1151,33,46,1,0,0,response1disk,,7,6,-13,1,0,0,rectangle,6,-13,1,0,0,6,-13,1,0,0,1,53,213,87,1,,,,,,,,
,,,,,,,,,,,,,FF,,,,,,,,0.833,,,,,,,,,,,,,,,,,,,,,,610367ad785ce86ceb8d201c,61036aea4ea5c745f29813b6,2021-07-29_21h59.34.207,Simcolourproject_2stim_asymm_v5,2020.2.10,MacIntel,60,61025ae37ef11b136ea224fe,,,,,,,,,3421,55,-62,1,0,0,response3disk,,4,-3,-7,1,0,0,rectangle,-3,-7,1,0,0,-3,-7,1,0,0,1,54,214,33,1,,,,,,,,
,,,,,,,,,,,,,FF,,,,,,,,0.533,,,,,,,,,,,,,,,,,,,,,,610367ad785ce86ceb8d201c,61036aea4ea5c745f29813b6,2021-07-29_21h59.34.207,Simcolourproject_2stim_asymm_v5,2020.2.10,MacIntel,60,61025ae37ef11b136ea224fe,,,,,,,,,2908,58,-43,1,0,0,response3disk,,5,5,-5,1,0,0,rectangle,5,-5,1,0,0,5,-5,1,0,0,1,55,215,9,1,,,,,,,,
,,,,,,,,,,,,,FF,,,,,,,,0.55,,,,,,,,,,,,,,,,,,,,,,610367ad785ce86ceb8d201c,61036aea4ea5c745f29813b6,2021-07-29_21h59.34.207,Simcolourproject_2stim_asymm_v5,2020.2.10,MacIntel,60,61025ae37ef11b136ea224fe,,,,,,,,,2970,20,38,1,0,0,response1disk,,7,5,10,1,0,0,rectangle,5,10,1,0,0,5,10,1,0,0,1,56,216,69,1,,,,,,,,
,,,,,,,,,,,,,FF,,,,,,,,0.683,,,,,,,,,,,,,,,,,,,,,,610367ad785ce86ceb8d201c,61036aea4ea5c745f29813b6,2021-07-29_21h59.34.207,Simcolourproject_2stim_asymm_v5,2020.2.10,MacIntel,60,61025ae37ef11b136ea224fe,,,,,,,,,4225,-74,-28,1,0,0,response5disk,,2,13,-11,1,0,0,rectangle,13,-11,1,0,0,13,-11,1,0,0,1,57,217,96,1,,,,,,,,
,,,,,,,,,,,,,FF,,,,,,,,1.016,,,,,,,,,,,,,,,,,,,,,,610367ad785ce86ceb8d201c,61036aea4ea5c745f29813b6,2021-07-29_21h59.34.207,Simcolourproject_2stim_asymm_v5,2020.2.10,MacIntel,60,61025ae37ef11b136ea224fe,,,,,,,,,1774,27,-71,1,0,0,response3disk,,4,-6,-7,1,0,0,rectangle,-6,-7,1,0,0,-6,-7,1,0,0,1,58,218,89,1,,,,,,,,
,,,,,,,,,,,,,FF,,,,,,,,0.767,,,,,,,,,,,,,,,,,,,,,,610367ad785ce86ceb8d201c,61036aea4ea5c745f29813b6,2021-07-29_21h59.34.207,Simcolourproject_2stim_asymm_v5,2020.2.10,MacIntel,60,61025ae37ef11b136ea224fe,,,,,,,,,572,45,-80,1,0,0,response3disk,,4,-8,12,1,0,0,rectangle,-8,12,1,0,0,-8,12,1,0,0,1,59,219,135,1,,,,,,,,
,,,,,,,,,,,,,FF,,,,,,,,0.667,,,,,,,,,,,,,,,,,,,,,,610367ad785ce86ceb8d201c,61036aea4ea5c745f29813b6,2021-07-29_21h59.34.207,Simcolourproject_2stim_asymm_v5,2020.2.10,MacIntel,60,61025ae37ef11b136ea224fe,,,,,,,,,377,52,-55,1,0,0,response3disk,,4,-3,0,1,0,0,rectangle,-3,0,1,0,0,-3,0,1,0,0,1,60,220,49,1,,,,,,,,
,,,,,,,,,,,,,FF,,,,,,,,0.65,,,,,,,,,,,,,,,,,,,,,,610367ad785ce86ceb8d201c,61036aea4ea5c745f29813b6,2021-07-29_21h59.34.207,Simcolourproject_2stim_asymm_v5,2020.2.10,MacIntel,60,61025ae37ef11b136ea224fe,,,,,,,,,463,69,-50,1,0,0,response3disk,,5,16,-11,1,0,0,rectangle,16,-11,1,0,0,16,-11,1,0,0,1,61,221,111,1,,,,,,,,
,,,,,,,,,,,,,FF,,,,,,,,1.1,,,,,,,,,,,,,,,,,,,,,,610367ad785ce86ceb8d201c,61036aea4ea5c745f29813b6,2021-07-29_21h59.34.207,Simcolourproject_2stim_asymm_v5,2020.2.10,MacIntel,60,61025ae37ef11b136ea224fe,,,,,,,,,1881,77,-57,1,0,0,response3disk,,5,22,-12,1,0,0,rectangle,22,-12,1,0,0,22,-12,1,0,0,1,62,222,17,1,,,,,,,,
,,,,,,,,,,,,,FF,,,,,,,,0.751,,,,,,,,,,,,,,,,,,,,,,610367ad785ce86ceb8d201c,61036aea4ea5c745f29813b6,2021-07-29_21h59.34.207,Simcolourproject_2stim_asymm_v5,2020.2.10,MacIntel,60,61025ae37ef11b136ea224fe,,,,,,,,,2319,36,65,1,0,0,response1disk,,7,4,-10,1,0,0,rectangle,4,-10,1,0,0,4,-10,1,0,0,1,63,223,121,1,,,,,,,,
,,,,,,,,,,,,,FF,,,,,,,,0.918,,,,,,,,,,,,,,,,,,,,,,610367ad785ce86ceb8d201c,61036aea4ea5c745f29813b6,2021-07-29_21h59.34.207,Simcolourproject_2stim_asymm_v5,2020.2.10,MacIntel,60,61025ae37ef11b136ea224fe,,,,,,,,,2750,38,63,1,0,0,response1disk,,7,6,5,1,0,0,rectangle,6,5,1,0,0,6,5,1,0,0,1,64,224,26,1,,,,,,,,
,,,,,,,,,,,,,FF,,,,,,,,0.883,,,,,,,,,,,,,,,,,,,,,,610367ad785ce86ceb8d201c,61036aea4ea5c745f29813b6,2021-07-29_21h59.34.207,Simcolourproject_2stim_asymm_v5,2020.2.10,MacIntel,60,61025ae37ef11b136ea224fe,,,,,,,,,735,48,-83,1,0,0,response3disk,,4,0,2,1,0,0,rectangle,0,2,1,0,0,0,2,1,0,0,1,65,225,106,1,,,,,,,,
,,,,,,,,,,,,,FF,,,,,,,,0.899,,,,,,,,,,,,,,,,,,,,,,610367ad785ce86ceb8d201c,61036aea4ea5c745f29813b6,2021-07-29_21h59.34.207,Simcolourproject_2stim_asymm_v5,2020.2.10,MacIntel,60,61025ae37ef11b136ea224fe,,,,,,,,,2998,-34,-76,1,0,0,response5disk,,3,-16,-14,1,0,0,rectangle,-16,-14,1,0,0,-16,-14,1,0,0,1,66,226,58,1,,,,,,,,
,,,,,,,,,,,,,FF,,,,,,,,1.332,,,,,,,,,,,,,,,,,,,,,,610367ad785ce86ceb8d201c,61036aea4ea5c745f29813b6,2021-07-29_21h59.34.207,Simcolourproject_2stim_asymm_v5,2020.2.10,MacIntel,60,61025ae37ef11b136ea224fe,,,,,,,,,4285,32,77,1,0,0,response1disk,,7,5,1,1,0,0,rectangle,5,1,1,0,0,5,1,1,0,0,1,67,227,79,1,,,,,,,,
,,,,,,,,,,,,,FF,,,,,,,,2.167,,,,,,,,,,,,,,,,,,,,,,610367ad785ce86ceb8d201c,61036aea4ea5c745f29813b6,2021-07-29_21h59.34.207,Simcolourproject_2stim_asymm_v5,2020.2.10,MacIntel,60,61025ae37ef11b136ea224fe,,,,,,,,,2984,33,67,1,0,0,response1disk,,7,4,-6,1,0,0,rectangle,4,-6,1,0,0,4,-6,1,0,0,1,68,228,114,1,,,,,,,,
,,,,,,,,,,,,,FF,,,,,,,,0.882,,,,,,,,,,,,,,,,,,,,,,610367ad785ce86ceb8d201c,61036aea4ea5c745f29813b6,2021-07-29_21h59.34.207,Simcolourproject_2stim_asymm_v5,2020.2.10,MacIntel,60,61025ae37ef11b136ea224fe,,,,,,,,,4319,86,-44,1,0,0,response3disk,,5,6,-6,1,0,0,rectangle,6,-6,1,0,0,6,-6,1,0,0,1,69,229,21,1,,,,,,,,
,,,,,,,,,,,,,FF,,,,,,,,0.683,,,,,,,,,,,,,,,,,,,,,,610367ad785ce86ceb8d201c,61036aea4ea5c745f29813b6,2021-07-29_21h59.34.207,Simcolourproject_2stim_asymm_v5,2020.2.10,MacIntel,60,61025ae37ef11b136ea224fe,,,,,,,,,2004,21,51,1,0,0,response1disk,,7,4,4,1,0,0,rectangle,4,4,1,0,0,4,4,1,0,0,1,70,230,62,1,,,,,,,,
,,,,,,,,,,,,,FF,,,,,,,,0.65,,,,,,,,,,,,,,,,,,,,,,610367ad785ce86ceb8d201c,61036aea4ea5c745f29813b6,2021-07-29_21h59.34.207,Simcolourproject_2stim_asymm_v5,2020.2.10,MacIntel,60,61025ae37ef11b136ea224fe,,,,,,,,,4274,27,65,1,0,0,response1disk,,7,10,10,1,0,0,rectangle,10,10,1,0,0,10,10,1,0,0,1,71,231,20,1,,,,,,,,
,,,,,,,,,,,,,FF,,,,,,,,0.783,,,,,,,,,,,,,,,,,,,,,,610367ad785ce86ceb8d201c,61036aea4ea5c745f29813b6,2021-07-29_21h59.34.207,Simcolourproject_2stim_asymm_v5,2020.2.10,MacIntel,60,61025ae37ef11b136ea224fe,,,,,,,,,3330,-79,31,1,0,0,response7disk,,1,-3,-8,1,0,0,rectangle,-3,-8,1,0,0,-3,-8,1,0,0,1,72,232,35,1,,,,,,,,
,,,,,,,,,,,,,FF,,,,,,,,0.633,,,,,,,,,,,,,,,,,,,,,,610367ad785ce86ceb8d201c,61036aea4ea5c745f29813b6,2021-07-29_21h59.34.207,Simcolourproject_2stim_asymm_v5,2020.2.10,MacIntel,60,61025ae37ef11b136ea224fe,,,,,,,,,2672,36,66,1,0,0,response1disk,,7,16,7,1,0,0,rectangle,16,7,1,0,0,16,7,1,0,0,1,73,233,112,1,,,,,,,,
,,,,,,,,,,,,,FF,,,,,,,,1.617,,,,,,,,,,,,,,,,,,,,,,610367ad785ce86ceb8d201c,61036aea4ea5c745f29813b6,2021-07-29_21h59.34.207,Simcolourproject_2stim_asymm_v5,2020.2.10,MacIntel,60,61025ae37ef11b136ea224fe,,,,,,,,,1034,54,-70,1,0,0,response3disk,,4,-3,-4,1,0,0,rectangle,-3,-4,1,0,0,-3,-4,1,0,0,1,74,234,116,1,,,,,,,,
,,,,,,,,,,,,,FF,,,,,,,,0.7,,,,,,,,,,,,,,,,,,,,,,610367ad785ce86ceb8d201c,61036aea4ea5c745f29813b6,2021-07-29_21h59.34.207,Simcolourproject_2stim_asymm_v5,2020.2.10,MacIntel,60,61025ae37ef11b136ea224fe,,,,,,,,,1324,39,-64,1,0,0,response3disk,,4,-2,4,1,0,0,rectangle,-2,4,1,0,0,-2,4,1,0,0,1,75,235,152,1,,,,,,,,
,,,,,,,,,,,,,FF,,,,,,,,1.499,,,,,,,,,,,,,,,,,,,,,,610367ad785ce86ceb8d201c,61036aea4ea5c745f29813b6,2021-07-29_21h59.34.207,Simcolourproject_2stim_asymm_v5,2020.2.10,MacIntel,60,61025ae37ef11b136ea224fe,,,,,,,,,3840,90,-46,1,0,0,response3disk,,5,23,-15,1,0,0,rectangle,23,-15,1,0,0,23,-15,1,0,0,1,76,236,76,1,,,,,,,,
,,,,,,,,,,,,,FF,,,,,,,,1.266,,,,,,,,,,,,,,,,,,,,,,610367ad785ce86ceb8d201c,61036aea4ea5c745f29813b6,2021-07-29_21h59.34.207,Simcolourproject_2stim_asymm_v5,2020.2.10,MacIntel,60,61025ae37ef11b136ea224fe,,,,,,,,,1941,37,73,1,0,0,response1disk,,7,2,-9,1,0,0,rectangle,2,-9,1,0,0,2,-9,1,0,0,1,77,237,4,1,,,,,,,,
,,,,,,,,,,,,,FF,,,,,,,,1.882,,,,,,,,,,,,,,,,,,,,,,610367ad785ce86ceb8d201c,61036aea4ea5c745f29813b6,2021-07-29_21h59.34.207,Simcolourproject_2stim_asymm_v5,2020.2.10,MacIntel,60,61025ae37ef11b136ea224fe,,,,,,,,,3657,25,64,1,0,0,response1disk,,7,19,7,1,0,0,rectangle,19,7,1,0,0,19,7,1,0,0,1,78,238,149,1,,,,,,,,
,,,,,,,,,,,,,FF,,,,,,,,2.334,,,,,,,,,,,,,,,,,,,,,,610367ad785ce86ceb8d201c,61036aea4ea5c745f29813b6,2021-07-29_21h59.34.207,Simcolourproject_2stim_asymm_v5,2020.2.10,MacIntel,60,61025ae37ef11b136ea224fe,,,,,,,,,1355,82,-53,1,0,0,response3disk,,5,6,-9,1,0,0,rectangle,6,-9,1,0,0,6,-9,1,0,0,1,79,239,78,1,,,,,,,,
,,,,,,,,,,,,,FF,,,,,,,,1.05,,,,,,,,,,,,,,,,,,,,,,610367ad785ce86ceb8d201c,61036aea4ea5c745f29813b6,2021-07-29_21h59.34.207,Simcolourproject_2stim_asymm_v5,2020.2.10,MacIntel,60,61025ae37ef11b136ea224fe,,,,,,,,,1404,39,94,1,0,0,response1disk,,7,7,1,1,0,0,rectangle,7,1,1,0,0,7,1,1,0,0,1,80,240,54,1,,,,,,,,
,,,,,,,,,,,,,FF,,,,,,,,0.699,,,,,,,,,,,,,,,,,,,,,,610367ad785ce86ceb8d201c,61036aea4ea5c745f29813b6,2021-07-29_21h59.34.207,Simcolourproject_2stim_asymm_v5,2020.2.10,MacIntel,60,61025ae37ef11b136ea224fe,,,,,,,,,3375,-85,24,1,0,0,response7disk,,1,-8,5,1,0,0,rectangle,-8,5,1,0,0,-8,5,1,0,0,1,81,241,31,1,,,,,,,,
,,,,,,,,,,,,,FF,,,,,,,,0.749,,,,,,,,,,,,,,,,,,,,,,610367ad785ce86ceb8d201c,61036aea4ea5c745f29813b6,2021-07-29_21h59.34.207,Simcolourproject_2stim_asymm_v5,2020.2.10,MacIntel,60,61025ae37ef11b136ea224fe,,,,,,,,,2519,24,46,1,0,0,response1disk,,7,8,7,1,0,0,rectangle,8,7,1,0,0,8,7,1,0,0,1,82,242,27,1,,,,,,,,
,,,,,,,,,,,,,FF,,,,,,,,0.734,,,,,,,,,,,,,,,,,,,,,,610367ad785ce86ceb8d201c,61036aea4ea5c745f29813b6,2021-07-29_21h59.34.207,Simcolourproject_2stim_asymm_v5,2020.2.10,MacIntel,60,61025ae37ef11b136ea224fe,,,,,,,,,691,76,20,1,0,0,response1disk,,6,14,0,1,0,0,rectangle,14,0,1,0,0,14,0,1,0,0,1,83,243,108,1,,,,,,,,
,,,,,,,,,,,,,FF,,,,,,,,0.682,,,,,,,,,,,,,,,,,,,,,,610367ad785ce86ceb8d201c,61036aea4ea5c745f29813b6,2021-07-29_21h59.34.207,Simcolourproject_2stim_asymm_v5,2020.2.10,MacIntel,60,61025ae37ef11b136ea224fe,,,,,,,,,2668,-70,-43,1,0,0,response5disk,,2,21,-7,1,0,0,rectangle,21,-7,1,0,0,21,-7,1,0,0,1,84,244,23,1,,,,,,,,
,,,,,,,,,,,,,FF,,,,,,,,0.717,,,,,,,,,,,,,,,,,,,,,,610367ad785ce86ceb8d201c,61036aea4ea5c745f29813b6,2021-07-29_21h59.34.207,Simcolourproject_2stim_asymm_v5,2020.2.10,MacIntel,60,61025ae37ef11b136ea224fe,,,,,,,,,1411,46,71,1,0,0,response1disk,,7,7,3,1,0,0,rectangle,7,3,1,0,0,7,3,1,0,0,1,85,245,74,1,,,,,,,,
,,,,,,,,,,,,,FF,,,,,,,,0.583,,,,,,,,,,,,,,,,,,,,,,610367ad785ce86ceb8d201c,61036aea4ea5c745f29813b6,2021-07-29_21h59.34.207,Simcolourproject_2stim_asymm_v5,2020.2.10,MacIntel,60,61025ae37ef11b136ea224fe,,,,,,,,,756,30,56,1,0,0,response1disk,,7,5,-1,1,0,0,rectangle,5,-1,1,0,0,5,-1,1,0,0,1,86,246,98,1,,,,,,,,
,,,,,,,,,,,,,FF,,,,,,,,0.633,,,,,,,,,,,,,,,,,,,,,,610367ad785ce86ceb8d201c,61036aea4ea5c745f29813b6,2021-07-29_21h59.34.207,Simcolourproject_2stim_asymm_v5,2020.2.10,MacIntel,60,61025ae37ef11b136ea224fe,,,,,,,,,3587,-72,-39,1,0,0,response5disk,,2,-14,-10,1,0,0,rectangle,-14,-10,1,0,0,-14,-10,1,0,0,1,87,247,56,1,,,,,,,,
,,,,,,,,,,,,,FF,,,,,,,,0.783,,,,,,,,,,,,,,,,,,,,,,610367ad785ce86ceb8d201c,61036aea4ea5c745f29813b6,2021-07-29_21h59.34.207,Simcolourproject_2stim_asymm_v5,2020.2.10,MacIntel,60,61025ae37ef11b136ea224fe,,,,,,,,,2795,64,-36,1,0,0,response3disk,,5,10,-9,1,0,0,rectangle,10,-9,1,0,0,10,-9,1,0,0,1,88,248,34,1,,,,,,,,
,,,,,,,,,,,,,FF,,,,,,,,0.75,,,,,,,,,,,,,,,,,,,,,,610367ad785ce86ceb8d201c,61036aea4ea5c745f29813b6,2021-07-29_21h59.34.207,Simcolourproject_2stim_asymm_v5,2020.2.10,MacIntel,60,61025ae37ef11b136ea224fe,,,,,,,,,1676,-54,-79,1,0,0,response5disk,,3,-22,-6,1,0,0,rectangle,-22,-6,1,0,0,-22,-6,1,0,0,1,89,249,86,1,,,,,,,,
,,,,,,,,,,,,,FF,,,,,,,,0.617,,,,,,,,,,,,,,,,,,,,,,610367ad785ce86ceb8d201c,61036aea4ea5c745f29813b6,2021-07-29_21h59.34.207,Simcolourproject_2stim_asymm_v5,2020.2.10,MacIntel,60,61025ae37ef11b136ea224fe,,,,,,,,,2670,-66,-46,1,0,0,response5disk,,2,-10,-2,1,0,0,rectangle,-10,-2,1,0,0,-10,-2,1,0,0,1,90,250,124,1,,,,,,,,
,,,,,,,,,,,,,FF,,,,,,,,0.85,,,,,,,,,,,,,,,,,,,,,,610367ad785ce86ceb8d201c,61036aea4ea5c745f29813b6,2021-07-29_21h59.34.207,Simcolourproject_2stim_asymm_v5,2020.2.10,MacIntel,60,61025ae37ef11b136ea224fe,,,,,,,,,716,-40,95,1,0,0,response7disk,,0,-3,0,1,0,0,rectangle,-3,0,1,0,0,-3,0,1,0,0,1,91,251,144,1,,,,,,,,
,,,,,,,,,,,,,FF,,,,,,,,0.783,,,,,,,,,,,,,,,,,,,,,,610367ad785ce86ceb8d201c,61036aea4ea5c745f29813b6,2021-07-29_21h59.34.207,Simcolourproject_2stim_asymm_v5,2020.2.10,MacIntel,60,61025ae37ef11b136ea224fe,,,,,,,,,1753,-93,28,1,0,0,response7disk,,1,-2,6,1,0,0,rectangle,-43,-90,1,0,0,-10,-1,1,0,0,1,92,252,71,1,,response5disk_3,TRUE,3,3,"[184,140,10,258,192,54,147,258,121,26,182,15,24,253,180,167,288,191,121,94]",1.716,rectangle
,,,,,,,,,,,,,FF,,,,,,,,0.832,,,,,,,,,,,,,,,,,,,,,,610367ad785ce86ceb8d201c,61036aea4ea5c745f29813b6,2021-07-29_21h59.34.207,Simcolourproject_2stim_asymm_v5,2020.2.10,MacIntel,60,61025ae37ef11b136ea224fe,,,,,,,,,2619,72,35,1,0,0,response1disk,,6,6,2,1,0,0,rectangle,6,2,1,0,0,6,2,1,0,0,1,93,253,88,1,,,,,,,,
,,,,,,,,,,,,,FF,,,,,,,,0.468,,,,,,,,,,,,,,,,,,,,,,610367ad785ce86ceb8d201c,61036aea4ea5c745f29813b6,2021-07-29_21h59.34.207,Simcolourproject_2stim_asymm_v5,2020.2.10,MacIntel,60,61025ae37ef11b136ea224fe,,,,,,,,,1648,35,83,1,0,0,response1disk,,7,3,-8,1,0,0,rectangle,3,-8,1,0,0,3,-8,1,0,0,1,94,254,118,1,,,,,,,,
,,,,,,,,,,,,,FF,,,,,,,,0.849,,,,,,,,,,,,,,,,,,,,,,610367ad785ce86ceb8d201c,61036aea4ea5c745f29813b6,2021-07-29_21h59.34.207,Simcolourproject_2stim_asymm_v5,2020.2.10,MacIntel,60,61025ae37ef11b136ea224fe,,,,,,,,,2026,39,-96,1,0,0,response3disk,,4,15,-16,1,0,0,rectangle,15,-16,1,0,0,15,-16,1,0,0,1,95,255,10,1,,,,,,,,
,,,,,,,,,,,,,FF,,,,,,,,1.034,,,,,,,,,,,,,,,,,,,,,,610367ad785ce86ceb8d201c,61036aea4ea5c745f29813b6,2021-07-29_21h59.34.207,Simcolourproject_2stim_asymm_v5,2020.2.10,MacIntel,60,61025ae37ef11b136ea224fe,,,,,,,,,3163,-93,-31,1,0,0,response5disk,,2,5,11,1,0,0,rectangle,5,11,1,0,0,5,11,1,0,0,1,96,256,65,1,,,,,,,,
,,,,,,,,,,,,,FF,,,,,,,,0.616,,,,,,,,,,,,,,,,,,,,,,610367ad785ce86ceb8d201c,61036aea4ea5c745f29813b6,2021-07-29_21h59.34.207,Simcolourproject_2stim_asymm_v5,2020.2.10,MacIntel,60,61025ae37ef11b136ea224fe,,,,,,,,,2039,-48,-91,1,0,0,response5disk,,3,-15,-2,1,0,0,rectangle,-84,-36,1,0,0,-20,-8,1,0,0,1,97,257,150,1,,response5disk_3,TRUE,2,2,"[184,140,10,258,192,54,147,258,121,26,182,15,24,253,180,167,288,191,121,94]",1.183,rectangle
,,,,,,,,,,,,,FF,,,,,,,,0.85,,,,,,,,,,,,,,,,,,,,,,610367ad785ce86ceb8d201c,61036aea4ea5c745f29813b6,2021-07-29_21h59.34.207,Simcolourproject_2stim_asymm_v5,2020.2.10,MacIntel,60,61025ae37ef11b136ea224fe,,,,,,,,,3382,-73,44,1,0,0,response7disk,,1,-11,6,1,0,0,rectangle,-11,6,1,0,0,-11,6,1,0,0,1,98,258,29,1,,,,,,,,
,,,,,,,,,,,,,FF,,,,,,,,0.633,,,,,,,,,,,,,,,,,,,,,,610367ad785ce86ceb8d201c,61036aea4ea5c745f29813b6,2021-07-29_21h59.34.207,Simcolourproject_2stim_asymm_v5,2020.2.10,MacIntel,60,61025ae37ef11b136ea224fe,,,,,,,,,3867,36,59,1,0,0,response1disk,,7,6,-5,1,0,0,rectangle,6,-5,1,0,0,6,-5,1,0,0,1,99,259,3,1,,,,,,,,
,,,,,,,,,,,,,FF,,,,,,,,1.282,,,,,,,,,,,,,,,,,,,,,,610367ad785ce86ceb8d201c,61036aea4ea5c745f29813b6,2021-07-29_21h59.34.207,Simcolourproject_2stim_asymm_v5,2020.2.10,MacIntel,60,61025ae37ef11b136ea224fe,,,,,,,,,2906,51,-57,1,0,0,response3disk,,4,2,-6,1,0,0,rectangle,2,-6,1,0,0,2,-6,1,0,0,1,100,260,37,1,,,,,,,,
,,,,,,,,,,,,,FF,,,,,,,,1.332,,,,,,,,,,,,,,,,,,,,,,610367ad785ce86ceb8d201c,61036aea4ea5c745f29813b6,2021-07-29_21h59.34.207,Simcolourproject_2stim_asymm_v5,2020.2.10,MacIntel,60,61025ae37ef11b136ea224fe,,,,,,,,,834,35,64,1,0,0,response1disk,,7,9,13,1,0,0,rectangle,9,13,1,0,0,9,13,1,0,0,1,101,261,100,1,,,,,,,,
,,,,,,,,,,,,,FF,,,,,,,,0.818,,,,,,,,,,,,,,,,,,,,,,610367ad785ce86ceb8d201c,61036aea4ea5c745f29813b6,2021-07-29_21h59.34.207,Simcolourproject_2stim_asymm_v5,2020.2.10,MacIntel,60,61025ae37ef11b136ea224fe,,,,,,,,,3681,84,-33,1,0,0,response3disk,,5,13,-15,1,0,0,rectangle,13,-15,1,0,0,13,-15,1,0,0,1,102,262,8,1,,,,,,,,
,,,,,,,,,,,,,FF,,,,,,,,0.633,,,,,,,,,,,,,,,,,,,,,,610367ad785ce86ceb8d201c,61036aea4ea5c745f29813b6,2021-07-29_21h59.34.207,Simcolourproject_2stim_asymm_v5,2020.2.10,MacIntel,60,61025ae37ef11b136ea224fe,,,,,,,,,2872,76,24,1,0,0,response1disk,,6,17,8,1,0,0,rectangle,17,8,1,0,0,17,8,1,0,0,1,103,263,151,1,,,,,,,,
,,,,,,,,,,,,,FF,,,,,,,,1.084,,,,,,,,,,,,,,,,,,,,,,610367ad785ce86ceb8d201c,61036aea4ea5c745f29813b6,2021-07-29_21h59.34.207,Simcolourproject_2stim_asymm_v5,2020.2.10,MacIntel,60,61025ae37ef11b136ea224fe,,,,,,,,,3242,29,87,1,0,0,response1disk,,7,0,-5,1,0,0,rectangle,0,-5,1,0,0,0,-5,1,0,0,1,104,264,92,1,,,,,,,,
,,,,,,,,,,,,,FF,,,,,,,,0.567,,,,,,,,,,,,,,,,,,,,,,610367ad785ce86ceb8d201c,61036aea4ea5c745f29813b6,2021-07-29_21h59.34.207,Simcolourproject_2stim_asymm_v5,2020.2.10,MacIntel,60,61025ae37ef11b136ea224fe,,,,,,,,,1182,20,59,1,0,0,response1disk,,7,0,-4,1,0,0,rectangle,0,-4,1,0,0,0,-4,1,0,0,1,105,265,57,1,,,,,,,,
,,,,,,,,,,,,,FF,,,,,,,,0.55,,,,,,,,,,,,,,,,,,,,,,610367ad785ce86ceb8d201c,61036aea4ea5c745f29813b6,2021-07-29_21h59.34.207,Simcolourproject_2stim_asymm_v5,2020.2.10,MacIntel,60,61025ae37ef11b136ea224fe,,,,,,,,,3154,-60,-38,1,0,0,response5disk,,2,-1,-12,1,0,0,rectangle,-1,-12,1,0,0,-1,-12,1,0,0,1,106,266,45,1,,,,,,,,
,,,,,,,,,,,,,FF,,,,,,,,0.716,,,,,,,,,,,,,,,,,,,,,,610367ad785ce86ceb8d201c,61036aea4ea5c745f29813b6,2021-07-29_21h59.34.207,Simcolourproject_2stim_asymm_v5,2020.2.10,MacIntel,60,61025ae37ef11b136ea224fe,,,,,,,,,200,30,70,1,0,0,response1disk,,7,5,9,1,0,0,rectangle,5,9,1,0,0,5,9,1,0,0,1,107,267,142,1,,,,,,,,
,,,,,,,,,,,,,FF,,,,,,,,0.617,,,,,,,,,,,,,,,,,,,,,,610367ad785ce86ceb8d201c,61036aea4ea5c745f29813b6,2021-07-29_21h59.34.207,Simcolourproject_2stim_asymm_v5,2020.2.10,MacIntel,60,61025ae37ef11b136ea224fe,,,,,,,,,2945,-34,-66,1,0,0,response5disk,,3,-14,-14,1,0,0,rectangle,-14,-14,1,0,0,-14,-14,1,0,0,1,108,268,132,1,,,,,,,,
,,,,,,,,,,,,,FF,,,,,,,,0.632,,,,,,,,,,,,,,,,,,,,,,610367ad785ce86ceb8d201c,61036aea4ea5c745f29813b6,2021-07-29_21h59.34.207,Simcolourproject_2stim_asymm_v5,2020.2.10,MacIntel,60,61025ae37ef11b136ea224fe,,,,,,,,,3982,39,66,1,0,0,response1disk,,7,4,14,1,0,0,rectangle,4,14,1,0,0,4,14,1,0,0,1,109,269,115,1,,,,,,,,
,,,,,,,,,,,,,FF,,,,,,,,0.967,,,,,,,,,,,,,,,,,,,,,,610367ad785ce86ceb8d201c,61036aea4ea5c745f29813b6,2021-07-29_21h59.34.207,Simcolourproject_2stim_asymm_v5,2020.2.10,MacIntel,60,61025ae37ef11b136ea224fe,,,,,,,,,385,79,34,1,0,0,response1disk,,6,13,3,1,0,0,rectangle,13,3,1,0,0,13,3,1,0,0,1,110,270,77,1,,,,,,,,
,,,,,,,,,,,,,FF,,,,,,,,0.583,,,,,,,,,,,,,,,,,,,,,,610367ad785ce86ceb8d201c,61036aea4ea5c745f29813b6,2021-07-29_21h59.34.207,Simcolourproject_2stim_asymm_v5,2020.2.10,MacIntel,60,61025ae37ef11b136ea224fe,,,,,,,,,3918,61,50,1,0,0,response1disk,,6,-2,-1,1,0,0,rectangle,-2,-1,1,0,0,-2,-1,1,0,0,1,111,271,105,1,,,,,,,,
,,,,,,,,,,,,,FF,,,,,,,,0.482,,,,,,,,,,,,,,,,,,,,,,610367ad785ce86ceb8d201c,61036aea4ea5c745f29813b6,2021-07-29_21h59.34.207,Simcolourproject_2stim_asymm_v5,2020.2.10,MacIntel,60,61025ae37ef11b136ea224fe,,,,,,,,,1840,52,25,1,0,0,response1disk,,6,-4,-5,1,0,0,rectangle,-4,-5,1,0,0,-4,-5,1,0,0,1,112,272,15,1,,,,,,,,
,,,,,,,,,,,,,FF,,,,,,,,0.883,,,,,,,,,,,,,,,,,,,,,,610367ad785ce86ceb8d201c,61036aea4ea5c745f29813b6,2021-07-29_21h59.34.207,Simcolourproject_2stim_asymm_v5,2020.2.10,MacIntel,60,61025ae37ef11b136ea224fe,,,,,,,,,1970,-93,-71,1,0,0,response5disk,,2,-21,-17,1,0,0,rectangle,-21,-17,1,0,0,-21,-17,1,0,0,1,113,273,40,1,,,,,,,,
,,,,,,,,,,,,,FF,,,,,,,,0.583,,,,,,,,,,,,,,,,,,,,,,610367ad785ce86ceb8d201c,61036aea4ea5c745f29813b6,2021-07-29_21h59.34.207,Simcolourproject_2stim_asymm_v5,2020.2.10,MacIntel,60,61025ae37ef11b136ea224fe,,,,,,,,,3401,46,60,1,0,0,response1disk,,7,5,10,1,0,0,rectangle,5,10,1,0,0,5,10,1,0,0,1,114,274,0,1,,,,,,,,
,,,,,,,,,,,,,FF,,,,,,,,0.285,,,,,,,,,,,,,,,,,,,,,,610367ad785ce86ceb8d201c,61036aea4ea5c745f29813b6,2021-07-29_21h59.34.207,Simcolourproject_2stim_asymm_v5,2020.2.10,MacIntel,60,61025ae37ef11b136ea224fe,,,,,,,,,1656,40,72,1,0,0,response1disk,,7,6,5,1,0,0,rectangle,6,5,1,0,0,6,5,1,0,0,1,115,275,66,1,,,,,,,,
,,,,,,,,,,,,,FF,,,,,,,,0.351,,,,,,,,,,,,,,,,,,,,,,610367ad785ce86ceb8d201c,61036aea4ea5c745f29813b6,2021-07-29_21h59.34.207,Simcolourproject_2stim_asymm_v5,2020.2.10,MacIntel,60,61025ae37ef11b136ea224fe,,,,,,,,,1546,53,55,1,0,0,response1disk,,7,4,-2,1,0,0,rectangle,4,-2,1,0,0,4,-2,1,0,0,1,116,276,140,1,,,,,,,,
,,,,,,,,,,,,,FF,,,,,,,,0.334,,,,,,,,,,,,,,,,,,,,,,610367ad785ce86ceb8d201c,61036aea4ea5c745f29813b6,2021-07-29_21h59.34.207,Simcolourproject_2stim_asymm_v5,2020.2.10,MacIntel,60,61025ae37ef11b136ea224fe,,,,,,,,,1627,31,49,1,0,0,response1disk,,7,-7,-15,1,0,0,rectangle,-7,-15,1,0,0,-7,-15,1,0,0,1,117,277,130,1,,,,,,,,
,,,,,,,,,,,,,FF,,,,,,,,0.683,,,,,,,,,,,,,,,,,,,,,,610367ad785ce86ceb8d201c,61036aea4ea5c745f29813b6,2021-07-29_21h59.34.207,Simcolourproject_2stim_asymm_v5,2020.2.10,MacIntel,60,61025ae37ef11b136ea224fe,,,,,,,,,4227,65,-27,1,0,0,response3disk,,5,15,-1,1,0,0,rectangle,15,-1,1,0,0,15,-1,1,0,0,1,118,278,53,1,,,,,,,,
,,,,,,,,,,,,,FF,,,,,,,,0.55,,,,,,,,,,,,,,,,,,,,,,610367ad785ce86ceb8d201c,61036aea4ea5c745f29813b6,2021-07-29_21h59.34.207,Simcolourproject_2stim_asymm_v5,2020.2.10,MacIntel,60,61025ae37ef11b136ea224fe,,,,,,,,,1855,70,-30,1,0,0,response3disk,,5,5,-8,1,0,0,rectangle,5,-8,1,0,0,5,-8,1,0,0,1,119,279,6,1,,,,,,,,
,,,,,,,,,,,,,FF,,,,,,,,0.299,,,,,,,,,,,,,,,,,,,,,,610367ad785ce86ceb8d201c,61036aea4ea5c745f29813b6,2021-07-29_21h59.34.207,Simcolourproject_2stim_asymm_v5,2020.2.10,MacIntel,60,61025ae37ef11b136ea224fe,,,,,,,,,480,40,65,1,0,0,response1disk,,7,-1,-1,1,0,0,rectangle,-1,-1,1,0,0,-1,-1,1,0,0,1,120,280,158,1,,,,,,,,
,,,,,,,,,,,,,FF,,,,,,,,0.534,,,,,,,,,,,,,,,,,,,,,,610367ad785ce86ceb8d201c,61036aea4ea5c745f29813b6,2021-07-29_21h59.34.207,Simcolourproject_2stim_asymm_v5,2020.2.10,MacIntel,60,61025ae37ef11b136ea224fe,,,,,,,,,3758,26,58,1,0,0,response1disk,,7,10,15,1,0,0,rectangle,10,15,1,0,0,10,15,1,0,0,1,121,281,133,1,,,,,,,,
,,,,,,,,,,,,,FF,,,,,,,,0.316,,,,,,,,,,,,,,,,,,,,,,610367ad785ce86ceb8d201c,61036aea4ea5c745f29813b6,2021-07-29_21h59.34.207,Simcolourproject_2stim_asymm_v5,2020.2.10,MacIntel,60,61025ae37ef11b136ea224fe,,,,,,,,,2244,46,66,1,0,0,response1disk,,7,0,-9,1,0,0,rectangle,0,-9,1,0,0,0,-9,1,0,0,1,122,282,125,1,,,,,,,,
,,,,,,,,,,,,,FF,,,,,,,,0.416,,,,,,,,,,,,,,,,,,,,,,610367ad785ce86ceb8d201c,61036aea4ea5c745f29813b6,2021-07-29_21h59.34.207,Simcolourproject_2stim_asymm_v5,2020.2.10,MacIntel,60,61025ae37ef11b136ea224fe,,,,,,,,,3063,19,44,1,0,0,response1disk,,7,3,2,1,0,0,rectangle,3,2,1,0,0,3,2,1,0,0,1,123,283,70,1,,,,,,,,
,,,,,,,,,,,,,FF,,,,,,,,0.666,,,,,,,,,,,,,,,,,,,,,,610367ad785ce86ceb8d201c,61036aea4ea5c745f29813b6,2021-07-29_21h59.34.207,Simcolourproject_2stim_asymm_v5,2020.2.10,MacIntel,60,61025ae37ef11b136ea224fe,,,,,,,,,557,37,-70,1,0,0,response3disk,,4,-5,6,1,0,0,rectangle,-5,6,1,0,0,-5,6,1,0,0,1,124,284,55,1,,,,,,,,
,,,,,,,,,,,,,FF,,,,,,,,0.4,,,,,,,,,,,,,,,,,,,,,,610367ad785ce86ceb8d201c,61036aea4ea5c745f29813b6,2021-07-29_21h59.34.207,Simcolourproject_2stim_asymm_v5,2020.2.10,MacIntel,60,61025ae37ef11b136ea224fe,,,,,,,,,2030,58,-64,1,0,0,response3disk,,4,1,-15,1,0,0,rectangle,1,-15,1,0,0,1,-15,1,0,0,1,125,285,99,1,,,,,,,,
,,,,,,,,,,,,,FF,,,,,,,,0.983,,,,,,,,,,,,,,,,,,,,,,610367ad785ce86ceb8d201c,61036aea4ea5c745f29813b6,2021-07-29_21h59.34.207,Simcolourproject_2stim_asymm_v5,2020.2.10,MacIntel,60,61025ae37ef11b136ea224fe,,,,,,,,,1330,78,35,1,0,0,response1disk,,6,9,6,1,0,0,rectangle,9,6,1,0,0,9,6,1,0,0,1,126,286,60,1,,,,,,,,
,,,,,,,,,,,,,FF,,,,,,,,0.417,,,,,,,,,,,,,,,,,,,,,,610367ad785ce86ceb8d201c,61036aea4ea5c745f29813b6,2021-07-29_21h59.34.207,Simcolourproject_2stim_asymm_v5,2020.2.10,MacIntel,60,61025ae37ef11b136ea224fe,,,,,,,,,339,69,31,1,0,0,response1disk,,6,10,8,1,0,0,rectangle,50,-95,1,0,0,14,-10,1,0,0,1,127,287,63,1,,response3disk_3,TRUE,4,4,"[184,140,10,258,192,54,147,258,121,26,182,15,24,253,180,167,288,191,121,94]",1.784,rectangle
,,,,,,,,,,,,,FF,,,,,,,,0.834,,,,,,,,,,,,,,,,,,,,,,610367ad785ce86ceb8d201c,61036aea4ea5c745f29813b6,2021-07-29_21h59.34.207,Simcolourproject_2stim_asymm_v5,2020.2.10,MacIntel,60,61025ae37ef11b136ea224fe,,,,,,,,,754,83,-36,1,0,0,response3disk,,5,18,-2,1,0,0,rectangle,18,-2,1,0,0,18,-2,1,0,0,1,128,288,146,1,,,,,,,,
,,,,,,,,,,,,,FF,,,,,,,,0.566,,,,,,,,,,,,,,,,,,,,,,610367ad785ce86ceb8d201c,61036aea4ea5c745f29813b6,2021-07-29_21h59.34.207,Simcolourproject_2stim_asymm_v5,2020.2.10,MacIntel,60,61025ae37ef11b136ea224fe,,,,,,,,,3174,-44,-72,1,0,0,response5disk,,3,-2,7,1,0,0,rectangle,-2,7,1,0,0,-2,7,1,0,0,1,129,289,156,1,,,,,,,,
,,,,,,,,,,,,,FF,,,,,,,,0.618,,,,,,,,,,,,,,,,,,,,,,610367ad785ce86ceb8d201c,61036aea4ea5c745f29813b6,2021-07-29_21h59.34.207,Simcolourproject_2stim_asymm_v5,2020.2.10,MacIntel,60,61025ae37ef11b136ea224fe,,,,,,,,,2687,40,66,1,0,0,response1disk,,7,5,3,1,0,0,rectangle,5,3,1,0,0,5,3,1,0,0,1,130,290,75,1,,,,,,,,
,,,,,,,,,,,,,FF,,,,,,,,0.383,,,,,,,,,,,,,,,,,,,,,,610367ad785ce86ceb8d201c,61036aea4ea5c745f29813b6,2021-07-29_21h59.34.207,Simcolourproject_2stim_asymm_v5,2020.2.10,MacIntel,60,61025ae37ef11b136ea224fe,,,,,,,,,1914,32,50,1,0,0,response1disk,,7,4,0,1,0,0,rectangle,4,0,1,0,0,4,0,1,0,0,1,131,291,13,1,,,,,,,,
,,,,,,,,,,,,,FF,,,,,,,,0.649,,,,,,,,,,,,,,,,,,,,,,610367ad785ce86ceb8d201c,61036aea4ea5c745f29813b6,2021-07-29_21h59.34.207,Simcolourproject_2stim_asymm_v5,2020.2.10,MacIntel,60,61025ae37ef11b136ea224fe,,,,,,,,,1388,62,-22,1,0,0,response3disk,,5,10,-6,1,0,0,rectangle,10,-6,1,0,0,10,-6,1,0,0,1,132,292,93,1,,,,,,,,
,,,,,,,,,,,,,FF,,,,,,,,0.617,,,,,,,,,,,,,,,,,,,,,,610367ad785ce86ceb8d201c,61036aea4ea5c745f29813b6,2021-07-29_21h59.34.207,Simcolourproject_2stim_asymm_v5,2020.2.10,MacIntel,60,61025ae37ef11b136ea224fe,,,,,,,,,3356,67,29,1,0,0,response1disk,,6,11,1,1,0,0,rectangle,11,1,1,0,0,11,1,1,0,0,1,133,293,104,1,,,,,,,,
,,,,,,,,,,,,,FF,,,,,,,,0.55,,,,,,,,,,,,,,,,,,,,,,610367ad785ce86ceb8d201c,61036aea4ea5c745f29813b6,2021-07-29_21h59.34.207,Simcolourproject_2stim_asymm_v5,2020.2.10,MacIntel,60,61025ae37ef11b136ea224fe,,,,,,,,,3954,30,45,1,0,0,response1disk,,7,5,4,1,0,0,rectangle,5,4,1,0,0,5,4,1,0,0,1,134,294,110,1,,,,,,,,
,,,,,,,,,,,,,FF,,,,,,,,0.816,,,,,,,,,,,,,,,,,,,,,,610367ad785ce86ceb8d201c,61036aea4ea5c745f29813b6,2021-07-29_21h59.34.207,Simcolourproject_2stim_asymm_v5,2020.2.10,MacIntel,60,61025ae37ef11b136ea224fe,,,,,,,,,264,-50,-58,1,0,0,response5disk,,3,-2,7,1,0,0,rectangle,-2,7,1,0,0,-2,7,1,0,0,1,135,295,139,1,,,,,,,,
,,,,,,,,,,,,,FF,,,,,,,,0.75,,,,,,,,,,,,,,,,,,,,,,610367ad785ce86ceb8d201c,61036aea4ea5c745f29813b6,2021-07-29_21h59.34.207,Simcolourproject_2stim_asymm_v5,2020.2.10,MacIntel,60,61025ae37ef11b136ea224fe,,,,,,,,,3448,42,-65,1,0,0,response3disk,,4,-1,-1,1,0,0,rectangle,-1,-1,1,0,0,-1,-1,1,0,0,1,136,296,134,1,,,,,,,,
,,,,,,,,,,,,,FF,,,,,,,,0.917,,,,,,,,,,,,,,,,,,,,,,610367ad785ce86ceb8d201c,61036aea4ea5c745f29813b6,2021-07-29_21h59.34.207,Simcolourproject_2stim_asymm_v5,2020.2.10,MacIntel,60,61025ae37ef11b136ea224fe,,,,,,,,,2214,34,63,1,0,0,response1disk,,7,4,3,1,0,0,rectangle,4,3,1,0,0,4,3,1,0,0,1,137,297,25,1,,,,,,,,
,,,,,,,,,,,,,FF,,,,,,,,1.05,,,,,,,,,,,,,,,,,,,,,,610367ad785ce86ceb8d201c,61036aea4ea5c745f29813b6,2021-07-29_21h59.34.207,Simcolourproject_2stim_asymm_v5,2020.2.10,MacIntel,60,61025ae37ef11b136ea224fe,,,,,,,,,2488,-92,-58,1,0,0,response5disk,,2,-8,-8,1,0,0,rectangle,-8,-8,1,0,0,-8,-8,1,0,0,1,138,298,73,1,,,,,,,,
,,,,,,,,,,,,,FF,,,,,,,,0.7,,,,,,,,,,,,,,,,,,,,,,610367ad785ce86ceb8d201c,61036aea4ea5c745f29813b6,2021-07-29_21h59.34.207,Simcolourproject_2stim_asymm_v5,2020.2.10,MacIntel,60,61025ae37ef11b136ea224fe,,,,,,,,,4248,-59,-32,1,0,0,response5disk,,2,-13,-4,1,0,0,rectangle,-13,-4,1,0,0,-13,-4,1,0,0,1,139,299,44,1,,,,,,,,
,,,,,,,,,,,,,FF,,,,,,,,0.549,,,,,,,,,,,,,,,,,,,,,,610367ad785ce86ceb8d201c,61036aea4ea5c745f29813b6,2021-07-29_21h59.34.207,Simcolourproject_2stim_asymm_v5,2020.2.10,MacIntel,60,61025ae37ef11b136ea224fe,,,,,,,,,2507,34,76,1,0,0,response1disk,,7,9,9,1,0,0,rectangle,9,9,1,0,0,9,9,1,0,0,1,140,300,48,1,,,,,,,,
